inst1_resp.keys,inst1_resp.rt,calibrationMouse.x,calibrationMouse.y,calibrationMouse.leftButton,calibrationMouse.midButton,calibrationMouse.rightButton,calibrationClick.x,calibrationClick.y,calibrationClick.leftButton,calibrationClick.midButton,calibrationClick.rightButton,trialsc.thisRepN,trialsc.thisTrialN,trialsc.thisN,trialsc.thisIndex,trialsc.ran,calibration_x,calibration_y,participant,session,date,expName,psychopyVersion,OS,frameRate,calibrationClick.clicked_name,ScreenRes_pixels,Camera_pixels,mouse_2.x,mouse_2.y,mouse_2.leftButton,mouse_2.midButton,mouse_2.rightButton,mouse_2.time,mouse_2.clicked_name,mouse.x,mouse.y,mouse.leftButton,mouse.midButton,mouse.rightButton,mouse.time,mouse.clicked_name,Choice,Trial,TrialDuration,MOUSE_GAZE,ET_GAZE,ET_GAZE_x_T,time,unixTime,ET_GAZE_NF,Loc_Bus_label,Loc_Metro_label,Loc_RH_label,Loc_Cost_label,Loc_Travel_label,Loc_Comfort_label,Loc_Bus_cost,Loc_Metro_cost,Loc_RH_cost,Loc_Bus_travel,Loc_Metro_travel,Loc_RH_travel,Loc_Bus_comfort,Loc_Metro_comfort,Loc_RH_comfort,trials.thisRepN,trials.thisTrialN,trials.thisN,trials.thisIndex,trials.ran,Block,Device,RH_cost,RH_travel_time,RH_Comfort,metro_cost,metro_travel_time,metro_Comfort,Bus_cost,Bus_travel_time,Bus_Comfort
space,2.6604,-0.138541667,0.655555556,1,0,0,0.004166667,0.690740741,1,0,0,0,0,0,13,1,0,0.67,41,001,2024-11-26_10h27.30.044,Attention_exp_legacy,2023.1.0,Win32,60.24096386,,,,,,,,,,,,,,,,,,,,,,,,,,,,,,,,,,,,,,,,,,,,,,,,,,,,,,,,,
,,,,,,,0.322916667,0.675925926,1,0,0,0,1,1,18,1,0.33,0.67,41,001,2024-11-26_10h27.30.044,Attention_exp_legacy,2023.1.0,Win32,60.24096386,calibration_square,,,,,,,,,,,,,,,,,,,,,,,,,,,,,,,,,,,,,,,,,,,,,,,,,,,,,,,,
,,,,,,,0.002083333,0.338888889,1,0,0,0,2,2,12,1,0,0.33,41,001,2024-11-26_10h27.30.044,Attention_exp_legacy,2023.1.0,Win32,60.24096386,calibration_square,,,,,,,,,,,,,,,,,,,,,,,,,,,,,,,,,,,,,,,,,,,,,,,,,,,,,,,,
,,,,,,,-0.66875,-0.009259259,1,0,0,0,3,3,2,1,-0.67,0,41,001,2024-11-26_10h27.30.044,Attention_exp_legacy,2023.1.0,Win32,60.24096386,calibration_square,,,,,,,,,,,,,,,,,,,,,,,,,,,,,,,,,,,,,,,,,,,,,,,,,,,,,,,,
,,,,,,,0.667708333,-0.642592593,1,0,0,0,4,4,20,1,0.67,-0.67,41,001,2024-11-26_10h27.30.044,Attention_exp_legacy,2023.1.0,Win32,60.24096386,,,,,,,,,,,,,,,,,,,,,,,,,,,,,,,,,,,,,,,,,,,,,,,,,,,,,,,,,
,,,,,,,0.325,0.32962963,1,0,0,0,5,5,17,1,0.33,0.33,41,001,2024-11-26_10h27.30.044,Attention_exp_legacy,2023.1.0,Win32,60.24096386,calibration_square,,,,,,,,,,,,,,,,,,,,,,,,,,,,,,,,,,,,,,,,,,,,,,,,,,,,,,,,
,,,,,,,-0.322916667,0.681481481,1,0,0,0,6,6,8,1,-0.33,0.67,41,001,2024-11-26_10h27.30.044,Attention_exp_legacy,2023.1.0,Win32,60.24096386,,,,,,,,,,,,,,,,,,,,,,,,,,,,,,,,,,,,,,,,,,,,,,,,,,,,,,,,,
,,,,,,,-0.659375,-0.668518519,1,0,0,0,7,7,0,1,-0.67,-0.67,41,001,2024-11-26_10h27.30.044,Attention_exp_legacy,2023.1.0,Win32,60.24096386,,,,,,,,,,,,,,,,,,,,,,,,,,,,,,,,,,,,,,,,,,,,,,,,,,,,,,,,,
,,,,,,,-0.332291667,0.003703704,1,0,0,0,8,8,6,1,-0.33,0,41,001,2024-11-26_10h27.30.044,Attention_exp_legacy,2023.1.0,Win32,60.24096386,calibration_square,,,,,,,,,,,,,,,,,,,,,,,,,,,,,,,,,,,,,,,,,,,,,,,,,,,,,,,,
,,,,,,,-0.009375,-0.661111111,1,0,0,0,9,9,9,1,0,-0.67,41,001,2024-11-26_10h27.30.044,Attention_exp_legacy,2023.1.0,Win32,60.24096386,calibration_square,,,,,,,,,,,,,,,,,,,,,,,,,,,,,,,,,,,,,,,,,,,,,,,,,,,,,,,,
,,,,,,,-0.33125,-0.342592593,1,0,0,0,10,10,5,1,-0.33,-0.33,41,001,2024-11-26_10h27.30.044,Attention_exp_legacy,2023.1.0,Win32,60.24096386,,,,,,,,,,,,,,,,,,,,,,,,,,,,,,,,,,,,,,,,,,,,,,,,,,,,,,,,,
,,,,,,,0.673958333,0.67037037,1,0,0,0,11,11,19,1,0.67,0.67,41,001,2024-11-26_10h27.30.044,Attention_exp_legacy,2023.1.0,Win32,60.24096386,calibration_square,,,,,,,,,,,,,,,,,,,,,,,,,,,,,,,,,,,,,,,,,,,,,,,,,,,,,,,,
,,,,,,,0.328125,-0.003703704,1,0,0,0,12,12,16,1,0.33,0,41,001,2024-11-26_10h27.30.044,Attention_exp_legacy,2023.1.0,Win32,60.24096386,calibration_square,,,,,,,,,,,,,,,,,,,,,,,,,,,,,,,,,,,,,,,,,,,,,,,,,,,,,,,,
,,,,,,,-0.323958333,-0.659259259,1,0,0,0,13,13,4,1,-0.33,-0.67,41,001,2024-11-26_10h27.30.044,Attention_exp_legacy,2023.1.0,Win32,60.24096386,,,,,,,,,,,,,,,,,,,,,,,,,,,,,,,,,,,,,,,,,,,,,,,,,,,,,,,,,
,,,,,,,-0.011458333,-0.322222222,1,0,0,0,14,14,10,1,0,-0.33,41,001,2024-11-26_10h27.30.044,Attention_exp_legacy,2023.1.0,Win32,60.24096386,,,,,,,,,,,,,,,,,,,,,,,,,,,,,,,,,,,,,,,,,,,,,,,,,,,,,,,,,
,,,,,,,-0.323958333,0.327777778,1,0,0,0,15,15,7,1,-0.33,0.33,41,001,2024-11-26_10h27.30.044,Attention_exp_legacy,2023.1.0,Win32,60.24096386,calibration_square,,,,,,,,,,,,,,,,,,,,,,,,,,,,,,,,,,,,,,,,,,,,,,,,,,,,,,,,
,,,,,,,-0.667708333,0.327777778,1,0,0,0,16,16,3,1,-0.67,0.33,41,001,2024-11-26_10h27.30.044,Attention_exp_legacy,2023.1.0,Win32,60.24096386,calibration_square,,,,,,,,,,,,,,,,,,,,,,,,,,,,,,,,,,,,,,,,,,,,,,,,,,,,,,,,
,,,,,,,0.321875,-0.67037037,1,0,0,0,17,17,14,1,0.33,-0.67,41,001,2024-11-26_10h27.30.044,Attention_exp_legacy,2023.1.0,Win32,60.24096386,calibration_square,,,,,,,,,,,,,,,,,,,,,,,,,,,,,,,,,,,,,,,,,,,,,,,,,,,,,,,,
,,,,,,,-0.665625,-0.331481481,1,0,0,0,18,18,1,1,-0.67,-0.33,41,001,2024-11-26_10h27.30.044,Attention_exp_legacy,2023.1.0,Win32,60.24096386,calibration_square,,,,,,,,,,,,,,,,,,,,,,,,,,,,,,,,,,,,,,,,,,,,,,,,,,,,,,,,
,,,,,,,0.005208333,-0.001851852,1,0,0,0,19,19,11,1,0,0,41,001,2024-11-26_10h27.30.044,Attention_exp_legacy,2023.1.0,Win32,60.24096386,calibration_square,,,,,,,,,,,,,,,,,,,,,,,,,,,,,,,,,,,,,,,,,,,,,,,,,,,,,,,,
,,,,,,,0.333333333,-0.333333333,1,0,0,0,20,20,15,1,0.33,-0.33,41,001,2024-11-26_10h27.30.044,Attention_exp_legacy,2023.1.0,Win32,60.24096386,calibration_square,,,,,,,,,,,,,,,,,,,,,,,,,,,,,,,,,,,,,,,,,,,,,,,,,,,,,,,,
,,,,,,,,,,,,,,,,,,,41,001,2024-11-26_10h27.30.044,Attention_exp_legacy,2023.1.0,Win32,60.24096386,,"[1920,1080]","[640,480]",[0.05416666666666667],[-0.5203703703703704],[1],[0],[0],[2.275899999998515],"[""StartButton""]",[0.6354166666666666],[0.6055555555555555],[1],[0],[0],[4.262699999995533],"[""RH_label""]",RH_label,1,5.2763,"[[0.06666666666666667,0.2814814814814815],[0.06666666666666667,0.2814814814814815],[0.06666666666666667,0.2814814814814815],[0.06666666666666667,0.2814814814814815],[0.06666666666666667,0.2814814814814815],[0.06666666666666667,0.2814814814814815],[0.06666666666666667,0.2814814814814815],[0.06666666666666667,0.2814814814814815],[0.06666666666666667,0.2814814814814815],[0.06666666666666667,0.2833333333333333],[0.06666666666666667,0.2833333333333333],[0.06770833333333333,0.2833333333333333],[0.06875,0.2833333333333333],[0.06875,0.2833333333333333],[0.06979166666666667,0.2851851851851852],[0.06979166666666667,0.2851851851851852],[0.06979166666666667,0.2851851851851852],[0.06979166666666667,0.2851851851851852],[0.06979166666666667,0.2851851851851852],[0.06979166666666667,0.2851851851851852],[0.06979166666666667,0.2851851851851852],[0.06979166666666667,0.2851851851851852],[0.06979166666666667,0.2851851851851852],[0.06979166666666667,0.2851851851851852],[0.06979166666666667,0.2851851851851852],[0.06979166666666667,0.2851851851851852],[0.06979166666666667,0.2851851851851852],[0.06979166666666667,0.2851851851851852],[0.06979166666666667,0.2851851851851852],[0.06979166666666667,0.2851851851851852],[0.06979166666666667,0.2851851851851852],[0.06979166666666667,0.2851851851851852],[0.06979166666666667,0.2851851851851852],[0.06979166666666667,0.2851851851851852],[0.06979166666666667,0.2851851851851852],[0.06979166666666667,0.2851851851851852],[0.06979166666666667,0.2851851851851852],[0.06979166666666667,0.2851851851851852],[0.06979166666666667,0.2851851851851852],[0.06979166666666667,0.2851851851851852],[0.06979166666666667,0.2851851851851852],[0.06979166666666667,0.2851851851851852],[0.06979166666666667,0.2851851851851852],[0.06979166666666667,0.2851851851851852],[0.06979166666666667,0.2851851851851852],[0.06979166666666667,0.2851851851851852],[0.06979166666666667,0.2851851851851852],[0.06979166666666667,0.2851851851851852],[0.06979166666666667,0.2851851851851852],[0.06979166666666667,0.2851851851851852],[0.06979166666666667,0.2851851851851852],[0.06979166666666667,0.2851851851851852],[0.06979166666666667,0.2851851851851852],[0.06979166666666667,0.2851851851851852],[0.06979166666666667,0.2851851851851852],[0.06979166666666667,0.2851851851851852],[0.06979166666666667,0.2851851851851852],[0.06979166666666667,0.2851851851851852],[0.06979166666666667,0.2851851851851852],[0.06979166666666667,0.2851851851851852],[0.06979166666666667,0.2851851851851852],[0.06979166666666667,0.2851851851851852],[0.06979166666666667,0.2851851851851852],[0.06979166666666667,0.2851851851851852],[0.06979166666666667,0.2851851851851852],[0.06979166666666667,0.2851851851851852],[0.06979166666666667,0.2851851851851852],[0.06979166666666667,0.2851851851851852],[0.06979166666666667,0.2851851851851852],[0.06979166666666667,0.2851851851851852],[0.06979166666666667,0.2851851851851852],[0.06979166666666667,0.2851851851851852],[0.06979166666666667,0.2851851851851852],[0.06979166666666667,0.2851851851851852],[0.06979166666666667,0.2851851851851852],[0.06979166666666667,0.2851851851851852],[0.06979166666666667,0.2851851851851852],[0.06979166666666667,0.2851851851851852],[0.06979166666666667,0.2851851851851852],[0.06979166666666667,0.2851851851851852],[0.06979166666666667,0.2851851851851852],[0.06979166666666667,0.2851851851851852],[0.06979166666666667,0.2851851851851852],[0.06979166666666667,0.2851851851851852],[0.06979166666666667,0.2851851851851852],[0.06979166666666667,0.2851851851851852],[0.06979166666666667,0.2851851851851852],[0.06979166666666667,0.2851851851851852],[0.06979166666666667,0.2851851851851852],[0.06979166666666667,0.2851851851851852],[0.06979166666666667,0.2851851851851852],[0.06979166666666667,0.2851851851851852],[0.06979166666666667,0.2851851851851852],[0.06979166666666667,0.2851851851851852],[0.06979166666666667,0.2851851851851852],[0.06979166666666667,0.2851851851851852],[0.06979166666666667,0.2851851851851852],[0.06979166666666667,0.2851851851851852],[0.06979166666666667,0.2851851851851852],[0.06979166666666667,0.2851851851851852],[0.06979166666666667,0.2851851851851852],[0.06979166666666667,0.2851851851851852],[0.06979166666666667,0.2851851851851852],[0.06979166666666667,0.2851851851851852],[0.06979166666666667,0.2851851851851852],[0.06979166666666667,0.2851851851851852],[0.06979166666666667,0.2851851851851852],[0.06979166666666667,0.2851851851851852],[0.06979166666666667,0.2851851851851852],[0.06979166666666667,0.2851851851851852],[0.06979166666666667,0.2851851851851852],[0.06979166666666667,0.28703703703703703],[0.06979166666666667,0.28703703703703703],[0.06979166666666667,0.28703703703703703],[0.06979166666666667,0.28703703703703703],[0.06979166666666667,0.28703703703703703],[0.06979166666666667,0.28703703703703703],[0.06979166666666667,0.28703703703703703],[0.06979166666666667,0.28703703703703703],[0.06979166666666667,0.28703703703703703],[0.06979166666666667,0.28703703703703703],[0.06979166666666667,0.28703703703703703],[0.06979166666666667,0.28703703703703703],[0.06979166666666667,0.28703703703703703],[0.06979166666666667,0.28703703703703703],[0.06979166666666667,0.28703703703703703],[0.06979166666666667,0.28703703703703703],[0.06979166666666667,0.28703703703703703],[0.06979166666666667,0.28703703703703703],[0.06979166666666667,0.28703703703703703],[0.06979166666666667,0.28703703703703703],[0.06979166666666667,0.28703703703703703],[0.06979166666666667,0.28703703703703703],[0.06979166666666667,0.28703703703703703],[0.06979166666666667,0.28703703703703703],[0.06979166666666667,0.28703703703703703],[0.06979166666666667,0.28703703703703703],[0.06979166666666667,0.28703703703703703],[0.06979166666666667,0.28703703703703703],[0.06979166666666667,0.28703703703703703],[0.06979166666666667,0.28703703703703703],[0.06979166666666667,0.28703703703703703],[0.06979166666666667,0.28703703703703703],[0.06979166666666667,0.28703703703703703],[0.06979166666666667,0.28703703703703703],[0.06979166666666667,0.28703703703703703],[0.06979166666666667,0.28703703703703703],[0.06979166666666667,0.28703703703703703],[0.06979166666666667,0.28703703703703703],[0.06979166666666667,0.28703703703703703],[0.06979166666666667,0.28703703703703703],[0.06979166666666667,0.28703703703703703],[0.06979166666666667,0.28703703703703703],[0.06979166666666667,0.28703703703703703],[0.06979166666666667,0.28703703703703703],[0.06979166666666667,0.28703703703703703],[0.06979166666666667,0.28703703703703703],[0.06979166666666667,0.28703703703703703],[0.06979166666666667,0.28703703703703703],[0.06979166666666667,0.28703703703703703],[0.06979166666666667,0.28703703703703703],[0.06979166666666667,0.28703703703703703],[0.06979166666666667,0.28703703703703703],[0.06979166666666667,0.28703703703703703],[0.06979166666666667,0.28703703703703703],[0.06979166666666667,0.28703703703703703],[0.06979166666666667,0.28703703703703703],[0.06979166666666667,0.28703703703703703],[0.06979166666666667,0.28703703703703703],[0.06979166666666667,0.28703703703703703],[0.06979166666666667,0.28703703703703703],[0.06979166666666667,0.28703703703703703],[0.06979166666666667,0.28703703703703703],[0.06979166666666667,0.28703703703703703],[0.06979166666666667,0.28703703703703703],[0.06979166666666667,0.28703703703703703],[0.06979166666666667,0.28703703703703703],[0.06979166666666667,0.28703703703703703],[0.06979166666666667,0.28703703703703703],[0.06979166666666667,0.28703703703703703],[0.06979166666666667,0.28703703703703703],[0.06979166666666667,0.28703703703703703],[0.06979166666666667,0.28703703703703703],[0.06979166666666667,0.28703703703703703],[0.06979166666666667,0.28703703703703703],[0.06979166666666667,0.28703703703703703],[0.06979166666666667,0.28703703703703703],[0.06979166666666667,0.28703703703703703],[0.06979166666666667,0.28703703703703703],[0.06979166666666667,0.28703703703703703],[0.06979166666666667,0.28703703703703703],[0.06979166666666667,0.28703703703703703],[0.06979166666666667,0.28703703703703703],[0.07083333333333333,0.28703703703703703],[0.07083333333333333,0.28703703703703703],[0.08125,0.3037037037037037],[0.09895833333333333,0.32222222222222224],[0.128125,0.35185185185185186],[0.178125,0.40370370370370373],[0.24166666666666667,0.4685185185185185],[0.31354166666666666,0.5388888888888889],[0.396875,0.6222222222222222],[0.475,0.7055555555555556],[0.54375,0.7944444444444444],[0.6197916666666666,0.9018518518518519],[0.6614583333333334,0.9685185185185186],[0.6739583333333333,0.9851851851851852],[0.6739583333333333,0.9851851851851852],[0.6739583333333333,0.9851851851851852],[0.6739583333333333,0.9851851851851852],[0.6739583333333333,0.9851851851851852],[0.6739583333333333,0.9851851851851852],[0.6739583333333333,0.9851851851851852],[0.6739583333333333,0.9851851851851852],[0.6739583333333333,0.9851851851851852],[0.6739583333333333,0.9851851851851852],[0.6739583333333333,0.9851851851851852],[0.6739583333333333,0.9851851851851852],[0.6739583333333333,0.9851851851851852],[0.7010416666666667,0.9888888888888889],[0.69375,0.9648148148148148],[0.684375,0.9351851851851852],[0.6729166666666667,0.8981481481481481],[0.6614583333333334,0.8592592592592593],[0.65,0.8037037037037037],[0.6479166666666667,0.7907407407407407],[0.64375,0.7574074074074074],[0.6427083333333333,0.7537037037037037],[0.6427083333333333,0.75],[0.6427083333333333,0.75],[0.6427083333333333,0.75],[0.6427083333333333,0.75],[0.6427083333333333,0.75],[0.6427083333333333,0.75],[0.6427083333333333,0.75],[0.6427083333333333,0.75],[0.6427083333333333,0.75],[0.6427083333333333,0.75],[0.6427083333333333,0.75],[0.6427083333333333,0.75],[0.6427083333333333,0.75],[0.6427083333333333,0.75],[0.6427083333333333,0.7481481481481481],[0.6416666666666667,0.7314814814814815],[0.6395833333333333,0.7129629629629629],[0.6375,0.6907407407407408],[0.634375,0.6666666666666666],[0.634375,0.6425925925925926],[0.634375,0.6240740740740741],[0.634375,0.6111111111111112],[0.634375,0.6074074074074074],[0.634375,0.6074074074074074],[0.634375,0.6074074074074074],[0.634375,0.6074074074074074],[0.634375,0.6074074074074074],[0.6354166666666666,0.6055555555555555],[0.6364583333333333,0.6055555555555555],[0.6375,0.6037037037037037],[0.6385416666666667,0.6037037037037037],[0.6385416666666667,0.6037037037037037],[0.6385416666666667,0.6037037037037037],[0.640625,0.6],[0.640625,0.6],[0.640625,0.6],[0.640625,0.6],[0.640625,0.6],[0.640625,0.6],[0.640625,0.6],[0.640625,0.6],[0.640625,0.6],[0.640625,0.6],[0.640625,0.6],[0.640625,0.6],[0.640625,0.6],[0.640625,0.6],[0.640625,0.6],[0.640625,0.6],[0.640625,0.6],[0.640625,0.6],[0.640625,0.6],[0.6395833333333333,0.6],[0.6375,0.6],[0.6375,0.6],[0.6364583333333333,0.6],[0.6364583333333333,0.5981481481481481],[0.6354166666666666,0.5981481481481481],[0.6354166666666666,0.5981481481481481],[0.6354166666666666,0.5981481481481481],[0.634375,0.5962962962962963],[0.634375,0.5962962962962963],[0.634375,0.5962962962962963],[0.634375,0.5962962962962963],[0.634375,0.5962962962962963],[0.634375,0.5962962962962963],[0.634375,0.5944444444444444],[0.634375,0.5944444444444444],[0.634375,0.5907407407407408],[0.634375,0.5907407407407408],[0.6333333333333333,0.587037037037037],[0.6260416666666667,0.575925925925926],[0.6166666666666667,0.562962962962963],[0.60625,0.55],[0.6010416666666667,0.5370370370370371],[0.596875,0.5259259259259259],[0.5927083333333333,0.5185185185185185],[0.5885416666666666,0.5092592592592593],[0.584375,0.5018518518518519],[0.5791666666666667,0.4962962962962963],[0.575,0.49074074074074076],[0.5739583333333333,0.49074074074074076],[0.5739583333333333,0.4888888888888889],[0.571875,0.4888888888888889],[0.571875,0.4888888888888889],[0.571875,0.4888888888888889],[0.571875,0.4888888888888889],[0.5708333333333333,0.4888888888888889]]","[[0.1502083333333334,-0.40796296296296297],[0.1502083333333334,-0.40796296296296297],[0.1632291666666667,-0.39537037037037037],[0.15114583333333323,-0.4316666666666667],[0.1716666666666666,-0.43037037037037035],[0.1805208333333333,-0.4353703703703704],[0.1564583333333334,-0.43277777777777776],[0.1564583333333334,-0.43277777777777776],[0.14416666666666675,-0.4655555555555555],[0.10989583333333333,-0.5309259259259259],[0.10989583333333333,-0.5309259259259259],[0.09520833333333342,-0.4994444444444444],[0.09520833333333342,-0.4994444444444444],[0.09854166666666657,-0.475],[0.10854166666666672,-0.4412962962962963],[0.10854166666666672,-0.4412962962962963],[0.1015625,-0.4346296296296296],[0.10072916666666672,-0.3622222222222223],[0.09500000000000004,-0.31574074074074077],[0.07416666666666671,-0.29888888888888887],[0.10906250000000005,-0.24981481481481477],[0.10906250000000005,-0.24981481481481477],[0.1546875,-0.1955555555555556],[0.20614583333333342,-0.1037037037037037],[0.24520833333333342,-0.0772222222222222],[0.26624999999999993,-0.043703703703703745],[0.26624999999999993,-0.043703703703703745],[0.29322916666666665,-0.07833333333333335],[0.30572916666666666,-0.0492592592592593],[0.32020833333333343,-0.03944444444444436],[0.3238541666666668,-0.06796296296296295],[0.3238541666666668,-0.06796296296296295],[0.34052083333333344,-0.03796296296296296],[0.34791666666666665,-0.0977777777777778],[0.3433333333333332,-0.0705555555555556],[0.35177083333333337,-0.07666666666666662],[0.33562500000000006,-0.09759259259259258],[0.3232291666666666,-0.12296296296296293],[0.3003124999999999,-0.11462962962962958],[0.31927083333333334,-0.12240740740740745],[0.3220833333333334,-0.12981481481481486],[0.3220833333333334,-0.12981481481481486],[0.3233333333333334,-0.09981481481481477],[0.3515625,-0.09037037037037039],[0.36208333333333326,-0.01574074074074074],[0.3792708333333332,-0.03333333333333333],[0.3792708333333332,-0.03333333333333333],[0.3776041666666667,-0.050370370370370454],[0.39208333333333345,-0.058333333333333334],[0.40958333333333335,-0.040740740740740744],[0.4239583333333333,-0.04462962962962967],[0.43468749999999995,-0.0801851851851852],[0.45208333333333334,-0.10648148148148148],[0.4982291666666666,-0.12444444444444443],[0.5126041666666665,-0.14740740740740746],[0.5269791666666668,-0.17037037037037037],[0.478125,-0.24222222222222226],[0.4366666666666667,-0.28296296296296297],[0.39645833333333325,-0.3122222222222223],[0.3006249999999999,-0.3844444444444445],[0.21833333333333324,-0.40018518518518525],[0.16156249999999991,-0.3853703703703704],[0.16156249999999991,-0.3853703703703704],[0.09812500000000005,-0.3798148148148149],[0.09812500000000005,-0.3798148148148149],[0.00947916666666669,-0.41629629629629633],[-0.05593750000000005,-0.42185185185185187],[-0.11895833333333337,-0.4566666666666667],[-0.12416666666666672,-0.4425925925925926],[-0.13999999999999999,-0.4153703703703704],[-0.18885416666666663,-0.445],[-0.18885416666666663,-0.445],[-0.18885416666666663,-0.4527777777777778],[-0.20968749999999994,-0.47851851851851845],[-0.20968749999999994,-0.47851851851851845],[-0.2361458333333334,-0.5718518518518518],[-0.26677083333333335,-0.6812962962962963],[-0.2641666666666667,-0.7333333333333333],[-0.29333333333333333,-0.8251851851851852],[-0.32489583333333333,-0.8877777777777778],[-0.3477083333333333,-0.9588888888888888],[-0.35989583333333336,-1.0431481481481482],[-0.3390625,-1.0705555555555557],[-0.2808333333333334,-1.0855555555555556],[-0.21489583333333329,-1.0655555555555556],[-0.13322916666666665,-1.012037037037037],[-0.05614583333333331,-0.9231481481481482],[-0.04385416666666669,-0.8892592592592592],[-0.016145833333333335,-0.8498148148148148],[0.027187500000000024,-0.812962962962963],[0.06177083333333329,-0.7675925925925926],[0.10864583333333329,-0.7038888888888889],[0.10864583333333329,-0.7038888888888889],[0.15552083333333327,-0.6401851851851852],[0.15552083333333327,-0.6401851851851852],[0.13395833333333323,-0.6116666666666667],[0.15479166666666658,-0.6259259259259259],[0.13708333333333325,-0.6494444444444444],[0.1326041666666666,-0.6937037037037037],[0.17302083333333323,-0.6957407407407408],[0.2078125,-0.6953703703703704],[0.22697916666666676,-0.6924074074074074],[0.22697916666666676,-0.6924074074074074],[0.24968750000000003,-0.7138888888888889],[0.26572916666666657,-0.6818518518518518],[0.26572916666666657,-0.6818518518518518],[0.28177083333333336,-0.6498148148148147],[0.32062499999999994,-0.6687037037037038],[0.33739583333333345,-0.7003703703703703],[0.33739583333333345,-0.7003703703703703],[0.3259375000000001,-0.7377777777777778],[0.3259375000000001,-0.7377777777777778],[0.3497916666666666,-0.6892592592592592],[0.3845833333333334,-0.6418518518518519],[0.42135416666666664,-0.5990740740740741],[0.4539583333333333,-0.575],[0.4830208333333334,-0.5264814814814816],[0.4830208333333334,-0.5264814814814816],[0.5347916666666668,-0.4781481481481481],[0.5556250000000001,-0.4661111111111111],[0.6154166666666666,-0.3638888888888889],[0.6597916666666668,-0.2581481481481481],[0.7473958333333334,-0.11981481481481479],[0.7868750000000001,-0.08222222222222218],[0.7567708333333333,-0.10833333333333334],[0.7303124999999999,-0.13222222222222219],[0.7133333333333333,-0.09425925925925922],[0.7133333333333333,-0.09425925925925922],[0.6963541666666667,-0.056296296296296254],[0.7056250000000001,-0.05462962962962963],[0.714375,-0.07148148148148152],[0.6852083333333333,-0.11851851851851852],[0.6552083333333333,-0.1522222222222222],[0.6552083333333333,-0.1522222222222222],[0.6018749999999999,-0.1940740740740741],[0.5796875,-0.19592592592592595],[0.6111458333333334,-0.1522222222222222],[0.63875,-0.09907407407407408],[0.6680208333333333,-0.05703703703703706],[0.7022916666666668,-0.02111111111111107],[0.6640625,0.0020370370370370794],[0.6634375000000001,0.011111111111111112],[0.67,0.0338888888888888],[0.6509375000000001,0.03851851851851843],[0.629375,-0.008888888888888804],[0.5854166666666667,-0.04055555555555551],[0.5709374999999999,-0.05185185185185185],[0.5709374999999999,-0.05185185185185185],[0.5153125000000001,-0.06592592592592597],[0.49812500000000004,-0.04611111111111107],[0.5248958333333335,0.10629629629629625],[0.5641666666666666,0.23629629629629634],[0.6223958333333334,0.4985185185185186],[0.6806250000000001,0.7607407407407406],[0.7653125000000001,1.0277777777777777],[0.8305208333333333,1.275925925925926],[0.8837500000000001,1.4796296296296296],[0.8837500000000001,1.4796296296296296],[0.9028125,1.6066666666666665],[0.9614583333333333,1.750185185185185],[0.9786458333333333,1.8057407407407406],[0.9014583333333335,1.711851851851852],[0.9014583333333335,1.711851851851852],[0.8674999999999999,1.6075925925925925],[0.7519791666666668,1.4325925925925924],[0.6792708333333333,1.2355555555555557],[0.5958333333333333,1.049074074074074],[0.5958333333333333,1.049074074074074],[0.5417708333333332,0.9307407407407405],[0.45281250000000006,0.7587037037037038],[0.4106250000000001,0.6987037037037036],[0.3533333333333334,0.5692592592592592],[0.31062500000000004,0.43444444444444447],[0.3133333333333333,0.32259259259259265],[0.2743750000000001,0.2146296296296296],[0.3133333333333333,0.14444444444444443],[0.3229166666666667,0.10981481481481473],[0.32999999999999996,0.06185185185185181],[0.3541666666666667,0.013518518518518435],[0.41875,-0.01592592592592597],[0.4417708333333332,-0.09185185185185189],[0.47625000000000006,-0.08425925925925926],[0.4921875,-0.0492592592592593],[0.4740624999999999,-0.055185185185185205],[0.45979166666666677,-0.05481481481481486],[0.40437500000000004,-0.09888888888888885],[0.32000000000000006,-0.16370370370370366],[0.26843750000000005,-0.26351851851851854],[0.19229166666666658,-0.3792592592592593],[0.10739583333333323,-0.42481481481481476],[0.03781249999999995,-0.4714814814814815],[-0.021041666666666715,-0.5424074074074073],[-0.10020833333333339,-0.6262962962962962],[-0.10020833333333339,-0.6262962962962962],[-0.09416666666666665,-0.6461111111111111],[-0.11187499999999997,-0.6831481481481481],[-0.08843749999999997,-0.6414814814814814],[-0.096875,-0.6716666666666666],[-0.08864583333333335,-0.6087037037037036],[-0.06906249999999996,-0.5325925925925926],[-0.03895833333333331,-0.5192592592592592],[-0.027187500000000024,-0.5087037037037037],[-0.027187500000000024,-0.5087037037037037],[-0.017083333333333308,-0.5111111111111111],[0.08927083333333338,-0.5077777777777778],[0.13781249999999995,-0.5161111111111111],[0.21385416666666662,-0.5157407407407407],[0.2868750000000001,-0.5822222222222222],[0.2868750000000001,-0.5822222222222222],[0.40729166666666666,-0.5696296296296297],[0.40729166666666666,-0.5696296296296297],[0.5165625000000001,-0.6203703703703703],[0.5923958333333333,-0.6412962962962964],[0.6790625000000001,-0.6096296296296296],[0.6790625000000001,-0.6096296296296296],[0.7753125,-0.596111111111111],[0.8712500000000001,-0.6033333333333334],[0.896875,-0.6007407407407407],[1.0013541666666665,-0.5812962962962962],[1.0852083333333333,-0.5522222222222222],[1.0902083333333332,-0.5864814814814815],[1.0902083333333332,-0.5864814814814815],[1.0952083333333333,-0.6207407407407407],[1.0665625,-0.65],[1.0609375,-0.7231481481481481],[1.0639583333333333,-0.825],[1.0205208333333333,-0.8505555555555556],[0.989375,-0.9283333333333333],[0.9880208333333333,-0.9657407407407408],[0.8818749999999999,-1.0514814814814815],[0.8273958333333333,-1.1444444444444444],[0.8273958333333333,-1.1444444444444444],[0.8338541666666667,-1.1744444444444446],[0.8119791666666667,-1.2194444444444446],[0.8130208333333333,-1.2244444444444444],[0.8014583333333334,-1.2468518518518519],[0.8157291666666666,-1.2364814814814815],[0.8157291666666666,-1.2364814814814815],[0.8598958333333333,-1.2585185185185186],[0.9613541666666667,-1.2407407407407407],[0.9673958333333333,-1.2640740740740741],[1.0291666666666666,-1.218888888888889],[1.0291666666666666,-1.218888888888889],[1.0016666666666665,-1.1961111111111111],[0.9815625,-1.1570370370370369],[0.9831249999999999,-1.1046296296296296],[0.9831249999999999,-1.1046296296296296],[0.9821875000000001,-1.1342592592592593],[0.9585416666666667,-1.0962962962962963],[0.8938541666666666,-1.0825925925925926],[0.8938541666666666,-1.0825925925925926],[0.8613541666666668,-1.0472222222222223],[0.7995833333333332,-0.992962962962963],[0.8113541666666667,-0.9292592592592592],[0.8113541666666667,-0.9292592592592592],[0.7227083333333333,-0.9550000000000001],[0.6885416666666667,-0.9522222222222223],[0.6885416666666667,-0.9522222222222223],[0.6442708333333333,-1.0262962962962965],[0.6110416666666666,-1.0824074074074075],[0.5836458333333333,-1.057037037037037],[0.5977083333333333,-1.0303703703703704],[0.5977083333333333,-1.0303703703703704],[0.63,-0.9622222222222223],[0.6247916666666666,-0.9127777777777777],[0.5631249999999999,-0.9342592592592592],[0.5016666666666666,-0.9540740740740742],[0.5157291666666666,-0.9314814814814815],[0.5082291666666667,-0.9442592592592592],[0.5029166666666666,-0.8938888888888888],[0.5162499999999999,-0.8192592592592592],[0.4969791666666666,-0.7748148148148147],[0.5134375000000001,-0.7938888888888889],[0.5116666666666667,-0.8544444444444445],[0.5116666666666667,-0.8544444444444445],[0.5252083333333334,-0.9398148148148148],[0.5847916666666667,-0.9070370370370371],[0.620625,-0.9446296296296297],[0.6582291666666668,-0.9837037037037037],[0.6911458333333333,-0.9516666666666667],[0.6911458333333333,-0.9516666666666667],[0.7389583333333334,-0.8848148148148148],[0.7575000000000001,-0.9172222222222223],[0.8198958333333333,-0.9246296296296297],[0.8112499999999999,-0.8944444444444445],[0.8026041666666667,-0.8642592592592593],[0.8057291666666667,-0.8425925925925926],[0.7792708333333332,-0.8538888888888889],[0.7644791666666667,-0.7859259259259259],[0.7366666666666667,-0.7238888888888888],[0.7349999999999999,-0.6875925925925926],[0.7184375000000001,-0.6861111111111111],[0.7098958333333333,-0.642037037037037],[0.6723958333333333,-0.6292592592592593],[0.7091666666666666,-0.6116666666666667],[0.7091666666666666,-0.6116666666666667],[0.6930208333333333,-0.6157407407407407],[0.69375,-0.5900000000000001],[0.6944791666666668,-0.5642592592592592],[0.6605208333333332,-0.5772222222222222],[0.6480208333333333,-0.5987037037037037],[0.6054166666666667,-0.6692592592592592],[0.6054166666666667,-0.6692592592592592],[0.6235416666666665,-0.655],[0.6235416666666665,-0.655],[0.6398958333333333,-0.6246296296296296],[0.6398958333333333,-0.6246296296296296],[0.6282291666666666,-0.6172222222222222],[0.5818749999999999,-0.6261111111111112],[0.6183333333333333,-0.571111111111111],[0.6183333333333333,-0.571111111111111],[0.5865624999999999,-0.5666666666666667],[0.5660416666666668,-0.6153703703703703],[0.5660416666666668,-0.6153703703703703],[0.5351041666666667,-0.6457407407407407],[0.5376041666666665,-0.6275925925925926]]","[[0.1502083333333334,-0.40796296296296297,0.00020000000297670795],[0.1502083333333334,-0.40796296296296297,0.05070000000297625],[0.1632291666666667,-0.39537037037037037,0.05649999999999977],[0.15114583333333323,-0.4316666666666667,0.07220000000297944],[0.1716666666666666,-0.43037037037037035,0.08880000000446842],[0.1805208333333333,-0.4353703703703704,0.10570000000297597],[0.1564583333333334,-0.43277777777777776,0.1222000000029766],[0.1564583333333334,-0.43277777777777776,0.13880000000446557],[0.14416666666666675,-0.4655555555555555,0.15549999999999642],[0.10989583333333333,-0.5309259259259259,0.17970000000297404],[0.10989583333333333,-0.5309259259259259,0.18880000000446984],[0.09520833333333342,-0.4994444444444444,0.2057000000029774],[0.09520833333333342,-0.4994444444444444,0.22239999999850824],[0.09854166666666657,-0.475,0.23889999999850886],[0.10854166666666672,-0.4412962962962963,0.2604999999999933],[0.10854166666666672,-0.4412962962962963,0.2721000000014868],[0.1015625,-0.4346296296296296,0.28880000000446415],[0.10072916666666672,-0.3622222222222223,0.30680000000446483],[0.09500000000000004,-0.31574074074074077,0.32220000000297944],[0.07416666666666671,-0.29888888888888887,0.3388000000044684],[0.10906250000000005,-0.24981481481481477,0.3568000000044691],[0.10906250000000005,-0.24981481481481477,0.3722000000029766],[0.1546875,-0.1955555555555556,0.3888000000044656],[0.20614583333333342,-0.1037037037037037,0.40660000000148955],[0.24520833333333342,-0.0772222222222222,0.42660000000148557],[0.26624999999999993,-0.043703703703703745,0.4417000000029745],[0.26624999999999993,-0.043703703703703745,0.4553999999985052],[0.29322916666666665,-0.07833333333333335,0.47210000000148966],[0.30572916666666666,-0.0492592592592593,0.49080000000446944],[0.32020833333333343,-0.03944444444444436,0.5094999999999956],[0.3238541666666668,-0.06796296296296295,0.524300000004466],[0.3238541666666668,-0.06796296296296295,0.5387000000029758],[0.34052083333333344,-0.03796296296296296,0.5553999999985066],[0.34791666666666665,-0.0977777777777778,0.572100000001484],[0.3433333333333332,-0.0705555555555556,0.5917000000029802],[0.35177083333333337,-0.07666666666666662,0.6078000000044668],[0.33562500000000006,-0.09759259259259258,0.6222000000029766],[0.3232291666666666,-0.12296296296296293,0.6398999999985051],[0.3003124999999999,-0.11462962962962958,0.6561000000014872],[0.31927083333333334,-0.12240740740740745,0.6749999999999972],[0.3220833333333334,-0.12981481481481486,0.69180000000447],[0.3220833333333334,-0.12981481481481486,0.7054999999999936],[0.3233333333333334,-0.09981481481481477,0.7221000000014897],[0.3515625,-0.09037037037037039,0.738800000004467],[0.36208333333333326,-0.01574074074074074,0.7553999999985095],[0.3792708333333332,-0.03333333333333333,0.7728000000044659],[0.3792708333333332,-0.03333333333333333,0.7888000000044642],[0.3776041666666667,-0.050370370370370454,0.8053999999985066],[0.39208333333333345,-0.058333333333333334,0.8222000000029794],[0.40958333333333335,-0.040740740740740744,0.8388000000044684],[0.4239583333333333,-0.04462962962962967,0.8563999999985086],[0.43468749999999995,-0.0801851851851852,0.8721000000014882],[0.45208333333333334,-0.10648148148148148,0.8909999999999982],[0.4982291666666666,-0.12444444444444443,0.9062000000029755],[0.5126041666666665,-0.14740740740740746,0.9221000000014854],[0.5269791666666668,-0.17037037037037037,0.9397000000029792],[0.478125,-0.24222222222222226,0.9554999999999936],[0.4366666666666667,-0.28296296296296297,0.9721000000014897],[0.39645833333333325,-0.3122222222222223,0.988800000004467],[0.3006249999999999,-0.3844444444444445,1.0053999999985095],[0.21833333333333324,-0.40018518518518525,1.02320000000298],[0.16156249999999991,-0.3853703703703704,1.0391000000014898],[0.16156249999999991,-0.3853703703703704,1.0553999999985066],[0.09812500000000005,-0.3798148148148149,1.072100000001484],[0.09812500000000005,-0.3798148148148149,1.0888000000044684],[0.00947916666666669,-0.41629629629629633,1.1053999999985038],[-0.05593750000000005,-0.42185185185185187,1.122300000004465],[-0.11895833333333337,-0.4566666666666667,1.1388000000044656],[-0.12416666666666672,-0.4425925925925926,1.1554999999999964],[-0.13999999999999999,-0.4153703703703704,1.1721000000014854],[-0.18885416666666663,-0.445,1.191999999999993],[-0.18885416666666663,-0.445,1.2054999999999936],[-0.18885416666666663,-0.4527777777777778,1.222200000002978],[-0.20968749999999994,-0.47851851851851845,1.2453000000044696],[-0.20968749999999994,-0.47851851851851845,1.2553999999985095],[-0.2361458333333334,-0.5718518518518518,1.2721000000014868],[-0.26677083333333335,-0.6812962962962963,1.2888000000044642],[-0.2641666666666667,-0.7333333333333333,1.3084999999999951],[-0.29333333333333333,-0.8251851851851852,1.3223000000044678],[-0.32489583333333333,-0.8877777777777778,1.3388000000044684],[-0.3477083333333333,-0.9588888888888888,1.3563999999985086],[-0.35989583333333336,-1.0431481481481482,1.3721000000014882],[-0.3390625,-1.0705555555555557,1.3908999999985099],[-0.2808333333333334,-1.0855555555555556,1.405399999998508],[-0.21489583333333329,-1.0655555555555556,1.4221000000014854],[-0.13322916666666665,-1.012037037037037,1.4398999999985094],[-0.05614583333333331,-0.9231481481481482,1.4553999999985052],[-0.04385416666666669,-0.8892592592592592,1.4724999999999966],[-0.016145833333333335,-0.8498148148148148,1.4888999999985089],[0.027187500000000024,-0.812962962962963,1.5054999999999978],[0.06177083333333329,-0.7675925925925926,1.5226000000014892],[0.10864583333333329,-0.7038888888888889,1.5387000000029758],[0.10864583333333329,-0.7038888888888889,1.5553999999985066],[0.15552083333333327,-0.6401851851851852,1.572100000001484],[0.15552083333333327,-0.6401851851851852,1.5888000000044684],[0.13395833333333323,-0.6116666666666667,1.6053999999985038],[0.15479166666666658,-0.6259259259259259,1.6221000000014882],[0.13708333333333325,-0.6494444444444444,1.6388999999985074],[0.1326041666666666,-0.6937037037037037,1.6554999999999964],[0.17302083333333323,-0.6957407407407408,1.6722000000029738],[0.2078125,-0.6953703703703704,1.6908000000044652],[0.22697916666666676,-0.6924074074074074,1.7053999999985052],[0.22697916666666676,-0.6924074074074074,1.7221000000014897],[0.24968750000000003,-0.7138888888888889,1.738800000004467],[0.26572916666666657,-0.6818518518518518,1.7583999999985096],[0.26572916666666657,-0.6818518518518518,1.776999999999994],[0.28177083333333336,-0.6498148148148147,1.7907000000029782],[0.32062499999999994,-0.6687037037037038,1.805499999999995],[0.33739583333333345,-0.7003703703703703,1.8222000000029794],[0.33739583333333345,-0.7003703703703703,1.8388999999985032],[0.3259375000000001,-0.7377777777777778,1.8556000000014876],[0.3259375000000001,-0.7377777777777778,1.8739999999999952],[0.3497916666666666,-0.6892592592592592,1.8888000000044656],[0.3845833333333334,-0.6418518518518519,1.905399999998508],[0.42135416666666664,-0.5990740740740741,1.9221000000014854],[0.4539583333333333,-0.575,1.9388999999985046],[0.4830208333333334,-0.5264814814814816,1.9553999999985052],[0.4830208333333334,-0.5264814814814816,1.9721000000014897],[0.5347916666666668,-0.4781481481481481,1.988800000004467],[0.5556250000000001,-0.4661111111111111,2.005499999999998],[0.6154166666666666,-0.3638888888888889,2.022200000002975],[0.6597916666666668,-0.2581481481481481,2.038800000004464],[0.7473958333333334,-0.11981481481481479,2.058100000001488],[0.7868750000000001,-0.08222222222222218,2.0719999999999956],[0.7567708333333333,-0.10833333333333334,2.08870000000298],[0.7303124999999999,-0.13222222222222219,2.1063999999985086],[0.7133333333333333,-0.09425925925925922,2.1222000000029766],[0.7133333333333333,-0.09425925925925922,2.1388000000044656],[0.6963541666666667,-0.056296296296296254,2.155399999998508],[0.7056250000000001,-0.05462962962962963,2.1721000000014854],[0.714375,-0.07148148148148152,2.1898000000044675],[0.6852083333333333,-0.11851851851851852,2.2053999999985052],[0.6552083333333333,-0.1522222222222222,2.2223000000044664],[0.6552083333333333,-0.1522222222222222,2.238800000004467],[0.6018749999999999,-0.1940740740740741,2.2553999999985095],[0.5796875,-0.19592592592592595,2.272200000002975],[0.6111458333333334,-0.1522222222222222,2.288700000002976],[0.63875,-0.09907407407407408,2.308],[0.6680208333333333,-0.05703703703703706,2.322100000001484],[0.7022916666666668,-0.02111111111111107,2.3388000000044684],[0.6640625,0.0020370370370370794,2.3566000000014853],[0.6634375000000001,0.011111111111111112,2.3721000000014882],[0.67,0.0338888888888888,2.3888000000044656],[0.6509375000000001,0.03851851851851843,2.4054999999999964],[0.629375,-0.008888888888888804,2.4221000000014854],[0.5854166666666667,-0.04055555555555551,2.4398000000044675],[0.5709374999999999,-0.05185185185185185,2.4553999999985052],[0.5709374999999999,-0.05185185185185185,2.4721000000014897],[0.5153125000000001,-0.06592592592592597,2.488800000004467],[0.49812500000000004,-0.04611111111111107,2.5053999999985095],[0.5248958333333335,0.10629629629629625,2.5224999999999937],[0.5641666666666666,0.23629629629629634,2.538700000002976],[0.6223958333333334,0.4985185185185186,2.5553999999985066],[0.6806250000000001,0.7607407407407406,2.572100000001484],[0.7653125000000001,1.0277777777777777,2.592499999999994],[0.8305208333333333,1.275925925925926,2.6081000000014853],[0.8837500000000001,1.4796296296296296,2.6221000000014882],[0.8837500000000001,1.4796296296296296,2.6388000000044656],[0.9028125,1.6066666666666665,2.6554999999999964],[0.9614583333333333,1.750185185185185,2.6721000000014854],[0.9786458333333333,1.8057407407407406,2.6911000000014837],[0.9014583333333335,1.711851851851852,2.7053999999985052],[0.9014583333333335,1.711851851851852,2.721999999999994],[0.8674999999999999,1.6075925925925925,2.738800000004467],[0.7519791666666668,1.4325925925925924,2.755499999999998],[0.6792708333333333,1.2355555555555557,2.7723000000044635],[0.5958333333333333,1.049074074074074,2.788700000002976],[0.5958333333333333,1.049074074074074,2.805499999999995],[0.5417708333333332,0.9307407407407405,2.822100000001484],[0.45281250000000006,0.7587037037037038,2.83870000000298],[0.4106250000000001,0.6987037037037036,2.855899999998506],[0.3533333333333334,0.5692592592592592,2.8722000000029766],[0.31062500000000004,0.43444444444444447,2.889899999998505],[0.3133333333333333,0.32259259259259265,2.905399999998508],[0.2743750000000001,0.2146296296296296,2.9221000000014854],[0.3133333333333333,0.14444444444444443,2.9388999999985046],[0.3229166666666667,0.10981481481481473,2.9553999999985052],[0.32999999999999996,0.06185185185185181,2.971999999999994],[0.3541666666666667,0.013518518518518435,2.9887000000029786],[0.41875,-0.01592592592592597,3.0053999999985095],[0.4417708333333332,-0.09185185185185189,3.0224999999999937],[0.47625000000000006,-0.08425925925925926,3.038800000004464],[0.4921875,-0.0492592592592593,3.0553999999985066],[0.4740624999999999,-0.055185185185185205,3.072100000001484],[0.45979166666666677,-0.05481481481481486,3.0888000000044684],[0.40437500000000004,-0.09888888888888885,3.1066000000014853],[0.32000000000000006,-0.16370370370370366,3.1221000000014882],[0.26843750000000005,-0.26351851851851854,3.138700000002977],[0.19229166666666658,-0.3792592592592593,3.1554999999999964],[0.10739583333333323,-0.42481481481481476,3.1721000000014854],[0.03781249999999995,-0.4714814814814815,3.191600000001486],[-0.021041666666666715,-0.5424074074074073,3.205999999999996],[-0.10020833333333339,-0.6262962962962962,3.2236000000014897],[-0.10020833333333339,-0.6262962962962962,3.244300000004465],[-0.09416666666666665,-0.6461111111111111,3.255499999999998],[-0.11187499999999997,-0.6831481481481481,3.2733000000044683],[-0.08843749999999997,-0.6414814814814814,3.2918000000044643],[-0.096875,-0.6716666666666666,3.306600000001488],[-0.08864583333333335,-0.6087037037037036,3.3223999999985097],[-0.06906249999999996,-0.5325925925925926,3.342300000004464],[-0.03895833333333331,-0.5192592592592592,3.3577000000029784],[-0.027187500000000024,-0.5087037037037037,3.3733999999985045],[-0.027187500000000024,-0.5087037037037037,3.3888000000044656],[-0.017083333333333308,-0.5111111111111111,3.407899999998506],[0.08927083333333338,-0.5077777777777778,3.4262000000029786],[0.13781249999999995,-0.5161111111111111,3.441600000001486],[0.21385416666666662,-0.5157407407407407,3.4591000000014844],[0.2868750000000001,-0.5822222222222222,3.4751000000014898],[0.2868750000000001,-0.5822222222222222,3.488800000004467],[0.40729166666666666,-0.5696296296296297,3.505499999999998],[0.40729166666666666,-0.5696296296296297,3.522100000001487],[0.5165625000000001,-0.6203703703703703,3.538800000004464],[0.5923958333333333,-0.6412962962962964,3.555499999999995],[0.6790625000000001,-0.6096296296296296,3.572100000001484],[0.6790625000000001,-0.6096296296296296,3.5888000000044684],[0.7753125,-0.596111111111111,3.6056000000014876],[0.8712500000000001,-0.6033333333333334,3.6221000000014882],[0.896875,-0.6007407407407407,3.639499999999998],[1.0013541666666665,-0.5812962962962962,3.655399999998508],[1.0852083333333333,-0.5522222222222222,3.67649999999999],[1.0902083333333332,-0.5864814814814815,3.6923999999985],[1.0902083333333332,-0.5864814814814815,3.705600000001482],[1.0952083333333333,-0.6207407407407407,3.7251000000014898],[1.0665625,-0.65,3.7412000000029764],[1.0609375,-0.7231481481481481,3.759999999999991],[1.0639583333333333,-0.825,3.7778000000044614],[1.0205208333333333,-0.8505555555555556,3.792999999999992],[0.989375,-0.9283333333333333,3.808100000001488],[0.9880208333333333,-0.9657407407407408,3.8223000000044607],[0.8818749999999999,-1.0514814814814815,3.8431000000014848],[0.8273958333333333,-1.1444444444444444,3.858399999998511],[0.8273958333333333,-1.1444444444444444,3.872100000001481],[0.8338541666666667,-1.1744444444444446,3.8888000000044656],[0.8119791666666667,-1.2194444444444446,3.9055000000000035],[0.8130208333333333,-1.2244444444444444,3.9221000000014925],[0.8014583333333334,-1.2468518518518519,3.9405],[0.8157291666666666,-1.2364814814814815,3.9555000000000007],[0.8157291666666666,-1.2364814814814815,3.9721000000014897],[0.8598958333333333,-1.2585185185185186,3.988899999998509],[0.9613541666666667,-1.2407407407407407,4.005499999999998],[0.9673958333333333,-1.2640740740740741,4.022499999999994],[1.0291666666666666,-1.218888888888889,4.038800000004471],[1.0291666666666666,-1.218888888888889,4.058100000001488],[1.0016666666666665,-1.1961111111111111,4.072300000004461],[0.9815625,-1.1570370370370369,4.089200000002975],[0.9831249999999999,-1.1046296296296296,4.108800000004464],[0.9831249999999999,-1.1046296296296296,4.122200000002977],[0.9821875000000001,-1.1342592592592593,4.138999999999996],[0.9585416666666667,-1.0962962962962963,4.15570000000298],[0.8938541666666666,-1.0825925925925926,4.1769999999999925],[0.8938541666666666,-1.0825925925925926,4.189100000001488],[0.8613541666666668,-1.0472222222222223,4.205500000000001],[0.7995833333333332,-0.992962962962963,4.2238000000044735],[0.8113541666666667,-0.9292592592592592,4.244700000002979],[0.8113541666666667,-0.9292592592592592,4.255399999998502],[0.7227083333333333,-0.9550000000000001,4.2723000000044635],[0.6885416666666667,-0.9522222222222223,4.2890000000000015],[0.6885416666666667,-0.9522222222222223,4.305499999999995],[0.6442708333333333,-1.0262962962962965,4.322200000002979],[0.6110416666666666,-1.0824074074074075,4.338700000002973],[0.5836458333333333,-1.057037037037037,4.357899999998509],[0.5977083333333333,-1.0303703703703704,4.378999999999991],[0.5977083333333333,-1.0303703703703704,4.38870000000297],[0.63,-0.9622222222222223,4.405399999998508],[0.6247916666666666,-0.9127777777777777,4.4221000000014925],[0.5631249999999999,-0.9342592592592592,4.440800000004472],[0.5016666666666666,-0.9540740740740742,4.4553000000044705],[0.5157291666666666,-0.9314814814814815,4.472399999998501],[0.5082291666666667,-0.9442592592592592,4.48880000000446],[0.5029166666666666,-0.8938888888888888,4.505399999998502],[0.5162499999999999,-0.8192592592592592,4.523100000001492],[0.4969791666666666,-0.7748148148148147,4.538700000002976],[0.5134375000000001,-0.7938888888888889,4.558600000001491],[0.5116666666666667,-0.8544444444444445,4.5745000000000005],[0.5116666666666667,-0.8544444444444445,4.588899999998503],[0.5252083333333334,-0.9398148148148148,4.605499999999992],[0.5847916666666667,-0.9070370370370371,4.622100000001481],[0.620625,-0.9446296296296297,4.640600000001484],[0.6582291666666668,-0.9837037037037037,4.655399999998508],[0.6911458333333333,-0.9516666666666667,4.6721000000014925],[0.6911458333333333,-0.9516666666666667,4.6913000000044605],[0.7389583333333334,-0.8848148148148148,4.705600000001482],[0.7575000000000001,-0.9172222222222223,4.722499999999997],[0.8198958333333333,-0.9246296296296297,4.741500000000002],[0.8112499999999999,-0.8944444444444445,4.760200000002982],[0.8026041666666667,-0.8642592592592593,4.776800000004471],[0.8057291666666667,-0.8425925925925926,4.792300000004474],[0.7792708333333332,-0.8538888888888889,4.807200000002979],[0.7644791666666667,-0.7859259259259259,4.82430000000447],[0.7366666666666667,-0.7238888888888888,4.8430000000000035],[0.7349999999999999,-0.6875925925925926,4.858300000004462],[0.7184375000000001,-0.6861111111111111,4.873999999999995],[0.7098958333333333,-0.642037037037037,4.89170000000297],[0.6723958333333333,-0.6292592592592593,4.907499999999999],[0.7091666666666666,-0.6116666666666667,4.927800000004467],[0.7091666666666666,-0.6116666666666667,4.9387000000029815],[0.6930208333333333,-0.6157407407407407,4.955600000001482],[0.69375,-0.5900000000000001,4.971999999999994],[0.6944791666666668,-0.5642592592592592,4.990899999998504],[0.6605208333333332,-0.5772222222222222,5.009800000004461],[0.6480208333333333,-0.5987037037037037,5.025499999999994],[0.6054166666666667,-0.6692592592592592,5.045800000004462],[0.6054166666666667,-0.6692592592592592,5.0563000000044696],[0.6235416666666665,-0.655,5.072200000002979],[0.6235416666666665,-0.655,5.088899999998503],[0.6398958333333333,-0.6246296296296296,5.108600000001488],[0.6398958333333333,-0.6246296296296296,5.122200000002977],[0.6282291666666666,-0.6172222222222222,5.1388999999985],[0.5818749999999999,-0.6261111111111112,5.1555000000000035],[0.6183333333333333,-0.571111111111111,5.176899999998511],[0.6183333333333333,-0.571111111111111,5.188899999998512],[0.5865624999999999,-0.5666666666666667,5.205600000001482],[0.5660416666666668,-0.6153703703703703,5.223399999998506],[0.5660416666666668,-0.6153703703703703,5.238700000002979],[0.5351041666666667,-0.6457407407407407,5.255399999998502],[0.5376041666666665,-0.6275925925925926,5.276300000004468]]","[0.00020000000297670795,0.05070000000297625,0.05649999999999977,0.07220000000297944,0.08880000000446842,0.10570000000297597,0.1222000000029766,0.13880000000446557,0.15549999999999642,0.17970000000297404,0.18880000000446984,0.2057000000029774,0.22239999999850824,0.23889999999850886,0.2604999999999933,0.2721000000014868,0.28880000000446415,0.30680000000446483,0.32220000000297944,0.3388000000044684,0.3568000000044691,0.3722000000029766,0.3888000000044656,0.40660000000148955,0.42660000000148557,0.4417000000029745,0.4553999999985052,0.47210000000148966,0.49080000000446944,0.5094999999999956,0.524300000004466,0.5387000000029758,0.5553999999985066,0.572100000001484,0.5917000000029802,0.6078000000044668,0.6222000000029766,0.6398999999985051,0.6561000000014872,0.6749999999999972,0.69180000000447,0.7054999999999936,0.7221000000014897,0.738800000004467,0.7553999999985095,0.7728000000044659,0.7888000000044642,0.8053999999985066,0.8222000000029794,0.8388000000044684,0.8563999999985086,0.8721000000014882,0.8909999999999982,0.9062000000029755,0.9221000000014854,0.9397000000029792,0.9554999999999936,0.9721000000014897,0.988800000004467,1.0053999999985095,1.02320000000298,1.0391000000014898,1.0553999999985066,1.072100000001484,1.0888000000044684,1.1053999999985038,1.122300000004465,1.1388000000044656,1.1554999999999964,1.1721000000014854,1.191999999999993,1.2054999999999936,1.222200000002978,1.2453000000044696,1.2553999999985095,1.2721000000014868,1.2888000000044642,1.3084999999999951,1.3223000000044678,1.3388000000044684,1.3563999999985086,1.3721000000014882,1.3908999999985099,1.405399999998508,1.4221000000014854,1.4398999999985094,1.4553999999985052,1.4724999999999966,1.4888999999985089,1.5054999999999978,1.5226000000014892,1.5387000000029758,1.5553999999985066,1.572100000001484,1.5888000000044684,1.6053999999985038,1.6221000000014882,1.6388999999985074,1.6554999999999964,1.6722000000029738,1.6908000000044652,1.7053999999985052,1.7221000000014897,1.738800000004467,1.7583999999985096,1.776999999999994,1.7907000000029782,1.805499999999995,1.8222000000029794,1.8388999999985032,1.8556000000014876,1.8739999999999952,1.8888000000044656,1.905399999998508,1.9221000000014854,1.9388999999985046,1.9553999999985052,1.9721000000014897,1.988800000004467,2.005499999999998,2.022200000002975,2.038800000004464,2.058100000001488,2.0719999999999956,2.08870000000298,2.1063999999985086,2.1222000000029766,2.1388000000044656,2.155399999998508,2.1721000000014854,2.1898000000044675,2.2053999999985052,2.2223000000044664,2.238800000004467,2.2553999999985095,2.272200000002975,2.288700000002976,2.308,2.322100000001484,2.3388000000044684,2.3566000000014853,2.3721000000014882,2.3888000000044656,2.4054999999999964,2.4221000000014854,2.4398000000044675,2.4553999999985052,2.4721000000014897,2.488800000004467,2.5053999999985095,2.5224999999999937,2.538700000002976,2.5553999999985066,2.572100000001484,2.592499999999994,2.6081000000014853,2.6221000000014882,2.6388000000044656,2.6554999999999964,2.6721000000014854,2.6911000000014837,2.7053999999985052,2.721999999999994,2.738800000004467,2.755499999999998,2.7723000000044635,2.788700000002976,2.805499999999995,2.822100000001484,2.83870000000298,2.855899999998506,2.8722000000029766,2.889899999998505,2.905399999998508,2.9221000000014854,2.9388999999985046,2.9553999999985052,2.971999999999994,2.9887000000029786,3.0053999999985095,3.0224999999999937,3.038800000004464,3.0553999999985066,3.072100000001484,3.0888000000044684,3.1066000000014853,3.1221000000014882,3.138700000002977,3.1554999999999964,3.1721000000014854,3.191600000001486,3.205999999999996,3.2236000000014897,3.244300000004465,3.255499999999998,3.2733000000044683,3.2918000000044643,3.306600000001488,3.3223999999985097,3.342300000004464,3.3577000000029784,3.3733999999985045,3.3888000000044656,3.407899999998506,3.4262000000029786,3.441600000001486,3.4591000000014844,3.4751000000014898,3.488800000004467,3.505499999999998,3.522100000001487,3.538800000004464,3.555499999999995,3.572100000001484,3.5888000000044684,3.6056000000014876,3.6221000000014882,3.639499999999998,3.655399999998508,3.67649999999999,3.6923999999985,3.705600000001482,3.7251000000014898,3.7412000000029764,3.759999999999991,3.7778000000044614,3.792999999999992,3.808100000001488,3.8223000000044607,3.8431000000014848,3.858399999998511,3.872100000001481,3.8888000000044656,3.9055000000000035,3.9221000000014925,3.9405,3.9555000000000007,3.9721000000014897,3.988899999998509,4.005499999999998,4.022499999999994,4.038800000004471,4.058100000001488,4.072300000004461,4.089200000002975,4.108800000004464,4.122200000002977,4.138999999999996,4.15570000000298,4.1769999999999925,4.189100000001488,4.205500000000001,4.2238000000044735,4.244700000002979,4.255399999998502,4.2723000000044635,4.2890000000000015,4.305499999999995,4.322200000002979,4.338700000002973,4.357899999998509,4.378999999999991,4.38870000000297,4.405399999998508,4.4221000000014925,4.440800000004472,4.4553000000044705,4.472399999998501,4.48880000000446,4.505399999998502,4.523100000001492,4.538700000002976,4.558600000001491,4.5745000000000005,4.588899999998503,4.605499999999992,4.622100000001481,4.640600000001484,4.655399999998508,4.6721000000014925,4.6913000000044605,4.705600000001482,4.722499999999997,4.741500000000002,4.760200000002982,4.776800000004471,4.792300000004474,4.807200000002979,4.82430000000447,4.8430000000000035,4.858300000004462,4.873999999999995,4.89170000000297,4.907499999999999,4.927800000004467,4.9387000000029815,4.955600000001482,4.971999999999994,4.990899999998504,5.009800000004461,5.025499999999994,5.045800000004462,5.0563000000044696,5.072200000002979,5.088899999998503,5.108600000001488,5.122200000002977,5.1388999999985,5.1555000000000035,5.176899999998511,5.188899999998512,5.205600000001482,5.223399999998506,5.238700000002979,5.255399999998502,5.276300000004468]","[1732588098581,1732588098622,1732588098628,1732588098643,1732588098660,1732588098677,1732588098693,1732588098710,1732588098727,1732588098751,1732588098760,1732588098777,1732588098794,1732588098810,1732588098832,1732588098843,1732588098860,1732588098878,1732588098893,1732588098910,1732588098928,1732588098943,1732588098960,1732588098978,1732588098998,1732588099013,1732588099027,1732588099043,1732588099062,1732588099081,1732588099095,1732588099110,1732588099127,1732588099143,1732588099163,1732588099179,1732588099193,1732588099211,1732588099227,1732588099246,1732588099263,1732588099277,1732588099293,1732588099310,1732588099327,1732588099344,1732588099360,1732588099377,1732588099393,1732588099410,1732588099428,1732588099443,1732588099462,1732588099477,1732588099493,1732588099511,1732588099527,1732588099543,1732588099560,1732588099577,1732588099594,1732588099610,1732588099627,1732588099643,1732588099660,1732588099677,1732588099693,1732588099710,1732588099727,1732588099743,1732588099763,1732588099777,1732588099793,1732588099816,1732588099827,1732588099843,1732588099860,1732588099880,1732588099893,1732588099910,1732588099928,1732588099943,1732588099962,1732588099977,1732588099993,1732588100011,1732588100026,1732588100044,1732588100060,1732588100077,1732588100094,1732588100110,1732588100127,1732588100143,1732588100160,1732588100177,1732588100193,1732588100210,1732588100227,1732588100243,1732588100262,1732588100277,1732588100293,1732588100310,1732588100329,1732588100348,1732588100362,1732588100377,1732588100393,1732588100410,1732588100427,1732588100445,1732588100460,1732588100477,1732588100493,1732588100510,1732588100527,1732588100543,1732588100560,1732588100577,1732588100593,1732588100610,1732588100629,1732588100643,1732588100660,1732588100678,1732588100693,1732588100710,1732588100727,1732588100743,1732588100761,1732588100776,1732588100793,1732588100810,1732588100827,1732588100843,1732588100860,1732588100879,1732588100893,1732588100910,1732588100928,1732588100943,1732588100960,1732588100977,1732588100993,1732588101011,1732588101026,1732588101043,1732588101060,1732588101077,1732588101094,1732588101110,1732588101127,1732588101143,1732588101164,1732588101179,1732588101193,1732588101210,1732588101227,1732588101243,1732588101262,1732588101277,1732588101293,1732588101310,1732588101327,1732588101343,1732588101360,1732588101377,1732588101393,1732588101410,1732588101427,1732588101443,1732588101461,1732588101476,1732588101493,1732588101510,1732588101526,1732588101543,1732588101560,1732588101576,1732588101594,1732588101610,1732588101626,1732588101643,1732588101660,1732588101678,1732588101693,1732588101710,1732588101727,1732588101743,1732588101763,1732588101777,1732588101795,1732588101815,1732588101827,1732588101844,1732588101863,1732588101878,1732588101893,1732588101913,1732588101929,1732588101945,1732588101960,1732588101979,1732588101997,1732588102013,1732588102030,1732588102046,1732588102060,1732588102077,1732588102093,1732588102110,1732588102127,1732588102143,1732588102160,1732588102177,1732588102193,1732588102211,1732588102227,1732588102248,1732588102264,1732588102277,1732588102296,1732588102312,1732588102331,1732588102349,1732588102364,1732588102379,1732588102393,1732588102414,1732588102430,1732588102443,1732588102460,1732588102477,1732588102493,1732588102512,1732588102527,1732588102543,1732588102560,1732588102577,1732588102594,1732588102610,1732588102629,1732588102643,1732588102660,1732588102680,1732588102693,1732588102710,1732588102727,1732588102748,1732588102760,1732588102777,1732588102795,1732588102816,1732588102826,1732588102843,1732588102860,1732588102877,1732588102893,1732588102910,1732588102929,1732588102950,1732588102960,1732588102976,1732588102993,1732588103012,1732588103026,1732588103044,1732588103060,1732588103076,1732588103094,1732588103110,1732588103130,1732588103146,1732588103160,1732588103177,1732588103193,1732588103212,1732588103227,1732588103243,1732588103262,1732588103277,1732588103294,1732588103313,1732588103331,1732588103348,1732588103363,1732588103378,1732588103395,1732588103414,1732588103429,1732588103445,1732588103463,1732588103479,1732588103499,1732588103510,1732588103527,1732588103543,1732588103562,1732588103581,1732588103597,1732588103617,1732588103627,1732588103643,1732588103660,1732588103680,1732588103693,1732588103710,1732588103727,1732588103748,1732588103760,1732588103777,1732588103795,1732588103810,1732588103827,1732588103847]","[[1104.2,319.7],[1104.2,319.7],[1116.7,326.5],[1105.1,306.9],[1124.8,307.6],[1133.3,304.9],[1110.2,306.3],[1110.2,306.3],[1098.4,288.6],[1065.5,253.3],[1065.5,253.3],[1051.4,270.3],[1051.4,270.3],[1054.6,283.5],[1064.2,301.7],[1064.2,301.7],[1057.5,305.3],[1056.7,344.4],[1051.2,369.5],[1031.2,378.6],[1064.7,405.1],[1064.7,405.1],[1108.5,434.4],[1157.9,484],[1195.4,498.3],[1215.6,516.4],[1215.6,516.4],[1241.5,497.7],[1253.5,513.4],[1267.4,518.7],[1270.9,503.3],[1270.9,503.3],[1286.9,519.5],[1294,487.2],[1289.6,501.9],[1297.7,498.6],[1282.2,487.3],[1270.3,473.6],[1248.3,478.1],[1266.5,473.9],[1269.2,469.9],[1269.2,469.9],[1270.4,486.1],[1297.5,491.2],[1307.6,531.5],[1324.1,522],[1324.1,522],[1322.5,512.8],[1336.4,508.5],[1353.2,518],[1367,515.9],[1377.3,496.7],[1394,482.5],[1438.3,472.8],[1452.1,460.4],[1465.9,448],[1419,409.2],[1379.2,387.2],[1340.6,371.4],[1248.6,332.4],[1169.6,323.9],[1115.1,331.9],[1115.1,331.9],[1054.2,334.9],[1054.2,334.9],[969.1,315.2],[906.3,312.2],[845.8,293.4],[840.8,301],[825.6,315.7],[778.7,299.7],[778.7,299.7],[778.7,295.5],[758.7,281.6],[758.7,281.6],[733.3,231.2],[703.9,172.1],[706.4,144],[678.4,94.4],[648.1,60.6],[626.2,22.2],[614.5,-23.3],[634.5,-38.1],[690.4,-46.2],[753.7,-35.4],[832.1,-6.5],[906.1,41.5],[917.9,59.8],[944.5,81.1],[986.1,101],[1019.3,125.5],[1064.3,159.9],[1064.3,159.9],[1109.3,194.3],[1109.3,194.3],[1088.6,209.7],[1108.6,202],[1091.6,189.3],[1087.3,165.4],[1126.1,164.3],[1159.5,164.5],[1177.9,166.1],[1177.9,166.1],[1199.7,154.5],[1215.1,171.8],[1215.1,171.8],[1230.5,189.1],[1267.8,178.9],[1283.9,161.8],[1283.9,161.8],[1272.9,141.6],[1272.9,141.6],[1295.8,167.8],[1329.2,193.4],[1364.5,216.5],[1395.8,229.5],[1423.7,255.7],[1423.7,255.7],[1473.4,281.8],[1493.4,288.3],[1550.8,343.5],[1593.4,400.6],[1677.5,475.3],[1715.4,495.6],[1686.5,481.5],[1661.1,468.6],[1644.8,489.1],[1644.8,489.1],[1628.5,509.6],[1637.4,510.5],[1645.8,501.4],[1617.8,476],[1589,457.8],[1589,457.8],[1537.8,435.2],[1516.5,434.2],[1546.7,457.8],[1573.2,486.5],[1601.3,509.2],[1634.2,528.6],[1597.5,541.1],[1596.9,546],[1603.2,558.3],[1584.9,560.8],[1564.2,535.2],[1522,518.1],[1508.1,512],[1508.1,512],[1454.7,504.4],[1438.2,515.1],[1463.9,597.4],[1501.6,667.6],[1557.5,809.2],[1613.4,950.8],[1694.7,1095],[1757.3,1229],[1808.4,1339],[1808.4,1339],[1826.7,1407.6],[1883,1485.1],[1899.5,1515.1],[1825.4,1464.4],[1825.4,1464.4],[1792.8,1408.1],[1681.9,1313.6],[1612.1,1207.2],[1532,1106.5],[1532,1106.5],[1480.1,1042.6],[1394.7,949.7],[1354.2,917.3],[1299.2,847.4],[1258.2,774.6],[1260.8,714.2],[1223.4,655.9],[1260.8,618],[1270,599.3],[1276.8,573.4],[1300,547.3],[1362,531.4],[1384.1,490.4],[1417.2,494.5],[1432.5,513.4],[1415.1,510.2],[1401.4,510.4],[1348.2,486.6],[1267.2,451.6],[1217.7,397.7],[1144.6,335.2],[1063.1,310.6],[996.3,285.4],[939.8,247.1],[863.8,201.8],[863.8,201.8],[869.6,191.1],[852.6,171.1],[875.1,193.6],[867,177.3],[874.9,211.3],[893.7,252.4],[922.6,259.6],[933.9,265.3],[933.9,265.3],[943.6,264],[1045.7,265.8],[1092.3,261.3],[1165.3,261.5],[1235.4,225.6],[1235.4,225.6],[1351,232.4],[1351,232.4],[1455.9,205],[1528.7,193.7],[1611.9,210.8],[1611.9,210.8],[1704.3,218.1],[1796.4,214.2],[1821,215.6],[1921.3,226.1],[2001.8,241.8],[2006.6,223.3],[2006.6,223.3],[2011.4,204.8],[1983.9,189],[1978.5,149.5],[1981.4,94.5],[1939.7,80.7],[1909.8,38.7],[1908.5,18.5],[1806.6,-27.8],[1754.3,-78],[1754.3,-78],[1760.5,-94.2],[1739.5,-118.5],[1740.5,-121.2],[1729.4,-133.3],[1743.1,-127.7],[1743.1,-127.7],[1785.5,-139.6],[1882.9,-130],[1888.7,-142.6],[1948,-118.2],[1948,-118.2],[1921.6,-105.9],[1902.3,-84.8],[1903.8,-56.5],[1903.8,-56.5],[1902.9,-72.5],[1880.2,-52],[1818.1,-44.6],[1818.1,-44.6],[1786.9,-25.5],[1727.6,3.8],[1738.9,38.2],[1738.9,38.2],[1653.8,24.3],[1621,25.8],[1621,25.8],[1578.5,-14.2],[1546.6,-44.5],[1520.3,-30.8],[1533.8,-16.4],[1533.8,-16.4],[1564.8,20.4],[1559.8,47.1],[1500.6,35.5],[1441.6,24.8],[1455.1,37],[1447.9,30.1],[1442.8,57.3],[1455.6,97.6],[1437.1,121.6],[1452.9,111.3],[1451.2,78.6],[1451.2,78.6],[1464.2,32.5],[1521.4,50.2],[1555.8,29.9],[1591.9,8.8],[1623.5,26.1],[1623.5,26.1],[1669.4,62.2],[1687.2,44.7],[1747.1,40.7],[1738.8,57],[1730.5,73.3],[1733.5,85],[1708.1,78.9],[1693.9,115.6],[1667.2,149.1],[1665.6,168.7],[1649.7,169.5],[1641.5,193.3],[1605.5,200.2],[1640.8,209.7],[1640.8,209.7],[1625.3,207.5],[1626,221.4],[1626.7,235.3],[1594.1,228.3],[1582.1,216.7],[1541.2,178.6],[1541.2,178.6],[1558.6,186.3],[1558.6,186.3],[1574.3,202.7],[1574.3,202.7],[1563.1,206.7],[1518.6,201.9],[1553.6,231.6],[1553.6,231.6],[1523.1,234],[1503.4,207.7],[1503.4,207.7],[1473.7,191.3],[1476.1,201.1]]","[-0.2,0.6000000000000001]","[0.2,0.6000000000000001]","[0.6000000000000001,0.6000000000000001]","[-0.6000000000000001,-0.2]","[-0.6000000000000001,-0.6000000000000001]","[-0.6000000000000001,0.2]","[-0.2,-0.2]","[0.2,-0.2]","[0.6000000000000001,-0.2]","[-0.2,-0.6000000000000001]","[0.2,-0.6000000000000001]","[0.6000000000000001,-0.6000000000000001]","[-0.2,0.2]","[0.2,0.2]","[0.6000000000000001,0.2]",0,0,0,0,1,1,Monitor,20,20,7,2,70,4,2,70,4
