inst1_resp.keys,inst1_resp.rt,calibrationMouse.x,calibrationMouse.y,calibrationMouse.leftButton,calibrationMouse.midButton,calibrationMouse.rightButton,calibrationClick.x,calibrationClick.y,calibrationClick.leftButton,calibrationClick.midButton,calibrationClick.rightButton,trialsc.thisRepN,trialsc.thisTrialN,trialsc.thisN,trialsc.thisIndex,trialsc.ran,calibration_x,calibration_y,participant,session,date,expName,psychopyVersion,OS,frameRate,ScreenRes_pixels,mouse_2.x,mouse_2.y,mouse_2.leftButton,mouse_2.midButton,mouse_2.rightButton,mouse_2.time,mouse_2.clicked_name,Camera_pixels,mouse.x,mouse.y,mouse.leftButton,mouse.midButton,mouse.rightButton,mouse.time,mouse.clicked_name,Choice,Trial,TrialDuration,MOUSE_GAZE,ET_GAZE,ET_GAZE_x_T,time,unixTime,ET_GAZE_NF,Loc_Bus_label,Loc_Metro_label,Loc_RH_label,Loc_Cost_label,Loc_Travel_label,Loc_Comfort_label,Loc_Bus_cost,Loc_Metro_cost,Loc_RH_cost,Loc_Bus_travel,Loc_Metro_travel,Loc_RH_travel,Loc_Bus_comfort,Loc_Metro_comfort,Loc_RH_comfort,trials.thisRepN,trials.thisTrialN,trials.thisN,trials.thisIndex,trials.ran,Block,Device,RH_cost,RH_travel_time,RH_Comfort,metro_cost,metro_travel_time,metro_Comfort,Bus_cost,Bus_travel_time,Bus_Comfort
space,1.37,0.05625,0.264814815,1,0,0,0.036458333,-0.298148148,1,0,0,0,0,0,10,1,0,-0.33,31,001,2024-11-25_13h26.07.369,Attention_exp_legacy,2023.1.0,Win32,59.88023952,,,,,,,,,,,,,,,,,,,,,,,,,,,,,,,,,,,,,,,,,,,,,,,,,,,,,,,,
,,,,,,,0.54375,-0.403703704,0,0,0,0,1,1,16,1,0.33,0,31,001,2024-11-25_13h26.07.369,Attention_exp_legacy,2023.1.0,Win32,59.88023952,,,,,,,,,,,,,,,,,,,,,,,,,,,,,,,,,,,,,,,,,,,,,,,,,,,,,,,,
,,,,,,,-0.345833333,-0.668518519,1,0,0,0,2,2,4,1,-0.33,-0.67,31,001,2024-11-25_13h26.07.369,Attention_exp_legacy,2023.1.0,Win32,59.88023952,,,,,,,,,,,,,,,,,,,,,,,,,,,,,,,,,,,,,,,,,,,,,,,,,,,,,,,,
,,,,,,,0.342708333,0.711111111,1,0,0,0,3,3,18,1,0.33,0.67,31,001,2024-11-25_13h26.07.369,Attention_exp_legacy,2023.1.0,Win32,59.88023952,,,,,,,,,,,,,,,,,,,,,,,,,,,,,,,,,,,,,,,,,,,,,,,,,,,,,,,,
,,,,,,,-0.326041667,0.65,1,0,0,0,4,4,8,1,-0.33,0.67,31,001,2024-11-25_13h26.07.369,Attention_exp_legacy,2023.1.0,Win32,59.88023952,,,,,,,,,,,,,,,,,,,,,,,,,,,,,,,,,,,,,,,,,,,,,,,,,,,,,,,,
,,,,,,,0.6625,0.690740741,1,0,0,0,5,5,19,1,0.67,0.67,31,001,2024-11-25_13h26.07.369,Attention_exp_legacy,2023.1.0,Win32,59.88023952,,,,,,,,,,,,,,,,,,,,,,,,,,,,,,,,,,,,,,,,,,,,,,,,,,,,,,,,
,,,,,,,-0.36875,-0.342592593,1,0,0,0,6,6,5,1,-0.33,-0.33,31,001,2024-11-25_13h26.07.369,Attention_exp_legacy,2023.1.0,Win32,59.88023952,,,,,,,,,,,,,,,,,,,,,,,,,,,,,,,,,,,,,,,,,,,,,,,,,,,,,,,,
,,,,,,,0.33125,0.227777778,1,0,0,0,7,7,17,1,0.33,0.33,31,001,2024-11-25_13h26.07.369,Attention_exp_legacy,2023.1.0,Win32,59.88023952,,,,,,,,,,,,,,,,,,,,,,,,,,,,,,,,,,,,,,,,,,,,,,,,,,,,,,,,
,,,,,,,-0.013541667,0.32962963,1,0,0,0,8,8,12,1,0,0.33,31,001,2024-11-25_13h26.07.369,Attention_exp_legacy,2023.1.0,Win32,59.88023952,,,,,,,,,,,,,,,,,,,,,,,,,,,,,,,,,,,,,,,,,,,,,,,,,,,,,,,,
,,,,,,,0.35625,-0.398148148,1,0,0,0,9,9,15,1,0.33,-0.33,31,001,2024-11-25_13h26.07.369,Attention_exp_legacy,2023.1.0,Win32,59.88023952,,,,,,,,,,,,,,,,,,,,,,,,,,,,,,,,,,,,,,,,,,,,,,,,,,,,,,,,
,,,,,,,-0.65,-0.692592593,1,0,0,0,10,10,0,1,-0.67,-0.67,31,001,2024-11-25_13h26.07.369,Attention_exp_legacy,2023.1.0,Win32,59.88023952,,,,,,,,,,,,,,,,,,,,,,,,,,,,,,,,,,,,,,,,,,,,,,,,,,,,,,,,
,,,,,,,-0.68125,-0.05,1,0,0,0,11,11,2,1,-0.67,0,31,001,2024-11-25_13h26.07.369,Attention_exp_legacy,2023.1.0,Win32,59.88023952,,,,,,,,,,,,,,,,,,,,,,,,,,,,,,,,,,,,,,,,,,,,,,,,,,,,,,,,
,,,,,,,-0.390625,0.32962963,1,0,0,0,12,12,7,1,-0.33,0.33,31,001,2024-11-25_13h26.07.369,Attention_exp_legacy,2023.1.0,Win32,59.88023952,,,,,,,,,,,,,,,,,,,,,,,,,,,,,,,,,,,,,,,,,,,,,,,,,,,,,,,,
,,,,,,,0.208333333,-0.72962963,1,0,0,0,13,13,14,1,0.33,-0.67,31,001,2024-11-25_13h26.07.369,Attention_exp_legacy,2023.1.0,Win32,59.88023952,,,,,,,,,,,,,,,,,,,,,,,,,,,,,,,,,,,,,,,,,,,,,,,,,,,,,,,,
,,,,,,,0.752083333,-0.666666667,1,0,0,0,14,14,20,1,0.67,-0.67,31,001,2024-11-25_13h26.07.369,Attention_exp_legacy,2023.1.0,Win32,59.88023952,,,,,,,,,,,,,,,,,,,,,,,,,,,,,,,,,,,,,,,,,,,,,,,,,,,,,,,,
,,,,,,,0.027083333,0.007407407,1,0,0,0,15,15,11,1,0,0,31,001,2024-11-25_13h26.07.369,Attention_exp_legacy,2023.1.0,Win32,59.88023952,,,,,,,,,,,,,,,,,,,,,,,,,,,,,,,,,,,,,,,,,,,,,,,,,,,,,,,,
,,,,,,,-0.194791667,-0.007407407,1,0,0,0,16,16,6,1,-0.33,0,31,001,2024-11-25_13h26.07.369,Attention_exp_legacy,2023.1.0,Win32,59.88023952,,,,,,,,,,,,,,,,,,,,,,,,,,,,,,,,,,,,,,,,,,,,,,,,,,,,,,,,
,,,,,,,-0.008333333,-0.424074074,1,0,0,0,17,17,9,1,0,-0.67,31,001,2024-11-25_13h26.07.369,Attention_exp_legacy,2023.1.0,Win32,59.88023952,,,,,,,,,,,,,,,,,,,,,,,,,,,,,,,,,,,,,,,,,,,,,,,,,,,,,,,,
,,,,,,,-0.596875,0.398148148,1,0,0,0,18,18,3,1,-0.67,0.33,31,001,2024-11-25_13h26.07.369,Attention_exp_legacy,2023.1.0,Win32,59.88023952,,,,,,,,,,,,,,,,,,,,,,,,,,,,,,,,,,,,,,,,,,,,,,,,,,,,,,,,
,,,,,,,-0.761458333,-0.318518519,1,0,0,0,19,19,1,1,-0.67,-0.33,31,001,2024-11-25_13h26.07.369,Attention_exp_legacy,2023.1.0,Win32,59.88023952,,,,,,,,,,,,,,,,,,,,,,,,,,,,,,,,,,,,,,,,,,,,,,,,,,,,,,,,
,,,,,,,-0.004166667,0.748148148,1,0,0,0,20,20,13,1,0,0.67,31,001,2024-11-25_13h26.07.369,Attention_exp_legacy,2023.1.0,Win32,59.88023952,,,,,,,,,,,,,,,,,,,,,,,,,,,,,,,,,,,,,,,,,,,,,,,,,,,,,,,,
,,,,,,,,,,,,,,,,,,,31,001,2024-11-25_13h26.07.369,Attention_exp_legacy,2023.1.0,Win32,59.88023952,"[1920,1080]",[0.026041666666666668],[-0.5203703703703704],[1],[0],[0],[0.7197000000029803],"[""StartButton""]","[640,480]",[0.17708333333333334],[0.42962962962962964],[1],[0],[0],[2.4339000000059556],"[""Metro_label""]",Metro_label,1,3.4392,"[[-0.27291666666666664,0.32222222222222224],[-0.2552083333333333,0.35185185185185186],[-0.24479166666666666,0.362962962962963],[-0.23333333333333334,0.37407407407407406],[-0.21875,0.387037037037037],[-0.20104166666666667,0.40185185185185185],[-0.18020833333333333,0.4166666666666667],[-0.16041666666666668,0.43148148148148147],[-0.1375,0.4425925925925926],[-0.11875,0.44814814814814813],[-0.10208333333333333,0.4537037037037037],[-0.09375,0.4537037037037037],[-0.0875,0.4537037037037037],[-0.08541666666666667,0.4537037037037037],[-0.08229166666666667,0.4537037037037037],[-0.08125,0.45185185185185184],[-0.07708333333333334,0.4462962962962963],[-0.07395833333333333,0.4425925925925926],[-0.06666666666666667,0.43333333333333335],[-0.05416666666666667,0.4148148148148148],[-0.0375,0.38333333333333336],[-0.004166666666666667,0.3277777777777778],[0.04375,0.2574074074074074],[0.09166666666666666,0.19814814814814816],[0.128125,0.15925925925925927],[0.15416666666666667,0.13703703703703704],[0.17708333333333334,0.12777777777777777],[0.18333333333333332,0.12777777777777777],[0.18645833333333334,0.12962962962962962],[0.18854166666666666,0.13703703703703704],[0.18958333333333333,0.15185185185185185],[0.18958333333333333,0.17407407407407408],[0.18958333333333333,0.2],[0.18958333333333333,0.22407407407407406],[0.18958333333333333,0.25],[0.18958333333333333,0.2722222222222222],[0.18854166666666666,0.2962962962962963],[0.1875,0.3037037037037037],[0.184375,0.32037037037037036],[0.18229166666666666,0.32592592592592595],[0.18020833333333333,0.3296296296296296],[0.17916666666666667,0.3314814814814815],[0.17708333333333334,0.3333333333333333],[0.17604166666666668,0.3333333333333333],[0.17395833333333333,0.3351851851851852],[0.16979166666666667,0.3351851851851852],[0.16458333333333333,0.337037037037037],[0.15729166666666666,0.3388888888888889],[0.15520833333333334,0.3388888888888889],[0.15416666666666667,0.3388888888888889],[0.153125,0.3388888888888889],[0.15208333333333332,0.3388888888888889],[0.15104166666666666,0.3388888888888889],[0.14895833333333333,0.3388888888888889],[0.14895833333333333,0.3388888888888889],[0.146875,0.34074074074074073],[0.14583333333333334,0.34074074074074073],[0.14583333333333334,0.34074074074074073],[0.14479166666666668,0.34074074074074073],[0.14375,0.34074074074074073],[0.14375,0.34074074074074073],[0.14166666666666666,0.3425925925925926],[0.140625,0.34444444444444444],[0.140625,0.34444444444444444],[0.140625,0.34444444444444444],[0.140625,0.34444444444444444],[0.140625,0.34814814814814815],[0.140625,0.35],[0.140625,0.35555555555555557],[0.140625,0.3574074074074074],[0.13958333333333334,0.3611111111111111],[0.13958333333333334,0.362962962962963],[0.13958333333333334,0.36666666666666664],[0.13854166666666667,0.3685185185185185],[0.13854166666666667,0.37037037037037035],[0.13854166666666667,0.37222222222222223],[0.1375,0.37407407407407406],[0.13645833333333332,0.37777777777777777],[0.13541666666666666,0.37962962962962965],[0.12604166666666666,0.387037037037037],[0.109375,0.3925925925925926],[0.08333333333333333,0.3962962962962963],[0.051041666666666666,0.3962962962962963],[0.019791666666666666,0.39814814814814814],[-0.008333333333333333,0.39814814814814814],[-0.03958333333333333,0.40185185185185185],[-0.0875,0.40555555555555556],[-0.115625,0.40555555555555556],[-0.14166666666666666,0.40555555555555556],[-0.16041666666666668,0.4],[-0.17291666666666666,0.39444444444444443],[-0.178125,0.3907407407407407],[-0.17916666666666667,0.3907407407407407],[-0.17916666666666667,0.3907407407407407],[-0.17916666666666667,0.3907407407407407],[-0.17916666666666667,0.3907407407407407],[-0.17916666666666667,0.3907407407407407],[-0.17916666666666667,0.3907407407407407],[-0.17916666666666667,0.3907407407407407],[-0.17916666666666667,0.3907407407407407],[-0.18020833333333333,0.3907407407407407],[-0.18125,0.3907407407407407],[-0.18125,0.3925925925925926],[-0.18125,0.3925925925925926],[-0.18125,0.3925925925925926],[-0.18125,0.3925925925925926],[-0.18125,0.3925925925925926],[-0.18125,0.3925925925925926],[-0.18125,0.3925925925925926],[-0.18125,0.3925925925925926],[-0.18125,0.3962962962962963],[-0.18020833333333333,0.39814814814814814],[-0.17395833333333333,0.40185185185185185],[-0.16770833333333332,0.40185185185185185],[-0.16145833333333334,0.40555555555555556],[-0.15208333333333332,0.40555555555555556],[-0.13541666666666666,0.40555555555555556],[-0.13020833333333334,0.40555555555555556],[-0.11041666666666666,0.40555555555555556],[-0.08854166666666667,0.40555555555555556],[-0.06354166666666666,0.40555555555555556],[-0.041666666666666664,0.40555555555555556],[-0.008333333333333333,0.40555555555555556],[0.015625,0.40555555555555556],[0.041666666666666664,0.40555555555555556],[0.07083333333333333,0.40555555555555556],[0.09895833333333333,0.4074074074074074],[0.12604166666666666,0.40925925925925927],[0.153125,0.4148148148148148],[0.1625,0.4185185185185185],[0.165625,0.4203703703703704],[0.17083333333333334,0.42407407407407405],[0.175,0.42592592592592593],[0.17708333333333334,0.42962962962962964],[0.17708333333333334,0.42962962962962964],[0.17708333333333334,0.42962962962962964],[0.17708333333333334,0.42962962962962964],[0.17708333333333334,0.42962962962962964],[0.17708333333333334,0.42962962962962964],[0.17708333333333334,0.42962962962962964],[0.17708333333333334,0.42962962962962964],[0.17708333333333334,0.42962962962962964],[0.17708333333333334,0.42962962962962964],[0.17708333333333334,0.42962962962962964],[0.17708333333333334,0.42962962962962964],[0.17708333333333334,0.42962962962962964],[0.17708333333333334,0.42962962962962964],[0.17708333333333334,0.42962962962962964],[0.17708333333333334,0.42962962962962964],[0.17708333333333334,0.42962962962962964],[0.17708333333333334,0.42962962962962964],[0.17708333333333334,0.42962962962962964],[0.17708333333333334,0.42962962962962964],[0.17708333333333334,0.42962962962962964],[0.17708333333333334,0.42962962962962964],[0.17708333333333334,0.42962962962962964],[0.17708333333333334,0.42962962962962964],[0.17708333333333334,0.42962962962962964],[0.17708333333333334,0.42962962962962964],[0.17708333333333334,0.42962962962962964],[0.17083333333333334,0.4222222222222222],[0.16354166666666667,0.4222222222222222],[0.15416666666666667,0.4148148148148148],[0.134375,0.4111111111111111],[0.109375,0.4111111111111111],[0.08125,0.4111111111111111],[0.051041666666666666,0.4111111111111111],[0.016666666666666666,0.4111111111111111],[-0.029166666666666667,0.4],[-0.041666666666666664,0.3962962962962963],[-0.07083333333333333,0.387037037037037],[-0.07604166666666666,0.3851851851851852],[-0.07708333333333334,0.3851851851851852],[-0.07708333333333334,0.3851851851851852],[-0.07708333333333334,0.3851851851851852],[-0.07708333333333334,0.3851851851851852],[-0.07708333333333334,0.3851851851851852],[-0.07708333333333334,0.3851851851851852],[-0.07708333333333334,0.3851851851851852],[-0.07708333333333334,0.3851851851851852],[-0.07708333333333334,0.3851851851851852],[-0.07708333333333334,0.3851851851851852],[-0.07708333333333334,0.3851851851851852],[-0.07708333333333334,0.3851851851851852],[-0.07708333333333334,0.3851851851851852],[-0.07708333333333334,0.3851851851851852],[-0.07708333333333334,0.3851851851851852],[-0.07708333333333334,0.3851851851851852],[-0.07708333333333334,0.3851851851851852],[-0.07708333333333334,0.3851851851851852],[-0.07708333333333334,0.3851851851851852],[-0.07708333333333334,0.3851851851851852],[-0.07708333333333334,0.3851851851851852],[-0.07708333333333334,0.3851851851851852],[-0.07708333333333334,0.3851851851851852],[-0.07708333333333334,0.3851851851851852],[-0.07708333333333334,0.3851851851851852],[-0.07708333333333334,0.3851851851851852],[-0.07708333333333334,0.3851851851851852],[-0.07708333333333334,0.3851851851851852],[-0.06979166666666667,0.387037037037037],[-0.04375,0.4074074074074074],[-0.034375,0.412962962962963],[-0.014583333333333334,0.42777777777777776],[0.021875,0.4462962962962963],[0.065625,0.45925925925925926]]","[[-0.1951041666666666,-0.34314814814814815],[-0.1951041666666666,-0.34314814814814815],[-0.17406250000000004,-0.31129629629629635],[-0.17145833333333335,-0.33055555555555555],[-0.14354166666666662,-0.3068518518518518],[-0.11135416666666664,-0.2837037037037037],[-0.11135416666666664,-0.2837037037037037],[-0.11625000000000002,-0.2881481481481482],[-0.11625000000000002,-0.2881481481481482],[-0.13937499999999994,-0.3101851851851852],[-0.13937499999999994,-0.3101851851851852],[-0.13697916666666668,-0.302962962962963],[-0.13697916666666668,-0.302962962962963],[-0.1404166666666666,-0.334074074074074],[-0.14052083333333332,-0.352962962962963],[-0.1313541666666667,-0.3712962962962963],[-0.14802083333333335,-0.3814814814814815],[-0.14333333333333337,-0.384074074074074],[-0.14333333333333337,-0.384074074074074],[-0.1502083333333334,-0.375],[-0.15854166666666672,-0.40481481481481485],[-0.15854166666666672,-0.40481481481481485],[-0.15010416666666668,-0.4118518518518518],[-0.12531249999999997,-0.4072222222222222],[-0.12531249999999997,-0.4072222222222222],[-0.10531250000000002,-0.39518518518518514],[-0.1140625,-0.39277777777777784],[-0.11916666666666664,-0.4],[-0.12760416666666666,-0.4046296296296296],[-0.14197916666666663,-0.412962962962963],[-0.16749999999999995,-0.41277777777777774],[-0.16749999999999995,-0.41277777777777774],[-0.14125000000000001,-0.3961111111111111],[-0.13552083333333337,-0.35999999999999993],[-0.11604166666666664,-0.35111111111111115],[-0.09208333333333331,-0.3224074074074075],[-0.09708333333333338,-0.34500000000000003],[-0.09708333333333338,-0.34500000000000003],[-0.05302083333333331,-0.30944444444444447],[-0.03927083333333338,-0.30907407407407406],[0.0013541666666666192,-0.2929629629629629],[0.051145833333333356,-0.2788888888888889],[0.078125,-0.25037037037037035],[0.078125,-0.25037037037037035],[0.08229166666666667,-0.27092592592592596],[0.08229166666666667,-0.27092592592592596],[0.10729166666666666,-0.2712962962962963],[0.1212500000000001,-0.26351851851851854],[0.12322916666666663,-0.2788888888888889],[0.12322916666666663,-0.2788888888888889],[0.15177083333333338,-0.24648148148148152],[0.1412499999999999,-0.2544444444444444],[0.13729166666666662,-0.2581481481481481],[0.13729166666666662,-0.2581481481481481],[0.1414583333333333,-0.257962962962963],[0.1414583333333333,-0.25685185185185183],[0.13802083333333334,-0.2748148148148148],[0.14593749999999991,-0.267037037037037],[0.11208333333333324,-0.25833333333333336],[0.11302083333333333,-0.2338888888888889],[0.10708333333333328,-0.2103703703703704],[0.09406249999999995,-0.2192592592592592],[0.09645833333333324,-0.2257407407407407],[0.115625,-0.20388888888888893],[0.11604166666666677,-0.21333333333333332],[0.11604166666666677,-0.21333333333333332],[0.12239583333333333,-0.21425925925925923],[0.13416666666666663,-0.19148148148148145],[0.09291666666666672,-0.17814814814814814],[0.07989583333333337,-0.20851851851851855],[0.027395833333333286,-0.2270370370370371],[-0.013020833333333334,-0.2331481481481481],[-0.03791666666666664,-0.225],[-0.049270833333333285,-0.2264814814814815],[-0.06062500000000005,-0.227962962962963],[-0.06062500000000005,-0.227962962962963],[-0.07885416666666671,-0.22018518518518515],[-0.08020833333333334,-0.21203703703703702],[-0.08020833333333334,-0.21203703703703702],[-0.07052083333333338,-0.2168518518518519],[-0.042604166666666644,-0.227962962962963],[-0.042604166666666644,-0.227962962962963],[-0.01229166666666662,-0.22388888888888886],[0.03187500000000002,-0.23259259259259263],[0.03187500000000002,-0.23259259259259263],[0.08239583333333324,-0.2553703703703703],[0.1099999999999999,-0.29074074074074074],[0.11177083333333329,-0.3146296296296296],[0.10291666666666661,-0.3207407407407407],[0.10020833333333339,-0.32537037037037037],[0.08333333333333333,-0.3292592592592593],[0.04739583333333333,-0.3466666666666666],[0.04624999999999998,-0.3635185185185185],[0.0265625,-0.3587037037037037],[0.0265625,-0.3587037037037037],[0.002708333333333357,-0.36870370370370376],[-0.01270833333333338,-0.37166666666666665],[-0.013229166666666714,-0.36370370370370364],[-0.02958333333333331,-0.35703703703703704],[-0.022708333333333285,-0.3672222222222222],[-0.024270833333333287,-0.3983333333333334],[-0.009062500000000048,-0.4179629629629629],[0.01875,-0.4207407407407407],[0.03677083333333329,-0.4257407407407407],[0.06364583333333336,-0.445],[0.0806250000000001,-0.46592592592592597],[0.08229166666666667,-0.45999999999999996],[0.08395833333333323,-0.4540740740740741],[0.10802083333333339,-0.46648148148148144],[0.11166666666666672,-0.4792592592592593],[0.12510416666666657,-0.45870370370370367],[0.08885416666666662,-0.45092592592592595],[0.08781249999999995,-0.4703703703703704],[0.07927083333333323,-0.47833333333333333],[0.0678124999999999,-0.47259259259259256],[0.09614583333333329,-0.47259259259259256],[0.08052083333333329,-0.4898148148148148],[0.08052083333333329,-0.4898148148148148],[0.06770833333333333,-0.495],[0.034687499999999954,-0.48499999999999993],[0.007500000000000047,-0.47240740740740744],[-0.009895833333333333,-0.47537037037037033],[-0.00927083333333331,-0.4866666666666667],[-0.03739583333333331,-0.4740740740740741],[-0.017708333333333333,-0.43259259259259264],[-0.0018749999999999527,-0.40407407407407403],[-0.01604166666666664,-0.3685185185185185],[0.008749999999999977,-0.3374074074074074],[0.030729166666666665,-0.3183333333333333],[0.06322916666666671,-0.29907407407407405],[0.06322916666666671,-0.29907407407407405],[0.09187500000000005,-0.2975925925925926],[0.10625,-0.2985185185185185],[0.14270833333333333,-0.29129629629629633],[0.18364583333333329,-0.25833333333333336],[0.18364583333333329,-0.25833333333333336],[0.17614583333333325,-0.2611111111111111],[0.1790625000000001,-0.2705555555555556],[0.1790625000000001,-0.2705555555555556],[0.1814583333333334,-0.30333333333333334],[0.17979166666666657,-0.33129629629629626],[0.1787499999999999,-0.3520370370370371],[0.18875000000000006,-0.36666666666666664],[0.19322916666666667,-0.38074074074074077],[0.20666666666666675,-0.3774074074074074],[0.2109375,-0.37037037037037035],[0.22062499999999996,-0.4014814814814815],[0.21375000000000005,-0.4235185185185185],[0.2127083333333334,-0.43851851851851853],[0.21218750000000006,-0.4301851851851852],[0.21135416666666676,-0.4537037037037037],[0.21552083333333344,-0.4612962962962963],[0.20864583333333328,-0.475],[0.2131249999999999,-0.4746296296296296],[0.2189583333333334,-0.4601851851851852],[0.22406249999999991,-0.44907407407407407],[0.2099999999999999,-0.4059259259259259],[0.2131249999999999,-0.36500000000000005],[0.21083333333333343,-0.32092592592592595],[0.2085416666666667,-0.27685185185185185],[0.21624999999999991,-0.2094444444444445],[0.21604166666666677,-0.1925925925925926],[0.2013541666666666,-0.16944444444444445],[0.18291666666666656,-0.14648148148148152],[0.17677083333333338,-0.15722222222222218],[0.165625,-0.15351851851851847],[0.15437500000000004,-0.18277777777777776],[0.15104166666666666,-0.21722222222222223],[0.14177083333333323,-0.26240740740740737],[0.14697916666666658,-0.3051851851851852],[0.13572916666666662,-0.32981481481481484],[0.11229166666666662,-0.3448148148148148],[0.10333333333333337,-0.3661111111111111],[0.09812500000000005,-0.38722222222222225],[0.09812500000000005,-0.38722222222222225],[0.07114583333333328,-0.37518518518518523],[0.08739583333333342,-0.3698148148148148],[0.11041666666666666,-0.35537037037037034],[0.09177083333333323,-0.34222222222222226],[0.075,-0.3225925925925926],[0.051145833333333356,-0.3059259259259259],[0.04364583333333331,-0.30185185185185187],[0.04770833333333328,-0.28777777777777774],[0.051770833333333384,-0.2737037037037037],[0.03270833333333331,-0.2522222222222222],[0.01593749999999995,-0.2561111111111111],[0.01593749999999995,-0.2561111111111111],[-0.036249999999999956,-0.27870370370370373],[-0.08166666666666664,-0.287962962962963],[-0.09333333333333335,-0.29074074074074074],[-0.11041666666666666,-0.30166666666666664],[-0.13489583333333333,-0.31203703703703706],[-0.16510416666666666,-0.33129629629629626],[-0.19239583333333338,-0.3427777777777778],[-0.21812499999999999,-0.3425925925925926],[-0.22072916666666664,-0.34981481481481475],[-0.21989583333333335,-0.3792592592592593],[-0.23604166666666668,-0.3881481481481482],[-0.24260416666666665,-0.3968518518518519],[-0.2586458333333333,-0.4033333333333334],[-0.26927083333333335,-0.4016666666666666],[-0.2552083333333333,-0.40407407407407403],[-0.2552083333333333,-0.40407407407407403],[-0.22291666666666668,-0.3931481481481482],[-0.22291666666666668,-0.3931481481481482],[-0.19125000000000003,-0.3881481481481482]]","[[-0.1951041666666666,-0.34314814814814815,0.0000999999940418661],[-0.1951041666666666,-0.34314814814814815,0.0496999999880785],[-0.17406250000000004,-0.31129629629629635,0.05579999999702068],[-0.17145833333333335,-0.33055555555555555,0.07239999999106317],[-0.14354166666666662,-0.3068518518518518,0.09199999999999875],[-0.11135416666666664,-0.2837037037037037,0.10959999999403891],[-0.11135416666666664,-0.2837037037037037,0.12250000000000227],[-0.11625000000000002,-0.2881481481481482,0.13919999998807953],[-0.11625000000000002,-0.2881481481481482,0.15589999999106396],[-0.13937499999999994,-0.3101851851851852,0.18139999999106493],[-0.13937499999999994,-0.3101851851851852,0.1891999999880838],[-0.13697916666666668,-0.302962962962963,0.20589999999106112],[-0.13697916666666668,-0.302962962962963,0.22259999999403846],[-0.1404166666666666,-0.334074074074074,0.24200000000000443],[-0.14052083333333332,-0.352962962962963,0.2585999999940398],[-0.1313541666666667,-0.3712962962962963,0.2746999999880799],[-0.14802083333333335,-0.3814814814814815,0.28909999999404334],[-0.14333333333333337,-0.384074074074074,0.31009999999404414],[-0.14333333333333337,-0.384074074074074,0.3225000000000051],[-0.1502083333333334,-0.375,0.3392999999970243],[-0.15854166666666672,-0.40481481481481485,0.35759999999404357],[-0.15854166666666672,-0.40481481481481485,0.3723999999910603],[-0.15010416666666668,-0.4118518518518518,0.3891999999880795],[-0.12531249999999997,-0.4072222222222222,0.4089999999999989],[-0.12531249999999997,-0.4072222222222222,0.42269999998808316],[-0.10531250000000002,-0.39518518518518514,0.4391999999880838],[-0.1140625,-0.39277777777777784,0.45579999999701926],[-0.11916666666666664,-0.4,0.4759999999999991],[-0.12760416666666666,-0.4046296296296296,0.4897999999970253],[-0.14197916666666663,-0.412962962962963,0.5057999999970235],[-0.16749999999999995,-0.41277777777777774,0.5335999999940384],[-0.16749999999999995,-0.41277777777777774,0.5402999999970248],[-0.14125000000000001,-0.3961111111111111,0.5558999999910625],[-0.13552083333333337,-0.35999999999999993,0.5725000000000051],[-0.11604166666666664,-0.35111111111111115,0.5923999999910592],[-0.09208333333333331,-0.3224074074074075,0.6062999999970202],[-0.09708333333333338,-0.34500000000000003,0.6270999999940443],[-0.09708333333333338,-0.34500000000000003,0.6391999999880795],[-0.05302083333333331,-0.30944444444444447,0.6585000000000036],[-0.03927083333333338,-0.30907407407407406,0.6745000000000019],[0.0013541666666666192,-0.2929629629629629,0.6916999999880815],[0.051145833333333356,-0.2788888888888889,0.7057999999970193],[0.078125,-0.25037037037037035,0.7241999999880804],[0.078125,-0.25037037037037035,0.739199999988081],[0.08229166666666667,-0.27092592592592596,0.7558999999910583],[0.08229166666666667,-0.27092592592592596,0.7755999999940428],[0.10729166666666666,-0.2712962962962963,0.7902999999970248],[0.1212500000000001,-0.26351851851851854,0.8082999999970255],[0.12322916666666663,-0.2788888888888889,0.8285999999940401],[0.12322916666666663,-0.2788888888888889,0.8392999999970243],[0.15177083333333338,-0.24648148148148152,0.8558999999910597],[0.1412499999999999,-0.2544444444444444,0.8725000000000023],[0.13729166666666662,-0.2581481481481481,0.8930000000000007],[0.13729166666666662,-0.2581481481481481,0.9057999999970221],[0.1414583333333333,-0.257962962962963,0.9223999999910646],[0.1414583333333333,-0.25685185185185183,0.9391999999880838],[0.13802083333333334,-0.2748148148148148,0.9583999999910588],[0.14593749999999991,-0.267037037037037,0.9722999999970199],[0.11208333333333324,-0.25833333333333336,0.9890999999940391],[0.11302083333333333,-0.2338888888888889,1.0057999999970235],[0.10708333333333328,-0.2103703703703704,1.0222999999970241],[0.09406249999999995,-0.2192592592592592,1.0418999999910596],[0.09645833333333324,-0.2257407407407407,1.056299999997023],[0.115625,-0.20388888888888893,1.0721999999880794],[0.11604166666666677,-0.21333333333333332,1.0920999999940406],[0.11604166666666677,-0.21333333333333332,1.1055999999940411],[0.12239583333333333,-0.21425925925925923,1.1255000000000024],[0.13416666666666663,-0.19148148148148145,1.1397999999970239],[0.09291666666666672,-0.17814814814814814,1.156599999994043],[0.07989583333333337,-0.20851851851851855,1.1757999999970252],[0.027395833333333286,-0.2270370370370371,1.1905000000000001],[-0.013020833333333334,-0.2331481481481481,1.2057999999970193],[-0.03791666666666664,-0.225,1.2261999999880828],[-0.049270833333333285,-0.2264814814814815,1.2423999999910649],[-0.06062500000000005,-0.227962962962963,1.2611999999880794],[-0.06062500000000005,-0.227962962962963,1.272399999991059],[-0.07885416666666671,-0.22018518518518515,1.2918999999910596],[-0.08020833333333334,-0.21203703703703702,1.3057999999970207],[-0.08020833333333334,-0.21203703703703702,1.3225000000000051],[-0.07052083333333338,-0.2168518518518519,1.3390999999940405],[-0.042604166666666644,-0.227962962962963,1.358000000000004],[-0.042604166666666644,-0.227962962962963,1.3723999999910603],[-0.01229166666666662,-0.22388888888888886,1.3892999999970215],[0.03187500000000002,-0.23259259259259263,1.4095999999940432],[0.03187500000000002,-0.23259259259259263,1.4225999999940413],[0.08239583333333324,-0.2553703703703703,1.4391999999880838],[0.1099999999999999,-0.29074074074074074,1.4557999999970193],[0.11177083333333329,-0.3146296296296296,1.4763999999910595],[0.10291666666666661,-0.3207407407407407,1.4920000000000044],[0.10020833333333339,-0.32537037037037037,1.5071999999880816],[0.08333333333333333,-0.3292592592592593,1.5275000000000034],[0.04739583333333333,-0.3466666666666666,1.5427999999970226],[0.04624999999999998,-0.3635185185185185,1.558599999994044],[0.0265625,-0.3587037037037037,1.5722999999970213],[0.0265625,-0.3587037037037037,1.5890000000000057],[0.002708333333333357,-0.36870370370370376,1.605699999988083],[-0.01270833333333338,-0.37166666666666665,1.6222999999970256],[-0.013229166666666714,-0.36370370370370364,1.640399999991061],[-0.02958333333333331,-0.35703703703703704,1.6556999999880802],[-0.022708333333333285,-0.3672222222222222,1.6722999999970227],[-0.024270833333333287,-0.3983333333333334,1.6938999999910607],[-0.009062500000000048,-0.4179629629629629,1.7085999999940427],[0.01875,-0.4207407407407407,1.723699999988078],[0.03677083333333329,-0.4257407407407407,1.7390000000000043],[0.06364583333333336,-0.445,1.7556999999880816],[0.0806250000000001,-0.46592592592592597,1.7722999999970241],[0.08229166666666667,-0.45999999999999996,1.7890000000000015],[0.08395833333333323,-0.4540740740740741,1.805599999994044],[0.10802083333333339,-0.46648148148148144,1.8222999999970213],[0.11166666666666672,-0.4792592592592593,1.8391999999880824],[0.12510416666666657,-0.45870370370370367,1.8577999999970203],[0.08885416666666662,-0.45092592592592595,1.8723999999910603],[0.08781249999999995,-0.4703703703703704,1.8930000000000007],[0.07927083333333323,-0.47833333333333333,1.910499999999999],[0.0678124999999999,-0.47259259259259256,1.9255999999940414],[0.09614583333333329,-0.47259259259259256,1.9392999999970186],[0.08052083333333329,-0.4898148148148148,1.9640999999940405],[0.08052083333333329,-0.4898148148148148,1.9723999999910617],[0.06770833333333333,-0.495,1.989199999988081],[0.034687499999999954,-0.48499999999999993,2.0057999999970235],[0.007500000000000047,-0.47240740740740744,2.025399999991059],[-0.009895833333333333,-0.47537037037037033,2.039500000000004],[-0.00927083333333331,-0.4866666666666667,2.057799999997023],[-0.03739583333333331,-0.4740740740740741,2.0761999999880842],[-0.017708333333333333,-0.43259259259259264,2.0915000000000035],[-0.0018749999999999527,-0.40407407407407403,2.1066999999880807],[-0.01604166666666664,-0.3685185185185185,2.1270999999940443],[0.008749999999999977,-0.3374074074074074,2.1428999999910587],[0.030729166666666665,-0.3183333333333333,2.1601999999880803],[0.06322916666666671,-0.29907407407407405,2.1776999999880786],[0.06322916666666671,-0.29907407407407405,2.189099999994042],[0.09187500000000005,-0.2975925925925926,2.2057999999970193],[0.10625,-0.2985185185185185,2.225500000000004],[0.14270833333333333,-0.29129629629629633,2.243099999994044],[0.18364583333333329,-0.25833333333333336,2.2630000000000052],[0.18364583333333329,-0.25833333333333336,2.272299999997024],[0.17614583333333325,-0.2611111111111111,2.2890000000000015],[0.1790625000000001,-0.2705555555555556,2.3091999999880812],[0.1790625000000001,-0.2705555555555556,2.3283999999910634],[0.1814583333333334,-0.30333333333333334,2.339500000000001],[0.17979166666666657,-0.33129629629629626,2.355599999994041],[0.1787499999999999,-0.3520370370370371,2.3722999999970256],[0.18875000000000006,-0.36666666666666664,2.388899999991061],[0.19322916666666667,-0.38074074074074077,2.4055999999940383],[0.20666666666666675,-0.3774074074074074,2.4224999999999994],[0.2109375,-0.37037037037037035,2.439],[0.22062499999999996,-0.4014814814814815,2.4555999999940425],[0.21375000000000005,-0.4235185185185185,2.47229999999702],[0.2127083333333334,-0.43851851851851853,2.489099999994039],[0.21218750000000006,-0.4301851851851852,2.5056999999880816],[0.21135416666666676,-0.4537037037037037,2.526299999997022],[0.21552083333333344,-0.4612962962962963,2.540899999991062],[0.20864583333333328,-0.475,2.555599999994044],[0.2131249999999999,-0.4746296296296296,2.57259999999404],[0.2189583333333334,-0.4601851851851852,2.5890000000000057],[0.22406249999999991,-0.44907407407407407,2.605599999994041],[0.2099999999999999,-0.4059259259259259,2.6222999999970256],[0.2131249999999999,-0.36500000000000005,2.638899999991061],[0.21083333333333343,-0.32092592592592595,2.655799999997022],[0.2085416666666667,-0.27685185185185185,2.6730999999940437],[0.21624999999999991,-0.2094444444444445,2.6931999999880816],[0.21604166666666677,-0.1925925925925926,2.7076999999880798],[0.2013541666666666,-0.16944444444444445,2.724499999999999],[0.18291666666666656,-0.14648148148148152,2.7394999999999996],[0.17677083333333338,-0.15722222222222218,2.7581999999880793],[0.165625,-0.15351851851851847,2.772399999991059],[0.15437500000000004,-0.18277777777777776,2.78929999999702],[0.15104166666666666,-0.21722222222222223,2.8100000000000023],[0.14177083333333323,-0.26240740740740737,2.825000000000003],[0.14697916666666658,-0.3051851851851852,2.8390999999940405],[0.13572916666666662,-0.32981481481481484,2.8592999999970203],[0.11229166666666662,-0.3448148148148148,2.8730999999940394],[0.10333333333333337,-0.3661111111111111,2.8891999999880795],[0.09812500000000005,-0.38722222222222225,2.9055999999940383],[0.09812500000000005,-0.38722222222222225,2.9223999999910646],[0.07114583333333328,-0.37518518518518523,2.938899999991058],[0.08739583333333342,-0.3698148148148148,2.9556999999880844],[0.11041666666666666,-0.35537037037037034,2.97229999999702],[0.09177083333333323,-0.34222222222222226,2.9890000000000043],[0.075,-0.3225925925925926,3.0055999999940397],[0.051145833333333356,-0.3059259259259259,3.0248999999910637],[0.04364583333333331,-0.30185185185185187,3.0390000000000015],[0.04770833333333328,-0.28777777777777774,3.0556999999880787],[0.051770833333333384,-0.2737037037037037,3.0722999999970213],[0.03270833333333331,-0.2522222222222222,3.0890000000000057],[0.01593749999999995,-0.2561111111111111,3.105799999997025],[0.01593749999999995,-0.2561111111111111,3.1225000000000023],[-0.036249999999999956,-0.27870370370370373,3.139000000000003],[-0.08166666666666664,-0.287962962962963,3.1555999999940383],[-0.09333333333333335,-0.29074074074074074,3.1756999999880833],[-0.11041666666666666,-0.30166666666666664,3.188899999991058],[-0.13489583333333333,-0.31203703703703706,3.2055999999940425],[-0.16510416666666666,-0.33129629629629626,3.2250999999940433],[-0.19239583333333338,-0.3427777777777778,3.2390000000000043],[-0.21812499999999999,-0.3425925925925926,3.2555999999940397],[-0.22072916666666664,-0.34981481481481475,3.272399999991059],[-0.21989583333333335,-0.3792592592592593,3.2890000000000015],[-0.23604166666666668,-0.3881481481481482,3.305599999994044],[-0.24260416666666665,-0.3968518518518519,3.3226999999880817],[-0.2586458333333333,-0.4033333333333334,3.341000000000001],[-0.26927083333333335,-0.4016666666666666,3.3585999999940412],[-0.2552083333333333,-0.40407407407407403,3.376599999994042],[-0.2552083333333333,-0.40407407407407403,3.3890999999940448],[-0.22291666666666668,-0.3931481481481482,3.4091999999880827],[-0.22291666666666668,-0.3931481481481482,3.422699999988083],[-0.19125000000000003,-0.3881481481481482,3.439199999988084]]","[0.0000999999940418661,0.0496999999880785,0.05579999999702068,0.07239999999106317,0.09199999999999875,0.10959999999403891,0.12250000000000227,0.13919999998807953,0.15589999999106396,0.18139999999106493,0.1891999999880838,0.20589999999106112,0.22259999999403846,0.24200000000000443,0.2585999999940398,0.2746999999880799,0.28909999999404334,0.31009999999404414,0.3225000000000051,0.3392999999970243,0.35759999999404357,0.3723999999910603,0.3891999999880795,0.4089999999999989,0.42269999998808316,0.4391999999880838,0.45579999999701926,0.4759999999999991,0.4897999999970253,0.5057999999970235,0.5335999999940384,0.5402999999970248,0.5558999999910625,0.5725000000000051,0.5923999999910592,0.6062999999970202,0.6270999999940443,0.6391999999880795,0.6585000000000036,0.6745000000000019,0.6916999999880815,0.7057999999970193,0.7241999999880804,0.739199999988081,0.7558999999910583,0.7755999999940428,0.7902999999970248,0.8082999999970255,0.8285999999940401,0.8392999999970243,0.8558999999910597,0.8725000000000023,0.8930000000000007,0.9057999999970221,0.9223999999910646,0.9391999999880838,0.9583999999910588,0.9722999999970199,0.9890999999940391,1.0057999999970235,1.0222999999970241,1.0418999999910596,1.056299999997023,1.0721999999880794,1.0920999999940406,1.1055999999940411,1.1255000000000024,1.1397999999970239,1.156599999994043,1.1757999999970252,1.1905000000000001,1.2057999999970193,1.2261999999880828,1.2423999999910649,1.2611999999880794,1.272399999991059,1.2918999999910596,1.3057999999970207,1.3225000000000051,1.3390999999940405,1.358000000000004,1.3723999999910603,1.3892999999970215,1.4095999999940432,1.4225999999940413,1.4391999999880838,1.4557999999970193,1.4763999999910595,1.4920000000000044,1.5071999999880816,1.5275000000000034,1.5427999999970226,1.558599999994044,1.5722999999970213,1.5890000000000057,1.605699999988083,1.6222999999970256,1.640399999991061,1.6556999999880802,1.6722999999970227,1.6938999999910607,1.7085999999940427,1.723699999988078,1.7390000000000043,1.7556999999880816,1.7722999999970241,1.7890000000000015,1.805599999994044,1.8222999999970213,1.8391999999880824,1.8577999999970203,1.8723999999910603,1.8930000000000007,1.910499999999999,1.9255999999940414,1.9392999999970186,1.9640999999940405,1.9723999999910617,1.989199999988081,2.0057999999970235,2.025399999991059,2.039500000000004,2.057799999997023,2.0761999999880842,2.0915000000000035,2.1066999999880807,2.1270999999940443,2.1428999999910587,2.1601999999880803,2.1776999999880786,2.189099999994042,2.2057999999970193,2.225500000000004,2.243099999994044,2.2630000000000052,2.272299999997024,2.2890000000000015,2.3091999999880812,2.3283999999910634,2.339500000000001,2.355599999994041,2.3722999999970256,2.388899999991061,2.4055999999940383,2.4224999999999994,2.439,2.4555999999940425,2.47229999999702,2.489099999994039,2.5056999999880816,2.526299999997022,2.540899999991062,2.555599999994044,2.57259999999404,2.5890000000000057,2.605599999994041,2.6222999999970256,2.638899999991061,2.655799999997022,2.6730999999940437,2.6931999999880816,2.7076999999880798,2.724499999999999,2.7394999999999996,2.7581999999880793,2.772399999991059,2.78929999999702,2.8100000000000023,2.825000000000003,2.8390999999940405,2.8592999999970203,2.8730999999940394,2.8891999999880795,2.9055999999940383,2.9223999999910646,2.938899999991058,2.9556999999880844,2.97229999999702,2.9890000000000043,3.0055999999940397,3.0248999999910637,3.0390000000000015,3.0556999999880787,3.0722999999970213,3.0890000000000057,3.105799999997025,3.1225000000000023,3.139000000000003,3.1555999999940383,3.1756999999880833,3.188899999991058,3.2055999999940425,3.2250999999940433,3.2390000000000043,3.2555999999940397,3.272399999991059,3.2890000000000015,3.305599999994044,3.3226999999880817,3.341000000000001,3.3585999999940412,3.376599999994042,3.3890999999940448,3.4091999999880827,3.422699999988083,3.439199999988084]","[1732512400818,1732512400862,1732512400868,1732512400885,1732512400905,1732512400922,1732512400935,1732512400952,1732512400968,1732512400994,1732512401002,1732512401019,1732512401035,1732512401055,1732512401071,1732512401087,1732512401102,1732512401123,1732512401135,1732512401152,1732512401170,1732512401185,1732512401202,1732512401222,1732512401235,1732512401252,1732512401268,1732512401289,1732512401302,1732512401318,1732512401346,1732512401353,1732512401369,1732512401385,1732512401405,1732512401419,1732512401440,1732512401452,1732512401471,1732512401487,1732512401504,1732512401518,1732512401537,1732512401552,1732512401569,1732512401588,1732512401603,1732512401621,1732512401641,1732512401652,1732512401669,1732512401685,1732512401706,1732512401718,1732512401735,1732512401752,1732512401771,1732512401785,1732512401802,1732512401818,1732512401835,1732512401854,1732512401869,1732512401885,1732512401905,1732512401918,1732512401938,1732512401952,1732512401969,1732512401988,1732512402003,1732512402018,1732512402039,1732512402055,1732512402074,1732512402085,1732512402105,1732512402118,1732512402135,1732512402152,1732512402171,1732512402185,1732512402202,1732512402222,1732512402235,1732512402252,1732512402268,1732512402289,1732512402305,1732512402320,1732512402340,1732512402355,1732512402371,1732512402385,1732512402402,1732512402418,1732512402435,1732512402453,1732512402468,1732512402485,1732512402507,1732512402521,1732512402536,1732512402552,1732512402568,1732512402585,1732512402602,1732512402618,1732512402635,1732512402652,1732512402670,1732512402685,1732512402706,1732512402723,1732512402738,1732512402752,1732512402777,1732512402785,1732512402802,1732512402818,1732512402838,1732512402852,1732512402871,1732512402889,1732512402904,1732512402919,1732512402940,1732512402955,1732512402973,1732512402990,1732512403002,1732512403018,1732512403038,1732512403056,1732512403076,1732512403085,1732512403102,1732512403122,1732512403141,1732512403152,1732512403168,1732512403185,1732512403202,1732512403218,1732512403235,1732512403252,1732512403268,1732512403285,1732512403302,1732512403318,1732512403339,1732512403354,1732512403368,1732512403385,1732512403402,1732512403418,1732512403435,1732512403452,1732512403468,1732512403486,1732512403506,1732512403520,1732512403537,1732512403552,1732512403571,1732512403585,1732512403602,1732512403623,1732512403638,1732512403652,1732512403672,1732512403686,1732512403702,1732512403718,1732512403735,1732512403752,1732512403768,1732512403785,1732512403802,1732512403818,1732512403838,1732512403852,1732512403868,1732512403885,1732512403902,1732512403918,1732512403935,1732512403952,1732512403968,1732512403988,1732512404002,1732512404018,1732512404038,1732512404052,1732512404068,1732512404085,1732512404102,1732512404118,1732512404135,1732512404154,1732512404171,1732512404189,1732512404202,1732512404222,1732512404235,1732512404252]","[[772.7,354.7],[772.7,354.7],[792.9,371.9],[795.4,361.5],[822.2,374.3],[853.1,386.8],[853.1,386.8],[848.4,384.4],[848.4,384.4],[826.2,372.5],[826.2,372.5],[828.5,376.4],[828.5,376.4],[825.2,359.6],[825.1,349.4],[833.9,339.5],[817.9,334],[822.4,332.6],[822.4,332.6],[815.8,337.5],[807.8,321.4],[807.8,321.4],[815.9,317.6],[839.7,320.1],[839.7,320.1],[858.9,326.6],[850.5,327.9],[845.6,324],[837.5,321.5],[823.7,317],[799.2,317.1],[799.2,317.1],[824.4,326.1],[829.9,345.6],[848.6,350.4],[871.6,365.9],[866.8,353.7],[866.8,353.7],[909.1,372.9],[922.3,373.1],[961.3,381.8],[1009.1,389.4],[1035,404.8],[1035,404.8],[1039,393.7],[1039,393.7],[1063,393.5],[1076.4,397.7],[1078.3,389.4],[1078.3,389.4],[1105.7,406.9],[1095.6,402.6],[1091.8,400.6],[1091.8,400.6],[1095.8,400.7],[1095.8,401.3],[1092.5,391.6],[1100.1,395.8],[1067.6,400.5],[1068.5,413.7],[1062.8,426.4],[1050.3,421.6],[1052.6,418.1],[1071,429.9],[1071.4,424.8],[1071.4,424.8],[1077.5,424.3],[1088.8,436.6],[1049.2,443.8],[1036.7,427.4],[986.3,417.4],[947.5,414.1],[923.6,418.5],[912.7,417.7],[901.8,416.9],[901.8,416.9],[884.3,421.1],[883,425.5],[883,425.5],[892.3,422.9],[919.1,416.9],[919.1,416.9],[948.2,419.1],[990.6,414.4],[990.6,414.4],[1039.1,402.1],[1065.6,383],[1067.3,370.1],[1058.8,366.8],[1056.2,364.3],[1040,362.2],[1005.5,352.8],[1004.4,343.7],[985.5,346.3],[985.5,346.3],[962.6,340.9],[947.8,339.3],[947.3,343.6],[931.6,347.2],[938.2,341.7],[936.7,324.9],[951.3,314.3],[978,312.8],[995.3,310.1],[1021.1,299.7],[1037.4,288.4],[1039,291.6],[1040.6,294.8],[1063.7,288.1],[1067.2,281.2],[1080.1,292.3],[1045.3,296.5],[1044.3,286],[1036.1,281.7],[1025.1,284.8],[1052.3,284.8],[1037.3,275.5],[1037.3,275.5],[1025,272.7],[993.3,278.1],[967.2,284.9],[950.5,283.3],[951.1,277.2],[924.1,284],[943,306.4],[958.2,321.8],[944.6,341],[968.4,357.8],[989.5,368.1],[1020.7,378.5],[1020.7,378.5],[1048.2,379.3],[1062,378.8],[1097,382.7],[1136.3,400.5],[1136.3,400.5],[1129.1,399],[1131.9,393.9],[1131.9,393.9],[1134.2,376.2],[1132.6,361.1],[1131.6,349.9],[1141.2,342],[1145.5,334.4],[1158.4,336.2],[1162.5,340],[1171.8,323.2],[1165.2,311.3],[1164.2,303.2],[1163.7,307.7],[1162.9,295],[1166.9,290.9],[1160.3,283.5],[1164.6,283.7],[1170.2,291.5],[1175.1,297.5],[1161.6,320.8],[1164.6,342.9],[1162.4,366.7],[1160.2,390.5],[1167.6,426.9],[1167.4,436],[1153.3,448.5],[1135.6,460.9],[1129.7,455.1],[1119,457.1],[1108.2,441.3],[1105,422.7],[1096.1,398.3],[1101.1,375.2],[1090.3,361.9],[1067.8,353.8],[1059.2,342.3],[1054.2,330.9],[1054.2,330.9],[1028.3,337.4],[1043.9,340.3],[1066,348.1],[1048.1,355.2],[1032,365.8],[1009.1,374.8],[1001.9,377],[1005.8,384.6],[1009.7,392.2],[991.4,403.8],[975.3,401.7],[975.3,401.7],[925.2,389.5],[881.6,384.5],[870.4,383],[854,377.1],[830.5,371.5],[801.5,361.1],[775.3,354.9],[750.6,355],[748.1,351.1],[748.9,335.2],[733.4,330.4],[727.1,325.7],[711.7,322.2],[701.5,323.1],[715,321.8],[715,321.8],[746,327.7],[746,327.7],[776.4,330.4]]","[-0.132282,0.39684600000000003]","[0.132282,0.39684600000000003]","[0.39684600000000003,0.39684600000000003]","[-0.39684600000000003,-0.39684600000000003]","[-0.39684600000000003,0.132282]","[-0.39684600000000003,-0.132282]","[-0.132282,-0.39684600000000003]","[0.132282,-0.39684600000000003]","[0.39684600000000003,-0.39684600000000003]","[-0.132282,0.132282]","[0.132282,0.132282]","[0.39684600000000003,0.132282]","[-0.132282,-0.132282]","[0.132282,-0.132282]","[0.39684600000000003,-0.132282]",0,0,0,0,1,3,Tablet,25,40,9,1,50,4,1,60,5
,,,,,,,,,,,,,,,,,,,31,001,2024-11-25_13h26.07.369,Attention_exp_legacy,2023.1.0,Win32,59.88023952,,,,,,,,,,[0.18125],[0.4166666666666667],[1],[0],[0],[1.5962999999970222],"[""Metro_label""]",Metro_label,2,2.6119,"[[0.19479166666666667,0.4388888888888889],[0.19479166666666667,0.4388888888888889],[0.19479166666666667,0.4388888888888889],[0.19479166666666667,0.4388888888888889],[0.19479166666666667,0.4388888888888889],[0.19479166666666667,0.4388888888888889],[0.19479166666666667,0.4388888888888889],[0.19479166666666667,0.4388888888888889],[0.19479166666666667,0.4388888888888889],[0.19479166666666667,0.4388888888888889],[0.19479166666666667,0.4388888888888889],[0.19479166666666667,0.4388888888888889],[0.19479166666666667,0.4388888888888889],[0.19479166666666667,0.4388888888888889],[0.19479166666666667,0.4388888888888889],[0.19479166666666667,0.4388888888888889],[0.19479166666666667,0.4388888888888889],[0.19479166666666667,0.4388888888888889],[0.19479166666666667,0.4388888888888889],[0.19479166666666667,0.4388888888888889],[0.19479166666666667,0.4388888888888889],[0.19479166666666667,0.4388888888888889],[0.19479166666666667,0.4388888888888889],[0.19479166666666667,0.4388888888888889],[0.19479166666666667,0.4388888888888889],[0.19479166666666667,0.4388888888888889],[0.19479166666666667,0.4388888888888889],[0.19479166666666667,0.4388888888888889],[0.19479166666666667,0.4388888888888889],[0.19479166666666667,0.4388888888888889],[0.19479166666666667,0.4388888888888889],[0.19479166666666667,0.4388888888888889],[0.19479166666666667,0.4388888888888889],[0.19479166666666667,0.4388888888888889],[0.19479166666666667,0.4388888888888889],[0.19479166666666667,0.4388888888888889],[0.19479166666666667,0.4388888888888889],[0.19479166666666667,0.4388888888888889],[0.19479166666666667,0.4388888888888889],[0.19479166666666667,0.4388888888888889],[0.19479166666666667,0.4388888888888889],[0.19479166666666667,0.4388888888888889],[0.19479166666666667,0.4388888888888889],[0.19479166666666667,0.4388888888888889],[0.19479166666666667,0.4388888888888889],[0.19479166666666667,0.4388888888888889],[0.19479166666666667,0.4388888888888889],[0.19479166666666667,0.4388888888888889],[0.19479166666666667,0.4388888888888889],[0.19479166666666667,0.4388888888888889],[0.19479166666666667,0.4388888888888889],[0.19479166666666667,0.4388888888888889],[0.19479166666666667,0.4388888888888889],[0.19479166666666667,0.4388888888888889],[0.19479166666666667,0.4388888888888889],[0.19479166666666667,0.4388888888888889],[0.19479166666666667,0.4388888888888889],[0.19479166666666667,0.4388888888888889],[0.19479166666666667,0.4388888888888889],[0.19479166666666667,0.4388888888888889],[0.19479166666666667,0.4388888888888889],[0.19479166666666667,0.4388888888888889],[0.19479166666666667,0.4388888888888889],[0.19479166666666667,0.4388888888888889],[0.19479166666666667,0.4388888888888889],[0.19375,0.4388888888888889],[0.18958333333333333,0.43333333333333335],[0.1875,0.42962962962962964],[0.1875,0.42777777777777776],[0.18541666666666667,0.42592592592592593],[0.184375,0.42407407407407405],[0.18333333333333332,0.4222222222222222],[0.18333333333333332,0.4222222222222222],[0.18125,0.4166666666666667],[0.18125,0.4166666666666667],[0.18125,0.4166666666666667],[0.18125,0.4166666666666667],[0.18125,0.4166666666666667],[0.18125,0.4166666666666667],[0.18125,0.4166666666666667],[0.18125,0.4166666666666667],[0.18125,0.4166666666666667],[0.18125,0.4166666666666667],[0.18125,0.4166666666666667],[0.18125,0.4166666666666667],[0.18125,0.4166666666666667],[0.18125,0.4166666666666667],[0.18125,0.4166666666666667],[0.18125,0.4166666666666667],[0.18125,0.4166666666666667],[0.18125,0.4166666666666667],[0.18125,0.4166666666666667],[0.18125,0.4166666666666667],[0.18125,0.4166666666666667],[0.18125,0.4166666666666667],[0.18125,0.4166666666666667],[0.18125,0.4166666666666667],[0.18125,0.4166666666666667],[0.18125,0.4166666666666667],[0.18125,0.4166666666666667],[0.18125,0.4166666666666667],[0.18125,0.4166666666666667],[0.18125,0.4166666666666667],[0.18125,0.4166666666666667],[0.18125,0.4166666666666667],[0.18125,0.4166666666666667],[0.18125,0.4166666666666667],[0.18125,0.4166666666666667],[0.18125,0.4166666666666667],[0.18125,0.4166666666666667],[0.18125,0.4166666666666667],[0.18125,0.4166666666666667],[0.18125,0.4166666666666667],[0.18125,0.4166666666666667],[0.18125,0.4166666666666667],[0.18125,0.4166666666666667],[0.18125,0.4166666666666667],[0.18125,0.4166666666666667],[0.18125,0.4166666666666667],[0.18125,0.4166666666666667],[0.18125,0.4166666666666667],[0.18125,0.4166666666666667],[0.18125,0.4166666666666667],[0.18125,0.4166666666666667],[0.18125,0.4166666666666667],[0.18125,0.4166666666666667],[0.18125,0.4166666666666667],[0.18125,0.4166666666666667],[0.18125,0.4166666666666667],[0.18125,0.4166666666666667],[0.18125,0.4166666666666667],[0.18125,0.4166666666666667],[0.18125,0.4166666666666667],[0.18125,0.4166666666666667],[0.18125,0.4166666666666667],[0.18125,0.4166666666666667],[0.18125,0.4166666666666667],[0.18125,0.4166666666666667],[0.18125,0.4166666666666667],[0.18125,0.4166666666666667],[0.18125,0.4166666666666667],[0.18125,0.4166666666666667],[0.18125,0.4166666666666667],[0.18125,0.4166666666666667],[0.18125,0.4166666666666667],[0.18125,0.4166666666666667],[0.18125,0.4166666666666667],[0.18125,0.4166666666666667],[0.18125,0.4166666666666667],[0.18125,0.4166666666666667],[0.18125,0.4166666666666667],[0.18125,0.4166666666666667],[0.18125,0.4166666666666667],[0.18125,0.4166666666666667],[0.18125,0.4166666666666667],[0.18125,0.4166666666666667],[0.18125,0.4166666666666667],[0.18125,0.4166666666666667]]","[[0.02822916666666669,-0.4874074074074074],[0.02822916666666669,-0.4874074074074074],[0.016145833333333335,-0.4457407407407407],[-0.0067708333333333336,-0.3901851851851852],[-0.024687500000000046,-0.37037037037037035],[-0.03218749999999997,-0.3509259259259259],[-0.03083333333333336,-0.36870370370370376],[-0.04458333333333329,-0.39888888888888885],[-0.014999999999999977,-0.4287037037037037],[-0.003958333333333286,-0.4746296296296296],[0.012187500000000047,-0.5366666666666667],[0.01260416666666669,-0.5794444444444444],[0.020937500000000022,-0.6198148148148148],[0.04125000000000002,-0.6731481481481482],[0.06156250000000003,-0.7264814814814815],[0.06739583333333338,-0.7698148148148148],[0.052291666666666715,-0.779074074074074],[0.041979166666666616,-0.757962962962963],[0.03166666666666664,-0.7368518518518518],[0.03166666666666664,-0.7368518518518518],[0.05489583333333338,-0.6931481481481482],[0.07156250000000004,-0.6411111111111111],[0.08364583333333328,-0.6127777777777778],[0.0990624999999999,-0.5827777777777777],[0.10927083333333343,-0.5501851851851852],[0.10927083333333343,-0.5501851851851852],[0.11145833333333334,-0.5162962962962964],[0.11843750000000004,-0.4818518518518518],[0.12541666666666676,-0.4474074074074075],[0.12541666666666676,-0.4474074074074075],[0.13114583333333343,-0.42407407407407405],[0.14656250000000004,-0.39944444444444444],[0.15177083333333338,-0.36814814814814817],[0.15177083333333338,-0.36814814814814817],[0.16145833333333334,-0.362962962962963],[0.15499999999999994,-0.3375925925925926],[0.1443749999999999,-0.3133333333333333],[0.13562500000000005,-0.26425925925925925],[0.13552083333333323,-0.24685185185185188],[0.12843749999999995,-0.2022222222222222],[0.1319791666666667,-0.1514814814814815],[0.1319791666666667,-0.1514814814814815],[0.1352083333333333,-0.1307407407407408],[0.1352083333333333,-0.1307407407407408],[0.1334374999999999,-0.08907407407407411],[0.10281250000000004,-0.08444444444444449],[0.07427083333333329,-0.062037037037037036],[0.06135416666666664,-0.06925925925925921],[0.07697916666666677,-0.05851851851851856],[0.09072916666666657,-0.07259259259259257],[0.09406249999999995,-0.05722222222222218],[0.103125,-0.05907407407407403],[0.09041666666666662,-0.07777777777777778],[0.07447916666666667,-0.08574074074074076],[0.07447916666666667,-0.08574074074074076],[0.06989583333333324,-0.12111111111111107],[0.08937499999999995,-0.13259259259259262],[0.10541666666666671,-0.1264814814814815],[0.12197916666666657,-0.11092592592592589],[0.12197916666666657,-0.11092592592592589],[0.11375000000000005,-0.12000000000000002],[0.11145833333333334,-0.11944444444444445],[0.11895833333333337,-0.11796296296296294],[0.09822916666666662,-0.1316666666666667],[0.08864583333333324,-0.1346296296296296],[0.07197916666666657,-0.13055555555555556],[0.07625000000000005,-0.15129629629629626],[0.07625000000000005,-0.15129629629629626],[0.08604166666666657,-0.1646296296296296],[0.09812500000000005,-0.20203703703703707],[0.09812500000000005,-0.20203703703703707],[0.11281249999999995,-0.2212962962962963],[0.12374999999999996,-0.2338888888888889],[0.12802083333333342,-0.2322222222222222],[0.13552083333333323,-0.2651851851851852],[0.17489583333333342,-0.27981481481481485],[0.21427083333333338,-0.29444444444444445],[0.23802083333333332,-0.3074074074074074],[0.23250000000000004,-0.2972222222222222],[0.22614583333333324,-0.3025925925925925],[0.2209374999999999,-0.3014814814814815],[0.2209374999999999,-0.3014814814814815],[0.2209374999999999,-0.3096296296296296],[0.20812499999999995,-0.3248148148148148],[0.19604166666666673,-0.3638888888888889],[0.18854166666666666,-0.3633333333333333],[0.18406250000000005,-0.3542592592592593],[0.18177083333333333,-0.3616666666666667],[0.19562499999999997,-0.37666666666666665],[0.19562499999999997,-0.37666666666666665],[0.19833333333333342,-0.40611111111111114],[0.19833333333333342,-0.40611111111111114],[0.2013541666666666,-0.40925925925925927],[0.2196875000000001,-0.41574074074074074],[0.22427083333333328,-0.45981481481481484],[0.2195833333333333,-0.45499999999999996],[0.23583333333333342,-0.4540740740740741],[0.24968750000000003,-0.45],[0.26052083333333326,-0.45444444444444443],[0.2552083333333333,-0.4514814814814815],[0.25635416666666655,-0.4516666666666666],[0.25927083333333345,-0.4431481481481482],[0.26052083333333326,-0.4412962962962963],[0.24645833333333325,-0.4361111111111111],[0.23833333333333329,-0.4022222222222222],[0.2539583333333333,-0.4396296296296296],[0.2534374999999999,-0.4559259259259259],[0.24479166666666666,-0.4781481481481481],[0.2361458333333334,-0.5003703703703704],[0.2321875000000001,-0.5274074074074074],[0.2283333333333334,-0.5524074074074075],[0.22687499999999997,-0.5637037037037037],[0.22208333333333338,-0.5864814814814815],[0.22666666666666657,-0.6005555555555556],[0.21666666666666667,-0.5900000000000001],[0.2203125,-0.5694444444444444],[0.20281250000000003,-0.5657407407407408],[0.20520833333333333,-0.5668518518518519],[0.20760416666666662,-0.5679629629629629],[0.2085416666666667,-0.562962962962963],[0.20947916666666658,-0.557962962962963],[0.21645833333333328,-0.5338888888888889],[0.2234375,-0.5098148148148148],[0.22802083333333342,-0.4831481481481481],[0.24718749999999995,-0.48111111111111116],[0.24322916666666666,-0.4714814814814815],[0.26104166666666656,-0.44833333333333336],[0.2616666666666667,-0.4225925925925926],[0.26229166666666665,-0.3968518518518519],[0.2682291666666667,-0.3912962962962963],[0.2738541666666668,-0.3859259259259259],[0.2738541666666668,-0.3859259259259259],[0.2704166666666666,-0.4309259259259259],[0.2691666666666668,-0.45555555555555555],[0.2569791666666667,-0.47555555555555556],[0.24208333333333343,-0.4981481481481482],[0.22427083333333328,-0.5011111111111112],[0.20166666666666658,-0.52],[0.1790625000000001,-0.5388888888888889],[0.16937499999999991,-0.5535185185185185],[0.16510416666666666,-0.5401851851851852],[0.16656250000000009,-0.5372222222222223],[0.1703125,-0.504074074074074],[0.16281249999999994,-0.487962962962963],[0.15927083333333342,-0.48777777777777775],[0.16104166666666658,-0.4727777777777778],[0.17354166666666657,-0.4655555555555555],[0.17770833333333325,-0.4514814814814815],[0.1837500000000001,-0.44462962962962965],[0.1837500000000001,-0.44462962962962965],[0.17552083333333332,-0.4227777777777778],[0.16708333333333342,-0.4075925925925926],[0.15322916666666658,-0.38185185185185183],[0.1345833333333334,-0.36629629629629634],[0.12791666666666662,-0.3314814814814815],[0.12791666666666662,-0.3314814814814815],[0.11729166666666657,-0.3146296296296296],[0.09812500000000005,-0.3085185185185186]]","[[0.02822916666666669,-0.4874074074074074,0.00010000000893484184],[0.02822916666666669,-0.4874074074074074,0.011900000005958589],[0.016145833333333335,-0.4457407407407407,0.028600000008935922],[-0.0067708333333333336,-0.3901851851851852,0.04520000000297841],[-0.024687500000000046,-0.37037037037037035,0.061800000011920986],[-0.03218749999999997,-0.3509259259259259,0.07860000000894019],[-0.03083333333333336,-0.36870370370370376,0.09530000001191752],[-0.04458333333333329,-0.39888888888888885,0.11180000001191814],[-0.014999999999999977,-0.4287037037037037,0.12860000000893734],[-0.003958333333333286,-0.4746296296296296,0.14520000000297983],[0.012187500000000047,-0.5366666666666667,0.16190000000595717],[0.01260416666666669,-0.5794444444444444,0.1786000000089416],[0.020937500000000022,-0.6198148148148148,0.195200000002977],[0.04125000000000002,-0.6731481481481482,0.21190000000595433],[0.06156250000000003,-0.7264814814814815,0.22860000000893876],[0.06739583333333338,-0.7698148148148148,0.2453000000119161],[0.052291666666666715,-0.779074074074074,0.2635000000000005],[0.041979166666666616,-0.757962962962963,0.28020000000297784],[0.03166666666666664,-0.7368518518518518,0.29530000001192036],[0.03166666666666664,-0.7368518518518518,0.3119999999999976],[0.05489583333333338,-0.6931481481481482,0.3286000000089402],[0.07156250000000004,-0.6411111111111111,0.34590000000595467],[0.08364583333333328,-0.6127777777777778,0.3628000000119158],[0.0990624999999999,-0.5827777777777777,0.38160000000893746],[0.10927083333333343,-0.5501851851851852,0.3962000000029775],[0.10927083333333343,-0.5501851851851852,0.41190000000595717],[0.11145833333333334,-0.5162962962962964,0.4286000000089416],[0.11843750000000004,-0.4818518518518518,0.445200000002977],[0.12541666666666676,-0.4474074074074075,0.4671000000089407],[0.12541666666666676,-0.4474074074074075,0.47870000000298063],[0.13114583333333343,-0.42407407407407405,0.4953000000119161],[0.14656250000000004,-0.39944444444444444,0.5143000000119216],[0.15177083333333338,-0.36814814814814817,0.5314000000059593],[0.15177083333333338,-0.36814814814814817,0.5453000000119204],[0.16145833333333334,-0.362962962962963,0.5622000000029743],[0.15499999999999994,-0.3375925925925926,0.5833000000119171],[0.1443749999999999,-0.3133333333333333,0.5984999999999943],[0.13562500000000005,-0.26425925925925925,0.6133000000119182],[0.13552083333333323,-0.24685185185185188,0.6289000000059559],[0.12843749999999995,-0.2022222222222222,0.6453000000119218],[0.1319791666666667,-0.1514814814814815,0.661999999999999],[0.1319791666666667,-0.1514814814814815,0.6786000000089416],[0.1352083333333333,-0.1307407407407408,0.6953000000119189],[0.1352083333333333,-0.1307407407407408,0.7119999999999962],[0.1334374999999999,-0.08907407407407411,0.7286000000089388],[0.10281250000000004,-0.08444444444444449,0.7452000000029741],[0.07427083333333329,-0.062037037037037036,0.7619000000059586],[0.06135416666666664,-0.06925925925925921,0.7821000000089384],[0.07697916666666677,-0.05851851851851856,0.7994999999999948],[0.09072916666666657,-0.07259259259259257,0.8163000000119212],[0.09406249999999995,-0.05722222222222218,0.8319000000059589],[0.103125,-0.05907407407407403,0.8493000000119153],[0.09041666666666662,-0.07777777777777778,0.8651000000089368],[0.07447916666666667,-0.08574074074074076,0.8838000000119166],[0.07447916666666667,-0.08574074074074076,0.8953000000119218],[0.06989583333333324,-0.12111111111111107,0.911999999999999],[0.08937499999999995,-0.13259259259259262,0.9287000000029764],[0.10541666666666671,-0.1264814814814815,0.9479000000059585],[0.12197916666666657,-0.11092592592592589,0.96220000000298],[0.12197916666666657,-0.11092592592592589,0.9786000000089388],[0.11375000000000005,-0.12000000000000002,0.9952000000029741],[0.11145833333333334,-0.11944444444444445,1.0119000000059586],[0.11895833333333337,-0.11796296296296294,1.028499999999994],[0.09822916666666662,-0.1316666666666667,1.045600000008939],[0.08864583333333324,-0.1346296296296296,1.0619000000059557],[0.07197916666666657,-0.13055555555555556,1.0819000000059589],[0.07625000000000005,-0.15129629629629626,1.1063000000119203],[0.07625000000000005,-0.15129629629629626,1.1144999999999996],[0.08604166666666657,-0.1646296296296296,1.1288000000119212],[0.09812500000000005,-0.20203703703703707,1.1501000000089405],[0.09812500000000005,-0.20203703703703707,1.161999999999999],[0.11281249999999995,-0.2212962962962963,1.1788000000119183],[0.12374999999999996,-0.2338888888888889,1.195300000011919],[0.12802083333333342,-0.2322222222222222,1.2149000000059544],[0.13552083333333323,-0.2651851851851852,1.230800000011918],[0.17489583333333342,-0.27981481481481485,1.2452000000029741],[0.21427083333333338,-0.29444444444444445,1.265400000005961],[0.23802083333333332,-0.3074074074074074,1.2818000000119198],[0.23250000000000004,-0.2972222222222222,1.2959000000059575],[0.22614583333333324,-0.3025925925925925,1.3119999999999976],[0.2209374999999999,-0.3014814814814815,1.3284999999999982],[0.2209374999999999,-0.3014814814814815,1.3453000000119175],[0.2209374999999999,-0.3096296296296296,1.36190000000596],[0.20812499999999995,-0.3248148148148148,1.381100000008935],[0.19604166666666673,-0.3638888888888889,1.3956000000089404],[0.18854166666666666,-0.3633333333333333,1.4119000000059572],[0.18406250000000005,-0.3542592592592593,1.4286000000089416],[0.18177083333333333,-0.3616666666666667,1.445200000002977],[0.19562499999999997,-0.37666666666666665,1.4724999999999966],[0.19562499999999997,-0.37666666666666665,1.4919999999999973],[0.19833333333333342,-0.40611111111111114,1.5064999999999955],[0.19833333333333342,-0.40611111111111114,1.5159000000059564],[0.2013541666666666,-0.40925925925925927,1.528600000008936],[0.2196875000000001,-0.41574074074074074,1.5452000000029784],[0.22427083333333328,-0.45981481481481484,1.5619000000059557],[0.2195833333333333,-0.45499999999999996,1.5822000000029774],[0.23583333333333342,-0.4540740740740741,1.597900000005957],[0.24968750000000003,-0.45,1.61190000000596],[0.26052083333333326,-0.45444444444444443,1.6286000000089373],[0.2552083333333333,-0.4514814814814815,1.6453000000119218],[0.25635416666666655,-0.4516666666666666,1.6619000000059572],[0.25927083333333345,-0.4431481481481482,1.6809999999999974],[0.26052083333333326,-0.4412962962962963,1.695999999999998],[0.24645833333333325,-0.4361111111111111,1.7147000000029777],[0.23833333333333329,-0.4022222222222222,1.7284999999999968],[0.2539583333333333,-0.4396296296296296,1.7467000000029742],[0.2534374999999999,-0.4559259259259259,1.7619000000059586],[0.24479166666666666,-0.4781481481481481,1.778600000008936],[0.2361458333333334,-0.5003703703703704,1.7988000000119158],[0.2321875000000001,-0.5274074074074074,1.8147000000029792],[0.2283333333333334,-0.5524074074074075,1.8301000000089402],[0.22687499999999997,-0.5637037037037037,1.8466000000089409],[0.22208333333333338,-0.5864814814814815,1.8618000000119181],[0.22666666666666657,-0.6005555555555556,1.8786000000089373],[0.21666666666666667,-0.5900000000000001,1.899000000000001],[0.2203125,-0.5694444444444444,1.912100000008941],[0.20281250000000003,-0.5657407407407408,1.9284999999999997],[0.20520833333333333,-0.5668518518518519,1.945200000002977],[0.20760416666666662,-0.5679629629629629,1.9619999999999962],[0.2085416666666667,-0.562962962962963,1.9787000000029806],[0.20947916666666658,-0.557962962962963,1.999300000011921],[0.21645833333333328,-0.5338888888888889,2.0144000000059563],[0.2234375,-0.5098148148148148,2.028600000008936],[0.22802083333333342,-0.4831481481481481,2.0453000000119204],[0.24718749999999995,-0.48111111111111116,2.0646000000089373],[0.24322916666666666,-0.4714814814814815,2.078700000002975],[0.26104166666666656,-0.44833333333333336,2.0953000000119175],[0.2616666666666667,-0.4225925925925926,2.11490000000596],[0.26229166666666665,-0.3968518518518519,2.128700000002979],[0.2682291666666667,-0.3912962962962963,2.14520000000298],[0.2738541666666668,-0.3859259259259259,2.168100000008941],[0.2738541666666668,-0.3859259259259259,2.1786000000089416],[0.2704166666666666,-0.4309259259259259,2.195200000002977],[0.2691666666666668,-0.45555555555555555,2.211999999999996],[0.2569791666666667,-0.47555555555555556,2.228499999999997],[0.24208333333333343,-0.4981481481481482,2.245400000005958],[0.22427083333333328,-0.5011111111111112,2.2618000000119167],[0.20166666666666658,-0.52,2.2789000000059545],[0.1790625000000001,-0.5388888888888889,2.2952000000029784],[0.16937499999999991,-0.5535185185185185,2.312400000005958],[0.16510416666666666,-0.5401851851851852,2.3284999999999982],[0.16656250000000009,-0.5372222222222223,2.3453000000119175],[0.1703125,-0.504074074074074,2.36190000000596],[0.16281249999999994,-0.487962962962963,2.380499999999998],[0.15927083333333342,-0.48777777777777775,2.39520000000298],[0.16104166666666658,-0.4727777777777778,2.411900000005957],[0.17354166666666657,-0.4655555555555555,2.4284999999999997],[0.17770833333333325,-0.4514814814814815,2.445200000002977],[0.1837500000000001,-0.44462962962962965,2.4618000000119196],[0.1837500000000001,-0.44462962962962965,2.4787000000029806],[0.17552083333333332,-0.4227777777777778,2.495300000011916],[0.16708333333333342,-0.4075925925925926,2.514700000002975],[0.15322916666666658,-0.38185185185185183,2.528499999999994],[0.1345833333333334,-0.36629629629629634,2.5452000000029784],[0.12791666666666662,-0.3314814814814815,2.5619999999999976],[0.12791666666666662,-0.3314814814814815,2.578700000002975],[0.11729166666666657,-0.3146296296296296,2.5952000000029756],[0.09812500000000005,-0.3085185185185186,2.61190000000596]]","[0.00010000000893484184,0.011900000005958589,0.028600000008935922,0.04520000000297841,0.061800000011920986,0.07860000000894019,0.09530000001191752,0.11180000001191814,0.12860000000893734,0.14520000000297983,0.16190000000595717,0.1786000000089416,0.195200000002977,0.21190000000595433,0.22860000000893876,0.2453000000119161,0.2635000000000005,0.28020000000297784,0.29530000001192036,0.3119999999999976,0.3286000000089402,0.34590000000595467,0.3628000000119158,0.38160000000893746,0.3962000000029775,0.41190000000595717,0.4286000000089416,0.445200000002977,0.4671000000089407,0.47870000000298063,0.4953000000119161,0.5143000000119216,0.5314000000059593,0.5453000000119204,0.5622000000029743,0.5833000000119171,0.5984999999999943,0.6133000000119182,0.6289000000059559,0.6453000000119218,0.661999999999999,0.6786000000089416,0.6953000000119189,0.7119999999999962,0.7286000000089388,0.7452000000029741,0.7619000000059586,0.7821000000089384,0.7994999999999948,0.8163000000119212,0.8319000000059589,0.8493000000119153,0.8651000000089368,0.8838000000119166,0.8953000000119218,0.911999999999999,0.9287000000029764,0.9479000000059585,0.96220000000298,0.9786000000089388,0.9952000000029741,1.0119000000059586,1.028499999999994,1.045600000008939,1.0619000000059557,1.0819000000059589,1.1063000000119203,1.1144999999999996,1.1288000000119212,1.1501000000089405,1.161999999999999,1.1788000000119183,1.195300000011919,1.2149000000059544,1.230800000011918,1.2452000000029741,1.265400000005961,1.2818000000119198,1.2959000000059575,1.3119999999999976,1.3284999999999982,1.3453000000119175,1.36190000000596,1.381100000008935,1.3956000000089404,1.4119000000059572,1.4286000000089416,1.445200000002977,1.4724999999999966,1.4919999999999973,1.5064999999999955,1.5159000000059564,1.528600000008936,1.5452000000029784,1.5619000000059557,1.5822000000029774,1.597900000005957,1.61190000000596,1.6286000000089373,1.6453000000119218,1.6619000000059572,1.6809999999999974,1.695999999999998,1.7147000000029777,1.7284999999999968,1.7467000000029742,1.7619000000059586,1.778600000008936,1.7988000000119158,1.8147000000029792,1.8301000000089402,1.8466000000089409,1.8618000000119181,1.8786000000089373,1.899000000000001,1.912100000008941,1.9284999999999997,1.945200000002977,1.9619999999999962,1.9787000000029806,1.999300000011921,2.0144000000059563,2.028600000008936,2.0453000000119204,2.0646000000089373,2.078700000002975,2.0953000000119175,2.11490000000596,2.128700000002979,2.14520000000298,2.168100000008941,2.1786000000089416,2.195200000002977,2.211999999999996,2.228499999999997,2.245400000005958,2.2618000000119167,2.2789000000059545,2.2952000000029784,2.312400000005958,2.3284999999999982,2.3453000000119175,2.36190000000596,2.380499999999998,2.39520000000298,2.411900000005957,2.4284999999999997,2.445200000002977,2.4618000000119196,2.4787000000029806,2.495300000011916,2.514700000002975,2.528499999999994,2.5452000000029784,2.5619999999999976,2.578700000002975,2.5952000000029756,2.61190000000596]","[1732512405258,1732512405268,1732512405285,1732512405302,1732512405318,1732512405335,1732512405352,1732512405368,1732512405385,1732512405402,1732512405418,1732512405435,1732512405452,1732512405468,1732512405485,1732512405502,1732512405520,1732512405537,1732512405552,1732512405568,1732512405585,1732512405602,1732512405619,1732512405638,1732512405653,1732512405668,1732512405685,1732512405702,1732512405723,1732512405735,1732512405752,1732512405771,1732512405788,1732512405802,1732512405819,1732512405840,1732512405855,1732512405870,1732512405885,1732512405902,1732512405918,1732512405935,1732512405952,1732512405968,1732512405985,1732512406002,1732512406018,1732512406038,1732512406056,1732512406073,1732512406088,1732512406106,1732512406121,1732512406140,1732512406152,1732512406168,1732512406185,1732512406204,1732512406219,1732512406235,1732512406252,1732512406268,1732512406285,1732512406302,1732512406318,1732512406338,1732512406363,1732512406371,1732512406385,1732512406406,1732512406418,1732512406435,1732512406452,1732512406471,1732512406487,1732512406502,1732512406522,1732512406538,1732512406552,1732512406568,1732512406585,1732512406602,1732512406618,1732512406637,1732512406652,1732512406668,1732512406685,1732512406702,1732512406729,1732512406748,1732512406763,1732512406772,1732512406785,1732512406802,1732512406818,1732512406839,1732512406854,1732512406868,1732512406885,1732512406902,1732512406918,1732512406937,1732512406952,1732512406971,1732512406985,1732512407003,1732512407018,1732512407035,1732512407055,1732512407071,1732512407086,1732512407103,1732512407118,1732512407135,1732512407155,1732512407168,1732512407185,1732512407202,1732512407218,1732512407235,1732512407256,1732512407271,1732512407285,1732512407302,1732512407321,1732512407335,1732512407352,1732512407371,1732512407385,1732512407402,1732512407424,1732512407435,1732512407452,1732512407468,1732512407485,1732512407502,1732512407518,1732512407535,1732512407552,1732512407569,1732512407585,1732512407602,1732512407618,1732512407637,1732512407652,1732512407668,1732512407685,1732512407702,1732512407718,1732512407735,1732512407752,1732512407771,1732512407785,1732512407802,1732512407818,1732512407835,1732512407852,1732512407868]","[[987.1,276.8],[987.1,276.8],[975.5,299.3],[953.5,329.3],[936.3,340],[929.1,350.5],[930.4,340.9],[917.2,324.6],[945.6,308.5],[956.2,283.7],[971.7,250.2],[972.1,227.1],[980.1,205.3],[999.6,176.5],[1019.1,147.7],[1024.7,124.3],[1010.2,119.3],[1000.3,130.7],[990.4,142.1],[990.4,142.1],[1012.7,165.7],[1028.7,193.8],[1040.3,209.1],[1055.1,225.3],[1064.9,242.9],[1064.9,242.9],[1067,261.2],[1073.7,279.8],[1080.4,298.4],[1080.4,298.4],[1085.9,311],[1100.7,324.3],[1105.7,341.2],[1105.7,341.2],[1115,344],[1108.8,357.7],[1098.6,370.8],[1090.2,397.3],[1090.1,406.7],[1083.3,430.8],[1086.7,458.2],[1086.7,458.2],[1089.8,469.4],[1089.8,469.4],[1088.1,491.9],[1058.7,494.4],[1031.3,506.5],[1018.9,502.6],[1033.9,508.4],[1047.1,500.8],[1050.3,509.1],[1059,508.1],[1046.8,498],[1031.5,493.7],[1031.5,493.7],[1027.1,474.6],[1045.8,468.4],[1061.2,471.7],[1077.1,480.1],[1077.1,480.1],[1069.2,475.2],[1067,475.5],[1074.2,476.3],[1054.3,468.9],[1045.1,467.3],[1029.1,469.5],[1033.2,458.3],[1033.2,458.3],[1042.6,451.1],[1054.2,430.9],[1054.2,430.9],[1068.3,420.5],[1078.8,413.7],[1082.9,414.6],[1090.1,396.8],[1127.9,388.9],[1165.7,381],[1188.5,374],[1183.2,379.5],[1177.1,376.6],[1172.1,377.2],[1172.1,377.2],[1172.1,372.8],[1159.8,364.6],[1148.2,343.5],[1141,343.8],[1136.7,348.7],[1134.5,344.7],[1147.8,336.6],[1147.8,336.6],[1150.4,320.7],[1150.4,320.7],[1153.3,319],[1170.9,315.5],[1175.3,291.7],[1170.8,294.3],[1186.4,294.8],[1199.7,297],[1210.1,294.6],[1205,296.2],[1206.1,296.1],[1208.9,300.7],[1210.1,301.7],[1196.6,304.5],[1188.8,322.8],[1203.8,302.6],[1203.3,293.8],[1195,281.8],[1186.7,269.8],[1182.9,255.2],[1179.2,241.7],[1177.8,235.6],[1173.2,223.3],[1177.6,215.7],[1168,221.4],[1171.5,232.5],[1154.7,234.5],[1157,233.9],[1159.3,233.3],[1160.2,236],[1161.1,238.7],[1167.8,251.7],[1174.5,264.7],[1178.9,279.1],[1197.3,280.2],[1193.5,285.4],[1210.6,297.9],[1211.2,311.8],[1211.8,325.7],[1217.5,328.7],[1222.9,331.6],[1222.9,331.6],[1219.6,307.3],[1218.4,294],[1206.7,283.2],[1192.4,271],[1175.3,269.4],[1153.6,259.2],[1131.9,249],[1122.6,241.1],[1118.5,248.3],[1119.9,249.9],[1123.5,267.8],[1116.3,276.5],[1112.9,276.6],[1114.6,284.7],[1126.6,288.6],[1130.6,296.2],[1136.4,299.9],[1136.4,299.9],[1128.5,311.7],[1120.4,319.9],[1107.1,333.8],[1089.2,342.2],[1082.8,361],[1082.8,361],[1072.6,370.1],[1054.2,373.4]]","[-0.132282,0.39684600000000003]","[0.132282,0.39684600000000003]","[0.39684600000000003,0.39684600000000003]","[-0.39684600000000003,-0.132282]","[-0.39684600000000003,0.132282]","[-0.39684600000000003,-0.39684600000000003]","[-0.132282,-0.132282]","[0.132282,-0.132282]","[0.39684600000000003,-0.132282]","[-0.132282,0.132282]","[0.132282,0.132282]","[0.39684600000000003,0.132282]","[-0.132282,-0.39684600000000003]","[0.132282,-0.39684600000000003]","[0.39684600000000003,-0.39684600000000003]",0,1,1,1,1,3,Tablet,20,30,8,1,70,6,1,80,5
