inst1_resp.keys,inst1_resp.rt,calibrationMouse.x,calibrationMouse.y,calibrationMouse.leftButton,calibrationMouse.midButton,calibrationMouse.rightButton,calibrationClick.x,calibrationClick.y,calibrationClick.leftButton,calibrationClick.midButton,calibrationClick.rightButton,calibrationClick.clicked_name,trialsc.thisRepN,trialsc.thisTrialN,trialsc.thisN,trialsc.thisIndex,trialsc.ran,calibration_x,calibration_y,participant,session,date,expName,psychopyVersion,OS,frameRate,ScreenRes_pixels,Camera_pixels,mouse_2.x,mouse_2.y,mouse_2.leftButton,mouse_2.midButton,mouse_2.rightButton,mouse_2.time,mouse_2.clicked_name,mouse.x,mouse.y,mouse.leftButton,mouse.midButton,mouse.rightButton,mouse.time,mouse.clicked_name,Choice,Trial,TrialDuration,MOUSE_GAZE,ET_GAZE,ET_GAZE_x_T,time,unixTime,ET_GAZE_NF,Loc_Bus_label,Loc_Metro_label,Loc_RH_label,Loc_Cost_label,Loc_Travel_label,Loc_Comfort_label,Loc_Bus_cost,Loc_Metro_cost,Loc_RH_cost,Loc_Bus_travel,Loc_Metro_travel,Loc_RH_travel,Loc_Bus_comfort,Loc_Metro_comfort,Loc_RH_comfort,trials.thisRepN,trials.thisTrialN,trials.thisN,trials.thisIndex,trials.ran,Block,Device,RH_cost,RH_travel_time,RH_Comfort,metro_cost,metro_travel_time,metro_Comfort,Bus_cost,Bus_travel_time,Bus_Comfort
space,3.9487,0.0625,-0.103703704,1,0,0,-0.666666667,-0.324074074,1,0,0,calibration_square,0,0,0,1,1,-0.67,-0.33,16,001,2024-11-21_14h03.01.877,Attention_exp_legacy,2023.1.0,Win32,59.88023952,,,,,,,,,,,,,,,,,,,,,,,,,,,,,,,,,,,,,,,,,,,,,,,,,,,,,,,,
,,,,,,,-0.330208333,0.675925926,1,0,0,calibration_square,0,1,1,8,1,-0.33,0.67,16,001,2024-11-21_14h03.01.877,Attention_exp_legacy,2023.1.0,Win32,59.88023952,,,,,,,,,,,,,,,,,,,,,,,,,,,,,,,,,,,,,,,,,,,,,,,,,,,,,,,,
,,,,,,,-0.005208333,-0.318518519,1,0,0,,0,2,2,10,1,0,-0.33,16,001,2024-11-21_14h03.01.877,Attention_exp_legacy,2023.1.0,Win32,59.88023952,,,,,,,,,,,,,,,,,,,,,,,,,,,,,,,,,,,,,,,,,,,,,,,,,,,,,,,,
,,,,,,,0.003125,0.331481481,1,0,0,calibration_square,0,3,3,12,1,0,0.33,16,001,2024-11-21_14h03.01.877,Attention_exp_legacy,2023.1.0,Win32,59.88023952,,,,,,,,,,,,,,,,,,,,,,,,,,,,,,,,,,,,,,,,,,,,,,,,,,,,,,,,
,,,,,,,0.666666667,-0.662962963,1,0,0,calibration_square,0,4,4,20,1,0.67,-0.67,16,001,2024-11-21_14h03.01.877,Attention_exp_legacy,2023.1.0,Win32,59.88023952,,,,,,,,,,,,,,,,,,,,,,,,,,,,,,,,,,,,,,,,,,,,,,,,,,,,,,,,
,,,,,,,0.323958333,0.012962963,1,0,0,,0,5,5,16,1,0.33,0,16,001,2024-11-21_14h03.01.877,Attention_exp_legacy,2023.1.0,Win32,59.88023952,,,,,,,,,,,,,,,,,,,,,,,,,,,,,,,,,,,,,,,,,,,,,,,,,,,,,,,,
,,,,,,,0.332291667,0.664814815,1,0,0,calibration_square,0,6,6,18,1,0.33,0.67,16,001,2024-11-21_14h03.01.877,Attention_exp_legacy,2023.1.0,Win32,59.88023952,,,,,,,,,,,,,,,,,,,,,,,,,,,,,,,,,,,,,,,,,,,,,,,,,,,,,,,,
,,,,,,,-0.341666667,-0.664814815,1,0,0,,0,7,7,4,1,-0.33,-0.67,16,001,2024-11-21_14h03.01.877,Attention_exp_legacy,2023.1.0,Win32,59.88023952,,,,,,,,,,,,,,,,,,,,,,,,,,,,,,,,,,,,,,,,,,,,,,,,,,,,,,,,
,,,,,,,-0.6625,0.324074074,1,0,0,calibration_square,0,8,8,3,1,-0.67,0.33,16,001,2024-11-21_14h03.01.877,Attention_exp_legacy,2023.1.0,Win32,59.88023952,,,,,,,,,,,,,,,,,,,,,,,,,,,,,,,,,,,,,,,,,,,,,,,,,,,,,,,,
,,,,,,,0.3375,-0.664814815,1,0,0,calibration_square,0,9,9,14,1,0.33,-0.67,16,001,2024-11-21_14h03.01.877,Attention_exp_legacy,2023.1.0,Win32,59.88023952,,,,,,,,,,,,,,,,,,,,,,,,,,,,,,,,,,,,,,,,,,,,,,,,,,,,,,,,
,,,,,,,0.327083333,-0.32037037,1,0,0,calibration_square,0,10,10,15,1,0.33,-0.33,16,001,2024-11-21_14h03.01.877,Attention_exp_legacy,2023.1.0,Win32,59.88023952,,,,,,,,,,,,,,,,,,,,,,,,,,,,,,,,,,,,,,,,,,,,,,,,,,,,,,,,
,,,,,,,0.003125,-0.677777778,1,0,0,calibration_square,0,11,11,9,1,0,-0.67,16,001,2024-11-21_14h03.01.877,Attention_exp_legacy,2023.1.0,Win32,59.88023952,,,,,,,,,,,,,,,,,,,,,,,,,,,,,,,,,,,,,,,,,,,,,,,,,,,,,,,,
,,,,,,,-0.667708333,-0.661111111,1,0,0,calibration_square,0,12,12,0,1,-0.67,-0.67,16,001,2024-11-21_14h03.01.877,Attention_exp_legacy,2023.1.0,Win32,59.88023952,,,,,,,,,,,,,,,,,,,,,,,,,,,,,,,,,,,,,,,,,,,,,,,,,,,,,,,,
,,,,,,,-0.336458333,0.005555556,1,0,0,calibration_square,0,13,13,6,1,-0.33,0,16,001,2024-11-21_14h03.01.877,Attention_exp_legacy,2023.1.0,Win32,59.88023952,,,,,,,,,,,,,,,,,,,,,,,,,,,,,,,,,,,,,,,,,,,,,,,,,,,,,,,,
,,,,,,,-0.329166667,0.335185185,1,0,0,calibration_square,0,14,14,7,1,-0.33,0.33,16,001,2024-11-21_14h03.01.877,Attention_exp_legacy,2023.1.0,Win32,59.88023952,,,,,,,,,,,,,,,,,,,,,,,,,,,,,,,,,,,,,,,,,,,,,,,,,,,,,,,,
,,,,,,,-0.330208333,-0.327777778,1,0,0,calibration_square,0,15,15,5,1,-0.33,-0.33,16,001,2024-11-21_14h03.01.877,Attention_exp_legacy,2023.1.0,Win32,59.88023952,,,,,,,,,,,,,,,,,,,,,,,,,,,,,,,,,,,,,,,,,,,,,,,,,,,,,,,,
,,,,,,,-0.675,0.012962963,1,0,0,,0,16,16,2,1,-0.67,0,16,001,2024-11-21_14h03.01.877,Attention_exp_legacy,2023.1.0,Win32,59.88023952,,,,,,,,,,,,,,,,,,,,,,,,,,,,,,,,,,,,,,,,,,,,,,,,,,,,,,,,
,,,,,,,0.675,0.666666667,1,0,0,calibration_square,0,17,17,19,1,0.67,0.67,16,001,2024-11-21_14h03.01.877,Attention_exp_legacy,2023.1.0,Win32,59.88023952,,,,,,,,,,,,,,,,,,,,,,,,,,,,,,,,,,,,,,,,,,,,,,,,,,,,,,,,
,,,,,,,0.00625,0.007407407,1,0,0,calibration_square,0,18,18,11,1,0,0,16,001,2024-11-21_14h03.01.877,Attention_exp_legacy,2023.1.0,Win32,59.88023952,,,,,,,,,,,,,,,,,,,,,,,,,,,,,,,,,,,,,,,,,,,,,,,,,,,,,,,,
,,,,,,,0.340625,0.324074074,1,0,0,,0,19,19,17,1,0.33,0.33,16,001,2024-11-21_14h03.01.877,Attention_exp_legacy,2023.1.0,Win32,59.88023952,,,,,,,,,,,,,,,,,,,,,,,,,,,,,,,,,,,,,,,,,,,,,,,,,,,,,,,,
,,,,,,,0.004166667,0.672222222,1,0,0,calibration_square,0,20,20,13,1,0,0.67,16,001,2024-11-21_14h03.01.877,Attention_exp_legacy,2023.1.0,Win32,59.88023952,,,,,,,,,,,,,,,,,,,,,,,,,,,,,,,,,,,,,,,,,,,,,,,,,,,,,,,,
,,,,,,,,,,,,,,,,,,,,16,001,2024-11-21_14h03.01.877,Attention_exp_legacy,2023.1.0,Win32,59.88023952,"[1920,1080]","[640,480]",[0.046875],[-0.45740740740740743],[1],[0],[0],[1.566599999904632],"[""StartButton""]",[-0.08020833333333334],[0.37037037037037035],[1],[0],[0],[3.203799999713901],"[""Bus_label""]",Bus_label,1,4.2267,"[[0.057291666666666664,-0.2722222222222222],[0.057291666666666664,-0.2722222222222222],[0.057291666666666664,-0.2722222222222222],[0.057291666666666664,-0.2722222222222222],[0.057291666666666664,-0.2722222222222222],[0.057291666666666664,-0.2722222222222222],[0.057291666666666664,-0.2722222222222222],[0.057291666666666664,-0.2722222222222222],[0.057291666666666664,-0.2722222222222222],[0.057291666666666664,-0.2722222222222222],[0.057291666666666664,-0.2722222222222222],[0.057291666666666664,-0.2722222222222222],[0.057291666666666664,-0.2722222222222222],[0.057291666666666664,-0.2722222222222222],[0.057291666666666664,-0.2722222222222222],[0.057291666666666664,-0.2722222222222222],[0.057291666666666664,-0.2722222222222222],[0.057291666666666664,-0.2722222222222222],[0.057291666666666664,-0.2722222222222222],[0.057291666666666664,-0.2722222222222222],[0.057291666666666664,-0.2722222222222222],[0.057291666666666664,-0.2722222222222222],[0.057291666666666664,-0.2722222222222222],[0.057291666666666664,-0.2722222222222222],[0.057291666666666664,-0.2722222222222222],[0.057291666666666664,-0.2722222222222222],[0.057291666666666664,-0.2722222222222222],[0.057291666666666664,-0.2722222222222222],[0.057291666666666664,-0.2722222222222222],[0.057291666666666664,-0.2722222222222222],[0.057291666666666664,-0.2722222222222222],[0.057291666666666664,-0.2722222222222222],[0.057291666666666664,-0.2722222222222222],[0.057291666666666664,-0.2722222222222222],[0.057291666666666664,-0.2722222222222222],[0.057291666666666664,-0.2722222222222222],[0.057291666666666664,-0.2722222222222222],[0.057291666666666664,-0.2722222222222222],[0.057291666666666664,-0.2722222222222222],[0.057291666666666664,-0.2722222222222222],[0.057291666666666664,-0.2722222222222222],[0.057291666666666664,-0.2722222222222222],[0.057291666666666664,-0.2722222222222222],[0.057291666666666664,-0.2722222222222222],[0.057291666666666664,-0.2722222222222222],[0.057291666666666664,-0.2722222222222222],[0.057291666666666664,-0.2722222222222222],[0.057291666666666664,-0.2722222222222222],[0.057291666666666664,-0.2722222222222222],[0.057291666666666664,-0.2722222222222222],[0.057291666666666664,-0.2722222222222222],[0.057291666666666664,-0.2722222222222222],[0.057291666666666664,-0.2722222222222222],[0.057291666666666664,-0.2722222222222222],[0.057291666666666664,-0.2722222222222222],[0.057291666666666664,-0.2722222222222222],[0.057291666666666664,-0.2722222222222222],[0.057291666666666664,-0.2722222222222222],[0.057291666666666664,-0.2722222222222222],[0.057291666666666664,-0.2722222222222222],[0.057291666666666664,-0.2722222222222222],[0.057291666666666664,-0.2722222222222222],[0.057291666666666664,-0.2722222222222222],[0.057291666666666664,-0.2722222222222222],[0.057291666666666664,-0.2722222222222222],[0.057291666666666664,-0.2722222222222222],[0.057291666666666664,-0.2722222222222222],[0.057291666666666664,-0.2722222222222222],[0.057291666666666664,-0.2722222222222222],[0.057291666666666664,-0.2722222222222222],[0.057291666666666664,-0.2722222222222222],[0.057291666666666664,-0.2722222222222222],[0.057291666666666664,-0.2722222222222222],[0.057291666666666664,-0.2722222222222222],[0.057291666666666664,-0.2722222222222222],[0.057291666666666664,-0.2722222222222222],[0.057291666666666664,-0.2722222222222222],[0.057291666666666664,-0.2722222222222222],[0.057291666666666664,-0.2722222222222222],[0.057291666666666664,-0.2722222222222222],[0.057291666666666664,-0.2722222222222222],[0.057291666666666664,-0.2722222222222222],[0.057291666666666664,-0.2722222222222222],[0.057291666666666664,-0.2722222222222222],[0.057291666666666664,-0.2722222222222222],[0.057291666666666664,-0.2722222222222222],[0.057291666666666664,-0.2722222222222222],[0.057291666666666664,-0.2722222222222222],[0.057291666666666664,-0.2722222222222222],[0.057291666666666664,-0.2722222222222222],[0.057291666666666664,-0.2722222222222222],[0.057291666666666664,-0.2722222222222222],[0.057291666666666664,-0.2722222222222222],[0.057291666666666664,-0.2722222222222222],[0.057291666666666664,-0.2722222222222222],[0.057291666666666664,-0.2722222222222222],[0.057291666666666664,-0.2722222222222222],[0.057291666666666664,-0.2722222222222222],[0.057291666666666664,-0.2722222222222222],[0.057291666666666664,-0.2722222222222222],[0.057291666666666664,-0.2722222222222222],[0.057291666666666664,-0.2722222222222222],[0.057291666666666664,-0.2722222222222222],[0.057291666666666664,-0.2722222222222222],[0.057291666666666664,-0.2722222222222222],[0.057291666666666664,-0.2722222222222222],[0.057291666666666664,-0.27037037037037037],[0.057291666666666664,-0.27037037037037037],[0.057291666666666664,-0.27037037037037037],[0.05416666666666667,-0.26851851851851855],[0.05,-0.26851851851851855],[0.04895833333333333,-0.26851851851851855],[0.04479166666666667,-0.26851851851851855],[0.0375,-0.26851851851851855],[0.03125,-0.26851851851851855],[0.022916666666666665,-0.26851851851851855],[0.017708333333333333,-0.26851851851851855],[0.013541666666666667,-0.26851851851851855],[0.009375,-0.26851851851851855],[0.005208333333333333,-0.26851851851851855],[-0.0010416666666666667,-0.26851851851851855],[-0.007291666666666667,-0.26851851851851855],[-0.015625,-0.26481481481481484],[-0.020833333333333332,-0.2611111111111111],[-0.028125,-0.2518518518518518],[-0.040625,-0.22407407407407406],[-0.05520833333333333,-0.18518518518518517],[-0.06875,-0.14074074074074075],[-0.07708333333333334,-0.10185185185185185],[-0.08333333333333333,-0.06481481481481481],[-0.08541666666666667,-0.024074074074074074],[-0.08645833333333333,0.022222222222222223],[-0.08645833333333333,0.06666666666666667],[-0.08645833333333333,0.1037037037037037],[-0.084375,0.12962962962962962],[-0.08229166666666667,0.1574074074074074],[-0.08125,0.17777777777777778],[-0.08125,0.2],[-0.08125,0.20925925925925926],[-0.08229166666666667,0.22037037037037038],[-0.084375,0.22777777777777777],[-0.084375,0.23703703703703705],[-0.084375,0.24444444444444444],[-0.084375,0.2518518518518518],[-0.084375,0.2611111111111111],[-0.084375,0.2740740740740741],[-0.084375,0.29814814814814816],[-0.084375,0.32407407407407407],[-0.08125,0.34814814814814815],[-0.08020833333333334,0.3685185185185185],[-0.08020833333333334,0.37037037037037035],[-0.08020833333333334,0.37037037037037035],[-0.08020833333333334,0.37037037037037035],[-0.08020833333333334,0.37037037037037035],[-0.08020833333333334,0.37037037037037035],[-0.08020833333333334,0.37037037037037035],[-0.08020833333333334,0.37037037037037035],[-0.08020833333333334,0.37037037037037035],[-0.08020833333333334,0.37037037037037035],[-0.08020833333333334,0.37037037037037035],[-0.08020833333333334,0.37037037037037035],[-0.08020833333333334,0.37037037037037035],[-0.08020833333333334,0.37037037037037035],[-0.08020833333333334,0.37037037037037035],[-0.08020833333333334,0.37037037037037035],[-0.08020833333333334,0.37037037037037035],[-0.08020833333333334,0.37037037037037035],[-0.08020833333333334,0.37037037037037035],[-0.08020833333333334,0.37037037037037035],[-0.08020833333333334,0.37037037037037035],[-0.08020833333333334,0.37037037037037035],[-0.08020833333333334,0.37037037037037035],[-0.08020833333333334,0.37037037037037035],[-0.08020833333333334,0.37037037037037035],[-0.08020833333333334,0.37037037037037035],[-0.08020833333333334,0.37037037037037035],[-0.08020833333333334,0.37037037037037035],[-0.08020833333333334,0.37037037037037035],[-0.08020833333333334,0.37037037037037035],[-0.08020833333333334,0.37037037037037035],[-0.08020833333333334,0.37037037037037035],[-0.08020833333333334,0.37037037037037035],[-0.08020833333333334,0.37037037037037035],[-0.08020833333333334,0.37037037037037035],[-0.08020833333333334,0.37037037037037035],[-0.08020833333333334,0.37037037037037035],[-0.08020833333333334,0.37037037037037035],[-0.08020833333333334,0.37037037037037035],[-0.08020833333333334,0.37037037037037035],[-0.08020833333333334,0.37037037037037035],[-0.08020833333333334,0.37037037037037035],[-0.08020833333333334,0.37037037037037035],[-0.08020833333333334,0.37037037037037035],[-0.08020833333333334,0.37037037037037035],[-0.08020833333333334,0.37037037037037035],[-0.08020833333333334,0.37037037037037035],[-0.08020833333333334,0.37037037037037035],[-0.08020833333333334,0.37037037037037035],[-0.08020833333333334,0.37037037037037035],[-0.08020833333333334,0.37037037037037035],[-0.08020833333333334,0.37037037037037035],[-0.08020833333333334,0.37037037037037035],[-0.08020833333333334,0.37037037037037035],[-0.08020833333333334,0.37037037037037035],[-0.08020833333333334,0.37037037037037035],[-0.08020833333333334,0.37037037037037035],[-0.08020833333333334,0.37037037037037035],[-0.08020833333333334,0.37037037037037035],[-0.08020833333333334,0.37037037037037035],[-0.08020833333333334,0.37037037037037035],[-0.08020833333333334,0.37037037037037035],[-0.08020833333333334,0.37037037037037035],[-0.08020833333333334,0.37037037037037035],[-0.08020833333333334,0.37037037037037035],[-0.08020833333333334,0.37037037037037035],[-0.08020833333333334,0.37037037037037035],[-0.08020833333333334,0.37037037037037035],[-0.08020833333333334,0.37037037037037035],[-0.08020833333333334,0.37037037037037035],[-0.08020833333333334,0.37037037037037035],[-0.08020833333333334,0.37037037037037035],[-0.08020833333333334,0.37037037037037035],[-0.08020833333333334,0.362962962962963],[-0.08020833333333334,0.34629629629629627],[-0.08229166666666667,0.3333333333333333],[-0.08229166666666667,0.3148148148148148],[-0.08229166666666667,0.29074074074074074],[-0.08229166666666667,0.2611111111111111],[-0.08645833333333333,0.22962962962962963],[-0.090625,0.2074074074074074],[-0.09583333333333334,0.16296296296296298],[-0.09583333333333334,0.14814814814814814],[-0.09895833333333333,0.11296296296296296],[-0.09895833333333333,0.05925925925925926],[-0.09895833333333333,0.03148148148148148],[-0.09895833333333333,0.009259259259259259],[-0.09895833333333333,-0.001851851851851852],[-0.09895833333333333,-0.009259259259259259],[-0.1,-0.012962962962962963],[-0.1,-0.012962962962962963],[-0.1,-0.012962962962962963],[-0.1,-0.016666666666666666],[-0.1,-0.018518518518518517],[-0.1,-0.024074074074074074],[-0.10208333333333333,-0.03518518518518519],[-0.10208333333333333,-0.07037037037037037],[-0.10208333333333333,-0.10740740740740741],[-0.10208333333333333,-0.15],[-0.10208333333333333,-0.18703703703703703],[-0.10416666666666667,-0.21481481481481482],[-0.10416666666666667,-0.2388888888888889],[-0.10520833333333333,-0.25555555555555554]]","[[0.10374999999999991,0.37962962962962965],[0.10374999999999991,0.37962962962962965],[0.09718749999999995,0.3787037037037037],[0.09718749999999995,0.3787037037037037],[0.09718749999999995,0.39592592592592585],[0.09718749999999995,0.39592592592592585],[0.10718750000000009,0.3635185185185184],[0.10718750000000009,0.3635185185185184],[0.11885416666666657,0.30166666666666664],[0.11885416666666657,0.30166666666666664],[0.13833333333333328,0.27037037037037037],[0.13833333333333328,0.27037037037037037],[0.16260416666666658,0.2518518518518518],[0.16260416666666658,0.2518518518518518],[0.16395833333333343,0.2324074074074074],[0.16395833333333343,0.2324074074074074],[0.16208333333333325,0.23074074074074077],[0.16208333333333325,0.23074074074074077],[0.15333333333333338,0.21129629629629634],[0.15333333333333338,0.21129629629629634],[0.15968749999999995,0.16222222222222227],[0.15968749999999995,0.16222222222222227],[0.16083333333333344,0.1579629629629629],[0.16083333333333344,0.1579629629629629],[0.16218750000000004,0.1242592592592593],[0.16218750000000004,0.1242592592592593],[0.15052083333333333,0.09407407407407399],[0.15052083333333333,0.09407407407407399],[0.13635416666666675,0.08796296296296297],[0.13635416666666675,0.08796296296296297],[0.10625,0.05351851851851848],[0.10625,0.05351851851851848],[0.07552083333333333,0.05222222222222231],[0.07552083333333333,0.05222222222222231],[0.08197916666666671,0.02240740740740745],[0.08197916666666671,0.02240740740740745],[0.04458333333333329,-0.03481481481481473],[0.04458333333333329,-0.03481481481481473],[0.02333333333333331,-0.08499999999999996],[0.02333333333333331,-0.08499999999999996],[0.014999999999999977,-0.09055555555555551],[0.014999999999999977,-0.09055555555555551],[0.00635416666666669,-0.17240740740740745],[0.00635416666666669,-0.17240740740740745],[-0.010312499999999976,-0.21055555555555552],[-0.010312499999999976,-0.21055555555555552],[-0.03114583333333331,-0.1935185185185185],[-0.03114583333333331,-0.1935185185185185],[-0.03114583333333331,-0.1935185185185185],[-0.04583333333333333,-0.18481481481481485],[-0.04583333333333333,-0.18481481481481485],[-0.05166666666666669,-0.13129629629629624],[-0.05166666666666669,-0.13129629629629624],[-0.03604166666666669,-0.12148148148148152],[-0.03604166666666669,-0.12148148148148152],[-0.06041666666666667,-0.07166666666666664],[-0.06041666666666667,-0.07166666666666664],[-0.06187499999999998,-0.02166666666666675],[-0.06187499999999998,-0.02166666666666675],[-0.07791666666666662,0.04314814814814806],[-0.07791666666666662,0.04314814814814806],[-0.07989583333333337,0.0772222222222223],[-0.07989583333333337,0.0772222222222223],[-0.06177083333333329,0.1264814814814814],[-0.06177083333333329,0.1264814814814814],[-0.05166666666666669,0.16870370370370374],[-0.05166666666666669,0.16870370370370374],[-0.022500000000000023,0.18296296296296288],[-0.022500000000000023,0.18296296296296288],[-0.010520833333333358,0.19648148148148153],[-0.010520833333333358,0.19648148148148153],[-0.010520833333333358,0.19648148148148153],[-0.010520833333333358,0.19648148148148153],[0.02322916666666662,0.18629629629629635],[0.02322916666666662,0.18629629629629635],[0.05249999999999998,0.19425925925925921],[0.05249999999999998,0.19425925925925921],[0.07479166666666662,0.1925925925925926],[0.07479166666666662,0.1925925925925926],[0.08510416666666672,0.2],[0.08510416666666672,0.2],[0.11531250000000005,0.23351851851851857],[0.15281250000000005,0.24777777777777768],[0.1820833333333333,0.27259259259259266],[0.21531250000000005,0.2755555555555555],[0.24854166666666658,0.2785185185185185],[0.24854166666666658,0.29981481481481476],[0.2365624999999999,0.33425925925925926],[0.2334374999999999,0.36277777777777775],[0.2412499999999999,0.37833333333333324],[0.25760416666666663,0.40314814814814826],[0.2724999999999999,0.3803703703703703],[0.25885416666666666,0.39537037037037037],[0.25885416666666666,0.39537037037037037],[0.22364583333333338,0.42018518518518516],[0.2125,0.42666666666666664],[0.1866666666666667,0.4977777777777777],[0.18958333333333333,0.5227777777777777],[0.19197916666666662,0.5459259259259258],[0.19260416666666677,0.5398148148148149],[0.19322916666666667,0.5337037037037038],[0.18156249999999996,0.5281481481481483],[0.15656249999999997,0.5412962962962962],[0.14020833333333324,0.5425925925925926],[0.14020833333333324,0.5425925925925926],[0.16208333333333325,0.5414814814814815],[0.15666666666666676,0.5724074074074075],[0.14291666666666672,0.5144444444444444],[0.11833333333333323,0.4975925925925927],[0.09375,0.4807407407407408],[0.07708333333333334,0.4609259259259259],[0.07708333333333334,0.4609259259259259],[0.06625000000000002,0.4514814814814814],[0.06625000000000002,0.4514814814814814],[0.06666666666666667,0.4507407407407407],[0.05572916666666667,0.43925925925925935],[0.04239583333333338,0.42833333333333323],[0.04239583333333338,0.42833333333333323],[-0.012395833333333309,0.39944444444444455],[-0.012395833333333309,0.39944444444444455],[-0.03770833333333338,0.3668518518518519],[-0.03770833333333338,0.3668518518518519],[-0.04572916666666664,0.3625925925925925],[-0.04572916666666664,0.3625925925925925],[-0.036145833333333384,0.3461111111111111],[-0.036145833333333384,0.3461111111111111],[-0.022500000000000023,0.30833333333333335],[-0.022500000000000023,0.30833333333333335],[-0.041562499999999974,0.344074074074074],[-0.041562499999999974,0.344074074074074],[-0.05541666666666671,0.34222222222222215],[-0.07489583333333331,0.3331481481481481],[-0.07489583333333331,0.3331481481481481],[-0.07552083333333333,0.33055555555555555],[-0.07552083333333333,0.33055555555555555],[-0.09260416666666664,0.2762962962962964],[-0.08062499999999997,0.26222222222222225],[-0.08062499999999997,0.26222222222222225],[-0.09229166666666669,0.2192592592592592],[-0.10197916666666665,0.18351851851851855],[-0.11489583333333328,0.14629629629629629],[-0.1358333333333333,0.11037037037037041],[-0.13250000000000003,0.01629629629629621],[-0.12052083333333338,-0.08851851851851854],[-0.12052083333333338,-0.08851851851851854],[-0.11791666666666671,-0.1844444444444445],[-0.12239583333333333,-0.2403703703703704],[-0.1046875,-0.2737037037037037],[-0.09125000000000003,-0.33055555555555555],[-0.09020833333333336,-0.33777777777777773],[-0.08541666666666667,-0.3562962962962963],[-0.09895833333333333,-0.35611111111111116],[-0.09958333333333336,-0.3424074074074074],[-0.09760416666666671,-0.3098148148148148],[-0.11531250000000005,-0.23925925925925923],[-0.11697916666666662,-0.20037037037037034],[-0.0860416666666667,-0.20629629629629626],[-0.06083333333333331,-0.18314814814814812],[-0.06083333333333331,-0.18314814814814812],[-0.013854166666666619,-0.1925925925925926],[0.016250000000000025,-0.18703703703703703],[0.04635416666666667,-0.1814814814814815],[0.09479166666666666,-0.19462962962962968],[0.14166666666666666,-0.20425925925925928],[0.1859375,-0.23277777777777775],[0.23541666666666666,-0.29444444444444445],[0.29031250000000003,-0.3175925925925926],[0.29718749999999994,-0.3538888888888889],[0.30406250000000007,-0.3901851851851852],[0.28666666666666674,-0.37592592592592594],[0.29270833333333335,-0.3937037037037037],[0.2804166666666667,-0.4601851851851852],[0.27802083333333344,-0.49166666666666664],[0.2765625,-0.5138888888888888],[0.2679166666666667,-0.529074074074074],[0.23166666666666677,-0.5261111111111112],[0.19000000000000009,-0.5409259259259259],[0.18156249999999996,-0.5151851851851852],[0.17312500000000006,-0.48944444444444446],[0.15854166666666672,-0.4609259259259259],[0.15031249999999996,-0.44370370370370377],[0.16104166666666658,-0.37537037037037035],[0.15197916666666675,-0.3653703703703704],[0.15197916666666675,-0.3653703703703704],[0.13510416666666672,-0.3537037037037037],[0.1258333333333333,-0.3333333333333333],[0.13895833333333343,-0.29796296296296293],[0.16270833333333337,-0.2627777777777777],[0.16822916666666668,-0.24574074074074073],[0.17229166666666676,-0.2403703703703704],[0.1794791666666666,-0.26055555555555554],[0.17635416666666662,-0.26592592592592595],[0.17260416666666673,-0.2737037037037037],[0.19104166666666675,-0.24018518518518517],[0.2046875,-0.19500000000000003],[0.21322916666666672,-0.15777777777777777],[0.22177083333333342,-0.1205555555555556],[0.20802083333333338,-0.0801851851851852],[0.19427083333333334,-0.04055555555555551],[0.1959374999999999,-0.006851851851851936],[0.19760416666666672,0.026851851851851852],[0.19208333333333344,0.053703703703703705],[0.18250000000000005,0.05851851851851856],[0.18250000000000005,0.05851851851851856],[0.16666666666666666,0.07148148148148152],[0.1642708333333334,0.04518518518518514],[0.1642708333333334,0.04518518518518514],[0.12510416666666657,0.01592592592592597],[0.10718750000000009,-0.04296296296296305],[0.1009375000000001,-0.10481481481481486],[0.1009375000000001,-0.10481481481481486],[0.08916666666666657,-0.1727777777777778],[0.04791666666666667,-0.20037037037037034],[0.012187500000000047,-0.22629629629629627],[-0.012395833333333309,-0.24888888888888885],[-0.026979166666666644,-0.24462962962962967],[-0.05770833333333331,-0.27444444444444444],[-0.09239583333333339,-0.2785185185185185],[-0.08562500000000005,-0.2874074074074074],[-0.10052083333333334,-0.2783333333333334],[-0.11541666666666663,-0.2692592592592592],[-0.14479166666666668,-0.22018518518518515],[-0.1586458333333333,-0.19388888888888886],[-0.1586458333333333,-0.19388888888888886],[-0.17708333333333334,-0.21351851851851855],[-0.17708333333333334,-0.21351851851851855],[-0.19781249999999997,-0.2242592592592593],[-0.20541666666666672,-0.24537037037037038],[-0.2029166666666666,-0.25851851851851854],[-0.20739583333333336,-0.2892592592592592],[-0.20437500000000006,-0.30703703703703705],[-0.2094791666666667,-0.2861111111111111],[-0.21593749999999995,-0.27925925925925926],[-0.209375,-0.2824074074074074],[-0.1859375,-0.3188888888888889],[-0.153125,-0.23203703703703707],[-0.11802083333333328,-0.15407407407407406],[-0.12906249999999997,-0.12407407407407407],[-0.14479166666666668,-0.07240740740740745],[-0.14802083333333335,-0.05481481481481486],[-0.14802083333333335,-0.05481481481481486],[-0.15874999999999997,-0.05018518518518523],[-0.16875,-0.049629629629629544],[-0.15958333333333338,-0.017592592592592594],[-0.15958333333333338,-0.017592592592592594],[-0.15583333333333335,0.0005555555555554713],[-0.15583333333333335,0.0005555555555554713],[-0.1577083333333333,0.04277777777777782],[-0.16458333333333333,0.004074074074074159],[-0.16458333333333333,0.004074074074074159],[-0.196875,-0.01444444444444436],[-0.196875,-0.01444444444444436]]","[[0.10374999999999991,0.37962962962962965,0.0003000001907338401],[0.10374999999999991,0.37962962962962965,0.05409999990463632],[0.09718749999999995,0.3787037037037037,0.08009999990463257],[0.09718749999999995,0.3787037037037037,0.08719999980926474],[0.09718749999999995,0.39592592592592585,0.11509999990463626],[0.09718749999999995,0.39592592592592585,0.12469999980926616],[0.10718750000000009,0.3635185185185184,0.15030000019073242],[0.10718750000000009,0.3635185185185184,0.15800000000000125],[0.11885416666666657,0.30166666666666664,0.18130000019073833],[0.11885416666666657,0.30166666666666664,0.1884000000953705],[0.13833333333333328,0.27037037037037037,0.21480000019073486],[0.13833333333333328,0.27037037037037037,0.2220000000000013],[0.16260416666666658,0.2518518518518518,0.25030000019073384],[0.16260416666666658,0.2518518518518518,0.2579000000953684],[0.16395833333333343,0.2324074074074074,0.2786999998092625],[0.16395833333333343,0.2324074074074074,0.2870999999046333],[0.16208333333333325,0.23074074074074077,0.3115999999046366],[0.16208333333333325,0.23074074074074077,0.32009999990463456],[0.15333333333333338,0.21129629629629634,0.3461999998092651],[0.15333333333333338,0.21129629629629634,0.3535999999046311],[0.15968749999999995,0.16222222222222227,0.37930000019073873],[0.15968749999999995,0.16222222222222227,0.38609999990462995],[0.16083333333333344,0.1579629629629629,0.410499999999999],[0.16083333333333344,0.1579629629629629,0.41759999990463115],[0.16218750000000004,0.1242592592592593,0.44440000009537073],[0.16218750000000004,0.1242592592592593,0.45250000000000057],[0.15052083333333333,0.09407407407407399,0.47709999990463103],[0.15052083333333333,0.09407407407407399,0.4843000001907356],[0.13635416666666675,0.08796296296296297,0.5115999999046323],[0.13635416666666675,0.08796296296296297,0.5183000001907345],[0.10625,0.05351851851851848,0.5445999999046336],[0.10625,0.05351851851851848,0.5523000001907334],[0.07552083333333333,0.05222222222222231,0.5785999999046325],[0.07552083333333333,0.05222222222222231,0.5855999999046304],[0.08197916666666671,0.02240740740740745,0.6126999998092657],[0.08197916666666671,0.02240740740740745,0.6195999999046364],[0.04458333333333329,-0.03481481481481473,0.6481999998092647],[0.04458333333333329,-0.03481481481481473,0.656800000190735],[0.02333333333333331,-0.08499999999999996,0.6784000000953654],[0.02333333333333331,-0.08499999999999996,0.6850999999046365],[0.014999999999999977,-0.09055555555555551,0.7105000000000032],[0.014999999999999977,-0.09055555555555551,0.7175000000000011],[0.00635416666666669,-0.17240740740740745,0.7444000000953679],[0.00635416666666669,-0.17240740740740745,0.753300000190734],[-0.010312499999999976,-0.21055555555555552,0.7771999998092625],[-0.010312499999999976,-0.21055555555555552,0.7843000001907328],[-0.03114583333333331,-0.1935185185185185,0.8105999999046318],[-0.03114583333333331,-0.1935185185185185,0.8201999998092688],[-0.03114583333333331,-0.1935185185185185,0.8281999998092644],[-0.04583333333333333,-0.18481481481481485,0.8628000001907381],[-0.04583333333333333,-0.18481481481481485,0.8704999999999998],[-0.05166666666666669,-0.13129629629629624,0.8959000000953665],[-0.05166666666666669,-0.13129629629629624,0.9028000001907373],[-0.03604166666666669,-0.12148148148148152,0.929000000000002],[-0.03604166666666669,-0.12148148148148152,0.9369999999999976],[-0.06041666666666667,-0.07166666666666664,0.9605000000000032],[-0.06041666666666667,-0.07166666666666664,0.9680000000000035],[-0.06187499999999998,-0.02166666666666675,0.9958000001907337],[-0.06187499999999998,-0.02166666666666675,1.004400000095366],[-0.07791666666666662,0.04314814814814806,1.029199999809265],[-0.07791666666666662,0.04314814814814806,1.0366999998092652],[-0.07989583333333337,0.0772222222222223,1.060699999809266],[-0.07989583333333337,0.0772222222222223,1.068800000190734],[-0.06177083333333329,0.1264814814814814,1.0938000001907326],[-0.06177083333333329,0.1264814814814814,1.1009000000953648],[-0.05166666666666669,0.16870370370370374,1.1271999998092639],[-0.05166666666666669,0.16870370370370374,1.1349000000953708],[-0.022500000000000023,0.18296296296296288,1.160499999999999],[-0.022500000000000023,0.18296296296296288,1.1690999999046312],[-0.010520833333333358,0.19648148148148153,1.1940000000000026],[-0.010520833333333358,0.19648148148148153,1.20159999990463],[-0.010520833333333358,0.19648148148148153,1.2099000000953666],[-0.010520833333333358,0.19648148148148153,1.2274999999999991],[0.02322916666666662,0.18629629629629635,1.263300000190739],[0.02322916666666662,0.18629629629629635,1.2711999998092693],[0.05249999999999998,0.19425925925925921,1.2939000000953698],[0.05249999999999998,0.19425925925925921,1.3024000000953677],[0.07479166666666662,0.1925925925925926,1.3273000001907391],[0.07479166666666662,0.1925925925925926,1.3360999999046328],[0.08510416666666672,0.2,1.3630999999046338],[0.08510416666666672,0.2,1.3789999999999978],[0.11531250000000005,0.23351851851851857,1.3931999998092692],[0.15281250000000005,0.24777777777777768,1.4098000001907351],[0.1820833333333333,0.27259259259259266,1.4270999999046339],[0.21531250000000005,0.2755555555555555,1.4459000000953708],[0.24854166666666658,0.2785185185185185,1.4623000001907371],[0.24854166666666658,0.29981481481481476,1.478900000095365],[0.2365624999999999,0.33425925925925926,1.4930999999046364],[0.2334374999999999,0.36277777777777775,1.5098000001907366],[0.2412499999999999,0.37833333333333324,1.5264000000953715],[0.25760416666666663,0.40314814814814826,1.5459999999999994],[0.2724999999999999,0.3803703703703703,1.5634000000953705],[0.25885416666666666,0.39537037037037037,1.579099999904635],[0.25885416666666666,0.39537037037037037,1.593199999809265],[0.22364583333333338,0.42018518518518516,1.609800000190738],[0.2125,0.42666666666666664,1.6266999998092686],[0.1866666666666667,0.4977777777777777,1.6455999999046327],[0.18958333333333333,0.5227777777777777,1.6611999998092628],[0.19197916666666662,0.5459259259259258,1.67790000009537],[0.19260416666666677,0.5398148148148149,1.6935000000000002],[0.19322916666666667,0.5337037037037038,1.7105999999046304],[0.18156249999999996,0.5281481481481483,1.727099999904631],[0.15656249999999997,0.5412962962962962,1.745900000095368],[0.14020833333333324,0.5425925925925926,1.764000000000003],[0.14020833333333324,0.5425925925925926,1.7764999999999986],[0.16208333333333325,0.5414814814814815,1.7930999999046335],[0.15666666666666676,0.5724074074074075,1.8126999998092685],[0.14291666666666672,0.5144444444444444,1.8281999998092644],[0.11833333333333323,0.4975925925925927,1.8463000001907375],[0.09375,0.4807407407407408,1.8645999999046339],[0.07708333333333334,0.4609259259259259,1.885300000190739],[0.07708333333333334,0.4609259259259259,1.8931999998092692],[0.06625000000000002,0.4514814814814814,1.9100999999046309],[0.06625000000000002,0.4514814814814814,1.9296999998092659],[0.06666666666666667,0.4507407407407407,1.9435000000000002],[0.05572916666666667,0.43925925925925935,1.9635999999046305],[0.04239583333333338,0.42833333333333323,1.983699999809268],[0.04239583333333338,0.42833333333333323,1.993300000190736],[-0.012395833333333309,0.39944444444444455,2.0135000000000005],[-0.012395833333333309,0.39944444444444455,2.026599999904633],[-0.03770833333333338,0.3668518518518519,2.0464000000953675],[-0.03770833333333338,0.3668518518518519,2.060300000190736],[-0.04572916666666664,0.3625925925925925,2.0766999998092643],[-0.04572916666666664,0.3625925925925925,2.0933000001907374],[-0.036145833333333384,0.3461111111111111,2.1165999999046363],[-0.036145833333333384,0.3461111111111111,2.1265999999046343],[-0.022500000000000023,0.30833333333333335,2.143400000095369],[-0.022500000000000023,0.30833333333333335,2.166400000095365],[-0.041562499999999974,0.344074074074074,2.176800000190738],[-0.041562499999999974,0.344074074074074,2.193300000190739],[-0.05541666666666671,0.34222222222222215,2.2139000000953715],[-0.07489583333333331,0.3331481481481481,2.230300000190738],[-0.07489583333333331,0.3331481481481481,2.243300000190736],[-0.07552083333333333,0.33055555555555555,2.262999999999998],[-0.07552083333333333,0.33055555555555555,2.276599999904633],[-0.09260416666666664,0.2762962962962964,2.293300000190733],[-0.08062499999999997,0.26222222222222225,2.3100000000000023],[-0.08062499999999997,0.26222222222222225,2.328800000190739],[-0.09229166666666669,0.2192592592592592,2.3433000001907374],[-0.10197916666666665,0.18351851851851855,2.3599999999999994],[-0.11489583333333328,0.14629629629629629,2.3795],[-0.1358333333333333,0.11037037037037041,2.393800000190737],[-0.13250000000000003,0.01629629629629621,2.4100000000000037],[-0.12052083333333338,-0.08851851851851854,2.4265999999046315],[-0.12052083333333338,-0.08851851851851854,2.4465000000000003],[-0.11791666666666671,-0.1844444444444445,2.460000000000001],[-0.12239583333333333,-0.2403703703703704,2.4765999999046358],[-0.1046875,-0.2737037037037037,2.4946999998092636],[-0.09125000000000003,-0.33055555555555555,2.510300000190739],[-0.09020833333333336,-0.33777777777777773,2.526599999904633],[-0.08541666666666667,-0.3562962962962963,2.546599999904636],[-0.09895833333333333,-0.35611111111111116,2.559900000095368],[-0.09958333333333336,-0.3424074074074074,2.576500000000003],[-0.09760416666666671,-0.3098148148148148,2.5930999999046307],[-0.11531250000000005,-0.23925925925925923,2.609800000190738],[-0.11697916666666662,-0.20037037037037034,2.626400000095366],[-0.0860416666666667,-0.20629629629629626,2.644300000190732],[-0.06083333333333331,-0.18314814814814812,2.6625000000000014],[-0.06083333333333331,-0.18314814814814812,2.6836999998092708],[-0.013854166666666619,-0.1925925925925926,2.6931999998092593],[0.016250000000000025,-0.18703703703703703,2.709699999809267],[0.04635416666666667,-0.1814814814814815,2.7264999999999944],[0.09479166666666666,-0.19462962962962968,2.7431999998092707],[0.14166666666666666,-0.20425925925925928,2.761500000000005],[0.1859375,-0.23277777777777775,2.777300000190742],[0.23541666666666666,-0.29444444444444445,2.7949000000953745],[0.29031250000000003,-0.3175925925925926,2.809999999999995],[0.29718749999999994,-0.3538888888888889,2.8283000001907297],[0.30406250000000007,-0.3901851851851852,2.8470000000000013],[0.28666666666666674,-0.37592592592592594,2.8638000001907287],[0.29270833333333335,-0.3937037037037037,2.880099999904637],[0.2804166666666667,-0.4601851851851852,2.8955000000000055],[0.27802083333333344,-0.49166666666666664,2.911599999904631],[0.2765625,-0.5138888888888888,2.927199999809268],[0.2679166666666667,-0.529074074074074,2.945900000095371],[0.23166666666666677,-0.5261111111111112,2.962699999809267],[0.19000000000000009,-0.5409259259259259,2.9790999999046264],[0.18156249999999996,-0.5151851851851852,2.9939000000953726],[0.17312500000000006,-0.48944444444444446,3.013300000190732],[0.15854166666666672,-0.4609259259259259,3.0313000001907326],[0.15031249999999996,-0.44370370370370377,3.0485999999046314],[0.16104166666666658,-0.37537037037037035,3.0649000000953706],[0.15197916666666675,-0.3653703703703704,3.080599999904628],[0.15197916666666675,-0.3653703703703704,3.097300000190735],[0.13510416666666672,-0.3537037037037037,3.109800000190738],[0.1258333333333333,-0.3333333333333333,3.126400000095366],[0.13895833333333343,-0.29796296296296293,3.1440999999046326],[0.16270833333333337,-0.2627777777777777,3.1625000000000014],[0.16822916666666668,-0.24574074074074073,3.1795999999046316],[0.17229166666666676,-0.2403703703703704,3.196000000000005],[0.1794791666666666,-0.26055555555555554,3.2139000000953715],[0.17635416666666662,-0.26592592592592595,3.2283000001907354],[0.17260416666666673,-0.2737037037037037,3.2443000001907407],[0.19104166666666675,-0.24018518518518517,3.26259999990463],[0.2046875,-0.19500000000000003,3.2765000000000057],[0.21322916666666672,-0.15777777777777777,3.2948000001907403],[0.22177083333333342,-0.1205555555555556,3.3096999998092613],[0.20802083333333338,-0.0801851851851852,3.3264000000953686],[0.19427083333333334,-0.04055555555555551,3.3468000001907328],[0.1959374999999999,-0.006851851851851936,3.3630000000000067],[0.19760416666666672,0.026851851851851852,3.378999999999998],[0.19208333333333344,0.053703703703703705,3.3934000000953617],[0.18250000000000005,0.05851851851851856,3.4099000000953694],[0.18250000000000005,0.05851851851851856,3.426400000095363],[0.16666666666666666,0.07148148148148152,3.4431999998092593],[0.1642708333333334,0.04518518518518514,3.4629000000953667],[0.1642708333333334,0.04518518518518514,3.4764000000953743],[0.12510416666666657,0.01592592592592597,3.4930999999046364],[0.10718750000000009,-0.04296296296296305,3.5098000001907295],[0.1009375000000001,-0.10481481481481486,3.535099999904638],[0.1009375000000001,-0.10481481481481486,3.543199999809268],[0.08916666666666657,-0.1727777777777778,3.559800000190741],[0.04791666666666667,-0.20037037037037034,3.5783000001907297],[0.012187500000000047,-0.22629629629629627,3.5944000000953693],[-0.012395833333333309,-0.24888888888888885,3.6100000000000065],[-0.026979166666666644,-0.24462962962962967,3.626800000190734],[-0.05770833333333331,-0.27444444444444444,3.6461999998092622],[-0.09239583333333339,-0.2785185185185185,3.6621999998092676],[-0.08562500000000005,-0.2874074074074074,3.6769000000953653],[-0.10052083333333334,-0.2783333333333334,3.693400000095373],[-0.11541666666666663,-0.2692592592592592,3.7099000000953666],[-0.14479166666666668,-0.22018518518518515,3.730099999904631],[-0.1586458333333333,-0.19388888888888886,3.752199999809271],[-0.1586458333333333,-0.19388888888888886,3.759999999999998],[-0.17708333333333334,-0.21351851851851855,3.778800000190735],[-0.17708333333333334,-0.21351851851851855,3.793300000190733],[-0.19781249999999997,-0.2242592592592593,3.8123000001907386],[-0.20541666666666672,-0.24537037037037038,3.8266999998092714],[-0.2029166666666666,-0.25851851851851854,3.8459999999999965],[-0.20739583333333336,-0.2892592592592592,3.8641999998092658],[-0.20437500000000006,-0.30703703703703705,3.879099999904632],[-0.2094791666666667,-0.2861111111111111,3.893900000095364],[-0.21593749999999995,-0.27925925925925926,3.910900000095374],[-0.209375,-0.2824074074074074,3.9294999999999973],[-0.1859375,-0.3188888888888889,3.9455000000000027],[-0.153125,-0.23203703703703707,3.9613000001907395],[-0.11802083333333328,-0.15407407407407406,3.9786999998092725],[-0.12906249999999997,-0.12407407407407407,3.993300000190736],[-0.14479166666666668,-0.07240740740740745,4.010199999809267],[-0.14802083333333335,-0.05481481481481486,4.0264000000953715],[-0.14802083333333335,-0.05481481481481486,4.0430999999046335],[-0.15874999999999997,-0.05018518518518523,4.063199999809264],[-0.16875,-0.049629629629629544,4.081499999999998],[-0.15958333333333338,-0.017592592592592594,4.101699999809263],[-0.15958333333333338,-0.017592592592592594,4.1100000000000065],[-0.15583333333333335,0.0005555555555554713,4.129699999809269],[-0.15583333333333335,0.0005555555555554713,4.143300000190742],[-0.1577083333333333,0.04277777777777782,4.160000000000004],[-0.16458333333333333,0.004074074074074159,4.183500000000002],[-0.16458333333333333,0.004074074074074159,4.193500000000007],[-0.196875,-0.01444444444444436,4.210000000000001],[-0.196875,-0.01444444444444436,4.226699999809263]]","[0.0003000001907338401,0.05409999990463632,0.08009999990463257,0.08719999980926474,0.11509999990463626,0.12469999980926616,0.15030000019073242,0.15800000000000125,0.18130000019073833,0.1884000000953705,0.21480000019073486,0.2220000000000013,0.25030000019073384,0.2579000000953684,0.2786999998092625,0.2870999999046333,0.3115999999046366,0.32009999990463456,0.3461999998092651,0.3535999999046311,0.37930000019073873,0.38609999990462995,0.410499999999999,0.41759999990463115,0.44440000009537073,0.45250000000000057,0.47709999990463103,0.4843000001907356,0.5115999999046323,0.5183000001907345,0.5445999999046336,0.5523000001907334,0.5785999999046325,0.5855999999046304,0.6126999998092657,0.6195999999046364,0.6481999998092647,0.656800000190735,0.6784000000953654,0.6850999999046365,0.7105000000000032,0.7175000000000011,0.7444000000953679,0.753300000190734,0.7771999998092625,0.7843000001907328,0.8105999999046318,0.8201999998092688,0.8281999998092644,0.8628000001907381,0.8704999999999998,0.8959000000953665,0.9028000001907373,0.929000000000002,0.9369999999999976,0.9605000000000032,0.9680000000000035,0.9958000001907337,1.004400000095366,1.029199999809265,1.0366999998092652,1.060699999809266,1.068800000190734,1.0938000001907326,1.1009000000953648,1.1271999998092639,1.1349000000953708,1.160499999999999,1.1690999999046312,1.1940000000000026,1.20159999990463,1.2099000000953666,1.2274999999999991,1.263300000190739,1.2711999998092693,1.2939000000953698,1.3024000000953677,1.3273000001907391,1.3360999999046328,1.3630999999046338,1.3789999999999978,1.3931999998092692,1.4098000001907351,1.4270999999046339,1.4459000000953708,1.4623000001907371,1.478900000095365,1.4930999999046364,1.5098000001907366,1.5264000000953715,1.5459999999999994,1.5634000000953705,1.579099999904635,1.593199999809265,1.609800000190738,1.6266999998092686,1.6455999999046327,1.6611999998092628,1.67790000009537,1.6935000000000002,1.7105999999046304,1.727099999904631,1.745900000095368,1.764000000000003,1.7764999999999986,1.7930999999046335,1.8126999998092685,1.8281999998092644,1.8463000001907375,1.8645999999046339,1.885300000190739,1.8931999998092692,1.9100999999046309,1.9296999998092659,1.9435000000000002,1.9635999999046305,1.983699999809268,1.993300000190736,2.0135000000000005,2.026599999904633,2.0464000000953675,2.060300000190736,2.0766999998092643,2.0933000001907374,2.1165999999046363,2.1265999999046343,2.143400000095369,2.166400000095365,2.176800000190738,2.193300000190739,2.2139000000953715,2.230300000190738,2.243300000190736,2.262999999999998,2.276599999904633,2.293300000190733,2.3100000000000023,2.328800000190739,2.3433000001907374,2.3599999999999994,2.3795,2.393800000190737,2.4100000000000037,2.4265999999046315,2.4465000000000003,2.460000000000001,2.4765999999046358,2.4946999998092636,2.510300000190739,2.526599999904633,2.546599999904636,2.559900000095368,2.576500000000003,2.5930999999046307,2.609800000190738,2.626400000095366,2.644300000190732,2.6625000000000014,2.6836999998092708,2.6931999998092593,2.709699999809267,2.7264999999999944,2.7431999998092707,2.761500000000005,2.777300000190742,2.7949000000953745,2.809999999999995,2.8283000001907297,2.8470000000000013,2.8638000001907287,2.880099999904637,2.8955000000000055,2.911599999904631,2.927199999809268,2.945900000095371,2.962699999809267,2.9790999999046264,2.9939000000953726,3.013300000190732,3.0313000001907326,3.0485999999046314,3.0649000000953706,3.080599999904628,3.097300000190735,3.109800000190738,3.126400000095366,3.1440999999046326,3.1625000000000014,3.1795999999046316,3.196000000000005,3.2139000000953715,3.2283000001907354,3.2443000001907407,3.26259999990463,3.2765000000000057,3.2948000001907403,3.3096999998092613,3.3264000000953686,3.3468000001907328,3.3630000000000067,3.378999999999998,3.3934000000953617,3.4099000000953694,3.426400000095363,3.4431999998092593,3.4629000000953667,3.4764000000953743,3.4930999999046364,3.5098000001907295,3.535099999904638,3.543199999809268,3.559800000190741,3.5783000001907297,3.5944000000953693,3.6100000000000065,3.626800000190734,3.6461999998092622,3.6621999998092676,3.6769000000953653,3.693400000095373,3.7099000000953666,3.730099999904631,3.752199999809271,3.759999999999998,3.778800000190735,3.793300000190733,3.8123000001907386,3.8266999998092714,3.8459999999999965,3.8641999998092658,3.879099999904632,3.893900000095364,3.910900000095374,3.9294999999999973,3.9455000000000027,3.9613000001907395,3.9786999998092725,3.993300000190736,4.010199999809267,4.0264000000953715,4.0430999999046335,4.063199999809264,4.081499999999998,4.101699999809263,4.1100000000000065,4.129699999809269,4.143300000190742,4.160000000000004,4.183500000000002,4.193500000000007,4.210000000000001,4.226699999809263]","[1732169033927,1732169033971,1732169033997,1732169034004,1732169034032,1732169034042,1732169034067,1732169034075,1732169034098,1732169034105,1732169034132,1732169034139,1732169034167,1732169034175,1732169034196,1732169034204,1732169034229,1732169034237,1732169034263,1732169034271,1732169034296,1732169034303,1732169034328,1732169034335,1732169034362,1732169034370,1732169034394,1732169034401,1732169034429,1732169034435,1732169034462,1732169034469,1732169034496,1732169034503,1732169034530,1732169034537,1732169034565,1732169034574,1732169034595,1732169034602,1732169034628,1732169034635,1732169034662,1732169034670,1732169034694,1732169034701,1732169034728,1732169034737,1732169034745,1732169034780,1732169034788,1732169034813,1732169034820,1732169034846,1732169034854,1732169034878,1732169034885,1732169034913,1732169034921,1732169034946,1732169034954,1732169034978,1732169034986,1732169035011,1732169035018,1732169035044,1732169035052,1732169035078,1732169035086,1732169035111,1732169035119,1732169035127,1732169035145,1732169035180,1732169035188,1732169035211,1732169035220,1732169035244,1732169035253,1732169035280,1732169035296,1732169035310,1732169035327,1732169035344,1732169035363,1732169035379,1732169035396,1732169035410,1732169035427,1732169035444,1732169035463,1732169035480,1732169035496,1732169035510,1732169035527,1732169035544,1732169035563,1732169035578,1732169035595,1732169035611,1732169035628,1732169035644,1732169035663,1732169035681,1732169035694,1732169035710,1732169035730,1732169035745,1732169035763,1732169035782,1732169035802,1732169035810,1732169035827,1732169035847,1732169035861,1732169035881,1732169035901,1732169035910,1732169035931,1732169035944,1732169035964,1732169035977,1732169035994,1732169036010,1732169036034,1732169036044,1732169036061,1732169036084,1732169036094,1732169036110,1732169036131,1732169036147,1732169036160,1732169036180,1732169036194,1732169036210,1732169036227,1732169036246,1732169036260,1732169036277,1732169036297,1732169036311,1732169036327,1732169036344,1732169036364,1732169036377,1732169036394,1732169036412,1732169036427,1732169036444,1732169036464,1732169036477,1732169036494,1732169036510,1732169036527,1732169036544,1732169036561,1732169036580,1732169036601,1732169036610,1732169036627,1732169036644,1732169036660,1732169036679,1732169036694,1732169036712,1732169036727,1732169036745,1732169036764,1732169036781,1732169036797,1732169036813,1732169036829,1732169036844,1732169036863,1732169036880,1732169036896,1732169036911,1732169036930,1732169036948,1732169036966,1732169036982,1732169036998,1732169037014,1732169037027,1732169037044,1732169037061,1732169037080,1732169037097,1732169037113,1732169037131,1732169037145,1732169037161,1732169037180,1732169037194,1732169037212,1732169037227,1732169037244,1732169037264,1732169037280,1732169037296,1732169037310,1732169037327,1732169037343,1732169037360,1732169037380,1732169037394,1732169037410,1732169037427,1732169037452,1732169037460,1732169037477,1732169037495,1732169037512,1732169037527,1732169037544,1732169037563,1732169037579,1732169037594,1732169037611,1732169037627,1732169037647,1732169037669,1732169037677,1732169037696,1732169037710,1732169037729,1732169037744,1732169037763,1732169037781,1732169037796,1732169037811,1732169037828,1732169037847,1732169037863,1732169037878,1732169037896,1732169037910,1732169037927,1732169037943,1732169037960,1732169037980,1732169037999,1732169038019,1732169038027,1732169038047,1732169038060,1732169038077,1732169038101,1732169038111,1732169038127,1732169038144]","[[1059.6,745],[1059.6,745],[1053.3,744.5],[1053.3,744.5],[1053.3,753.8],[1053.3,753.8],[1062.9,736.3],[1062.9,736.3],[1074.1,702.9],[1074.1,702.9],[1092.8,686],[1092.8,686],[1116.1,676],[1116.1,676],[1117.4,665.5],[1117.4,665.5],[1115.6,664.6],[1115.6,664.6],[1107.2,654.1],[1107.2,654.1],[1113.3,627.6],[1113.3,627.6],[1114.4,625.3],[1114.4,625.3],[1115.7,607.1],[1115.7,607.1],[1104.5,590.8],[1104.5,590.8],[1090.9,587.5],[1090.9,587.5],[1062,568.9],[1062,568.9],[1032.5,568.2],[1032.5,568.2],[1038.7,552.1],[1038.7,552.1],[1002.8,521.2],[1002.8,521.2],[982.4,494.1],[982.4,494.1],[974.4,491.1],[974.4,491.1],[966.1,446.9],[966.1,446.9],[950.1,426.3],[950.1,426.3],[930.1,435.5],[930.1,435.5],[930.1,435.5],[916,440.2],[916,440.2],[910.4,469.1],[910.4,469.1],[925.4,474.4],[925.4,474.4],[902,501.3],[902,501.3],[900.6,528.3],[900.6,528.3],[885.2,563.3],[885.2,563.3],[883.3,581.7],[883.3,581.7],[900.7,608.3],[900.7,608.3],[910.4,631.1],[910.4,631.1],[938.4,638.8],[938.4,638.8],[949.9,646.1],[949.9,646.1],[949.9,646.1],[949.9,646.1],[982.3,640.6],[982.3,640.6],[1010.4,644.9],[1010.4,644.9],[1031.8,644],[1031.8,644],[1041.7,648],[1041.7,648],[1070.7,666.1],[1106.7,673.8],[1134.8,687.2],[1166.7,688.8],[1198.6,690.4],[1198.6,701.9],[1187.1,720.5],[1184.1,735.9],[1191.6,744.3],[1207.3,757.7],[1221.6,745.4],[1208.5,753.5],[1208.5,753.5],[1174.7,766.9],[1164,770.4],[1139.2,808.8],[1142,822.3],[1144.3,834.8],[1144.9,831.5],[1145.5,828.2],[1134.3,825.2],[1110.3,832.3],[1094.6,833],[1094.6,833],[1115.6,832.4],[1110.4,849.1],[1097.2,817.8],[1073.6,808.7],[1050,799.6],[1034,788.9],[1034,788.9],[1023.6,783.8],[1023.6,783.8],[1024,783.4],[1013.5,777.2],[1000.7,771.3],[1000.7,771.3],[948.1,755.7],[948.1,755.7],[923.8,738.1],[923.8,738.1],[916.1,735.8],[916.1,735.8],[925.3,726.9],[925.3,726.9],[938.4,706.5],[938.4,706.5],[920.1,725.8],[920.1,725.8],[906.8,724.8],[888.1,719.9],[888.1,719.9],[887.5,718.5],[887.5,718.5],[871.1,689.2],[882.6,681.6],[882.6,681.6],[871.4,658.4],[862.1,639.1],[849.7,619],[829.6,599.6],[832.8,548.8],[844.3,492.2],[844.3,492.2],[846.8,440.4],[842.5,410.2],[859.5,392.2],[872.4,361.5],[873.4,357.6],[878,347.6],[865,347.7],[864.4,355.1],[866.3,372.7],[849.3,410.8],[847.7,431.8],[877.4,428.6],[901.6,441.1],[901.6,441.1],[946.7,436],[975.6,439],[1004.5,442],[1051,434.9],[1096,429.7],[1138.5,414.3],[1186,381],[1238.7,368.5],[1245.3,348.9],[1251.9,329.3],[1235.2,337],[1241,327.4],[1229.2,291.5],[1226.9,274.5],[1225.5,262.5],[1217.2,254.3],[1182.4,255.9],[1142.4,247.9],[1134.3,261.8],[1126.2,275.7],[1112.2,291.1],[1104.3,300.4],[1114.6,337.3],[1105.9,342.7],[1105.9,342.7],[1089.7,349],[1080.8,360],[1093.4,379.1],[1116.2,398.1],[1121.5,407.3],[1125.4,410.2],[1132.3,399.3],[1129.3,396.4],[1125.7,392.2],[1143.4,410.3],[1156.5,434.7],[1164.7,454.8],[1172.9,474.9],[1159.7,496.7],[1146.5,518.1],[1148.1,536.3],[1149.7,554.5],[1144.4,569],[1135.2,571.6],[1135.2,571.6],[1120,578.6],[1117.7,564.4],[1117.7,564.4],[1080.1,548.6],[1062.9,516.8],[1056.9,483.4],[1056.9,483.4],[1045.6,446.7],[1006,431.8],[971.7,417.8],[948.1,405.6],[934.1,407.9],[904.6,391.8],[871.3,389.6],[877.8,384.8],[863.5,389.7],[849.2,394.6],[821,421.1],[807.7,435.3],[807.7,435.3],[790,424.7],[790,424.7],[770.1,418.9],[762.8,407.5],[765.2,400.4],[760.9,383.8],[763.8,374.2],[758.9,385.5],[752.7,389.2],[759,387.5],[781.5,367.8],[813,414.7],[846.7,456.8],[836.1,473],[821,500.9],[817.9,510.4],[817.9,510.4],[807.6,512.9],[798,513.2],[806.8,530.5],[806.8,530.5],[810.4,540.3],[810.4,540.3],[808.6,563.1],[802,542.2],[802,542.2],[771,532.2],[771,532.2]]","[-0.132282,0.39684600000000003]","[0.132282,0.39684600000000003]","[0.39684600000000003,0.39684600000000003]","[-0.39684600000000003,-0.39684600000000003]","[-0.39684600000000003,-0.132282]","[-0.39684600000000003,0.132282]","[-0.132282,-0.39684600000000003]","[0.132282,-0.39684600000000003]","[0.39684600000000003,-0.39684600000000003]","[-0.132282,-0.132282]","[0.132282,-0.132282]","[0.39684600000000003,-0.132282]","[-0.132282,0.132282]","[0.132282,0.132282]","[0.39684600000000003,0.132282]",0,0,0,0,1,2,Tablet,15,20,8,3,70,4,3,60,4
