inst1_resp.keys,inst1_resp.rt,calibrationMouse.x,calibrationMouse.y,calibrationMouse.leftButton,calibrationMouse.midButton,calibrationMouse.rightButton,calibrationClick.x,calibrationClick.y,calibrationClick.leftButton,calibrationClick.midButton,calibrationClick.rightButton,trialsc.thisRepN,trialsc.thisTrialN,trialsc.thisN,trialsc.thisIndex,trialsc.ran,calibration_x,calibration_y,participant,session,date,expName,psychopyVersion,OS,frameRate,calibrationClick.clicked_name,ScreenRes_pixels,Camera_pixels,mouse_2.x,mouse_2.y,mouse_2.leftButton,mouse_2.midButton,mouse_2.rightButton,mouse_2.time,mouse_2.clicked_name,mouse.x,mouse.y,mouse.leftButton,mouse.midButton,mouse.rightButton,mouse.time,mouse.clicked_name,Choice,Trial,TrialDuration,MOUSE_GAZE,ET_GAZE,ET_GAZE_x_T,time,unixTime,ET_GAZE_NF,Loc_Bus_label,Loc_Metro_label,Loc_RH_label,Loc_Cost_label,Loc_Travel_label,Loc_Comfort_label,Loc_Bus_cost,Loc_Metro_cost,Loc_RH_cost,Loc_Bus_travel,Loc_Metro_travel,Loc_RH_travel,Loc_Bus_comfort,Loc_Metro_comfort,Loc_RH_comfort,trials.thisRepN,trials.thisTrialN,trials.thisN,trials.thisIndex,trials.ran,Block,Device,RH_cost,RH_travel_time,RH_Comfort,metro_cost,metro_travel_time,metro_Comfort,Bus_cost,Bus_travel_time,Bus_Comfort
space,1.4815,-0.235416667,-0.162962963,1,0,0,0.004166667,-0.001851852,0,0,0,0,0,0,11,1,0,0,07,001,2024-11-21_11h08.53.520,Attention_exp_legacy,2023.1.0,Win32,59.88023952,,,,,,,,,,,,,,,,,,,,,,,,,,,,,,,,,,,,,,,,,,,,,,,,,,,,,,,,,
,,,,,,,-0.66875,0.007407407,1,0,0,0,1,1,2,1,-0.67,0,07,001,2024-11-21_11h08.53.520,Attention_exp_legacy,2023.1.0,Win32,59.88023952,calibration_square,,,,,,,,,,,,,,,,,,,,,,,,,,,,,,,,,,,,,,,,,,,,,,,,,,,,,,,,
,,,,,,,0.325,0.32962963,1,0,0,0,2,2,17,1,0.33,0.33,07,001,2024-11-21_11h08.53.520,Attention_exp_legacy,2023.1.0,Win32,59.88023952,calibration_square,,,,,,,,,,,,,,,,,,,,,,,,,,,,,,,,,,,,,,,,,,,,,,,,,,,,,,,,
,,,,,,,-0.328125,0.338888889,1,0,0,0,3,3,7,1,-0.33,0.33,07,001,2024-11-21_11h08.53.520,Attention_exp_legacy,2023.1.0,Win32,59.88023952,calibration_square,,,,,,,,,,,,,,,,,,,,,,,,,,,,,,,,,,,,,,,,,,,,,,,,,,,,,,,,
,,,,,,,0.326041667,-0.67037037,1,0,0,0,4,4,14,1,0.33,-0.67,07,001,2024-11-21_11h08.53.520,Attention_exp_legacy,2023.1.0,Win32,59.88023952,calibration_square,,,,,,,,,,,,,,,,,,,,,,,,,,,,,,,,,,,,,,,,,,,,,,,,,,,,,,,,
,,,,,,,-0.671875,-0.331481481,1,0,0,0,5,5,1,1,-0.67,-0.33,07,001,2024-11-21_11h08.53.520,Attention_exp_legacy,2023.1.0,Win32,59.88023952,calibration_square,,,,,,,,,,,,,,,,,,,,,,,,,,,,,,,,,,,,,,,,,,,,,,,,,,,,,,,,
,,,,,,,0.004166667,-0.662962963,1,0,0,0,6,6,9,1,0,-0.67,07,001,2024-11-21_11h08.53.520,Attention_exp_legacy,2023.1.0,Win32,59.88023952,calibration_square,,,,,,,,,,,,,,,,,,,,,,,,,,,,,,,,,,,,,,,,,,,,,,,,,,,,,,,,
,,,,,,,0.325,-0.001851852,1,0,0,0,7,7,16,1,0.33,0,07,001,2024-11-21_11h08.53.520,Attention_exp_legacy,2023.1.0,Win32,59.88023952,calibration_square,,,,,,,,,,,,,,,,,,,,,,,,,,,,,,,,,,,,,,,,,,,,,,,,,,,,,,,,
,,,,,,,0.00625,0.32962963,1,0,0,0,8,8,12,1,0,0.33,07,001,2024-11-21_11h08.53.520,Attention_exp_legacy,2023.1.0,Win32,59.88023952,calibration_square,,,,,,,,,,,,,,,,,,,,,,,,,,,,,,,,,,,,,,,,,,,,,,,,,,,,,,,,
,,,,,,,-0.676041667,0.340740741,1,0,0,0,9,9,3,1,-0.67,0.33,07,001,2024-11-21_11h08.53.520,Attention_exp_legacy,2023.1.0,Win32,59.88023952,,,,,,,,,,,,,,,,,,,,,,,,,,,,,,,,,,,,,,,,,,,,,,,,,,,,,,,,,
,,,,,,,-0.339583333,-0.664814815,1,0,0,0,10,10,4,1,-0.33,-0.67,07,001,2024-11-21_11h08.53.520,Attention_exp_legacy,2023.1.0,Win32,59.88023952,calibration_square,,,,,,,,,,,,,,,,,,,,,,,,,,,,,,,,,,,,,,,,,,,,,,,,,,,,,,,,
,,,,,,,-0.002083333,0.672222222,1,0,0,0,11,11,13,1,0,0.67,07,001,2024-11-21_11h08.53.520,Attention_exp_legacy,2023.1.0,Win32,59.88023952,calibration_square,,,,,,,,,,,,,,,,,,,,,,,,,,,,,,,,,,,,,,,,,,,,,,,,,,,,,,,,
,,,,,,,0.336458333,0.681481481,1,0,0,0,12,12,18,1,0.33,0.67,07,001,2024-11-21_11h08.53.520,Attention_exp_legacy,2023.1.0,Win32,59.88023952,,,,,,,,,,,,,,,,,,,,,,,,,,,,,,,,,,,,,,,,,,,,,,,,,,,,,,,,,
,,,,,,,-0.00625,-0.333333333,1,0,0,0,13,13,10,1,0,-0.33,07,001,2024-11-21_11h08.53.520,Attention_exp_legacy,2023.1.0,Win32,59.88023952,calibration_square,,,,,,,,,,,,,,,,,,,,,,,,,,,,,,,,,,,,,,,,,,,,,,,,,,,,,,,,
,,,,,,,-0.344791667,0.009259259,1,0,0,0,14,14,6,1,-0.33,0,07,001,2024-11-21_11h08.53.520,Attention_exp_legacy,2023.1.0,Win32,59.88023952,,,,,,,,,,,,,,,,,,,,,,,,,,,,,,,,,,,,,,,,,,,,,,,,,,,,,,,,,
,,,,,,,-0.686458333,-0.668518519,1,0,0,0,15,15,0,1,-0.67,-0.67,07,001,2024-11-21_11h08.53.520,Attention_exp_legacy,2023.1.0,Win32,59.88023952,,,,,,,,,,,,,,,,,,,,,,,,,,,,,,,,,,,,,,,,,,,,,,,,,,,,,,,,,
,,,,,,,0.320833333,-0.331481481,1,0,0,0,16,16,15,1,0.33,-0.33,07,001,2024-11-21_11h08.53.520,Attention_exp_legacy,2023.1.0,Win32,59.88023952,calibration_square,,,,,,,,,,,,,,,,,,,,,,,,,,,,,,,,,,,,,,,,,,,,,,,,,,,,,,,,
,,,,,,,0.675,-0.664814815,1,0,0,0,17,17,20,1,0.67,-0.67,07,001,2024-11-21_11h08.53.520,Attention_exp_legacy,2023.1.0,Win32,59.88023952,calibration_square,,,,,,,,,,,,,,,,,,,,,,,,,,,,,,,,,,,,,,,,,,,,,,,,,,,,,,,,
,,,,,,,-0.344791667,-0.338888889,1,0,0,0,18,18,5,1,-0.33,-0.33,07,001,2024-11-21_11h08.53.520,Attention_exp_legacy,2023.1.0,Win32,59.88023952,,,,,,,,,,,,,,,,,,,,,,,,,,,,,,,,,,,,,,,,,,,,,,,,,,,,,,,,,
,,,,,,,0.676041667,0.681481481,1,0,0,0,19,19,19,1,0.67,0.67,07,001,2024-11-21_11h08.53.520,Attention_exp_legacy,2023.1.0,Win32,59.88023952,,,,,,,,,,,,,,,,,,,,,,,,,,,,,,,,,,,,,,,,,,,,,,,,,,,,,,,,,
,,,,,,,-0.333333333,0.672222222,1,0,0,0,20,20,8,1,-0.33,0.67,07,001,2024-11-21_11h08.53.520,Attention_exp_legacy,2023.1.0,Win32,59.88023952,calibration_square,,,,,,,,,,,,,,,,,,,,,,,,,,,,,,,,,,,,,,,,,,,,,,,,,,,,,,,,
,,,,,,,,,,,,,,,,,,,07,001,2024-11-21_11h08.53.520,Attention_exp_legacy,2023.1.0,Win32,59.88023952,,"[1920,1080]","[640,480]",[0.011458333333333333],[-0.5259259259259259],[1],[0],[0],[1.063599999904632],"[""StartButton""]",[0.5322916666666667],[0.6],[1],[0],[0],[7.197799999713901],"[""RH_label""]",RH_label,1,8.2246,"[[0.11979166666666667,-0.2],[0.11979166666666667,-0.2],[0.11979166666666667,-0.2],[0.11979166666666667,-0.2],[0.11979166666666667,-0.2],[0.11979166666666667,-0.2],[0.11979166666666667,-0.2],[0.11979166666666667,-0.2],[0.11979166666666667,-0.2],[0.11979166666666667,-0.2],[0.11979166666666667,-0.2],[0.11979166666666667,-0.2],[0.11979166666666667,-0.2],[0.11979166666666667,-0.2],[0.11979166666666667,-0.2],[0.11979166666666667,-0.2],[0.11979166666666667,-0.2],[0.11979166666666667,-0.2],[0.11979166666666667,-0.2],[0.11979166666666667,-0.2],[0.11979166666666667,-0.2],[0.11979166666666667,-0.2],[0.11979166666666667,-0.2],[0.11979166666666667,-0.2],[0.11979166666666667,-0.2],[0.11979166666666667,-0.2],[0.11979166666666667,-0.2],[0.11979166666666667,-0.2],[0.11979166666666667,-0.2],[0.11979166666666667,-0.2],[0.11979166666666667,-0.2],[0.11979166666666667,-0.2],[0.11979166666666667,-0.2],[0.11979166666666667,-0.2],[0.11979166666666667,-0.2],[0.11979166666666667,-0.2],[0.11979166666666667,-0.2],[0.11979166666666667,-0.2],[0.11979166666666667,-0.2],[0.11979166666666667,-0.2],[0.11979166666666667,-0.2],[0.11979166666666667,-0.2],[0.11979166666666667,-0.2],[0.11979166666666667,-0.2],[0.11979166666666667,-0.2],[0.11979166666666667,-0.2],[0.11979166666666667,-0.2],[0.11979166666666667,-0.2],[0.11979166666666667,-0.2],[0.11979166666666667,-0.2],[0.11979166666666667,-0.2],[0.11979166666666667,-0.2],[0.11979166666666667,-0.2],[0.11979166666666667,-0.2],[0.11979166666666667,-0.2],[0.11979166666666667,-0.2],[0.11979166666666667,-0.2],[0.11979166666666667,-0.2],[0.11979166666666667,-0.2],[0.11979166666666667,-0.2],[0.11979166666666667,-0.2],[0.11979166666666667,-0.2],[0.11979166666666667,-0.2],[0.11979166666666667,-0.2],[0.11979166666666667,-0.2],[0.11979166666666667,-0.2],[0.11979166666666667,-0.2],[0.11979166666666667,-0.2],[0.11979166666666667,-0.2],[0.11979166666666667,-0.2],[0.11979166666666667,-0.2],[0.11979166666666667,-0.2],[0.11979166666666667,-0.2],[0.11979166666666667,-0.2],[0.11979166666666667,-0.2],[0.11979166666666667,-0.2],[0.11979166666666667,-0.2],[0.11979166666666667,-0.2],[0.11979166666666667,-0.2],[0.11979166666666667,-0.2],[0.11979166666666667,-0.2],[0.11979166666666667,-0.2],[0.11979166666666667,-0.2],[0.11979166666666667,-0.2],[0.11979166666666667,-0.2],[0.11979166666666667,-0.2],[0.11979166666666667,-0.2],[0.11979166666666667,-0.2],[0.11979166666666667,-0.2],[0.11979166666666667,-0.2],[0.11979166666666667,-0.2],[0.11979166666666667,-0.2],[0.11979166666666667,-0.2],[0.11979166666666667,-0.2],[0.11979166666666667,-0.2],[0.11979166666666667,-0.2],[0.11979166666666667,-0.2],[0.11979166666666667,-0.2],[0.11979166666666667,-0.2],[0.11979166666666667,-0.2],[0.11979166666666667,-0.2],[0.11979166666666667,-0.2],[0.11979166666666667,-0.2],[0.11979166666666667,-0.2],[0.11979166666666667,-0.2],[0.11979166666666667,-0.2],[0.11979166666666667,-0.2],[0.11979166666666667,-0.2],[0.11979166666666667,-0.2],[0.11979166666666667,-0.2],[0.11979166666666667,-0.2],[0.11979166666666667,-0.2],[0.11979166666666667,-0.2],[0.11979166666666667,-0.2],[0.11979166666666667,-0.2],[0.11979166666666667,-0.2],[0.11979166666666667,-0.2],[0.11979166666666667,-0.2],[0.11979166666666667,-0.2],[0.11979166666666667,-0.2],[0.11979166666666667,-0.2],[0.11979166666666667,-0.2],[0.11979166666666667,-0.2],[0.11979166666666667,-0.2],[0.11979166666666667,-0.2],[0.11979166666666667,-0.2],[0.11979166666666667,-0.2],[0.11979166666666667,-0.2],[0.11979166666666667,-0.2],[0.11979166666666667,-0.2],[0.11979166666666667,-0.2],[0.11979166666666667,-0.2],[0.11979166666666667,-0.2],[0.11979166666666667,-0.2],[0.11979166666666667,-0.2],[0.11979166666666667,-0.2],[0.11979166666666667,-0.2],[0.11979166666666667,-0.2],[0.11979166666666667,-0.2],[0.11979166666666667,-0.2],[0.11979166666666667,-0.2],[0.11979166666666667,-0.2],[0.11979166666666667,-0.2],[0.11979166666666667,-0.2],[0.11979166666666667,-0.2],[0.11979166666666667,-0.2],[0.11979166666666667,-0.2],[0.11979166666666667,-0.2],[0.11979166666666667,-0.2],[0.11979166666666667,-0.2],[0.11979166666666667,-0.2],[0.11979166666666667,-0.2],[0.11979166666666667,-0.2],[0.11979166666666667,-0.2],[0.11979166666666667,-0.2],[0.11979166666666667,-0.2],[0.11979166666666667,-0.2],[0.11979166666666667,-0.2],[0.11979166666666667,-0.2],[0.11979166666666667,-0.2],[0.11979166666666667,-0.2],[0.11979166666666667,-0.2],[0.11979166666666667,-0.2],[0.11979166666666667,-0.2],[0.11979166666666667,-0.2],[0.11979166666666667,-0.2],[0.11979166666666667,-0.2],[0.11979166666666667,-0.2],[0.11979166666666667,-0.2],[0.11979166666666667,-0.2],[0.11979166666666667,-0.2],[0.11979166666666667,-0.2],[0.11979166666666667,-0.2],[0.11979166666666667,-0.2],[0.11979166666666667,-0.2],[0.11979166666666667,-0.2],[0.11979166666666667,-0.2],[0.11979166666666667,-0.2],[0.11979166666666667,-0.2],[0.11979166666666667,-0.2],[0.11979166666666667,-0.2],[0.11979166666666667,-0.2],[0.11979166666666667,-0.2],[0.11979166666666667,-0.2],[0.11979166666666667,-0.2],[0.11979166666666667,-0.2],[0.11979166666666667,-0.2],[0.11979166666666667,-0.2],[0.11979166666666667,-0.2],[0.11979166666666667,-0.2],[0.11979166666666667,-0.2],[0.11979166666666667,-0.2],[0.11979166666666667,-0.2],[0.11979166666666667,-0.2],[0.11979166666666667,-0.2],[0.11979166666666667,-0.2],[0.11979166666666667,-0.2],[0.11979166666666667,-0.2],[0.11979166666666667,-0.2],[0.11979166666666667,-0.2],[0.11979166666666667,-0.2],[0.11979166666666667,-0.2],[0.11979166666666667,-0.2],[0.11979166666666667,-0.2],[0.11979166666666667,-0.2],[0.11979166666666667,-0.2],[0.11979166666666667,-0.2],[0.11979166666666667,-0.2],[0.11979166666666667,-0.2],[0.11979166666666667,-0.2],[0.11979166666666667,-0.2],[0.11979166666666667,-0.2],[0.11979166666666667,-0.2],[0.11979166666666667,-0.2],[0.11979166666666667,-0.2],[0.11979166666666667,-0.2],[0.11979166666666667,-0.2],[0.11979166666666667,-0.2],[0.11979166666666667,-0.2],[0.11979166666666667,-0.2],[0.11979166666666667,-0.2],[0.11979166666666667,-0.2],[0.11979166666666667,-0.2],[0.11979166666666667,-0.2],[0.11979166666666667,-0.2],[0.11979166666666667,-0.2],[0.11979166666666667,-0.2],[0.11979166666666667,-0.2],[0.11979166666666667,-0.2],[0.11979166666666667,-0.2],[0.11979166666666667,-0.2],[0.11979166666666667,-0.2],[0.11979166666666667,-0.2],[0.11979166666666667,-0.2],[0.11979166666666667,-0.2],[0.11979166666666667,-0.2],[0.11979166666666667,-0.2],[0.11979166666666667,-0.2],[0.11979166666666667,-0.2],[0.11979166666666667,-0.2],[0.11979166666666667,-0.2],[0.11979166666666667,-0.2],[0.11979166666666667,-0.2],[0.11979166666666667,-0.2],[0.11979166666666667,-0.2],[0.11979166666666667,-0.2],[0.11979166666666667,-0.2],[0.11979166666666667,-0.2],[0.11979166666666667,-0.2],[0.11770833333333333,-0.19814814814814816],[0.11666666666666667,-0.19814814814814816],[0.11666666666666667,-0.19814814814814816],[0.11666666666666667,-0.19814814814814816],[0.11666666666666667,-0.19814814814814816],[0.11666666666666667,-0.19814814814814816],[0.11666666666666667,-0.19814814814814816],[0.11666666666666667,-0.19814814814814816],[0.11666666666666667,-0.19814814814814816],[0.11666666666666667,-0.19814814814814816],[0.11666666666666667,-0.19814814814814816],[0.11666666666666667,-0.19814814814814816],[0.11666666666666667,-0.19814814814814816],[0.11666666666666667,-0.19814814814814816],[0.11666666666666667,-0.19814814814814816],[0.11666666666666667,-0.19814814814814816],[0.11666666666666667,-0.19814814814814816],[0.11666666666666667,-0.19814814814814816],[0.11666666666666667,-0.19814814814814816],[0.11666666666666667,-0.19814814814814816],[0.11666666666666667,-0.19814814814814816],[0.11875,-0.21296296296296297],[0.134375,-0.24259259259259258],[0.17395833333333333,-0.3277777777777778],[0.18541666666666667,-0.35185185185185186],[0.19375,-0.37407407407407406],[0.209375,-0.4148148148148148],[0.22083333333333333,-0.45185185185185184],[0.228125,-0.48518518518518516],[0.23541666666666666,-0.5185185185185185],[0.23854166666666668,-0.5425925925925926],[0.24375,-0.5592592592592592],[0.24583333333333332,-0.5592592592592592],[0.24895833333333334,-0.5592592592592592],[0.26145833333333335,-0.5185185185185185],[0.2635416666666667,-0.4537037037037037],[0.2635416666666667,-0.3277777777777778],[0.2635416666666667,-0.20185185185185187],[0.2635416666666667,-0.06111111111111111],[0.259375,0.05185185185185185],[0.25104166666666666,0.1537037037037037],[0.240625,0.25555555555555554],[0.23541666666666666,0.2777777777777778],[0.22916666666666666,0.3148148148148148],[0.22291666666666668,0.3388888888888889],[0.21875,0.3537037037037037],[0.21458333333333332,0.37407407407407406],[0.21041666666666667,0.39444444444444443],[0.20729166666666668,0.4148148148148148],[0.20416666666666666,0.43333333333333335],[0.20104166666666667,0.4444444444444444],[0.19895833333333332,0.4537037037037037],[0.196875,0.46111111111111114],[0.19583333333333333,0.4722222222222222],[0.19166666666666668,0.4888888888888889],[0.19166666666666668,0.4962962962962963],[0.190625,0.5185185185185185],[0.190625,0.5259259259259259],[0.18958333333333333,0.5296296296296297],[0.18958333333333333,0.5314814814814814],[0.18958333333333333,0.5314814814814814],[0.18958333333333333,0.5314814814814814],[0.18958333333333333,0.5314814814814814],[0.18958333333333333,0.5314814814814814],[0.18958333333333333,0.5314814814814814],[0.18958333333333333,0.5314814814814814],[0.18958333333333333,0.5314814814814814],[0.18958333333333333,0.5314814814814814],[0.18958333333333333,0.5314814814814814],[0.18958333333333333,0.5314814814814814],[0.18958333333333333,0.5314814814814814],[0.18958333333333333,0.5314814814814814],[0.18958333333333333,0.5314814814814814],[0.18958333333333333,0.5314814814814814],[0.18958333333333333,0.5314814814814814],[0.18958333333333333,0.5314814814814814],[0.18958333333333333,0.5314814814814814],[0.18958333333333333,0.5314814814814814],[0.18958333333333333,0.5314814814814814],[0.18958333333333333,0.5314814814814814],[0.18958333333333333,0.5314814814814814],[0.18958333333333333,0.5314814814814814],[0.18958333333333333,0.5314814814814814],[0.18958333333333333,0.5314814814814814],[0.18958333333333333,0.5314814814814814],[0.18958333333333333,0.5314814814814814],[0.18958333333333333,0.5314814814814814],[0.18958333333333333,0.5314814814814814],[0.18958333333333333,0.5314814814814814],[0.18958333333333333,0.5314814814814814],[0.18958333333333333,0.5314814814814814],[0.18958333333333333,0.5314814814814814],[0.18958333333333333,0.5314814814814814],[0.18958333333333333,0.5314814814814814],[0.18958333333333333,0.5314814814814814],[0.18958333333333333,0.5314814814814814],[0.18958333333333333,0.5314814814814814],[0.18958333333333333,0.5314814814814814],[0.18958333333333333,0.5314814814814814],[0.18958333333333333,0.5314814814814814],[0.18958333333333333,0.5314814814814814],[0.18958333333333333,0.5314814814814814],[0.18958333333333333,0.5314814814814814],[0.18958333333333333,0.5314814814814814],[0.18958333333333333,0.5314814814814814],[0.18958333333333333,0.5314814814814814],[0.18958333333333333,0.5314814814814814],[0.18958333333333333,0.5314814814814814],[0.18958333333333333,0.5314814814814814],[0.18958333333333333,0.5314814814814814],[0.18958333333333333,0.5314814814814814],[0.18958333333333333,0.5314814814814814],[0.18958333333333333,0.5314814814814814],[0.18958333333333333,0.5314814814814814],[0.18958333333333333,0.5314814814814814],[0.18958333333333333,0.5314814814814814],[0.18958333333333333,0.5314814814814814],[0.18958333333333333,0.5314814814814814],[0.18958333333333333,0.5314814814814814],[0.18958333333333333,0.5314814814814814],[0.19270833333333334,0.5314814814814814],[0.234375,0.5407407407407407],[0.3020833333333333,0.5592592592592592],[0.384375,0.5796296296296296],[0.44375,0.5944444444444444],[0.4791666666666667,0.6055555555555555],[0.5072916666666667,0.6148148148148148],[0.5322916666666667,0.6259259259259259],[0.553125,0.6388888888888888],[0.5791666666666667,0.6537037037037037],[0.6145833333333334,0.6666666666666666],[0.63125,0.674074074074074],[0.640625,0.674074074074074],[0.646875,0.6759259259259259],[0.6479166666666667,0.6759259259259259],[0.6489583333333333,0.6759259259259259],[0.6489583333333333,0.6759259259259259],[0.6489583333333333,0.6759259259259259],[0.6489583333333333,0.6759259259259259],[0.6489583333333333,0.6759259259259259],[0.6489583333333333,0.6759259259259259],[0.6489583333333333,0.6759259259259259],[0.6489583333333333,0.6759259259259259],[0.6489583333333333,0.6759259259259259],[0.6489583333333333,0.6759259259259259],[0.6479166666666667,0.6759259259259259],[0.6447916666666667,0.6759259259259259],[0.640625,0.6722222222222223],[0.6375,0.6685185185185185],[0.6333333333333333,0.6666666666666666],[0.6291666666666667,0.6611111111111111],[0.625,0.6537037037037037],[0.6208333333333333,0.65],[0.615625,0.6462962962962963],[0.5958333333333333,0.6333333333333333],[0.565625,0.6185185185185185],[0.5197916666666667,0.6055555555555555],[0.465625,0.5907407407407408],[0.4197916666666667,0.5907407407407408],[0.3802083333333333,0.5907407407407408],[0.33958333333333335,0.5907407407407408],[0.3104166666666667,0.5907407407407408],[0.28854166666666664,0.5907407407407408],[0.27708333333333335,0.5907407407407408],[0.275,0.5907407407407408],[0.275,0.5907407407407408],[0.28541666666666665,0.5907407407407408],[0.315625,0.5907407407407408],[0.35,0.5907407407407408],[0.38958333333333334,0.5907407407407408],[0.4270833333333333,0.5907407407407408],[0.45625,0.5907407407407408],[0.4791666666666667,0.5907407407407408],[0.49583333333333335,0.5925925925925926],[0.5104166666666666,0.5944444444444444],[0.5208333333333334,0.5981481481481481],[0.5260416666666666,0.6],[0.528125,0.6],[0.5302083333333333,0.6],[0.5302083333333333,0.6],[0.53125,0.6],[0.5322916666666667,0.6],[0.5322916666666667,0.6],[0.5322916666666667,0.6],[0.5322916666666667,0.6],[0.5322916666666667,0.6],[0.5322916666666667,0.6],[0.5322916666666667,0.6],[0.5322916666666667,0.6],[0.5322916666666667,0.6],[0.5302083333333333,0.6],[0.5135416666666667,0.6],[0.5083333333333333,0.5907407407407408],[0.5083333333333333,0.5907407407407408],[0.5083333333333333,0.5907407407407408],[0.5083333333333333,0.5907407407407408],[0.5083333333333333,0.5907407407407408],[0.5083333333333333,0.5907407407407408],[0.5083333333333333,0.5907407407407408],[0.5083333333333333,0.5907407407407408],[0.5083333333333333,0.5907407407407408],[0.5083333333333333,0.5907407407407408],[0.5083333333333333,0.5907407407407408],[0.5083333333333333,0.5907407407407408],[0.5083333333333333,0.5907407407407408],[0.5083333333333333,0.5907407407407408],[0.5083333333333333,0.5907407407407408],[0.5083333333333333,0.5907407407407408],[0.5083333333333333,0.5907407407407408],[0.5083333333333333,0.5907407407407408],[0.5104166666666666,0.5907407407407408],[0.5114583333333333,0.5907407407407408],[0.5114583333333333,0.5907407407407408],[0.5125,0.5907407407407408],[0.5125,0.5907407407407408],[0.5125,0.5907407407407408],[0.5125,0.5907407407407408],[0.5125,0.5907407407407408],[0.5125,0.5907407407407408],[0.5125,0.5907407407407408],[0.5125,0.5907407407407408],[0.5125,0.5907407407407408],[0.5125,0.5907407407407408],[0.5125,0.5907407407407408],[0.5125,0.5907407407407408],[0.5125,0.5907407407407408],[0.5125,0.5907407407407408],[0.5125,0.5907407407407408],[0.5125,0.5907407407407408],[0.5125,0.5907407407407408],[0.5125,0.5907407407407408],[0.5125,0.5907407407407408],[0.5125,0.5907407407407408],[0.5125,0.5907407407407408],[0.5125,0.5907407407407408],[0.5125,0.5907407407407408],[0.5125,0.5907407407407408],[0.5125,0.5907407407407408],[0.5125,0.5907407407407408],[0.5125,0.5907407407407408],[0.5125,0.5907407407407408],[0.5125,0.5907407407407408],[0.5125,0.5907407407407408],[0.5125,0.5907407407407408]]","[[-0.03916666666666669,0.6505555555555554],[-0.03916666666666669,0.6505555555555554],[-0.01416666666666669,0.6162962962962962],[-0.01416666666666669,0.6162962962962962],[-0.036249999999999956,0.5509259259259259],[-0.036249999999999956,0.5509259259259259],[-0.051770833333333384,0.48703703703703705],[-0.051770833333333384,0.48703703703703705],[-0.03739583333333331,0.44240740740740736],[-0.03739583333333331,0.44240740740740736],[-0.027708333333333356,0.40037037037037043],[-0.027708333333333356,0.40037037037037043],[-0.019166666666666644,0.368888888888889],[-0.016562499999999977,0.31555555555555553],[-0.052083333333333336,0.2631481481481482],[-0.0655208333333333,0.23296296296296287],[-0.05927083333333331,0.2094444444444445],[-0.06895833333333339,0.175],[-0.033749999999999974,0.20703703703703696],[0.0014583333333333095,0.2390740740740741],[-0.005312500000000024,0.23925925925925934],[-0.005937500000000048,0.23962962962962958],[-0.005937500000000048,0.23962962962962958],[0.03187500000000002,0.24277777777777781],[0.03739583333333331,0.2553703703703703],[0.06916666666666677,0.26907407407407397],[0.06979166666666667,0.2653703703703703],[0.024374999999999977,0.24833333333333338],[0.0017708333333333807,0.22148148148148153],[-0.04125000000000002,0.1638888888888889],[-0.08104166666666662,0.10129629629629638],[-0.09041666666666662,0.0712962962962963],[-0.09750000000000002,0.03333333333333333],[-0.14187500000000006,-0.01796296296296305],[-0.1577083333333333,-0.05555555555555555],[-0.17218749999999997,-0.11055555555555553],[-0.16541666666666663,-0.17092592592592595],[-0.14895833333333333,-0.23111111111111113],[-0.14395833333333338,-0.2542592592592593],[-0.13895833333333332,-0.27740740740740744],[-0.14656250000000004,-0.29259259259259257],[-0.14656250000000004,-0.29259259259259257],[-0.15416666666666667,-0.30777777777777776],[-0.15416666666666667,-0.30777777777777776],[-0.1610416666666667,-0.32092592592592595],[-0.1610416666666667,-0.32092592592592595],[-0.2257291666666667,-0.2953703703703704],[-0.27770833333333333,-0.2609259259259259],[-0.31354166666666666,-0.21351851851851855],[-0.37395833333333334,-0.1581481481481481],[-0.4210416666666667,-0.1081481481481481],[-0.523125,-0.08759259259259261],[-0.5807291666666666,-0.07555555555555557],[-0.6289583333333333,-0.06648148148148143],[-0.6436458333333334,-0.03888888888888889],[-0.6740625,-0.0035185185185184764],[-0.63875,-0.040370370370370286],[-0.6157291666666667,-0.10037037037037035],[-0.5768749999999999,-0.15240740740740744],[-0.5551041666666666,-0.18462962962962962],[-0.5255208333333333,-0.23166666666666672],[-0.43937499999999996,-0.24259259259259258],[-0.4122916666666666,-0.27759259259259256],[-0.38520833333333326,-0.3125925925925926],[-0.38375,-0.3574074074074074],[-0.33406250000000004,-0.40481481481481485],[-0.36135416666666664,-0.43037037037037035],[-0.3929166666666667,-0.4474074074074075],[-0.43854166666666666,-0.48870370370370364],[-0.4670833333333333,-0.5498148148148148],[-0.4670833333333333,-0.5498148148148148],[-0.49624999999999997,-0.5585185185185185],[-0.4665625,-0.5322222222222222],[-0.4222916666666666,-0.4733333333333334],[-0.4222916666666666,-0.4733333333333334],[-0.36218750000000005,-0.45796296296296296],[-0.3679166666666667,-0.48648148148148146],[-0.4091666666666666,-0.5142592592592592],[-0.3385416666666667,-0.5083333333333333],[-0.26916666666666667,-0.5209259259259259],[-0.2358333333333333,-0.46944444444444444],[-0.2171875,-0.4292592592592593],[-0.20750000000000005,-0.40555555555555556],[-0.2345833333333334,-0.40555555555555556],[-0.263125,-0.4309259259259259],[-0.30750000000000005,-0.41277777777777774],[-0.28177083333333336,-0.355],[-0.2560416666666666,-0.2972222222222222],[-0.30895833333333333,-0.25555555555555554],[-0.36062500000000003,-0.19537037037037036],[-0.37604166666666666,-0.18129629629629626],[-0.3767708333333334,-0.1559259259259259],[-0.3763541666666666,-0.14000000000000004],[-0.39375,-0.1551851851851852],[-0.39718749999999997,-0.13907407407407413],[-0.400625,-0.12296296296296293],[-0.4265625,-0.12666666666666662],[-0.45249999999999996,-0.13037037037037033],[-0.40989583333333335,-0.11222222222222226],[-0.3851041666666667,-0.11777777777777781],[-0.3754166666666666,-0.12537037037037035],[-0.3667708333333334,-0.12907407407407406],[-0.3667708333333334,-0.12907407407407406],[-0.38656250000000003,-0.13277777777777774],[-0.38656250000000003,-0.13277777777777774],[-0.39906250000000004,-0.12185185185185188],[-0.4392708333333334,-0.11777777777777781],[-0.4971875,-0.10018518518518522],[-0.48572916666666666,-0.10574074074074079],[-0.4952083333333333,-0.0948148148148148],[-0.4869791666666667,-0.13722222222222227],[-0.4858333333333333,-0.13870370370370366],[-0.48093749999999996,-0.14000000000000004],[-0.475,-0.14518518518518514],[-0.43250000000000005,-0.18129629629629626],[-0.43250000000000005,-0.18129629629629626],[-0.39125000000000004,-0.225],[-0.3330208333333334,-0.2927777777777778],[-0.2908333333333334,-0.31296296296296294],[-0.3077083333333333,-0.2946296296296297],[-0.2856250000000001,-0.32037037037037036],[-0.32364583333333335,-0.2992592592592593],[-0.3095833333333334,-0.31425925925925924],[-0.2720833333333334,-0.31740740740740736],[-0.2720833333333334,-0.31740740740740736],[-0.24562499999999995,-0.31962962962962965],[-0.2013541666666666,-0.3101851851851852],[-0.2013541666666666,-0.3101851851851852],[-0.20843750000000003,-0.29148148148148145],[-0.2001041666666667,-0.2657407407407407],[-0.15239583333333329,-0.3014814814814815],[-0.15239583333333329,-0.3014814814814815],[-0.11822916666666666,-0.3290740740740741],[-0.06947916666666672,-0.3405555555555555],[-0.002812500000000047,-0.34759259259259256],[0.036666666666666715,-0.3357407407407408],[0.03718750000000005,-0.3307407407407408],[0.04874999999999995,-0.3266666666666666],[0.06437499999999995,-0.32148148148148153],[0.12531249999999997,-0.33259259259259266],[0.15260416666666668,-0.31425925925925924],[0.1742708333333333,-0.29555555555555557],[0.22395833333333334,-0.27925925925925926],[0.23958333333333334,-0.26851851851851855],[0.2525000000000001,-0.2609259259259259],[0.2591666666666666,-0.23444444444444448],[0.25968749999999996,-0.2101851851851852],[0.24770833333333328,-0.22888888888888892],[0.18354166666666671,-0.2161111111111111],[0.13552083333333323,-0.2103703703703704],[0.13552083333333323,-0.2103703703703704],[0.10895833333333324,-0.21777777777777782],[0.09447916666666671,-0.21444444444444447],[0.0655208333333333,-0.2168518518518519],[0.06427083333333337,-0.20425925925925928],[0.057500000000000044,-0.21425925925925923],[0.05260416666666667,-0.2390740740740741],[0.06458333333333334,-0.26296296296296295],[0.065625,-0.2183333333333333],[0.12177083333333343,-0.20611111111111113],[0.12177083333333343,-0.20611111111111113],[0.12802083333333342,-0.16962962962962966],[0.16854166666666662,-0.14148148148148143],[0.16854166666666662,-0.14148148148148143],[0.1959374999999999,-0.11796296296296294],[0.20499999999999996,-0.127962962962963],[0.2133333333333333,-0.14537037037037037],[0.22166666666666662,-0.16277777777777774],[0.2203125,-0.16129629629629633],[0.2189583333333334,-0.15981481481481483],[0.23166666666666677,-0.17037037037037037],[0.1703125,-0.1264814814814815],[0.16687500000000005,-0.13777777777777775],[0.12614583333333323,-0.13222222222222219],[0.12614583333333323,-0.13222222222222219],[0.08604166666666657,-0.15462962962962962],[0.05916666666666662,-0.12925925925925927],[-0.022604166666666713,-0.07037037037037037],[-0.08270833333333331,-0.018333333333333292],[-0.12875000000000003,0.010740740740740657],[-0.19468749999999999,0.02833333333333325],[-0.25125000000000003,0.032407407407407406],[-0.20385416666666673,-0.006666666666666709],[-0.18885416666666663,-0.02370370370370362],[-0.1857291666666666,-0.06796296296296295],[-0.1828125,-0.10351851851851848],[-0.1779166666666666,-0.1485185185185185],[-0.1779166666666666,-0.1485185185185185],[-0.1436458333333333,-0.2175925925925926],[-0.08614583333333338,-0.2687037037037037],[-0.06979166666666667,-0.32999999999999996],[-0.03354166666666671,-0.3798148148148149],[0.021562500000000047,-0.41222222222222227],[-0.04083333333333338,-0.4125925925925926],[-0.09500000000000004,-0.397037037037037],[-0.10343749999999995,-0.34],[-0.11124999999999995,-0.2698148148148148],[-0.11593749999999996,-0.2044444444444444],[-0.11593749999999996,-0.2044444444444444],[-0.12239583333333333,-0.14351851851851852],[-0.19666666666666663,-0.11851851851851852],[-0.22687499999999997,-0.08296296296296299],[-0.24927083333333327,-0.04296296296296305],[-0.2905208333333333,-0.020370370370370372],[-0.27854166666666663,-0.024814814814814772],[-0.2665625,-0.029259259259259176],[-0.2939583333333334,-0.05425925925925928],[-0.32135416666666666,-0.07925925925925928],[-0.3729166666666667,-0.10166666666666663],[-0.4132291666666667,-0.10629629629629625],[-0.41291666666666665,-0.14833333333333337],[-0.41875,-0.19648148148148153],[-0.41875,-0.19648148148148153],[-0.42156250000000006,-0.2368518518518518],[-0.44479166666666664,-0.25981481481481483],[-0.45812499999999995,-0.28166666666666673],[-0.478125,-0.28166666666666673],[-0.4821875,-0.2838888888888889],[-0.4821875,-0.2838888888888889],[-0.48020833333333335,-0.27814814814814814],[-0.46520833333333333,-0.27166666666666667],[-0.45968749999999997,-0.2785185185185185],[-0.45968749999999997,-0.2785185185185185],[-0.4672916666666667,-0.2875925925925926],[-0.4672916666666667,-0.2875925925925926],[-0.4452083333333333,-0.27629629629629626],[-0.43395833333333333,-0.28851851851851856],[-0.4022916666666667,-0.3181481481481482],[-0.38156249999999997,-0.31740740740740736],[-0.38156249999999997,-0.31740740740740736],[-0.36479166666666674,-0.3272222222222222],[-0.36479166666666674,-0.3272222222222222],[-0.3658333333333334,-0.3346296296296296],[-0.3658333333333334,-0.3346296296296296],[-0.3732291666666666,-0.3455555555555556],[-0.3686458333333333,-0.3492592592592593],[-0.3686458333333333,-0.3492592592592593],[-0.3770833333333333,-0.34370370370370373],[-0.3770833333333333,-0.34370370370370373],[-0.3811458333333333,-0.26888888888888884],[-0.3811458333333333,-0.26888888888888884],[-0.4106250000000001,-0.2270370370370371],[-0.4383333333333333,-0.16574074074074074],[-0.46427083333333335,-0.09666666666666665],[-0.4780208333333333,-0.0727777777777778],[-0.498125,-0.049074074074074076],[-0.49624999999999997,-0.04333333333333329],[-0.4940625,-0.04203703703703712],[-0.4688541666666667,-0.0418518518518519],[-0.430625,-0.05092592592592592],[-0.3751041666666667,-0.039629629629629584],[-0.31833333333333336,-0.014074074074074116],[-0.24968750000000003,-0.01629629629629621],[-0.18645833333333334,-0.019444444444444445],[-0.12593749999999998,-0.024814814814814772],[-0.042812500000000024,-0.05703703703703706],[0.03239583333333336,-0.06388888888888888],[0.09520833333333342,-0.07333333333333338],[0.14770833333333327,-0.08203703703703706],[0.20020833333333338,-0.09074074074074075],[0.21583333333333338,-0.13481481481481483],[0.22916666666666666,-0.17481481481481478],[0.21927083333333333,-0.19388888888888886],[0.21302083333333333,-0.2198148148148148],[0.20197916666666677,-0.23962962962962958],[0.203125,-0.2207407407407407],[0.19562499999999997,-0.20999999999999996],[0.18697916666666667,-0.2161111111111111],[0.16479166666666673,-0.2324074074074074],[0.14260416666666675,-0.24870370370370373],[0.12864583333333332,-0.24592592592592594],[0.11958333333333329,-0.19981481481481478],[0.13052083333333328,-0.14481481481481479],[0.13052083333333328,-0.14481481481481479],[0.14979166666666663,-0.08796296296296297],[0.17531249999999995,-0.020185185185185143],[0.159375,0.018703703703703747],[0.14343750000000005,0.05759259259259263],[0.1328125,0.10962962962962972],[0.12218749999999995,0.16166666666666657],[0.10281250000000004,0.2153703703703703],[0.10281250000000004,0.2153703703703703],[0.07802083333333343,0.2800000000000001],[0.03958333333333333,0.2740740740740741],[0.03958333333333333,0.2740740740740741],[0.042499999999999954,0.2455555555555556],[0.019895833333333356,0.20722222222222217],[-0.0014583333333333095,0.16703703703703712],[0.034895833333333334,0.14037037037037028],[0.07218749999999995,0.13148148148148148],[0.12531249999999997,0.11944444444444445],[0.12531249999999997,0.11944444444444445],[0.15750000000000006,0.06222222222222226],[0.18260416666666662,-0.010740740740740657],[0.21302083333333333,-0.1190740740740741],[0.2599999999999999,-0.16740740740740737],[0.25906250000000003,-0.1794444444444444],[0.27531249999999996,-0.18351851851851855],[0.29718749999999994,-0.19425925925925921],[0.2849999999999999,-0.2125925925925926],[0.2569791666666667,-0.26796296296296296],[0.2569791666666667,-0.26796296296296296],[0.22510416666666658,-0.32314814814814813],[0.22510416666666658,-0.32314814814814813],[0.21989583333333323,-0.3031481481481481],[0.24333333333333323,-0.2524074074074074],[0.2570833333333333,-0.17222222222222222],[0.26447916666666677,-0.1175925925925926],[0.26447916666666677,-0.1175925925925926],[0.25458333333333344,-0.16740740740740737],[0.23958333333333334,-0.18555555555555553],[0.21770833333333334,-0.19518518518518516],[0.20989583333333334,-0.20481481481481487],[0.2169791666666666,-0.19518518518518516],[0.23093750000000005,-0.15833333333333333],[0.22260416666666671,-0.16814814814814816],[0.20145833333333343,-0.19462962962962968],[0.17687499999999995,-0.24462962962962967],[0.1508333333333333,-0.30185185185185187],[0.1382291666666667,-0.2785185185185185],[0.13145833333333337,-0.28648148148148145],[0.12468750000000005,-0.29444444444444445],[0.11812500000000009,-0.3109259259259259],[0.11156249999999991,-0.3274074074074074],[0.11156249999999991,-0.3274074074074074],[0.08708333333333323,-0.39037037037037037],[0.115625,-0.3774074074074074],[0.14416666666666675,-0.36444444444444446],[0.18947916666666675,-0.35555555555555557],[0.23479166666666676,-0.3466666666666666],[0.2816666666666668,-0.34370370370370373],[0.2816666666666668,-0.34370370370370373],[0.33395833333333325,-0.3453703703703704],[0.3862499999999999,-0.347037037037037],[0.4410416666666668,-0.3190740740740741],[0.4808333333333332,-0.2922222222222222],[0.5386458333333333,-0.23444444444444448],[0.5599999999999999,-0.23592592592592587],[0.5560416666666667,-0.27925925925925926],[0.5829166666666665,-0.2638888888888889],[0.5859375,-0.2770370370370371],[0.5859375,-0.2770370370370371],[0.6134375000000001,-0.2511111111111112],[0.6347916666666668,-0.22092592592592594],[0.6347916666666668,-0.22092592592592594],[0.6487499999999999,-0.22851851851851848],[0.6243750000000001,-0.27759259259259256],[0.6150000000000001,-0.3255555555555556],[0.5976041666666667,-0.40499999999999997],[0.5802083333333333,-0.4844444444444445],[0.5790625000000001,-0.5181481481481481],[0.5463541666666667,-0.5957407407407407],[0.5315624999999999,-0.6194444444444445],[0.47458333333333325,-0.6618518518518518],[0.4176041666666668,-0.7129629629629629],[0.37385416666666677,-0.7351851851851852],[0.37385416666666677,-0.7351851851851852],[0.3246875000000001,-0.7309259259259259],[0.3246875000000001,-0.7309259259259259],[0.2751041666666666,-0.7387037037037036],[0.22510416666666658,-0.7224074074074075],[0.17770833333333325,-0.6827777777777777],[0.14500000000000005,-0.6651851851851852],[0.13645833333333332,-0.6525925925925925],[0.10020833333333339,-0.6698148148148148],[0.08937499999999995,-0.7098148148148148],[0.06218750000000005,-0.7457407407407407],[0.029166666666666667,-0.7727777777777778],[0.01895833333333338,-0.7655555555555555],[0.00916666666666662,-0.7462962962962963],[0.02791666666666662,-0.7324074074074074],[0.044062499999999956,-0.7418518518518519],[0.0453125,-0.7405555555555555],[0.021979166666666692,-0.7353703703703705],[0.05499999999999995,-0.7177777777777778],[0.0787499999999999,-0.6918518518518519],[0.11354166666666667,-0.672037037037037],[0.11354166666666667,-0.672037037037037],[0.18177083333333333,-0.6179629629629629],[0.24031250000000004,-0.6277777777777778],[0.31302083333333336,-0.6298148148148148],[0.31302083333333336,-0.6298148148148148],[0.34395833333333337,-0.6312962962962962],[0.378125,-0.6246296296296296],[0.42156250000000006,-0.6194444444444445],[0.4547916666666666,-0.6174074074074074],[0.48468749999999994,-0.6214814814814815],[0.5091666666666667,-0.6294444444444444],[0.5389583333333334,-0.6266666666666666],[0.5165625000000001,-0.6622222222222223],[0.5251041666666666,-0.6709259259259259],[0.5251041666666666,-0.6709259259259259],[0.5195833333333333,-0.6692592592592592],[0.5142708333333333,-0.6694444444444444],[0.49031250000000004,-0.6794444444444444],[0.5022916666666667,-0.6809259259259259],[0.5071875000000001,-0.6883333333333334],[0.49270833333333336,-0.6975925925925925],[0.4869791666666667,-0.6888888888888889],[0.4869791666666667,-0.6888888888888889],[0.48125,-0.6801851851851852],[0.48125,-0.6801851851851852],[0.5135416666666667,-0.6531481481481481],[0.5469791666666666,-0.6214814814814815],[0.5313541666666666,-0.6198148148148148],[0.5313541666666666,-0.6198148148148148],[0.5264583333333335,-0.6064814814814815],[0.5264583333333335,-0.6064814814814815],[0.5830208333333334,-0.5868518518518518],[0.6117708333333333,-0.5942592592592593],[0.6445833333333333,-0.5744444444444444],[0.696875,-0.5557407407407408],[0.696875,-0.5557407407407408],[0.675,-0.5524074074074075],[0.6870833333333333,-0.5459259259259259],[0.6635416666666667,-0.5559259259259259],[0.6102083333333332,-0.5796296296296296],[0.5902083333333332,-0.6003703703703703],[0.5897916666666667,-0.6244444444444445],[0.5461458333333333,-0.6542592592592593],[0.48677083333333326,-0.6646296296296296],[0.440625,-0.6931481481481482],[0.40041666666666675,-0.7192592592592593],[0.4310416666666666,-0.7440740740740741],[0.4195833333333333,-0.7635185185185185],[0.4244791666666667,-0.7807407407407407],[0.43208333333333326,-0.7896296296296296],[0.4553124999999999,-0.7896296296296296],[0.46510416666666665,-0.7887037037037037],[0.47208333333333335,-0.7866666666666667],[0.47208333333333335,-0.7866666666666667],[0.5039583333333333,-0.7605555555555555],[0.5039583333333333,-0.7605555555555555],[0.5412499999999999,-0.7298148148148148],[0.540625,-0.6811111111111111],[0.5211458333333333,-0.6761111111111111],[0.5229166666666667,-0.6607407407407407],[0.5305208333333333,-0.6496296296296297],[0.5469791666666666,-0.6411111111111111],[0.5634375000000001,-0.6325925925925926],[0.5556250000000001,-0.6174074074074074],[0.5556250000000001,-0.6174074074074074],[0.5478125000000001,-0.6022222222222222],[0.534375,-0.6196296296296296],[0.5320833333333332,-0.6175925925925926],[0.5320833333333332,-0.6175925925925926],[0.5422916666666666,-0.6348148148148148],[0.5422916666666666,-0.6348148148148148],[0.5783333333333334,-0.617037037037037],[0.5783333333333334,-0.617037037037037],[0.5742708333333333,-0.6246296296296296],[0.5742708333333333,-0.6246296296296296],[0.5496875,-0.6196296296296296],[0.5084374999999999,-0.635],[0.5084374999999999,-0.635],[0.4773958333333333,-0.6388888888888888],[0.4773958333333333,-0.6388888888888888],[0.4694791666666667,-0.6270370370370371],[0.4694791666666667,-0.6270370370370371],[0.48624999999999996,-0.6074074074074074],[0.48979166666666674,-0.5835185185185185],[0.48979166666666674,-0.5835185185185185],[0.4710416666666667,-0.5861111111111111],[0.4710416666666667,-0.5861111111111111],[0.453125,-0.5925925925925926],[0.43760416666666657,-0.5781481481481481],[0.4354166666666667,-0.5977777777777779],[0.4445833333333333,-0.6109259259259259],[0.4540625000000001,-0.5777777777777777],[0.45333333333333337,-0.5561111111111111],[0.4318749999999999,-0.5775925925925925],[0.4096874999999999,-0.5900000000000001],[0.3945833333333333,-0.5848148148148148],[0.38520833333333326,-0.5772222222222222],[0.34395833333333337,-0.5879629629629629],[0.2933333333333332,-0.6109259259259259],[0.2720833333333334,-0.609074074074074],[0.25416666666666665,-0.6220370370370369],[0.24854166666666658,-0.6533333333333333],[0.24291666666666673,-0.6846296296296296],[0.240625,-0.6905555555555555],[0.21437499999999995,-0.7133333333333333],[0.19874999999999995,-0.7288888888888889],[0.19874999999999995,-0.7288888888888889],[0.19114583333333332,-0.7477777777777778],[0.2275000000000001,-0.7251851851851853],[0.2638541666666666,-0.7025925925925925],[0.28447916666666656,-0.6642592592592592],[0.3055208333333333,-0.6357407407407407],[0.3306250000000001,-0.6148148148148148],[0.35697916666666674,-0.5927777777777778],[0.39572916666666674,-0.5729629629629629],[0.45322916666666657,-0.562962962962963]]","[[-0.03916666666666669,0.6505555555555554,0.0003000001907338401],[-0.03916666666666669,0.6505555555555554,0.055300000190733556],[-0.01416666666666669,0.6162962962962962,0.06409999990463433],[-0.01416666666666669,0.6162962962962962,0.07470000028610002],[-0.036249999999999956,0.5509259259259259,0.09149999999999636],[-0.036249999999999956,0.5509259259259259,0.10799999999999699],[-0.051770833333333384,0.48703703703703705,0.12470000028609718],[-0.051770833333333384,0.48703703703703705,0.14130000019073208],[-0.03739583333333331,0.44240740740740736,0.15790000009536698],[-0.03739583333333331,0.44240740740740736,0.17459999990462904],[-0.027708333333333356,0.40037037037037043,0.19120000028610207],[-0.027708333333333356,0.40037037037037043,0.20790000009536413],[-0.019166666666666644,0.368888888888889,0.2245999999046333],[-0.016562499999999977,0.31555555555555553,0.24449999999999505],[-0.052083333333333336,0.2631481481481482,0.25799999999999557],[-0.0655208333333333,0.23296296296296287,0.27459999990463047],[-0.05927083333333331,0.2094444444444445,0.29130000019073066],[-0.06895833333333339,0.175,0.30790000009536556],[-0.033749999999999974,0.20703703703703696,0.3248000001907343],[0.0014583333333333095,0.2390740740740741,0.34120000028610065],[-0.005312500000000024,0.23925925925925934,0.3579000000953627],[-0.005937500000000048,0.23962962962962958,0.375],[-0.005937500000000048,0.23962962962962958,0.3945999999046279],[0.03187500000000002,0.24277777777777781,0.407900000095367],[0.03739583333333331,0.2553703703703703,0.42470000028610144],[0.06916666666666677,0.26907407407407397,0.44130000019073634],[0.06979166666666667,0.2653703703703703,0.45790000009536413],[0.024374999999999977,0.24833333333333338,0.4748000001907329],[0.0017708333333333807,0.22148148148148153,0.4912000002860992],[-0.04125000000000002,0.1638888888888889,0.5079000000953684],[-0.08104166666666662,0.10129629629629638,0.5245999999046305],[-0.09041666666666662,0.0712962962962963,0.5415999999046335],[-0.09750000000000002,0.03333333333333333,0.5579000000953656],[-0.14187500000000006,-0.01796296296296305,0.5745000000000005],[-0.1577083333333333,-0.05555555555555555,0.591700000286103],[-0.17218749999999997,-0.11055555555555553,0.6079000000953627],[-0.16541666666666663,-0.17092592592592595,0.6247000002860972],[-0.14895833333333333,-0.23111111111111113,0.6417000002861002],[-0.14395833333333338,-0.2542592592592593,0.6580000000000013],[-0.13895833333333332,-0.27740740740740744,0.674599999904629],[-0.14656250000000004,-0.29259259259259257,0.6924000000953683],[-0.14656250000000004,-0.29259259259259257,0.7079999999999984],[-0.15416666666666667,-0.30777777777777776,0.7247000002860986],[-0.15416666666666667,-0.30777777777777776,0.7413000001907335],[-0.1610416666666667,-0.32092592592592595,0.7579000000953684],[-0.1610416666666667,-0.32092592592592595,0.7750999999046329],[-0.2257291666666667,-0.2953703703703704,0.7912000002861035],[-0.27770833333333333,-0.2609259259259259,0.8079999999999998],[-0.31354166666666666,-0.21351851851851855,0.8245999999046276],[-0.37395833333333334,-0.1581481481481481,0.8419000000953645],[-0.4210416666666667,-0.1081481481481481,0.8604999999999947],[-0.523125,-0.08759259259259261,0.8744999999999976],[-0.5807291666666666,-0.07555555555555557,0.8914000000953664],[-0.6289583333333333,-0.06648148148148143,0.9078000001907327],[-0.6436458333333334,-0.03888888888888889,0.9244999999999948],[-0.6740625,-0.0035185185185184764,0.9433000001907317],[-0.63875,-0.040370370370370286,0.958599999904628],[-0.6157291666666667,-0.10037037037037035,0.9745999999046333],[-0.5768749999999999,-0.15240740740740744,0.9915999999046292],[-0.5551041666666666,-0.18462962962962962,1.008900000095366],[-0.5255208333333333,-0.23166666666666672,1.0249000000953643],[-0.43937499999999996,-0.24259259259259258,1.0420999999046288],[-0.4122916666666666,-0.27759259259259256,1.0602000002861018],[-0.38520833333333326,-0.3125925925925926,1.0764999999999958],[-0.38375,-0.3574074074074074,1.0922000002860983],[-0.33406250000000004,-0.40481481481481485,1.1084999999999994],[-0.36135416666666664,-0.43037037037037035,1.1244999999999976],[-0.3929166666666667,-0.4474074074074075,1.1415000000000006],[-0.43854166666666666,-0.48870370370370364,1.157900000095367],[-0.4670833333333333,-0.5498148148148148,1.1854999999999976],[-0.4670833333333333,-0.5498148148148148,1.1924000000953683],[-0.49624999999999997,-0.5585185185185185,1.2079000000953641],[-0.4665625,-0.5322222222222222,1.2245999999046333],[-0.4222916666666666,-0.4733333333333334,1.2413000001907335],[-0.4222916666666666,-0.4733333333333334,1.2579000000953684],[-0.36218750000000005,-0.45796296296296296,1.2745999999046305],[-0.3679166666666667,-0.48648148148148146,1.291400000095365],[-0.4091666666666666,-0.5142592592592592,1.3085999999046294],[-0.3385416666666667,-0.5083333333333333,1.3257000002860977],[-0.26916666666666667,-0.5209259259259259,1.343200000286103],[-0.2358333333333333,-0.46944444444444444,1.3582000002861037],[-0.2171875,-0.4292592592592593,1.3744999999999976],[-0.20750000000000005,-0.40555555555555556,1.3912000002860978],[-0.2345833333333334,-0.40555555555555556,1.407900000095367],[-0.263125,-0.4309259259259259,1.4244999999999948],[-0.30750000000000005,-0.41277777777777774,1.4462000002860975],[-0.28177083333333336,-0.355,1.4622000002861029],[-0.2560416666666666,-0.2972222222222222,1.4779000000953673],[-0.30895833333333333,-0.25555555555555554,1.4949000000953632],[-0.36062500000000003,-0.19537037037037036,1.5099000000953637],[-0.37604166666666666,-0.18129629629629626,1.5274999999999963],[-0.3767708333333334,-0.1559259259259259,1.544400000095365],[-0.3763541666666666,-0.14000000000000004,1.5620999999046319],[-0.39375,-0.1551851851851852,1.5792000002861002],[-0.39718749999999997,-0.13907407407407413,1.5949000000953646],[-0.400625,-0.12296296296296293,1.610999999999997],[-0.4265625,-0.12666666666666662,1.625700000286102],[-0.45249999999999996,-0.13037037037037033,1.641999999999996],[-0.40989583333333335,-0.11222222222222226,1.658300000190735],[-0.3851041666666667,-0.11777777777777781,1.6778000001907358],[-0.3754166666666666,-0.12537037037037035,1.6947000002860975],[-0.3667708333333334,-0.12907407407407406,1.7125999999046329],[-0.3667708333333334,-0.12907407407407406,1.7245999999046333],[-0.38656250000000003,-0.13277777777777774,1.7413000001907335],[-0.38656250000000003,-0.13277777777777774,1.7579000000953684],[-0.39906250000000004,-0.12185185185185188,1.7747000002861029],[-0.4392708333333334,-0.11777777777777781,1.7920000000000016],[-0.4971875,-0.10018518518518522,1.8087000002861018],[-0.48572916666666666,-0.10574074074074079,1.8247000002861],[-0.4952083333333333,-0.0948148148148148,1.8418000001907302],[-0.4869791666666667,-0.13722222222222227,1.8604999999999947],[-0.4858333333333333,-0.13870370370370366,1.8780000000000001],[-0.48093749999999996,-0.14000000000000004,1.8937000002861026],[-0.475,-0.14518518518518514,1.9080999999046284],[-0.43250000000000005,-0.18129629629629626,1.924599999904629],[-0.43250000000000005,-0.18129629629629626,1.941200000286102],[-0.39125000000000004,-0.225,1.9579000000953641],[-0.3330208333333334,-0.2927777777777778,1.9747000002860986],[-0.2908333333333334,-0.31296296296296294,1.9912000002860992],[-0.3077083333333333,-0.2946296296296297,2.0079000000953684],[-0.2856250000000001,-0.32037037037037036,2.02480000019073],[-0.32364583333333335,-0.2992592592592593,2.0460999999046336],[-0.3095833333333334,-0.31425925925925924,2.0627000002860996],[-0.2720833333333334,-0.31740740740740736,2.0825999999046303],[-0.2720833333333334,-0.31740740740740736,2.0912000002861006],[-0.24562499999999995,-0.31962962962962965,2.107999999999997],[-0.2013541666666666,-0.3101851851851852,2.1273000001907363],[-0.2013541666666666,-0.3101851851851852,2.141300000190732],[-0.20843750000000003,-0.29148148148148145,2.157900000095367],[-0.2001041666666667,-0.2657407407407407,2.174900000095363],[-0.15239583333333329,-0.3014814814814815,2.1925999999046297],[-0.15239583333333329,-0.3014814814814815,2.2135999999046305],[-0.11822916666666666,-0.3290740740740741,2.2283000001907354],[-0.06947916666666672,-0.3405555555555555,2.2455],[-0.002812500000000047,-0.34759259259259256,2.2605000000000004],[0.036666666666666715,-0.3357407407407408,2.274499999999996],[0.03718750000000005,-0.3307407407407408,2.2912000002861035],[0.04874999999999995,-0.3266666666666666,2.3078000001907313],[0.06437499999999995,-0.32148148148148153,2.3245000000000005],[0.12531249999999997,-0.33259259259259266,2.3419999999999987],[0.15260416666666668,-0.31425925925925924,2.3604999999999947],[0.1742708333333333,-0.29555555555555557,2.3770999999046296],[0.22395833333333334,-0.27925925925925926,2.391200000286098],[0.23958333333333334,-0.26851851851851855,2.4078000001907327],[0.2525000000000001,-0.2609259259259259,2.4248000001907357],[0.2591666666666666,-0.23444444444444448,2.441200000286102],[0.25968749999999996,-0.2101851851851852,2.458599999904628],[0.24770833333333328,-0.22888888888888892,2.4754999999999967],[0.18354166666666671,-0.2161111111111111,2.493700000286104],[0.13552083333333323,-0.2103703703703704,2.5224000000953666],[0.13552083333333323,-0.2103703703703704,2.530000000000001],[0.10895833333333324,-0.21777777777777782,2.541400000095365],[0.09447916666666671,-0.21444444444444447,2.561],[0.0655208333333333,-0.2168518518518519,2.5778000001907344],[0.06427083333333337,-0.20425925925925928,2.593900000095367],[0.057500000000000044,-0.21425925925925923,2.611400000095365],[0.05260416666666667,-0.2390740740740741,2.628999999999998],[0.06458333333333334,-0.26296296296296295,2.6455999999046327],[0.065625,-0.2183333333333333,2.6619000000953648],[0.12177083333333343,-0.20611111111111113,2.6792000002861016],[0.12177083333333343,-0.20611111111111113,2.6914000000953635],[0.12802083333333342,-0.16962962962962966,2.7080999999046327],[0.16854166666666662,-0.14148148148148143,2.7290999999046335],[0.16854166666666662,-0.14148148148148143,2.7413000001907335],[0.1959374999999999,-0.11796296296296294,2.7579999999999956],[0.20499999999999996,-0.127962962962963,2.777700000286103],[0.2133333333333333,-0.14537037037037037,2.792200000286101],[0.22166666666666662,-0.16277777777777774,2.8078000001907313],[0.2203125,-0.16129629629629633,2.8253000001907296],[0.2189583333333334,-0.15981481481481483,2.8419999999999987],[0.23166666666666677,-0.17037037037037037,2.8579000000953627],[0.1703125,-0.1264814814814815,2.878700000286102],[0.16687500000000005,-0.13777777777777775,2.893900000095364],[0.12614583333333323,-0.13222222222222219,2.911599999904631],[0.12614583333333323,-0.13222222222222219,2.930900000095363],[0.08604166666666657,-0.15462962962962962,2.941200000286102],[0.05916666666666662,-0.12925925925925927,2.957900000095364],[-0.022604166666666713,-0.07037037037037037,2.974499999999999],[-0.08270833333333331,-0.018333333333333292,2.9939999999999998],[-0.12875000000000003,0.010740740740740657,3.0079000000953684],[-0.19468749999999999,0.02833333333333325,3.024499999999996],[-0.25125000000000003,0.032407407407407406,3.0453000001907355],[-0.20385416666666673,-0.006666666666666709,3.0583000001907337],[-0.18885416666666663,-0.02370370370370362,3.0745999999046276],[-0.1857291666666666,-0.06796296296296295,3.091400000095369],[-0.1828125,-0.10351851851851848,3.1078000001907355],[-0.1779166666666666,-0.1485185185185185,3.124700000286097],[-0.1779166666666666,-0.1485185185185185,3.141300000190732],[-0.1436458333333333,-0.2175925925925926,3.157900000095367],[-0.08614583333333338,-0.2687037037037037,3.1744999999999948],[-0.06979166666666667,-0.32999999999999996,3.191200000286102],[-0.03354166666666671,-0.3798148148148149,3.207900000095364],[0.021562500000000047,-0.41222222222222227,3.228999999999999],[-0.04083333333333338,-0.4125925925925926,3.2454000000953656],[-0.09500000000000004,-0.397037037037037,3.261400000095364],[-0.10343749999999995,-0.34,3.278500000000001],[-0.11124999999999995,-0.2698148148148148,3.2917000002860988],[-0.11593749999999996,-0.2044444444444444,3.3079000000953656],[-0.11593749999999996,-0.2044444444444444,3.326499999999996],[-0.12239583333333333,-0.14351851851851852,3.3412000002861006],[-0.19666666666666663,-0.11851851851851852,3.3578000001907355],[-0.22687499999999997,-0.08296296296296299,3.3744999999999976],[-0.24927083333333327,-0.04296296296296305,3.391200000286098],[-0.2905208333333333,-0.020370370370370372,3.411200000286101],[-0.27854166666666663,-0.024814814814814772,3.427200000286099],[-0.2665625,-0.029259259259259176,3.4447000002860975],[-0.2939583333333334,-0.05425925925925928,3.4618000001907347],[-0.32135416666666666,-0.07925925925925928,3.4769000000953625],[-0.3729166666666667,-0.10166666666666663,3.491099999904634],[-0.4132291666666667,-0.10629629629629625,3.5079000000953684],[-0.41291666666666665,-0.14833333333333337,3.525200000286098],[-0.41875,-0.19648148148148153,3.5420000000000016],[-0.41875,-0.19648148148148153,3.5579000000953656],[-0.42156250000000006,-0.2368518518518518,3.5745999999046276],[-0.44479166666666664,-0.25981481481481483,3.5944999999999965],[-0.45812499999999995,-0.28166666666666673,3.6108000001907357],[-0.478125,-0.28166666666666673,3.625400000095368],[-0.4821875,-0.2838888888888889,3.642400000095364],[-0.4821875,-0.2838888888888889,3.6578000001907327],[-0.48020833333333335,-0.27814814814814814,3.674599999904629],[-0.46520833333333333,-0.27166666666666667,3.69409999990463],[-0.45968749999999997,-0.2785185185185185,3.7128000001907324],[-0.45968749999999997,-0.2785185185185185,3.724800000190733],[-0.4672916666666667,-0.2875925925925926,3.741800000190736],[-0.4672916666666667,-0.2875925925925926,3.7579000000953684],[-0.4452083333333333,-0.27629629629629626,3.774499999999996],[-0.43395833333333333,-0.28851851851851856,3.794099999904631],[-0.4022916666666667,-0.3181481481481482,3.8079000000953656],[-0.38156249999999997,-0.31740740740740736,3.8275999999046277],[-0.38156249999999997,-0.31740740740740736,3.8412000002861006],[-0.36479166666666674,-0.3272222222222222,3.8579000000953627],[-0.36479166666666674,-0.3272222222222222,3.8744999999999976],[-0.3658333333333334,-0.3346296296296296,3.8914000000953664],[-0.3658333333333334,-0.3346296296296296,3.907900000095367],[-0.3732291666666666,-0.3455555555555556,3.924599999904629],[-0.3686458333333333,-0.3492592592592593,3.947900000095366],[-0.3686458333333333,-0.3492592592592593,3.957900000095364],[-0.3770833333333333,-0.34370370370370373,3.974800000190733],[-0.3770833333333333,-0.34370370370370373,3.9912000002860992],[-0.3811458333333333,-0.26888888888888884,4.007900000095368],[-0.3811458333333333,-0.26888888888888884,4.0245999999046305],[-0.4106250000000001,-0.2270370370370371,4.0412000002861035],[-0.4383333333333333,-0.16574074074074074,4.0579000000953656],[-0.46427083333333335,-0.09666666666666665,4.0745000000000005],[-0.4780208333333333,-0.0727777777777778,4.091599999904631],[-0.498125,-0.049074074074074076,4.107999999999997],[-0.49624999999999997,-0.04333333333333329,4.1265],[-0.4940625,-0.04203703703703712,4.142200000286103],[-0.4688541666666667,-0.0418518518518519,4.15880000019073],[-0.430625,-0.05092592592592592,4.179900000095365],[-0.3751041666666667,-0.039629629629629584,4.194900000095366],[-0.31833333333333336,-0.014074074074074116,4.210400000095369],[-0.24968750000000003,-0.01629629629629621,4.225499999999997],[-0.18645833333333334,-0.019444444444444445,4.242099999904632],[-0.12593749999999998,-0.024814814814814772,4.258200000286102],[-0.042812500000000024,-0.05703703703703706,4.274499999999996],[0.03239583333333336,-0.06388888888888888,4.291700000286099],[0.09520833333333342,-0.07333333333333338,4.307800000190731],[0.14770833333333327,-0.08203703703703706,4.3245000000000005],[0.20020833333333338,-0.09074074074074075,4.343200000286103],[0.21583333333333338,-0.13481481481481483,4.358700000286099],[0.22916666666666666,-0.17481481481481478,4.374499999999998],[0.21927083333333333,-0.19388888888888886,4.391200000286098],[0.21302083333333333,-0.2198148148148148,4.407800000190733],[0.20197916666666677,-0.23962962962962958,4.426499999999997],[0.203125,-0.2207407407407407,4.444599999904632],[0.19562499999999997,-0.20999999999999996,4.461200000286098],[0.18697916666666667,-0.2161111111111111,4.476599999904629],[0.16479166666666673,-0.2324074074074074,4.492300000190731],[0.14260416666666675,-0.24870370370370373,4.507900000095368],[0.12864583333333332,-0.24592592592592594,4.528999999999996],[0.11958333333333329,-0.19981481481481478,4.545800000190731],[0.13052083333333328,-0.14481481481481479,4.580400000095366],[0.13052083333333328,-0.14481481481481479,4.586900000095369],[0.14979166666666663,-0.08796296296296297,4.59480000019073],[0.17531249999999995,-0.020185185185185143,4.610900000095363],[0.159375,0.018703703703703747,4.625499999999995],[0.14343750000000005,0.05759259259259263,4.6462000002861],[0.1328125,0.10962962962962972,4.661400000095362],[0.12218749999999995,0.16166666666666657,4.6754999999999995],[0.10281250000000004,0.2153703703703703,4.699599999904628],[0.10281250000000004,0.2153703703703703,4.7132000002861005],[0.07802083333333343,0.2800000000000001,4.724800000190733],[0.03958333333333333,0.2740740740740741,4.751400000095366],[0.03958333333333333,0.2740740740740741,4.758900000095366],[0.042499999999999954,0.2455555555555556,4.774700000286103],[0.019895833333333356,0.20722222222222217,4.792499999999997],[-0.0014583333333333095,0.16703703703703712,4.8115999999046295],[0.034895833333333334,0.14037037037037028,4.828400000095364],[0.07218749999999995,0.13148148148148148,4.845500000000001],[0.12531249999999997,0.11944444444444445,4.865099999904629],[0.12531249999999997,0.11944444444444445,4.874599999904632],[0.15750000000000006,0.06222222222222226,4.8917000002861],[0.18260416666666662,-0.010740740740740657,4.908200000286101],[0.21302083333333333,-0.1190740740740741,4.927499999999995],[0.2599999999999999,-0.16740740740740737,4.944499999999998],[0.25906250000000003,-0.1794444444444444,4.961800000190735],[0.27531249999999996,-0.18351851851851855,4.979999999999997],[0.29718749999999994,-0.19425925925925921,4.994800000190736],[0.2849999999999999,-0.2125925925925926,5.01109999990463],[0.2569791666666667,-0.26796296296296296,5.027099999904628],[0.2569791666666667,-0.26796296296296296,5.045400000095363],[0.22510416666666658,-0.32314814814814813,5.058],[0.22510416666666658,-0.32314814814814813,5.0792000002861],[0.21989583333333323,-0.3031481481481481,5.094900000095365],[0.24333333333333323,-0.2524074074074074,5.112099999904629],[0.2570833333333333,-0.17222222222222222,5.128700000286102],[0.26447916666666677,-0.1175925925925926,5.1477000002861],[0.26447916666666677,-0.1175925925925926,5.157900000095367],[0.25458333333333344,-0.16740740740740737,5.174499999999995],[0.23958333333333334,-0.18555555555555553,5.191900000095366],[0.21770833333333334,-0.19518518518518516,5.20780000019073],[0.20989583333333334,-0.20481481481481487,5.224499999999999],[0.2169791666666666,-0.19518518518518516,5.243200000286102],[0.23093750000000005,-0.15833333333333333,5.260800000190734],[0.22260416666666671,-0.16814814814814816,5.275200000286098],[0.20145833333333343,-0.19462962962962968,5.2912000002861035],[0.17687499999999995,-0.24462962962962967,5.308300000190734],[0.1508333333333333,-0.30185185185185187,5.325599999904632],[0.1382291666666667,-0.2785185185185185,5.3434000000953645],[0.13145833333333337,-0.28648148148148145,5.362499999999997],[0.12468750000000005,-0.29444444444444445,5.377200000286102],[0.11812500000000009,-0.3109259259259259,5.394099999904633],[0.11156249999999991,-0.3274074074074074,5.415800000190735],[0.11156249999999991,-0.3274074074074074,5.424499999999995],[0.08708333333333323,-0.39037037037037037,5.441200000286102],[0.115625,-0.3774074074074074,5.458500000000001],[0.14416666666666675,-0.36444444444444446,5.475499999999997],[0.18947916666666675,-0.35555555555555557,5.493800000190731],[0.23479166666666676,-0.3466666666666666,5.507999999999996],[0.2816666666666668,-0.34370370370370373,5.535200000286103],[0.2816666666666668,-0.34370370370370373,5.543700000286101],[0.33395833333333325,-0.3453703703703704,5.557800000190731],[0.3862499999999999,-0.347037037037037,5.575499999999998],[0.4410416666666668,-0.3190740740740741,5.594700000286103],[0.4808333333333332,-0.2922222222222222,5.610099999904634],[0.5386458333333333,-0.23444444444444448,5.625499999999995],[0.5599999999999999,-0.23592592592592587,5.644500000000001],[0.5560416666666667,-0.27925925925925926,5.6610999999046285],[0.5829166666666665,-0.2638888888888889,5.674700000286101],[0.5859375,-0.2770370370370371,5.6952000002861],[0.5859375,-0.2770370370370371,5.70780000019073],[0.6134375000000001,-0.2511111111111112,5.724599999904633],[0.6347916666666668,-0.22092592592592594,5.744999999999997],[0.6347916666666668,-0.22092592592592594,5.757900000095368],[0.6487499999999999,-0.22851851851851848,5.774499999999996],[0.6243750000000001,-0.27759259259259256,5.796200000286099],[0.6150000000000001,-0.3255555555555556,5.811900000095363],[0.5976041666666667,-0.40499999999999997,5.828700000286098],[0.5802083333333333,-0.4844444444444445,5.845400000095367],[0.5790625000000001,-0.5181481481481481,5.860900000095363],[0.5463541666666667,-0.5957407407407407,5.875499999999995],[0.5315624999999999,-0.6194444444444445,5.8933000001907345],[0.47458333333333325,-0.6618518518518518,5.911000000000001],[0.4176041666666668,-0.7129629629629629,5.9285],[0.37385416666666677,-0.7351851851851852,5.948999999999998],[0.37385416666666677,-0.7351851851851852,5.966400000095369],[0.3246875000000001,-0.7309259259259259,5.983300000190731],[0.3246875000000001,-0.7309259259259259,5.991800000190736],[0.2751041666666666,-0.7387037037037036,6.007800000190734],[0.22510416666666658,-0.7224074074074075,6.024900000095364],[0.17770833333333325,-0.6827777777777777,6.0412000002861035],[0.14500000000000005,-0.6651851851851852,6.060300000190736],[0.13645833333333332,-0.6525925925925925,6.0745000000000005],[0.10020833333333339,-0.6698148148148148,6.091200000286101],[0.08937499999999995,-0.7098148148148148,6.110599999904629],[0.06218750000000005,-0.7457407407407407,6.126999999999995],[0.029166666666666667,-0.7727777777777778,6.141900000095369],[0.01895833333333338,-0.7655555555555555,6.157800000190733],[0.00916666666666662,-0.7462962962962963,6.177599999904629],[0.02791666666666662,-0.7324074074074074,6.191300000190736],[0.044062499999999956,-0.7418518518518519,6.207999999999998],[0.0453125,-0.7405555555555555,6.224599999904633],[0.021979166666666692,-0.7353703703703705,6.245900000095368],[0.05499999999999995,-0.7177777777777778,6.2605],[0.0787499999999999,-0.6918518518518519,6.274700000286103],[0.11354166666666667,-0.672037037037037,6.291300000190731],[0.11354166666666667,-0.672037037037037,6.311],[0.18177083333333333,-0.6179629629629629,6.3247000002861],[0.24031250000000004,-0.6277777777777778,6.344599999904631],[0.31302083333333336,-0.6298148148148148,6.363599999904629],[0.31302083333333336,-0.6298148148148148,6.3748000001907315],[0.34395833333333337,-0.6312962962962962,6.391500000000001],[0.378125,-0.6246296296296296,6.409300000190733],[0.42156250000000006,-0.6194444444444445,6.428300000190731],[0.4547916666666666,-0.6174074074074074,6.444900000095366],[0.48468749999999994,-0.6214814814814815,6.458300000190732],[0.5091666666666667,-0.6294444444444444,6.477700000286099],[0.5389583333333334,-0.6266666666666666,6.491200000286099],[0.5165625000000001,-0.6622222222222223,6.507800000190734],[0.5251041666666666,-0.6709259259259259,6.525200000286098],[0.5251041666666666,-0.6709259259259259,6.5412000002861035],[0.5195833333333333,-0.6692592592592592,6.5579000000953656],[0.5142708333333333,-0.6694444444444444,6.574800000190734],[0.49031250000000004,-0.6794444444444444,6.594000000000001],[0.5022916666666667,-0.6809259259259259,6.607900000095363],[0.5071875000000001,-0.6883333333333334,6.624599999904632],[0.49270833333333336,-0.6975925925925925,6.645200000286103],[0.4869791666666667,-0.6888888888888889,6.66030000019073],[0.4869791666666667,-0.6888888888888889,6.674800000190736],[0.48125,-0.6801851851851852,6.695400000095368],[0.48125,-0.6801851851851852,6.708099999904633],[0.5135416666666667,-0.6531481481481481,6.724700000286099],[0.5469791666666666,-0.6214814814814815,6.746099999904629],[0.5313541666666666,-0.6198148148148148,6.761200000286102],[0.5313541666666666,-0.6198148148148148,6.774700000286103],[0.5264583333333335,-0.6064814814814815,6.791700000286099],[0.5264583333333335,-0.6064814814814815,6.820499999999996],[0.5830208333333334,-0.5868518518518518,6.826999999999998],[0.6117708333333333,-0.5942592592592593,6.843900000095367],[0.6445833333333333,-0.5744444444444444,6.8604000000953675],[0.696875,-0.5557407407407408,6.880200000286102],[0.696875,-0.5557407407407408,6.891500000000001],[0.675,-0.5524074074074075,6.908099999904628],[0.6870833333333333,-0.5459259259259259,6.9254999999999995],[0.6635416666666667,-0.5559259259259259,6.946400000095366],[0.6102083333333332,-0.5796296296296296,6.960300000190735],[0.5902083333333332,-0.6003703703703703,6.976999999999997],[0.5897916666666667,-0.6244444444444445,6.991400000095368],[0.5461458333333333,-0.6542592592592593,7.01109999990463],[0.48677083333333326,-0.6646296296296296,7.02780000019073],[0.440625,-0.6931481481481482,7.045000000000002],[0.40041666666666675,-0.7192592592592593,7.058300000190734],[0.4310416666666666,-0.7440740740740741,7.077200000286098],[0.4195833333333333,-0.7635185185185185,7.091200000286101],[0.4244791666666667,-0.7807407407407407,7.107999999999997],[0.43208333333333326,-0.7896296296296296,7.124599999904632],[0.4553124999999999,-0.7896296296296296,7.1444000000953665],[0.46510416666666665,-0.7887037037037037,7.157800000190733],[0.47208333333333335,-0.7866666666666667,7.174599999904629],[0.47208333333333335,-0.7866666666666667,7.191300000190736],[0.5039583333333333,-0.7605555555555555,7.207900000095364],[0.5039583333333333,-0.7605555555555555,7.230400000095365],[0.5412499999999999,-0.7298148148148148,7.241900000095363],[0.540625,-0.6811111111111111,7.258400000095364],[0.5211458333333333,-0.6761111111111111,7.277200000286101],[0.5229166666666667,-0.6607407407407407,7.2912000002861035],[0.5305208333333333,-0.6496296296296297,7.311800000190736],[0.5469791666666666,-0.6411111111111111,7.32530000019073],[0.5634375000000001,-0.6325925925925926,7.347000000000001],[0.5556250000000001,-0.6174074074074074,7.362900000095365],[0.5556250000000001,-0.6174074074074074,7.3748000001907315],[0.5478125000000001,-0.6022222222222222,7.3910999999046325],[0.534375,-0.6196296296296296,7.407900000095367],[0.5320833333333332,-0.6175925925925926,7.424499999999995],[0.5320833333333332,-0.6175925925925926,7.441200000286102],[0.5422916666666666,-0.6348148148148148,7.45780000019073],[0.5422916666666666,-0.6348148148148148,7.474599999904633],[0.5783333333333334,-0.617037037037037,7.491099999904634],[0.5783333333333334,-0.617037037037037,7.507800000190734],[0.5742708333333333,-0.6246296296296296,7.524499999999996],[0.5742708333333333,-0.6246296296296296,7.5412000002861035],[0.5496875,-0.6196296296296296,7.557800000190731],[0.5084374999999999,-0.635,7.58130000019073],[0.5084374999999999,-0.635,7.591200000286101],[0.4773958333333333,-0.6388888888888888,7.612900000095365],[0.4773958333333333,-0.6388888888888888,7.624499999999998],[0.4694791666666667,-0.6270370370370371,7.641200000286098],[0.4694791666666667,-0.6270370370370371,7.658700000286103],[0.48624999999999996,-0.6074074074074074,7.677999999999997],[0.48979166666666674,-0.5835185185185185,7.695],[0.48979166666666674,-0.5835185185185185,7.707900000095364],[0.4710416666666667,-0.5861111111111111,7.729800000190735],[0.4710416666666667,-0.5861111111111111,7.741200000286099],[0.453125,-0.5925925925925926,7.757800000190734],[0.43760416666666657,-0.5781481481481481,7.774499999999996],[0.4354166666666667,-0.5977777777777779,7.7912000002861035],[0.4445833333333333,-0.6109259259259259,7.808300000190734],[0.4540625000000001,-0.5777777777777777,7.82530000019073],[0.45333333333333337,-0.5561111111111111,7.842200000286098],[0.4318749999999999,-0.5775925925925925,7.857900000095363],[0.4096874999999999,-0.5900000000000001,7.8789000000953635],[0.3945833333333333,-0.5848148148148148,7.8944000000953665],[0.38520833333333326,-0.5772222222222222,7.908999999999999],[0.34395833333333337,-0.5879629629629629,7.925099999904631],[0.2933333333333332,-0.6109259259259259,7.9443000001907365],[0.2720833333333334,-0.609074074074074,7.958800000190735],[0.25416666666666665,-0.6220370370370369,7.975200000286101],[0.24854166666666658,-0.6533333333333333,7.991400000095368],[0.24291666666666673,-0.6846296296296296,8.0077000002861],[0.240625,-0.6905555555555555,8.0257000002861],[0.21437499999999995,-0.7133333333333333,8.045900000095365],[0.19874999999999995,-0.7288888888888889,8.07],[0.19874999999999995,-0.7288888888888889,8.076999999999998],[0.19114583333333332,-0.7477777777777778,8.091099999904628],[0.2275000000000001,-0.7251851851851853,8.107800000190736],[0.2638541666666666,-0.7025925925925925,8.124499999999998],[0.28447916666666656,-0.6642592592592592,8.143700000286103],[0.3055208333333333,-0.6357407407407407,8.158300000190735],[0.3306250000000001,-0.6148148148148148,8.174999999999997],[0.35697916666666674,-0.5927777777777778,8.191300000190736],[0.39572916666666674,-0.5729629629629629,8.20780000019073],[0.45322916666666657,-0.562962962962963,8.224599999904633]]","[0.0003000001907338401,0.055300000190733556,0.06409999990463433,0.07470000028610002,0.09149999999999636,0.10799999999999699,0.12470000028609718,0.14130000019073208,0.15790000009536698,0.17459999990462904,0.19120000028610207,0.20790000009536413,0.2245999999046333,0.24449999999999505,0.25799999999999557,0.27459999990463047,0.29130000019073066,0.30790000009536556,0.3248000001907343,0.34120000028610065,0.3579000000953627,0.375,0.3945999999046279,0.407900000095367,0.42470000028610144,0.44130000019073634,0.45790000009536413,0.4748000001907329,0.4912000002860992,0.5079000000953684,0.5245999999046305,0.5415999999046335,0.5579000000953656,0.5745000000000005,0.591700000286103,0.6079000000953627,0.6247000002860972,0.6417000002861002,0.6580000000000013,0.674599999904629,0.6924000000953683,0.7079999999999984,0.7247000002860986,0.7413000001907335,0.7579000000953684,0.7750999999046329,0.7912000002861035,0.8079999999999998,0.8245999999046276,0.8419000000953645,0.8604999999999947,0.8744999999999976,0.8914000000953664,0.9078000001907327,0.9244999999999948,0.9433000001907317,0.958599999904628,0.9745999999046333,0.9915999999046292,1.008900000095366,1.0249000000953643,1.0420999999046288,1.0602000002861018,1.0764999999999958,1.0922000002860983,1.1084999999999994,1.1244999999999976,1.1415000000000006,1.157900000095367,1.1854999999999976,1.1924000000953683,1.2079000000953641,1.2245999999046333,1.2413000001907335,1.2579000000953684,1.2745999999046305,1.291400000095365,1.3085999999046294,1.3257000002860977,1.343200000286103,1.3582000002861037,1.3744999999999976,1.3912000002860978,1.407900000095367,1.4244999999999948,1.4462000002860975,1.4622000002861029,1.4779000000953673,1.4949000000953632,1.5099000000953637,1.5274999999999963,1.544400000095365,1.5620999999046319,1.5792000002861002,1.5949000000953646,1.610999999999997,1.625700000286102,1.641999999999996,1.658300000190735,1.6778000001907358,1.6947000002860975,1.7125999999046329,1.7245999999046333,1.7413000001907335,1.7579000000953684,1.7747000002861029,1.7920000000000016,1.8087000002861018,1.8247000002861,1.8418000001907302,1.8604999999999947,1.8780000000000001,1.8937000002861026,1.9080999999046284,1.924599999904629,1.941200000286102,1.9579000000953641,1.9747000002860986,1.9912000002860992,2.0079000000953684,2.02480000019073,2.0460999999046336,2.0627000002860996,2.0825999999046303,2.0912000002861006,2.107999999999997,2.1273000001907363,2.141300000190732,2.157900000095367,2.174900000095363,2.1925999999046297,2.2135999999046305,2.2283000001907354,2.2455,2.2605000000000004,2.274499999999996,2.2912000002861035,2.3078000001907313,2.3245000000000005,2.3419999999999987,2.3604999999999947,2.3770999999046296,2.391200000286098,2.4078000001907327,2.4248000001907357,2.441200000286102,2.458599999904628,2.4754999999999967,2.493700000286104,2.5224000000953666,2.530000000000001,2.541400000095365,2.561,2.5778000001907344,2.593900000095367,2.611400000095365,2.628999999999998,2.6455999999046327,2.6619000000953648,2.6792000002861016,2.6914000000953635,2.7080999999046327,2.7290999999046335,2.7413000001907335,2.7579999999999956,2.777700000286103,2.792200000286101,2.8078000001907313,2.8253000001907296,2.8419999999999987,2.8579000000953627,2.878700000286102,2.893900000095364,2.911599999904631,2.930900000095363,2.941200000286102,2.957900000095364,2.974499999999999,2.9939999999999998,3.0079000000953684,3.024499999999996,3.0453000001907355,3.0583000001907337,3.0745999999046276,3.091400000095369,3.1078000001907355,3.124700000286097,3.141300000190732,3.157900000095367,3.1744999999999948,3.191200000286102,3.207900000095364,3.228999999999999,3.2454000000953656,3.261400000095364,3.278500000000001,3.2917000002860988,3.3079000000953656,3.326499999999996,3.3412000002861006,3.3578000001907355,3.3744999999999976,3.391200000286098,3.411200000286101,3.427200000286099,3.4447000002860975,3.4618000001907347,3.4769000000953625,3.491099999904634,3.5079000000953684,3.525200000286098,3.5420000000000016,3.5579000000953656,3.5745999999046276,3.5944999999999965,3.6108000001907357,3.625400000095368,3.642400000095364,3.6578000001907327,3.674599999904629,3.69409999990463,3.7128000001907324,3.724800000190733,3.741800000190736,3.7579000000953684,3.774499999999996,3.794099999904631,3.8079000000953656,3.8275999999046277,3.8412000002861006,3.8579000000953627,3.8744999999999976,3.8914000000953664,3.907900000095367,3.924599999904629,3.947900000095366,3.957900000095364,3.974800000190733,3.9912000002860992,4.007900000095368,4.0245999999046305,4.0412000002861035,4.0579000000953656,4.0745000000000005,4.091599999904631,4.107999999999997,4.1265,4.142200000286103,4.15880000019073,4.179900000095365,4.194900000095366,4.210400000095369,4.225499999999997,4.242099999904632,4.258200000286102,4.274499999999996,4.291700000286099,4.307800000190731,4.3245000000000005,4.343200000286103,4.358700000286099,4.374499999999998,4.391200000286098,4.407800000190733,4.426499999999997,4.444599999904632,4.461200000286098,4.476599999904629,4.492300000190731,4.507900000095368,4.528999999999996,4.545800000190731,4.580400000095366,4.586900000095369,4.59480000019073,4.610900000095363,4.625499999999995,4.6462000002861,4.661400000095362,4.6754999999999995,4.699599999904628,4.7132000002861005,4.724800000190733,4.751400000095366,4.758900000095366,4.774700000286103,4.792499999999997,4.8115999999046295,4.828400000095364,4.845500000000001,4.865099999904629,4.874599999904632,4.8917000002861,4.908200000286101,4.927499999999995,4.944499999999998,4.961800000190735,4.979999999999997,4.994800000190736,5.01109999990463,5.027099999904628,5.045400000095363,5.058,5.0792000002861,5.094900000095365,5.112099999904629,5.128700000286102,5.1477000002861,5.157900000095367,5.174499999999995,5.191900000095366,5.20780000019073,5.224499999999999,5.243200000286102,5.260800000190734,5.275200000286098,5.2912000002861035,5.308300000190734,5.325599999904632,5.3434000000953645,5.362499999999997,5.377200000286102,5.394099999904633,5.415800000190735,5.424499999999995,5.441200000286102,5.458500000000001,5.475499999999997,5.493800000190731,5.507999999999996,5.535200000286103,5.543700000286101,5.557800000190731,5.575499999999998,5.594700000286103,5.610099999904634,5.625499999999995,5.644500000000001,5.6610999999046285,5.674700000286101,5.6952000002861,5.70780000019073,5.724599999904633,5.744999999999997,5.757900000095368,5.774499999999996,5.796200000286099,5.811900000095363,5.828700000286098,5.845400000095367,5.860900000095363,5.875499999999995,5.8933000001907345,5.911000000000001,5.9285,5.948999999999998,5.966400000095369,5.983300000190731,5.991800000190736,6.007800000190734,6.024900000095364,6.0412000002861035,6.060300000190736,6.0745000000000005,6.091200000286101,6.110599999904629,6.126999999999995,6.141900000095369,6.157800000190733,6.177599999904629,6.191300000190736,6.207999999999998,6.224599999904633,6.245900000095368,6.2605,6.274700000286103,6.291300000190731,6.311,6.3247000002861,6.344599999904631,6.363599999904629,6.3748000001907315,6.391500000000001,6.409300000190733,6.428300000190731,6.444900000095366,6.458300000190732,6.477700000286099,6.491200000286099,6.507800000190734,6.525200000286098,6.5412000002861035,6.5579000000953656,6.574800000190734,6.594000000000001,6.607900000095363,6.624599999904632,6.645200000286103,6.66030000019073,6.674800000190736,6.695400000095368,6.708099999904633,6.724700000286099,6.746099999904629,6.761200000286102,6.774700000286103,6.791700000286099,6.820499999999996,6.826999999999998,6.843900000095367,6.8604000000953675,6.880200000286102,6.891500000000001,6.908099999904628,6.9254999999999995,6.946400000095366,6.960300000190735,6.976999999999997,6.991400000095368,7.01109999990463,7.02780000019073,7.045000000000002,7.058300000190734,7.077200000286098,7.091200000286101,7.107999999999997,7.124599999904632,7.1444000000953665,7.157800000190733,7.174599999904629,7.191300000190736,7.207900000095364,7.230400000095365,7.241900000095363,7.258400000095364,7.277200000286101,7.2912000002861035,7.311800000190736,7.32530000019073,7.347000000000001,7.362900000095365,7.3748000001907315,7.3910999999046325,7.407900000095367,7.424499999999995,7.441200000286102,7.45780000019073,7.474599999904633,7.491099999904634,7.507800000190734,7.524499999999996,7.5412000002861035,7.557800000190731,7.58130000019073,7.591200000286101,7.612900000095365,7.624499999999998,7.641200000286098,7.658700000286103,7.677999999999997,7.695,7.707900000095364,7.729800000190735,7.741200000286099,7.757800000190734,7.774499999999996,7.7912000002861035,7.808300000190734,7.82530000019073,7.842200000286098,7.857900000095363,7.8789000000953635,7.8944000000953665,7.908999999999999,7.925099999904631,7.9443000001907365,7.958800000190735,7.975200000286101,7.991400000095368,8.0077000002861,8.0257000002861,8.045900000095365,8.07,8.076999999999998,8.091099999904628,8.107800000190736,8.124499999999998,8.143700000286103,8.158300000190735,8.174999999999997,8.191300000190736,8.20780000019073,8.224599999904633]","[1732158572155,1732158572200,1732158572209,1732158572219,1732158572236,1732158572253,1732158572269,1732158572286,1732158572303,1732158572319,1732158572336,1732158572353,1732158572369,1732158572389,1732158572403,1732158572419,1732158572436,1732158572453,1732158572469,1732158572486,1732158572503,1732158572520,1732158572539,1732158572553,1732158572569,1732158572586,1732158572603,1732158572619,1732158572636,1732158572653,1732158572669,1732158572686,1732158572703,1732158572719,1732158572736,1732158572753,1732158572769,1732158572786,1732158572803,1732158572819,1732158572837,1732158572853,1732158572869,1732158572886,1732158572903,1732158572920,1732158572936,1732158572953,1732158572969,1732158572987,1732158573005,1732158573019,1732158573036,1732158573053,1732158573069,1732158573088,1732158573103,1732158573119,1732158573136,1732158573154,1732158573170,1732158573187,1732158573205,1732158573221,1732158573237,1732158573253,1732158573269,1732158573286,1732158573303,1732158573330,1732158573337,1732158573353,1732158573369,1732158573386,1732158573403,1732158573419,1732158573436,1732158573453,1732158573470,1732158573488,1732158573503,1732158573519,1732158573536,1732158573553,1732158573569,1732158573591,1732158573607,1732158573623,1732158573640,1732158573655,1732158573672,1732158573689,1732158573707,1732158573724,1732158573740,1732158573756,1732158573770,1732158573787,1732158573803,1732158573822,1732158573839,1732158573857,1732158573869,1732158573886,1732158573903,1732158573919,1732158573937,1732158573953,1732158573969,1732158573986,1732158574005,1732158574023,1732158574038,1732158574053,1732158574069,1732158574086,1732158574103,1732158574119,1732158574136,1732158574153,1732158574169,1732158574191,1732158574207,1732158574227,1732158574236,1732158574253,1732158574272,1732158574286,1732158574303,1732158574320,1732158574337,1732158574358,1732158574373,1732158574390,1732158574405,1732158574419,1732158574436,1732158574453,1732158574469,1732158574487,1732158574505,1732158574522,1732158574536,1732158574553,1732158574569,1732158574586,1732158574603,1732158574620,1732158574638,1732158574667,1732158574675,1732158574686,1732158574706,1732158574722,1732158574739,1732158574756,1732158574774,1732158574790,1732158574807,1732158574824,1732158574836,1732158574853,1732158574874,1732158574886,1732158574903,1732158574922,1732158574937,1732158574953,1732158574970,1732158574987,1732158575003,1732158575023,1732158575039,1732158575056,1732158575076,1732158575086,1732158575103,1732158575119,1732158575139,1732158575153,1732158575169,1732158575190,1732158575203,1732158575219,1732158575236,1732158575253,1732158575269,1732158575286,1732158575303,1732158575319,1732158575336,1732158575352,1732158575374,1732158575390,1732158575406,1732158575423,1732158575436,1732158575453,1732158575471,1732158575486,1732158575503,1732158575519,1732158575536,1732158575556,1732158575572,1732158575589,1732158575607,1732158575622,1732158575636,1732158575653,1732158575670,1732158575687,1732158575703,1732158575719,1732158575739,1732158575755,1732158575770,1732158575787,1732158575803,1732158575819,1732158575839,1732158575857,1732158575870,1732158575886,1732158575903,1732158575919,1732158575939,1732158575953,1732158575972,1732158575986,1732158576003,1732158576019,1732158576036,1732158576053,1732158576069,1732158576093,1732158576105,1732158576122,1732158576138,1732158576155,1732158576172,1732158576188,1732158576205,1732158576222,1732158576239,1732158576255,1732158576274,1732158576289,1732158576306,1732158576327,1732158576342,1732158576357,1732158576373,1732158576389,1732158576405,1732158576422,1732158576439,1732158576455,1732158576472,1732158576490,1732158576506,1732158576522,1732158576538,1732158576555,1732158576574,1732158576592,1732158576608,1732158576624,1732158576639,1732158576655,1732158576676,1732158576693,1732158576727,1732158576734,1732158576742,1732158576758,1732158576773,1732158576793,1732158576809,1732158576823,1732158576847,1732158576860,1732158576872,1732158576899,1732158576906,1732158576922,1732158576940,1732158576959,1732158576975,1732158576993,1732158577012,1732158577022,1732158577039,1732158577055,1732158577075,1732158577092,1732158577109,1732158577127,1732158577142,1732158577158,1732158577174,1732158577193,1732158577205,1732158577226,1732158577242,1732158577259,1732158577276,1732158577295,1732158577305,1732158577322,1732158577339,1732158577355,1732158577372,1732158577390,1732158577408,1732158577422,1732158577438,1732158577455,1732158577473,1732158577490,1732158577510,1732158577524,1732158577541,1732158577563,1732158577572,1732158577588,1732158577606,1732158577623,1732158577641,1732158577655,1732158577682,1732158577691,1732158577705,1732158577723,1732158577742,1732158577757,1732158577773,1732158577792,1732158577808,1732158577822,1732158577842,1732158577855,1732158577872,1732158577892,1732158577905,1732158577922,1732158577943,1732158577959,1732158577976,1732158577993,1732158578008,1732158578023,1732158578040,1732158578058,1732158578076,1732158578096,1732158578114,1732158578130,1732158578139,1732158578155,1732158578172,1732158578188,1732158578207,1732158578222,1732158578238,1732158578258,1732158578274,1732158578289,1732158578305,1732158578325,1732158578338,1732158578355,1732158578372,1732158578393,1732158578408,1732158578422,1732158578438,1732158578458,1732158578472,1732158578492,1732158578511,1732158578522,1732158578539,1732158578556,1732158578575,1732158578592,1732158578605,1732158578625,1732158578638,1732158578655,1732158578672,1732158578688,1732158578705,1732158578722,1732158578741,1732158578755,1732158578772,1732158578792,1732158578807,1732158578822,1732158578843,1732158578855,1732158578872,1732158578893,1732158578908,1732158578922,1732158578939,1732158578968,1732158578974,1732158578991,1732158579007,1732158579027,1732158579039,1732158579055,1732158579073,1732158579094,1732158579108,1732158579124,1732158579139,1732158579158,1732158579175,1732158579192,1732158579205,1732158579224,1732158579238,1732158579255,1732158579272,1732158579292,1732158579305,1732158579322,1732158579338,1732158579355,1732158579378,1732158579389,1732158579406,1732158579424,1732158579438,1732158579459,1732158579472,1732158579494,1732158579510,1732158579522,1732158579538,1732158579555,1732158579572,1732158579588,1732158579605,1732158579622,1732158579638,1732158579655,1732158579672,1732158579688,1732158579705,1732158579728,1732158579738,1732158579760,1732158579772,1732158579788,1732158579806,1732158579825,1732158579842,1732158579855,1732158579877,1732158579888,1732158579905,1732158579922,1732158579938,1732158579955,1732158579972,1732158579989,1732158580005,1732158580026,1732158580041,1732158580056,1732158580072,1732158580091,1732158580106,1732158580122,1732158580139,1732158580155,1732158580173,1732158580193,1732158580217,1732158580224,1732158580238,1732158580255,1732158580272,1732158580291,1732158580305,1732158580322,1732158580338,1732158580355,1732158580372]","[[922.4,891.3],[922.4,891.3],[946.4,872.8],[946.4,872.8],[925.2,837.5],[925.2,837.5],[910.3,803],[910.3,803],[924.1,778.9],[924.1,778.9],[933.4,756.2],[933.4,756.2],[941.6,739.2],[944.1,710.4],[910,682.1],[897.1,665.8],[903.1,653.1],[893.8,634.5],[927.6,651.8],[961.4,669.1],[954.9,669.2],[954.3,669.4],[954.3,669.4],[990.6,671.1],[995.9,677.9],[1026.4,685.3],[1027,683.3],[983.4,674.1],[961.7,659.6],[920.4,628.5],[882.2,594.7],[873.2,578.5],[866.4,558],[823.8,530.3],[808.6,510],[794.7,480.3],[801.2,447.7],[817,415.2],[821.8,402.7],[826.6,390.2],[819.3,382],[819.3,382],[812,373.8],[812,373.8],[805.4,366.7],[805.4,366.7],[743.3,380.5],[693.4,399.1],[659,424.7],[601,454.6],[555.8,481.6],[457.8,492.7],[402.5,499.2],[356.2,504.1],[342.1,519],[312.9,538.1],[346.8,518.2],[368.9,485.8],[406.2,457.7],[427.1,440.3],[455.5,414.9],[538.2,409],[564.2,390.1],[590.2,371.2],[591.6,347],[639.3,321.4],[613.1,307.6],[582.8,298.4],[539,276.1],[511.6,243.1],[511.6,243.1],[483.6,238.4],[512.1,252.6],[554.6,284.4],[554.6,284.4],[612.3,292.7],[606.8,277.3],[567.2,262.3],[635,265.5],[701.6,258.7],[733.6,286.5],[751.5,308.2],[760.8,321],[734.8,321],[707.4,307.3],[664.8,317.1],[689.5,348.3],[714.2,379.5],[663.4,402],[613.8,434.5],[599,442.1],[598.3,455.8],[598.7,464.4],[582,456.2],[578.7,464.9],[575.4,473.6],[550.5,471.6],[525.6,469.6],[566.5,479.4],[590.3,476.4],[599.6,472.3],[607.9,470.3],[607.9,470.3],[588.9,468.3],[588.9,468.3],[576.9,474.2],[538.3,476.4],[482.7,485.9],[493.7,482.9],[484.6,488.8],[492.5,465.9],[493.6,465.1],[498.3,464.4],[504,461.6],[544.8,442.1],[544.8,442.1],[584.4,418.5],[640.3,381.9],[680.8,371],[664.6,380.9],[685.8,367],[649.3,378.4],[662.8,370.3],[698.8,368.6],[698.8,368.6],[724.2,367.4],[766.7,372.5],[766.7,372.5],[759.9,382.6],[767.9,396.5],[813.7,377.2],[813.7,377.2],[846.5,362.3],[893.3,356.1],[957.3,352.3],[995.2,358.7],[995.7,361.4],[1006.8,363.6],[1021.8,366.4],[1080.3,360.4],[1106.5,370.3],[1127.3,380.4],[1175,389.2],[1190,395],[1202.4,399.1],[1208.8,413.4],[1209.3,426.5],[1197.8,416.4],[1136.2,423.3],[1090.1,426.4],[1090.1,426.4],[1064.6,422.4],[1050.7,424.2],[1022.9,422.9],[1021.7,429.7],[1015.2,424.3],[1010.5,410.9],[1022,398],[1023,422.1],[1076.9,428.7],[1076.9,428.7],[1082.9,448.4],[1121.8,463.6],[1121.8,463.6],[1148.1,476.3],[1156.8,470.9],[1164.8,461.5],[1172.8,452.1],[1171.5,452.9],[1170.2,453.7],[1182.4,448],[1123.5,471.7],[1120.2,465.6],[1081.1,468.6],[1081.1,468.6],[1042.6,456.5],[1016.8,470.2],[938.3,502],[880.6,530.1],[836.4,545.8],[773.1,555.3],[718.8,557.5],[764.3,536.4],[778.7,527.2],[781.7,503.3],[784.5,484.1],[789.2,459.8],[789.2,459.8],[822.1,422.5],[877.3,394.9],[893,361.8],[927.8,334.9],[980.7,317.4],[920.8,317.2],[868.8,325.6],[860.7,356.4],[853.2,394.3],[848.7,429.6],[848.7,429.6],[842.5,462.5],[771.2,476],[742.2,495.2],[720.7,516.8],[681.1,529],[692.6,526.6],[704.1,524.2],[677.8,510.7],[651.5,497.2],[602,485.1],[563.3,482.6],[563.6,459.9],[558,433.9],[558,433.9],[555.3,412.1],[533,399.7],[520.2,387.9],[501,387.9],[497.1,386.7],[497.1,386.7],[499,389.8],[513.4,393.3],[518.7,389.6],[518.7,389.6],[511.4,384.7],[511.4,384.7],[532.6,390.8],[543.4,384.2],[573.8,368.2],[593.7,368.6],[593.7,368.6],[609.8,363.3],[609.8,363.3],[608.8,359.3],[608.8,359.3],[601.7,353.4],[606.1,351.4],[606.1,351.4],[598,354.4],[598,354.4],[594.1,394.8],[594.1,394.8],[565.8,417.4],[539.2,450.5],[514.3,487.8],[501.1,500.7],[481.8,513.5],[483.6,516.6],[485.7,517.3],[509.9,517.4],[546.6,512.5],[599.9,518.6],[654.4,532.4],[720.3,531.2],[781,529.5],[839.1,526.6],[918.9,509.2],[991.1,505.5],[1051.4,500.4],[1101.8,495.7],[1152.2,491],[1167.2,467.2],[1180,445.6],[1170.5,435.3],[1164.5,421.3],[1153.9,410.6],[1155,420.8],[1147.8,426.6],[1139.5,423.3],[1118.2,414.5],[1096.9,405.7],[1083.5,407.2],[1074.8,432.1],[1085.3,461.8],[1085.3,461.8],[1103.8,492.5],[1128.3,529.1],[1113,550.1],[1097.7,571.1],[1087.5,599.2],[1077.3,627.3],[1058.7,656.3],[1058.7,656.3],[1034.9,691.2],[998,688],[998,688],[1000.8,672.6],[979.1,651.9],[958.6,630.2],[993.5,615.8],[1029.3,611],[1080.3,604.5],[1080.3,604.5],[1111.2,573.6],[1135.3,534.2],[1164.5,475.7],[1209.6,449.6],[1208.7,443.1],[1224.3,440.9],[1245.3,435.1],[1233.6,425.2],[1206.7,395.3],[1206.7,395.3],[1176.1,365.5],[1176.1,365.5],[1171.1,376.3],[1193.6,403.7],[1206.8,447],[1213.9,476.5],[1213.9,476.5],[1204.4,449.6],[1190,439.8],[1169,434.6],[1161.5,429.4],[1168.3,434.6],[1181.7,454.5],[1173.7,449.2],[1153.4,434.9],[1129.8,407.9],[1104.8,377],[1092.7,389.6],[1086.2,385.3],[1079.7,381],[1073.4,372.1],[1067.1,363.2],[1067.1,363.2],[1043.6,329.2],[1071,336.2],[1098.4,343.2],[1141.9,348],[1185.4,352.8],[1230.4,354.4],[1230.4,354.4],[1280.6,353.5],[1330.8,352.6],[1383.4,367.7],[1421.6,382.2],[1477.1,413.4],[1497.6,412.6],[1493.8,389.2],[1519.6,397.5],[1522.5,390.4],[1522.5,390.4],[1548.9,404.4],[1569.4,420.7],[1569.4,420.7],[1582.8,416.6],[1559.4,390.1],[1550.4,364.2],[1533.7,321.3],[1517,278.4],[1515.9,260.2],[1484.5,218.3],[1470.3,205.5],[1415.6,182.6],[1360.9,155],[1318.9,143],[1318.9,143],[1271.7,145.3],[1271.7,145.3],[1224.1,141.1],[1176.1,149.9],[1130.6,171.3],[1099.2,180.8],[1091,187.6],[1056.2,178.3],[1045.8,156.7],[1019.7,137.3],[988,122.7],[978.2,126.6],[968.8,137],[986.8,144.5],[1002.3,139.4],[1003.5,140.1],[981.1,142.9],[1012.8,152.4],[1035.6,166.4],[1069,177.1],[1069,177.1],[1134.5,206.3],[1190.7,201],[1260.5,199.9],[1260.5,199.9],[1290.2,199.1],[1323,202.7],[1364.7,205.5],[1396.6,206.6],[1425.3,204.4],[1448.8,200.1],[1477.4,201.6],[1455.9,182.4],[1464.1,177.7],[1464.1,177.7],[1458.8,178.6],[1453.7,178.5],[1430.7,173.1],[1442.2,172.3],[1446.9,168.3],[1433,163.3],[1427.5,168],[1427.5,168],[1422,172.7],[1422,172.7],[1453,187.3],[1485.1,204.4],[1470.1,205.3],[1470.1,205.3],[1465.4,212.5],[1465.4,212.5],[1519.7,223.1],[1547.3,219.1],[1578.8,229.8],[1629,239.9],[1629,239.9],[1608,241.7],[1619.6,245.2],[1597,239.8],[1545.8,227],[1526.6,215.8],[1526.2,202.8],[1484.3,186.7],[1427.3,181.1],[1383,165.7],[1344.4,151.6],[1373.8,138.2],[1362.8,127.7],[1367.5,118.4],[1374.8,113.6],[1397.1,113.6],[1406.5,114.1],[1413.2,115.2],[1413.2,115.2],[1443.8,129.3],[1443.8,129.3],[1479.6,145.9],[1479,172.2],[1460.3,174.9],[1462,183.2],[1469.3,189.2],[1485.1,193.8],[1500.9,198.4],[1493.4,206.6],[1493.4,206.6],[1485.9,214.8],[1473,205.4],[1470.8,206.5],[1470.8,206.5],[1480.6,197.2],[1480.6,197.2],[1515.2,206.8],[1515.2,206.8],[1511.3,202.7],[1511.3,202.7],[1487.7,205.4],[1448.1,197.1],[1448.1,197.1],[1418.3,195],[1418.3,195],[1410.7,201.4],[1410.7,201.4],[1426.8,212],[1430.2,224.9],[1430.2,224.9],[1412.2,223.5],[1412.2,223.5],[1395,220],[1380.1,227.8],[1378,217.2],[1386.8,210.1],[1395.9,228],[1395.2,239.7],[1374.6,228.1],[1353.3,221.4],[1338.8,224.2],[1329.8,228.3],[1290.2,222.5],[1241.6,210.1],[1221.2,211.1],[1204,204.1],[1198.6,187.2],[1193.2,170.3],[1191,167.1],[1165.8,154.8],[1150.8,146.4],[1150.8,146.4],[1143.5,136.2],[1178.4,148.4],[1213.3,160.6],[1233.1,181.3],[1253.3,196.7],[1277.4,208],[1302.7,219.9],[1339.9,230.6],[1395.1,236]]","[-0.2,0.6000000000000001]","[0.2,0.6000000000000001]","[0.6000000000000001,0.6000000000000001]","[-0.6000000000000001,-0.6000000000000001]","[-0.6000000000000001,-0.2]","[-0.6000000000000001,0.2]","[-0.2,-0.6000000000000001]","[0.2,-0.6000000000000001]","[0.6000000000000001,-0.6000000000000001]","[-0.2,-0.2]","[0.2,-0.2]","[0.6000000000000001,-0.2]","[-0.2,0.2]","[0.2,0.2]","[0.6000000000000001,0.2]",0,0,0,0,1,2,Monitor,15,20,8,3,70,4,3,60,4
