inst1_resp.keys,inst1_resp.rt,calibrationMouse.x,calibrationMouse.y,calibrationMouse.leftButton,calibrationMouse.midButton,calibrationMouse.rightButton,calibrationClick.x,calibrationClick.y,calibrationClick.leftButton,calibrationClick.midButton,calibrationClick.rightButton,trialsc.thisRepN,trialsc.thisTrialN,trialsc.thisN,trialsc.thisIndex,trialsc.ran,calibration_x,calibration_y,participant,session,date,expName,psychopyVersion,OS,frameRate,calibrationClick.clicked_name,ScreenRes_pixels,Camera_pixels,mouse_2.x,mouse_2.y,mouse_2.leftButton,mouse_2.midButton,mouse_2.rightButton,mouse_2.time,mouse_2.clicked_name,mouse.x,mouse.y,mouse.leftButton,mouse.midButton,mouse.rightButton,mouse.time,mouse.clicked_name,Choice,Trial,TrialDuration,MOUSE_GAZE,ET_GAZE,ET_GAZE_x_T,time,unixTime,ET_GAZE_NF,Loc_Bus_label,Loc_Metro_label,Loc_RH_label,Loc_Cost_label,Loc_Travel_label,Loc_Comfort_label,Loc_Bus_cost,Loc_Metro_cost,Loc_RH_cost,Loc_Bus_travel,Loc_Metro_travel,Loc_RH_travel,Loc_Bus_comfort,Loc_Metro_comfort,Loc_RH_comfort,trials.thisRepN,trials.thisTrialN,trials.thisN,trials.thisIndex,trials.ran,Block,Device,RH_cost,RH_travel_time,RH_Comfort,metro_cost,metro_travel_time,metro_Comfort,Bus_cost,Bus_travel_time,Bus_Comfort
space,6.8576,0.266666667,-0.272222222,1,0,0,-0.007291667,0.681481481,1,0,0,0,0,0,13,1,0,0.67,46,001,2024-11-21_10h32.40.650,Attention_exp_legacy,2023.1.0,Win32,59.88023952,,,,,,,,,,,,,,,,,,,,,,,,,,,,,,,,,,,,,,,,,,,,,,,,,,,,,,,,,
,,,,,,,0.321875,0.327777778,1,0,0,0,1,1,17,1,0.33,0.33,46,001,2024-11-21_10h32.40.650,Attention_exp_legacy,2023.1.0,Win32,59.88023952,calibration_square,,,,,,,,,,,,,,,,,,,,,,,,,,,,,,,,,,,,,,,,,,,,,,,,,,,,,,,,
,,,,,,,-0.004166667,-0.672222222,1,0,0,0,2,2,9,1,0,-0.67,46,001,2024-11-21_10h32.40.650,Attention_exp_legacy,2023.1.0,Win32,59.88023952,calibration_square,,,,,,,,,,,,,,,,,,,,,,,,,,,,,,,,,,,,,,,,,,,,,,,,,,,,,,,,
,,,,,,,0.682291667,0.674074074,1,0,0,0,3,3,19,1,0.67,0.67,46,001,2024-11-21_10h32.40.650,Attention_exp_legacy,2023.1.0,Win32,59.88023952,,,,,,,,,,,,,,,,,,,,,,,,,,,,,,,,,,,,,,,,,,,,,,,,,,,,,,,,,
,,,,,,,-0.335416667,0.683333333,1,0,0,0,4,4,8,1,-0.33,0.67,46,001,2024-11-21_10h32.40.650,Attention_exp_legacy,2023.1.0,Win32,59.88023952,,,,,,,,,,,,,,,,,,,,,,,,,,,,,,,,,,,,,,,,,,,,,,,,,,,,,,,,,
,,,,,,,0.672916667,-0.687037037,1,0,0,0,5,5,20,1,0.67,-0.67,46,001,2024-11-21_10h32.40.650,Attention_exp_legacy,2023.1.0,Win32,59.88023952,,,,,,,,,,,,,,,,,,,,,,,,,,,,,,,,,,,,,,,,,,,,,,,,,,,,,,,,,
,,,,,,,-0.333333333,-0.67962963,1,0,0,0,6,6,4,1,-0.33,-0.67,46,001,2024-11-21_10h32.40.650,Attention_exp_legacy,2023.1.0,Win32,59.88023952,calibration_square,,,,,,,,,,,,,,,,,,,,,,,,,,,,,,,,,,,,,,,,,,,,,,,,,,,,,,,,
,,,,,,,-0.682291667,0.005555556,1,0,0,0,7,7,2,1,-0.67,0,46,001,2024-11-21_10h32.40.650,Attention_exp_legacy,2023.1.0,Win32,59.88023952,,,,,,,,,,,,,,,,,,,,,,,,,,,,,,,,,,,,,,,,,,,,,,,,,,,,,,,,,
,,,,,,,0,-0.316666667,1,0,0,0,8,8,10,1,0,-0.33,46,001,2024-11-21_10h32.40.650,Attention_exp_legacy,2023.1.0,Win32,59.88023952,,,,,,,,,,,,,,,,,,,,,,,,,,,,,,,,,,,,,,,,,,,,,,,,,,,,,,,,,
,,,,,,,0.332291667,0.685185185,1,0,0,0,9,9,18,1,0.33,0.67,46,001,2024-11-21_10h32.40.650,Attention_exp_legacy,2023.1.0,Win32,59.88023952,,,,,,,,,,,,,,,,,,,,,,,,,,,,,,,,,,,,,,,,,,,,,,,,,,,,,,,,,
,,,,,,,-0.329166667,0.011111111,1,0,0,0,10,10,6,1,-0.33,0,46,001,2024-11-21_10h32.40.650,Attention_exp_legacy,2023.1.0,Win32,59.88023952,,,,,,,,,,,,,,,,,,,,,,,,,,,,,,,,,,,,,,,,,,,,,,,,,,,,,,,,,
,,,,,,,0.020833333,0.35,1,0,0,0,11,11,12,1,0,0.33,46,001,2024-11-21_10h32.40.650,Attention_exp_legacy,2023.1.0,Win32,59.88023952,,,,,,,,,,,,,,,,,,,,,,,,,,,,,,,,,,,,,,,,,,,,,,,,,,,,,,,,,
,,,,,,,-0.339583333,0.32962963,1,0,0,0,12,12,7,1,-0.33,0.33,46,001,2024-11-21_10h32.40.650,Attention_exp_legacy,2023.1.0,Win32,59.88023952,calibration_square,,,,,,,,,,,,,,,,,,,,,,,,,,,,,,,,,,,,,,,,,,,,,,,,,,,,,,,,
,,,,,,,-0.673958333,-0.664814815,1,0,0,0,13,13,0,1,-0.67,-0.67,46,001,2024-11-21_10h32.40.650,Attention_exp_legacy,2023.1.0,Win32,59.88023952,calibration_square,,,,,,,,,,,,,,,,,,,,,,,,,,,,,,,,,,,,,,,,,,,,,,,,,,,,,,,,
,,,,,,,-0.66875,0.337037037,1,0,0,0,14,14,3,1,-0.67,0.33,46,001,2024-11-21_10h32.40.650,Attention_exp_legacy,2023.1.0,Win32,59.88023952,calibration_square,,,,,,,,,,,,,,,,,,,,,,,,,,,,,,,,,,,,,,,,,,,,,,,,,,,,,,,,
,,,,,,,0.323958333,0.003703704,1,0,0,0,15,15,16,1,0.33,0,46,001,2024-11-21_10h32.40.650,Attention_exp_legacy,2023.1.0,Win32,59.88023952,calibration_square,,,,,,,,,,,,,,,,,,,,,,,,,,,,,,,,,,,,,,,,,,,,,,,,,,,,,,,,
,,,,,,,0.325,-0.666666667,1,0,0,0,16,16,14,1,0.33,-0.67,46,001,2024-11-21_10h32.40.650,Attention_exp_legacy,2023.1.0,Win32,59.88023952,calibration_square,,,,,,,,,,,,,,,,,,,,,,,,,,,,,,,,,,,,,,,,,,,,,,,,,,,,,,,,
,,,,,,,-0.33125,-0.307407407,1,0,0,0,17,17,5,1,-0.33,-0.33,46,001,2024-11-21_10h32.40.650,Attention_exp_legacy,2023.1.0,Win32,59.88023952,,,,,,,,,,,,,,,,,,,,,,,,,,,,,,,,,,,,,,,,,,,,,,,,,,,,,,,,,
,,,,,,,0.333333333,-0.340740741,1,0,0,0,18,18,15,1,0.33,-0.33,46,001,2024-11-21_10h32.40.650,Attention_exp_legacy,2023.1.0,Win32,59.88023952,,,,,,,,,,,,,,,,,,,,,,,,,,,,,,,,,,,,,,,,,,,,,,,,,,,,,,,,,
,,,,,,,-0.032291667,0.012962963,1,0,0,0,19,19,11,1,0,0,46,001,2024-11-21_10h32.40.650,Attention_exp_legacy,2023.1.0,Win32,59.88023952,,,,,,,,,,,,,,,,,,,,,,,,,,,,,,,,,,,,,,,,,,,,,,,,,,,,,,,,,
,,,,,,,-0.675,-0.32037037,1,0,0,0,20,20,1,1,-0.67,-0.33,46,001,2024-11-21_10h32.40.650,Attention_exp_legacy,2023.1.0,Win32,59.88023952,calibration_square,,,,,,,,,,,,,,,,,,,,,,,,,,,,,,,,,,,,,,,,,,,,,,,,,,,,,,,,
,,,,,,,,,,,,,,,,,,,46,001,2024-11-21_10h32.40.650,Attention_exp_legacy,2023.1.0,Win32,59.88023952,,"[1920,1080]","[640,480]",[-0.00625],[-0.5148148148148148],[1],[0],[0],[8.293599999904629],"[""StartButton""]","[0.228125,0.228125]","[0.6351851851851852,0.5666666666666667]","[1,1]","[0,0]","[0,0]","[2.6340000000000003,3.484099999904629]","[""Metro_label"",""Metro_label""]",Metro_label,1,3.6603,"[[-0.00625,-0.5148148148148148],[-0.00625,-0.5148148148148148],[-0.00625,-0.5148148148148148],[-0.00625,-0.5148148148148148],[-0.00625,-0.5148148148148148],[-0.00625,-0.5148148148148148],[-0.00625,-0.5148148148148148],[-0.00625,-0.5148148148148148],[-0.00625,-0.5148148148148148],[-0.00625,-0.5148148148148148],[-0.00625,-0.5148148148148148],[-0.00625,-0.5148148148148148],[-0.00625,-0.5148148148148148],[-0.00625,-0.5148148148148148],[-0.00625,-0.5148148148148148],[-0.00625,-0.5148148148148148],[-0.00625,-0.5148148148148148],[-0.00625,-0.5148148148148148],[-0.00625,-0.5148148148148148],[-0.00625,-0.5148148148148148],[-0.00625,-0.5148148148148148],[-0.00625,-0.5148148148148148],[-0.00625,-0.5148148148148148],[-0.00625,-0.5148148148148148],[-0.00625,-0.5148148148148148],[-0.00625,-0.5148148148148148],[-0.00625,-0.5148148148148148],[-0.00625,-0.5148148148148148],[-0.00625,-0.5148148148148148],[-0.00625,-0.5148148148148148],[-0.00625,-0.5148148148148148],[-0.00625,-0.5148148148148148],[-0.00625,-0.5148148148148148],[-0.00625,-0.5148148148148148],[-0.003125,-0.5148148148148148],[0.007291666666666667,-0.47962962962962963],[0.013541666666666667,-0.45925925925925926],[0.022916666666666665,-0.4166666666666667],[0.03125,-0.3592592592592593],[0.034375,-0.2851851851851852],[0.034375,-0.1685185185185185],[0.034375,-0.05740740740740741],[0.035416666666666666,0.053703703703703705],[0.05625,0.21666666666666667],[0.06666666666666667,0.26851851851851855],[0.12291666666666666,0.43703703703703706],[0.16354166666666667,0.5203703703703704],[0.19375,0.5740740740740741],[0.22916666666666666,0.6277777777777778],[0.259375,0.6722222222222223],[0.28229166666666666,0.7055555555555556],[0.29375,0.7277777777777777],[0.29791666666666666,0.7407407407407407],[0.2989583333333333,0.7462962962962963],[0.2989583333333333,0.75],[0.2989583333333333,0.7518518518518519],[0.2989583333333333,0.7518518518518519],[0.2989583333333333,0.7518518518518519],[0.2989583333333333,0.7518518518518519],[0.2989583333333333,0.7518518518518519],[0.29791666666666666,0.7518518518518519],[0.29375,0.7518518518518519],[0.2833333333333333,0.7407407407407407],[0.27291666666666664,0.725925925925926],[0.259375,0.7055555555555556],[0.25,0.6851851851851852],[0.24166666666666667,0.6685185185185185],[0.23333333333333334,0.6518518518518519],[0.228125,0.6370370370370371],[0.228125,0.6351851851851852],[0.228125,0.6351851851851852],[0.228125,0.6351851851851852],[0.228125,0.6351851851851852],[0.228125,0.6351851851851852],[0.228125,0.6351851851851852],[0.228125,0.6351851851851852],[0.228125,0.6351851851851852],[0.228125,0.6351851851851852],[0.228125,0.6351851851851852],[0.228125,0.6351851851851852],[0.228125,0.6351851851851852],[0.228125,0.6351851851851852],[0.228125,0.6351851851851852],[0.228125,0.6351851851851852],[0.228125,0.6351851851851852],[0.228125,0.6351851851851852],[0.228125,0.6351851851851852],[0.228125,0.6351851851851852],[0.228125,0.6351851851851852],[0.228125,0.6351851851851852],[0.228125,0.6351851851851852],[0.228125,0.6351851851851852],[0.228125,0.6351851851851852],[0.228125,0.6351851851851852],[0.228125,0.6351851851851852],[0.228125,0.6351851851851852],[0.228125,0.6351851851851852],[0.228125,0.6351851851851852],[0.228125,0.6351851851851852],[0.228125,0.6351851851851852],[0.228125,0.6351851851851852],[0.228125,0.6351851851851852],[0.228125,0.6351851851851852],[0.228125,0.6351851851851852],[0.228125,0.6351851851851852],[0.228125,0.6351851851851852],[0.228125,0.6351851851851852],[0.228125,0.6351851851851852],[0.228125,0.6351851851851852],[0.228125,0.6351851851851852],[0.228125,0.6351851851851852],[0.228125,0.6351851851851852],[0.228125,0.6351851851851852],[0.228125,0.6351851851851852],[0.228125,0.6351851851851852],[0.228125,0.6351851851851852],[0.228125,0.6351851851851852],[0.228125,0.6351851851851852],[0.228125,0.6351851851851852],[0.228125,0.6351851851851852],[0.228125,0.6351851851851852],[0.228125,0.6351851851851852],[0.228125,0.6351851851851852],[0.228125,0.6351851851851852],[0.228125,0.6351851851851852],[0.228125,0.6351851851851852],[0.228125,0.6351851851851852],[0.228125,0.6351851851851852],[0.228125,0.6351851851851852],[0.228125,0.6351851851851852],[0.228125,0.6351851851851852],[0.228125,0.6351851851851852],[0.228125,0.6351851851851852],[0.228125,0.6351851851851852],[0.228125,0.6351851851851852],[0.228125,0.6351851851851852],[0.228125,0.6351851851851852],[0.228125,0.6351851851851852],[0.228125,0.6351851851851852],[0.228125,0.6351851851851852],[0.228125,0.6351851851851852],[0.228125,0.6351851851851852],[0.228125,0.6351851851851852],[0.228125,0.6351851851851852],[0.228125,0.6351851851851852],[0.228125,0.6351851851851852],[0.228125,0.6351851851851852],[0.228125,0.6351851851851852],[0.228125,0.6351851851851852],[0.228125,0.6351851851851852],[0.228125,0.6351851851851852],[0.228125,0.6351851851851852],[0.228125,0.6351851851851852],[0.228125,0.6351851851851852],[0.228125,0.6351851851851852],[0.228125,0.6351851851851852],[0.228125,0.6351851851851852],[0.228125,0.6351851851851852],[0.228125,0.6351851851851852],[0.228125,0.6351851851851852],[0.228125,0.6351851851851852],[0.228125,0.6351851851851852],[0.228125,0.6351851851851852],[0.228125,0.6351851851851852],[0.228125,0.6351851851851852],[0.228125,0.6351851851851852],[0.228125,0.6351851851851852],[0.228125,0.6351851851851852],[0.228125,0.6351851851851852],[0.228125,0.6351851851851852],[0.228125,0.6351851851851852],[0.228125,0.6351851851851852],[0.228125,0.6351851851851852],[0.228125,0.6351851851851852],[0.228125,0.6351851851851852],[0.228125,0.6351851851851852],[0.228125,0.6351851851851852],[0.228125,0.6351851851851852],[0.228125,0.6351851851851852],[0.228125,0.6351851851851852],[0.228125,0.6351851851851852],[0.228125,0.6351851851851852],[0.228125,0.6351851851851852],[0.228125,0.6351851851851852],[0.228125,0.6351851851851852],[0.228125,0.6351851851851852],[0.228125,0.6351851851851852],[0.228125,0.6351851851851852],[0.228125,0.6351851851851852],[0.228125,0.6351851851851852],[0.228125,0.6351851851851852],[0.228125,0.6314814814814815],[0.228125,0.6277777777777778],[0.228125,0.6203703703703703],[0.228125,0.6092592592592593],[0.228125,0.5962962962962963],[0.228125,0.5814814814814815],[0.228125,0.575925925925926],[0.228125,0.5740740740740741],[0.228125,0.5722222222222222],[0.228125,0.5703703703703704],[0.228125,0.5685185185185185],[0.228125,0.5685185185185185],[0.228125,0.5666666666666667],[0.228125,0.5666666666666667],[0.228125,0.5666666666666667],[0.228125,0.5666666666666667],[0.228125,0.5666666666666667],[0.228125,0.5666666666666667],[0.228125,0.5666666666666667],[0.228125,0.5666666666666667],[0.228125,0.5666666666666667],[0.228125,0.5666666666666667],[0.228125,0.5666666666666667],[0.228125,0.5666666666666667],[0.228125,0.5666666666666667],[0.228125,0.5666666666666667],[0.228125,0.5666666666666667],[0.228125,0.5666666666666667]]","[[0.0912499999999999,-0.322037037037037],[0.0912499999999999,-0.322037037037037],[0.09739583333333333,-0.3255555555555556],[0.09739583333333333,-0.3255555555555556],[0.09979166666666663,-0.31962962962962965],[0.10145833333333343,-0.307962962962963],[0.0990624999999999,-0.30703703703703705],[0.09968750000000005,-0.30537037037037035],[0.09968750000000005,-0.30537037037037035],[0.0756249999999999,-0.31592592592592594],[0.0756249999999999,-0.31592592592592594],[0.050937499999999976,-0.34314814814814815],[0.050937499999999976,-0.34314814814814815],[0.016458333333333287,-0.3603703703703704],[0.016458333333333287,-0.3603703703703704],[-0.007500000000000047,-0.3844444444444445],[-0.007500000000000047,-0.3844444444444445],[-0.05135416666666662,-0.40111111111111114],[-0.0890625,-0.41],[-0.0890625,-0.41],[-0.11854166666666661,-0.415925925925926],[-0.11854166666666661,-0.415925925925926],[-0.13718750000000005,-0.4468518518518519],[-0.12093750000000002,-0.4631481481481482],[-0.12635416666666663,-0.47833333333333333],[-0.09760416666666671,-0.4842592592592593],[-0.07666666666666669,-0.482962962962963],[-0.05364583333333333,-0.49537037037037035],[-0.01593749999999995,-0.49981481481481477],[0.026041666666666668,-0.524074074074074],[0.05260416666666667,-0.5461111111111111],[0.071875,-0.5746296296296296],[0.09395833333333338,-0.6024074074074074],[0.08270833333333343,-0.6287037037037037],[0.09031250000000005,-0.678888888888889],[0.09031250000000005,-0.678888888888889],[0.08916666666666657,-0.6122222222222222],[0.09270833333333334,-0.5338888888888889],[0.09270833333333334,-0.5338888888888889],[0.09385416666666657,-0.44296296296296295],[0.09552083333333337,-0.36944444444444446],[0.09343750000000005,-0.31574074074074077],[0.10458333333333343,-0.25574074074074077],[0.1140625,-0.17037037037037037],[0.09500000000000004,-0.07092592592592595],[0.07843749999999995,0.023148148148148147],[0.08093750000000005,0.06925925925925921],[0.08781249999999995,0.005185185185185101],[0.0884375000000001,-0.09351851851851851],[0.09145833333333328,-0.20481481481481487],[0.08812499999999991,-0.24981481481481477],[0.08854166666666667,-0.275],[0.08854166666666667,-0.275],[0.0900000000000001,-0.32888888888888895],[0.09249999999999996,-0.3881481481481482],[0.09249999999999996,-0.3881481481481482],[0.11937499999999991,-0.45925925925925926],[0.14885416666666676,-0.5364814814814814],[0.16989583333333325,-0.5372222222222223],[0.19093749999999995,-0.537962962962963],[0.18979166666666672,-0.46944444444444444],[0.2133333333333333,-0.4690740740740741],[0.22802083333333342,-0.515],[0.22802083333333342,-0.515],[0.24364583333333342,-0.5651851851851851],[0.25885416666666666,-0.5401851851851852],[0.2757291666666667,-0.5322222222222222],[0.2681250000000001,-0.4638888888888889],[0.2617708333333333,-0.462037037037037],[0.24645833333333325,-0.4690740740740741],[0.24031250000000004,-0.4787037037037037],[0.2638541666666666,-0.5357407407407407],[0.2591666666666666,-0.5285185185185185],[0.25197916666666675,-0.5307407407407407],[0.2430208333333333,-0.49611111111111106],[0.23125,-0.5761111111111111],[0.20593750000000005,-0.5059259259259259],[0.1974999999999999,-0.48148148148148145],[0.1974999999999999,-0.48148148148148145],[0.18229166666666666,-0.43203703703703705],[0.13624999999999995,-0.38185185185185183],[0.0884375000000001,-0.3277777777777778],[0.03802083333333333,-0.272037037037037],[-0.000833333333333286,-0.19462962962962968],[-0.08208333333333329,-0.06962962962962967],[-0.11520833333333336,-0.03092592592592601],[-0.12687499999999996,0.01962962962962967],[-0.14249999999999996,-0.0035185185185184764],[-0.19093749999999995,0.0485185185185186],[-0.20520833333333333,0.08074074074074078],[-0.20520833333333333,0.08074074074074078],[-0.24104166666666665,0.1824074074074074],[-0.26614583333333336,0.24055555555555552],[-0.2759375,0.26444444444444437],[-0.2952083333333333,0.2601851851851852],[-0.28020833333333334,0.2381481481481482],[-0.30447916666666663,0.21574074074074073],[-0.35739583333333336,0.25018518518518523],[-0.36697916666666663,0.2074074074074074],[-0.3692708333333333,0.10185185185185185],[-0.3967708333333333,0.027407407407407325],[-0.3633333333333333,-0.11351851851851855],[-0.3614583333333333,-0.17444444444444443],[-0.36875,-0.21574074074074073],[-0.3585416666666667,-0.24740740740740744],[-0.3377083333333334,-0.2994444444444444],[-0.32843749999999994,-0.297037037037037],[-0.30979166666666663,-0.29518518518518516],[-0.3341666666666666,-0.2972222222222222],[-0.3341666666666666,-0.30999999999999994],[-0.3407291666666667,-0.28722222222222227],[-0.31677083333333333,-0.28407407407407403],[-0.27937500000000004,-0.31870370370370377],[-0.29624999999999996,-0.3116666666666667],[-0.3030208333333333,-0.31592592592592594],[-0.3266666666666667,-0.3175925925925926],[-0.3194791666666667,-0.3287037037037037],[-0.31666666666666665,-0.3448148148148148],[-0.31666666666666665,-0.3448148148148148],[-0.31666666666666665,-0.3448148148148148],[-0.3081249999999999,-0.34296296296296297],[-0.27364583333333337,-0.3383333333333333],[-0.24052083333333332,-0.3292592592592593],[-0.2452083333333333,-0.29907407407407405],[-0.2452083333333333,-0.29907407407407405],[-0.22927083333333337,-0.272037037037037],[-0.22927083333333337,-0.272037037037037],[-0.16843750000000005,-0.2788888888888889],[-0.14249999999999996,-0.28481481481481485],[-0.14249999999999996,-0.28481481481481485],[-0.11291666666666664,-0.3001851851851852],[-0.11968749999999997,-0.30166666666666664],[-0.11968749999999997,-0.30166666666666664],[-0.10104166666666667,-0.3022222222222222],[-0.10104166666666667,-0.3022222222222222],[-0.0609375,-0.3224074074074075],[-0.0609375,-0.3224074074074075],[-0.0421875,-0.37518518518518523],[-0.0421875,-0.37518518518518523],[-0.019270833333333334,-0.40925925925925927],[-0.000833333333333286,-0.4477777777777778],[0.0037500000000000237,-0.4766666666666666],[0.011354166666666643,-0.5131481481481482],[0.019166666666666644,-0.5262962962962963],[0.03687499999999998,-0.5264814814814816],[0.06364583333333336,-0.5314814814814814],[0.07385416666666676,-0.5401851851851852],[0.07468750000000005,-0.5718518518518518],[0.06802083333333328,-0.5388888888888889],[0.059062500000000046,-0.5283333333333333],[0.059062500000000046,-0.5283333333333333],[0.05645833333333338,-0.48777777777777775],[0.05645833333333338,-0.48777777777777775],[0.04093749999999995,-0.44592592592592595],[0.019375000000000024,-0.3707407407407407],[0.00635416666666669,-0.30777777777777776],[0.017083333333333308,-0.26666666666666666],[0.018333333333333358,-0.2346296296296296],[0.015104166666666667,-0.1948148148148148],[-0.013333333333333286,-0.11203703703703703],[-0.023958333333333335,-0.07074074074074072],[-0.04604166666666672,-0.0198148148148149],[-0.07614583333333336,-0.034074074074074034],[-0.09468749999999998,-0.046481481481481526],[-0.07958333333333331,-0.10537037037037032],[-0.06447916666666664,-0.16425925925925924],[-0.06479166666666672,-0.23796296296296296],[-0.05562499999999997,-0.3025925925925925],[-0.04729166666666664,-0.3559259259259259],[-0.014374999999999952,-0.42296296296296293],[0.001979166666666643,-0.4896296296296296],[0.001979166666666643,-0.4896296296296296],[0.03697916666666667,-0.5609259259259259],[0.07145833333333323,-0.645],[0.10072916666666672,-0.745],[0.10520833333333333,-0.8190740740740741],[0.1040625000000001,-0.8862962962962964],[0.09791666666666667,-0.9229629629629629],[0.11020833333333328,-0.9538888888888889],[0.11020833333333328,-0.9538888888888889],[0.12416666666666672,-0.9892592592592594],[0.14187500000000006,-1.0216666666666667],[0.15750000000000006,-1.0507407407407408],[0.16364583333333324,-1.0905555555555555],[0.17520833333333338,-1.0831481481481482],[0.1794791666666666,-1.076851851851852],[0.1837500000000001,-1.0705555555555557],[0.1898958333333333,-1.0761111111111112],[0.21302083333333333,-1.0807407407407408],[0.21770833333333334,-1.0911111111111111],[0.20968749999999994,-1.109074074074074],[0.19458333333333327,-1.1244444444444446],[0.19718749999999996,-1.0974074074074074],[0.20208333333333334,-1.0646296296296296],[0.20927083333333343,-1.0335185185185185],[0.21864583333333343,-0.9942592592592592],[0.22927083333333323,-0.9303703703703703],[0.24364583333333342,-0.8614814814814815],[0.24364583333333342,-0.8614814814814815],[0.2412499999999999,-0.8081481481481481],[0.23635416666666675,-0.7475925925925926],[0.23635416666666675,-0.7475925925925926],[0.23739583333333342,-0.6840740740740741],[0.24114583333333334,-0.6474074074074074],[0.23041666666666671,-0.6446296296296297],[0.2335416666666667,-0.6357407407407407],[0.23104166666666662,-0.6351851851851852],[0.2335416666666667,-0.629074074074074],[0.23479166666666676,-0.6475925925925926],[0.23177083333333334,-0.6777777777777778],[0.23427083333333343,-0.6809259259259259],[0.23927083333333338,-0.6912962962962963],[0.2423958333333334,-0.6925925925925925],[0.24833333333333343,-0.6675925925925926],[0.24791666666666667,-0.667962962962963],[0.23364583333333327,-0.6744444444444444],[0.22864583333333333,-0.654074074074074],[0.2352083333333333,-0.6377777777777778],[0.23635416666666675,-0.6262962962962962]]","[[0.0912499999999999,-0.322037037037037,0.00029999971388861013],[0.0912499999999999,-0.322037037037037,0.04609999990462654],[0.09739583333333333,-0.3255555555555556,0.06040000009535618],[0.09739583333333333,-0.3255555555555556,0.07809999990462302],[0.09979166666666663,-0.31962962962962965,0.09729999971389702],[0.10145833333333343,-0.307962962962963,0.11559999990463155],[0.0990624999999999,-0.30703703703703705,0.13249999999999318],[0.09968750000000005,-0.30537037037037035,0.14969999980925763],[0.09968750000000005,-0.30537037037037035,0.1602999997138994],[0.0756249999999999,-0.31592592592592594,0.17709999990462677],[0.0756249999999999,-0.31592592592592594,0.19369999980925456],[0.050937499999999976,-0.34314814814814815,0.21040000009536186],[0.050937499999999976,-0.34314814814814815,0.22709999990462393],[0.016458333333333287,-0.3603703703703704,0.24369999980926593],[0.016458333333333287,-0.3603703703703704,0.260400000095359],[-0.007500000000000047,-0.3844444444444445,0.2770999999046211],[-0.007500000000000047,-0.3844444444444445,0.2935999999046288],[-0.05135416666666662,-0.40111111111111114,0.3102999997138909],[-0.0890625,-0.41,0.3305000000000007],[-0.0890625,-0.41,0.34369999980926025],[-0.11854166666666661,-0.415925925925926,0.36040000009536755],[-0.11854166666666661,-0.415925925925926,0.3771999998092639],[-0.13718750000000005,-0.4468518518518519,0.3936999998092574],[-0.12093750000000002,-0.4631481481481482,0.41100000000000136],[-0.12635416666666663,-0.47833333333333333,0.4274000000953606],[-0.09760416666666671,-0.4842592592592593,0.4435999999046203],[-0.07666666666666669,-0.482962962962963,0.46029999971389657],[-0.05364583333333333,-0.49537037037037035,0.48219999980925365],[-0.01593749999999995,-0.49981481481481477,0.4971999998092542],[0.026041666666666668,-0.524074074074074,0.5122999997138891],[0.05260416666666667,-0.5461111111111111,0.5284000000953597],[0.071875,-0.5746296296296296,0.5436999998092631],[0.09395833333333338,-0.6024074074074074,0.5602999997138909],[0.08270833333333343,-0.6287037037037037,0.5804000000953664],[0.09031250000000005,-0.678888888888889,0.61099999999999],[0.09031250000000005,-0.678888888888889,0.6179000000953607],[0.08916666666666657,-0.6122222222222222,0.6271999998092639],[0.09270833333333334,-0.5338888888888889,0.6456999998092527],[0.09270833333333334,-0.5338888888888889,0.671999999999997],[0.09385416666666657,-0.44296296296296295,0.677900000095363],[0.09552083333333337,-0.36944444444444446,0.6937999997138888],[0.09343750000000005,-0.31574074074074077,0.7104999999999961],[0.10458333333333343,-0.25574074074074077,0.7301999998092583],[0.1140625,-0.17037037037037037,0.7467999997138861],[0.09500000000000004,-0.07092592592592595,0.7614000000953638],[0.07843749999999995,0.023148148148148147,0.7814999999999941],[0.08093750000000005,0.06925925925925921,0.7964999999999947],[0.08781249999999995,0.005185185185185101,0.8110999999046271],[0.0884375000000001,-0.09351851851851851,0.8270999999046325],[0.09145833333333328,-0.20481481481481487,0.846199999809258],[0.08812499999999991,-0.24981481481481477,0.8614999999999924],[0.08854166666666667,-0.275,0.8789000000953564],[0.08854166666666667,-0.275,0.8964000000953689],[0.0900000000000001,-0.32888888888888895,0.9104000000953647],[0.09249999999999996,-0.3881481481481482,0.927199999809261],[0.09249999999999996,-0.3881481481481482,0.9436999998092546],[0.11937499999999991,-0.45925925925925926,0.9604000000953619],[0.14885416666666676,-0.5364814814814814,0.9774000000953578],[0.16989583333333325,-0.5372222222222223,0.9935999999046317],[0.19093749999999995,-0.537962962962963,1.0102999997138937],[0.18979166666666672,-0.46944444444444444,1.029199999809265],[0.2133333333333333,-0.4690740740740741,1.0437999997138974],[0.22802083333333342,-0.515,1.0629000000953681],[0.22802083333333342,-0.515,1.0805000000000007],[0.24364583333333342,-0.5651851851851851,1.0939000000953598],[0.25885416666666666,-0.5401851851851852,1.1109000000953557],[0.2757291666666667,-0.5322222222222222,1.1271999998092639],[0.2681250000000001,-0.4638888888888889,1.1474000000953595],[0.2617708333333333,-0.462037037037037,1.16240000009536],[0.24645833333333325,-0.4690740740740741,1.1802999997138954],[0.24031250000000004,-0.4787037037037037,1.196400000095366],[0.2638541666666666,-0.5357407407407407,1.21269999980926],[0.2591666666666666,-0.5285185185185185,1.2272999997138925],[0.25197916666666675,-0.5307407407407407,1.2450999999046246],[0.2430208333333333,-0.49611111111111106,1.2602999997138937],[0.23125,-0.5761111111111111,1.2789999999999964],[0.20593750000000005,-0.5059259259259259,1.295199999809256],[0.1974999999999999,-0.48148148148148145,1.3116999998092638],[0.1974999999999999,-0.48148148148148145,1.3270999999046325],[0.18229166666666666,-0.43203703703703705,1.3437999997138945],[0.13624999999999995,-0.38185185185185183,1.3631999998092539],[0.0884375000000001,-0.3277777777777778,1.3807999997138865],[0.03802083333333333,-0.272037037037037,1.396400000095369],[-0.000833333333333286,-0.19462962962962968,1.41240000009536],[-0.08208333333333329,-0.06962962962962967,1.4269999999999925],[-0.11520833333333336,-0.03092592592592601,1.444199999809257],[-0.12687499999999996,0.01962962962962967,1.460799999713899],[-0.14249999999999996,-0.0035185185185184764,1.4821999998092537],[-0.19093749999999995,0.0485185185185186,1.4971999998092542],[-0.20520833333333333,0.08074074074074078,1.5132999997138938],[-0.20520833333333333,0.08074074074074078,1.5269000000953667],[-0.24104166666666665,0.1824074074074074,1.5435999999046288],[-0.26614583333333336,0.24055555555555552,1.560699999809259],[-0.2759375,0.26444444444444437,1.5792999997138963],[-0.2952083333333333,0.2601851851851852,1.593599999904626],[-0.28020833333333334,0.2381481481481482,1.610299999713888],[-0.30447916666666663,0.21574074074074073,1.6270999999046296],[-0.35739583333333336,0.25018518518518523,1.6435999999046231],[-0.36697916666666663,0.2074074074074074,1.6602999997138994],[-0.3692708333333333,0.10185185185185185,1.681699999809254],[-0.3967708333333333,0.027407407407407325,1.6965000000000003],[-0.3633333333333333,-0.11351851851851855,1.7124999999999915],[-0.3614583333333333,-0.17444444444444443,1.7271999998092582],[-0.36875,-0.21574074074074073,1.743799999713886],[-0.3585416666666667,-0.24740740740740744,1.7602999997138937],[-0.3377083333333334,-0.2994444444444444,1.7774999999999892],[-0.32843749999999994,-0.297037037037037,1.7935999999046288],[-0.30979166666666663,-0.29518518518518516,1.8105999999046247],[-0.3341666666666666,-0.2972222222222222,1.8269999999999982],[-0.3341666666666666,-0.30999999999999994,1.8436999998092602],[-0.3407291666666667,-0.28722222222222227,1.860299999713888],[-0.31677083333333333,-0.28407407407407403,1.8774000000953635],[-0.27937500000000004,-0.31870370370370377,1.8954999999999984],[-0.29624999999999996,-0.3116666666666667,1.911999999999992],[-0.3030208333333333,-0.31592592592592594,1.9295999999046245],[-0.3266666666666667,-0.3175925925925926,1.9454999999999956],[-0.3194791666666667,-0.3287037037037037,1.963799999713899],[-0.31666666666666665,-0.3448148148148148,1.9835999999046265],[-0.31666666666666665,-0.3448148148148148,1.994099999904634],[-0.31666666666666665,-0.3448148148148148,2.0150999999046206],[-0.3081249999999999,-0.34296296296296297,2.027000000000001],[-0.27364583333333337,-0.3383333333333333,2.0450999999046218],[-0.24052083333333332,-0.3292592592592593,2.0619000000953633],[-0.2452083333333333,-0.29907407407407405,2.0829999999999984],[-0.2452083333333333,-0.29907407407407405,2.0936999998092602],[-0.22927083333333337,-0.272037037037037,2.110299999713888],[-0.22927083333333337,-0.272037037037037,2.1269999999999953],[-0.16843750000000005,-0.2788888888888889,2.1437999997138917],[-0.14249999999999996,-0.28481481481481485,2.164699999809258],[-0.14249999999999996,-0.28481481481481485,2.1770999999046268],[-0.11291666666666664,-0.3001851851851852,2.1935999999046203],[-0.11968749999999997,-0.30166666666666664,2.2164999999999964],[-0.11968749999999997,-0.30166666666666664,2.2269999999999897],[-0.10104166666666667,-0.3022222222222222,2.243699999809266],[-0.10104166666666667,-0.3022222222222222,2.2602999997138937],[-0.0609375,-0.3224074074074075,2.277099999904621],[-0.0609375,-0.3224074074074075,2.293699999809263],[-0.0421875,-0.37518518518518523,2.310299999713891],[-0.0421875,-0.37518518518518523,2.3270999999046325],[-0.019270833333333334,-0.40925925925925927,2.3437999997138945],[-0.000833333333333286,-0.4477777777777778,2.363900000095356],[0.0037500000000000237,-0.4766666666666666,2.3810000000000002],[0.011354166666666643,-0.5131481481481482,2.396099999904621],[0.019166666666666644,-0.5262962962962963,2.4125999999046286],[0.03687499999999998,-0.5264814814814816,2.4269999999999925],[0.06364583333333336,-0.5314814814814814,2.4450999999046275],[0.07385416666666676,-0.5401851851851852,2.462999999999994],[0.07468750000000005,-0.5718518518518518,2.480099999904624],[0.06802083333333328,-0.5388888888888889,2.4964999999999975],[0.059062500000000046,-0.5283333333333333,2.5194999999999936],[0.059062500000000046,-0.5283333333333333,2.5356999998092533],[0.05645833333333338,-0.48777777777777775,2.545199999809256],[0.05645833333333338,-0.48777777777777775,2.560299999713891],[0.04093749999999995,-0.44592592592592595,2.576999999999998],[0.019375000000000024,-0.3707407407407407,2.593999999999994],[0.00635416666666669,-0.30777777777777776,2.6101999998092538],[0.017083333333333308,-0.26666666666666666,2.626900000095361],[0.018333333333333358,-0.2346296296296296,2.6439999999999912],[0.015104166666666667,-0.1948148148148148,2.6602999997138994],[-0.013333333333333286,-0.11203703703703703,2.677199999809261],[-0.023958333333333335,-0.07074074074074072,2.6935999999046203],[-0.04604166666666672,-0.0198148148148149,2.7116999998092552],[-0.07614583333333336,-0.034074074074074034,2.7269000000953554],[-0.09468749999999998,-0.046481481481481526,2.744099999904634],[-0.07958333333333331,-0.10537037037037032,2.7601999998092595],[-0.06447916666666664,-0.16425925925925924,2.777000000000001],[-0.06479166666666672,-0.23796296296296296,2.793599999904629],[-0.05562499999999997,-0.3025925925925925,2.810299999713891],[-0.04729166666666664,-0.3559259259259259,2.826900000095364],[-0.014374999999999952,-0.42296296296296293,2.843599999904626],[0.001979166666666643,-0.4896296296296296,2.860299999713888],[0.001979166666666643,-0.4896296296296296,2.8769999999999953],[0.03697916666666667,-0.5609259259259259,2.893599999904623],[0.07145833333333323,-0.645,2.9102999997138994],[0.10072916666666672,-0.745,2.9269999999999925],[0.10520833333333333,-0.8190740740740741,2.9435999999046203],[0.1040625000000001,-0.8862962962962964,2.9602999997138966],[0.09791666666666667,-0.9229629629629629,2.9779999999999944],[0.11020833333333328,-0.9538888888888889,3.004499999999993],[0.11020833333333328,-0.9538888888888889,3.01109999990463],[0.12416666666666672,-0.9892592592592594,3.0269000000953667],[0.14187500000000006,-1.0216666666666667,3.043699999809263],[0.15750000000000006,-1.0507407407407408,3.060299999713891],[0.16364583333333324,-1.0905555555555555,3.076999999999998],[0.17520833333333338,-1.0831481481481482,3.0949000000953646],[0.1794791666666666,-1.076851851851852,3.110299999713888],[0.1837500000000001,-1.0705555555555557,3.1269999999999953],[0.1898958333333333,-1.0761111111111112,3.143599999904623],[0.21302083333333333,-1.0807407407407408,3.1602999997138994],[0.21770833333333334,-1.0911111111111111,3.1770999999046268],[0.20968749999999994,-1.109074074074074,3.1965999999046204],[0.19458333333333327,-1.1244444444444446,3.212400000095357],[0.19718749999999996,-1.0974074074074074,3.227099999904624],[0.20208333333333334,-1.0646296296296296,3.243799999713886],[0.20927083333333343,-1.0335185185185185,3.2604999999999933],[0.21864583333333343,-0.9942592592592592,3.2804999999999893],[0.22927083333333323,-0.9303703703703703,3.297400000095365],[0.24364583333333342,-0.8614814814814815,3.313699999809259],[0.24364583333333342,-0.8614814814814815,3.3340999999046232],[0.2412499999999999,-0.8081481481481481,3.343999999999994],[0.23635416666666675,-0.7475925925925926,3.3644999999999925],[0.23635416666666675,-0.7475925925925926,3.3770999999046296],[0.23739583333333342,-0.6840740740740741,3.3936999998092574],[0.24114583333333334,-0.6474074074074074,3.4137999997138877],[0.23041666666666671,-0.6446296296296297,3.430799999713898],[0.2335416666666667,-0.6357407407407407,3.4461999998092665],[0.23104166666666662,-0.6351851851851852,3.4602999997138966],[0.2335416666666667,-0.629074074074074,3.478999999999999],[0.23479166666666676,-0.6475925925925926,3.494099999904634],[0.23177083333333334,-0.6777777777777778,3.5115999999046323],[0.23427083333333343,-0.6809259259259259,3.5294999999999987],[0.23927083333333338,-0.6912962962962963,3.5437999997138974],[0.2423958333333334,-0.6925925925925925,3.5609000000953586],[0.24833333333333343,-0.6675925925925926,3.5785999999046254],[0.24791666666666667,-0.667962962962963,3.593599999904626],[0.23364583333333327,-0.6744444444444444,3.610299999713888],[0.22864583333333333,-0.654074074074074,3.626900000095361],[0.2352083333333333,-0.6377777777777778,3.643900000095357],[0.23635416666666675,-0.6262962962962962,3.6602999997138994]]","[0.00029999971388861013,0.04609999990462654,0.06040000009535618,0.07809999990462302,0.09729999971389702,0.11559999990463155,0.13249999999999318,0.14969999980925763,0.1602999997138994,0.17709999990462677,0.19369999980925456,0.21040000009536186,0.22709999990462393,0.24369999980926593,0.260400000095359,0.2770999999046211,0.2935999999046288,0.3102999997138909,0.3305000000000007,0.34369999980926025,0.36040000009536755,0.3771999998092639,0.3936999998092574,0.41100000000000136,0.4274000000953606,0.4435999999046203,0.46029999971389657,0.48219999980925365,0.4971999998092542,0.5122999997138891,0.5284000000953597,0.5436999998092631,0.5602999997138909,0.5804000000953664,0.61099999999999,0.6179000000953607,0.6271999998092639,0.6456999998092527,0.671999999999997,0.677900000095363,0.6937999997138888,0.7104999999999961,0.7301999998092583,0.7467999997138861,0.7614000000953638,0.7814999999999941,0.7964999999999947,0.8110999999046271,0.8270999999046325,0.846199999809258,0.8614999999999924,0.8789000000953564,0.8964000000953689,0.9104000000953647,0.927199999809261,0.9436999998092546,0.9604000000953619,0.9774000000953578,0.9935999999046317,1.0102999997138937,1.029199999809265,1.0437999997138974,1.0629000000953681,1.0805000000000007,1.0939000000953598,1.1109000000953557,1.1271999998092639,1.1474000000953595,1.16240000009536,1.1802999997138954,1.196400000095366,1.21269999980926,1.2272999997138925,1.2450999999046246,1.2602999997138937,1.2789999999999964,1.295199999809256,1.3116999998092638,1.3270999999046325,1.3437999997138945,1.3631999998092539,1.3807999997138865,1.396400000095369,1.41240000009536,1.4269999999999925,1.444199999809257,1.460799999713899,1.4821999998092537,1.4971999998092542,1.5132999997138938,1.5269000000953667,1.5435999999046288,1.560699999809259,1.5792999997138963,1.593599999904626,1.610299999713888,1.6270999999046296,1.6435999999046231,1.6602999997138994,1.681699999809254,1.6965000000000003,1.7124999999999915,1.7271999998092582,1.743799999713886,1.7602999997138937,1.7774999999999892,1.7935999999046288,1.8105999999046247,1.8269999999999982,1.8436999998092602,1.860299999713888,1.8774000000953635,1.8954999999999984,1.911999999999992,1.9295999999046245,1.9454999999999956,1.963799999713899,1.9835999999046265,1.994099999904634,2.0150999999046206,2.027000000000001,2.0450999999046218,2.0619000000953633,2.0829999999999984,2.0936999998092602,2.110299999713888,2.1269999999999953,2.1437999997138917,2.164699999809258,2.1770999999046268,2.1935999999046203,2.2164999999999964,2.2269999999999897,2.243699999809266,2.2602999997138937,2.277099999904621,2.293699999809263,2.310299999713891,2.3270999999046325,2.3437999997138945,2.363900000095356,2.3810000000000002,2.396099999904621,2.4125999999046286,2.4269999999999925,2.4450999999046275,2.462999999999994,2.480099999904624,2.4964999999999975,2.5194999999999936,2.5356999998092533,2.545199999809256,2.560299999713891,2.576999999999998,2.593999999999994,2.6101999998092538,2.626900000095361,2.6439999999999912,2.6602999997138994,2.677199999809261,2.6935999999046203,2.7116999998092552,2.7269000000953554,2.744099999904634,2.7601999998092595,2.777000000000001,2.793599999904629,2.810299999713891,2.826900000095364,2.843599999904626,2.860299999713888,2.8769999999999953,2.893599999904623,2.9102999997138994,2.9269999999999925,2.9435999999046203,2.9602999997138966,2.9779999999999944,3.004499999999993,3.01109999990463,3.0269000000953667,3.043699999809263,3.060299999713891,3.076999999999998,3.0949000000953646,3.110299999713888,3.1269999999999953,3.143599999904623,3.1602999997138994,3.1770999999046268,3.1965999999046204,3.212400000095357,3.227099999904624,3.243799999713886,3.2604999999999933,3.2804999999999893,3.297400000095365,3.313699999809259,3.3340999999046232,3.343999999999994,3.3644999999999925,3.3770999999046296,3.3936999998092574,3.4137999997138877,3.430799999713898,3.4461999998092665,3.4602999997138966,3.478999999999999,3.494099999904634,3.5115999999046323,3.5294999999999987,3.5437999997138974,3.5609000000953586,3.5785999999046254,3.593599999904626,3.610299999713888,3.626900000095361,3.643900000095357,3.6602999997138994]","[1732156421318,1732156421354,1732156421369,1732156421386,1732156421406,1732156421424,1732156421441,1732156421458,1732156421469,1732156421485,1732156421502,1732156421519,1732156421535,1732156421552,1732156421569,1732156421585,1732156421602,1732156421619,1732156421639,1732156421652,1732156421669,1732156421685,1732156421702,1732156421719,1732156421735,1732156421752,1732156421768,1732156421790,1732156421805,1732156421821,1732156421837,1732156421852,1732156421868,1732156421889,1732156421919,1732156421926,1732156421935,1732156421954,1732156421980,1732156421986,1732156422002,1732156422019,1732156422038,1732156422055,1732156422070,1732156422090,1732156422105,1732156422119,1732156422135,1732156422154,1732156422170,1732156422187,1732156422205,1732156422219,1732156422235,1732156422252,1732156422269,1732156422286,1732156422302,1732156422318,1732156422337,1732156422352,1732156422371,1732156422389,1732156422402,1732156422419,1732156422435,1732156422456,1732156422471,1732156422488,1732156422505,1732156422521,1732156422535,1732156422553,1732156422568,1732156422587,1732156422603,1732156422620,1732156422635,1732156422652,1732156422671,1732156422689,1732156422705,1732156422721,1732156422735,1732156422752,1732156422769,1732156422790,1732156422805,1732156422822,1732156422835,1732156422852,1732156422869,1732156422887,1732156422902,1732156422918,1732156422935,1732156422952,1732156422968,1732156422990,1732156423005,1732156423021,1732156423035,1732156423052,1732156423068,1732156423086,1732156423102,1732156423119,1732156423135,1732156423152,1732156423168,1732156423186,1732156423204,1732156423220,1732156423238,1732156423254,1732156423272,1732156423292,1732156423302,1732156423323,1732156423335,1732156423353,1732156423370,1732156423391,1732156423402,1732156423419,1732156423435,1732156423452,1732156423473,1732156423485,1732156423502,1732156423525,1732156423535,1732156423552,1732156423568,1732156423585,1732156423602,1732156423618,1732156423635,1732156423652,1732156423672,1732156423689,1732156423704,1732156423721,1732156423735,1732156423753,1732156423771,1732156423788,1732156423805,1732156423828,1732156423844,1732156423853,1732156423868,1732156423885,1732156423902,1732156423918,1732156423935,1732156423952,1732156423969,1732156423985,1732156424002,1732156424020,1732156424035,1732156424052,1732156424068,1732156424085,1732156424102,1732156424118,1732156424135,1732156424152,1732156424168,1732156424185,1732156424202,1732156424218,1732156424235,1732156424252,1732156424268,1732156424286,1732156424313,1732156424319,1732156424335,1732156424352,1732156424368,1732156424385,1732156424403,1732156424418,1732156424435,1732156424452,1732156424468,1732156424485,1732156424505,1732156424521,1732156424535,1732156424552,1732156424569,1732156424589,1732156424606,1732156424622,1732156424642,1732156424652,1732156424673,1732156424685,1732156424702,1732156424722,1732156424739,1732156424754,1732156424768,1732156424787,1732156424802,1732156424820,1732156424838,1732156424852,1732156424869,1732156424887,1732156424902,1732156424918,1732156424935,1732156424952,1732156424968]","[[1047.6,366.1],[1047.6,366.1],[1053.5,364.2],[1053.5,364.2],[1055.8,367.4],[1057.4,373.7],[1055.1,374.2],[1055.7,375.1],[1055.7,375.1],[1032.6,369.4],[1032.6,369.4],[1008.9,354.7],[1008.9,354.7],[975.8,345.4],[975.8,345.4],[952.8,332.4],[952.8,332.4],[910.7,323.4],[874.5,318.6],[874.5,318.6],[846.2,315.4],[846.2,315.4],[828.3,298.7],[843.9,289.9],[838.7,281.7],[866.3,278.5],[886.4,279.2],[908.5,272.5],[944.7,270.1],[985,257],[1010.5,245.1],[1029,229.7],[1050.2,214.7],[1039.4,200.5],[1046.7,173.4],[1046.7,173.4],[1045.6,209.4],[1049,251.7],[1049,251.7],[1050.1,300.8],[1051.7,340.5],[1049.7,369.5],[1060.4,401.9],[1069.5,448],[1051.2,501.7],[1035.3,552.5],[1037.7,577.4],[1044.3,542.8],[1044.9,489.5],[1047.8,429.4],[1044.6,405.1],[1045,391.5],[1045,391.5],[1046.4,362.4],[1048.8,330.4],[1048.8,330.4],[1074.6,292],[1102.9,250.3],[1123.1,249.9],[1143.3,249.5],[1142.2,286.5],[1164.8,286.7],[1178.9,261.9],[1178.9,261.9],[1193.9,234.8],[1208.5,248.3],[1224.7,252.6],[1217.4,289.5],[1211.3,290.5],[1196.6,286.7],[1190.7,281.5],[1213.3,250.7],[1208.8,254.6],[1201.9,253.4],[1193.3,272.1],[1182,228.9],[1157.7,266.8],[1149.6,280],[1149.6,280],[1135,306.7],[1090.8,333.8],[1044.9,363],[996.5,393.1],[959.2,434.9],[881.2,502.4],[849.4,523.3],[838.2,550.6],[823.2,538.1],[776.7,566.2],[763,583.6],[763,583.6],[728.6,638.5],[704.5,669.9],[695.1,682.8],[676.6,680.5],[691,668.6],[667.7,656.5],[616.9,675.1],[607.7,652],[605.5,595],[579.1,554.8],[611.2,478.7],[613,445.8],[606,423.5],[615.8,406.4],[635.8,378.3],[644.7,379.6],[662.6,380.6],[639.2,379.5],[639.2,372.6],[632.9,384.9],[655.9,386.6],[691.8,367.9],[675.6,371.7],[669.1,369.4],[646.4,368.5],[653.3,362.5],[656,353.8],[656,353.8],[656,353.8],[664.2,354.8],[697.3,357.3],[729.1,362.2],[724.6,378.5],[724.6,378.5],[739.9,393.1],[739.9,393.1],[798.3,389.4],[823.2,386.2],[823.2,386.2],[851.6,377.9],[845.1,377.1],[845.1,377.1],[863,376.8],[863,376.8],[901.5,365.9],[901.5,365.9],[919.5,337.4],[919.5,337.4],[941.5,319],[959.2,298.2],[963.6,282.6],[970.9,262.9],[978.4,255.8],[995.4,255.7],[1021.1,253],[1030.9,248.3],[1031.7,231.2],[1025.3,249],[1016.7,254.7],[1016.7,254.7],[1014.2,276.6],[1014.2,276.6],[999.3,299.2],[978.6,339.8],[966.1,373.8],[976.4,396],[977.6,413.3],[974.5,434.8],[947.2,479.5],[937,501.8],[915.8,529.3],[886.9,521.6],[869.1,514.9],[883.6,483.1],[898.1,451.3],[897.8,411.5],[906.6,376.6],[914.6,347.8],[946.2,311.6],[961.9,275.6],[961.9,275.6],[995.5,237.1],[1028.6,191.7],[1056.7,137.7],[1061,97.7],[1059.9,61.4],[1054,41.6],[1065.8,24.9],[1065.8,24.9],[1079.2,5.8],[1096.2,-11.7],[1111.2,-27.4],[1117.1,-48.9],[1128.2,-44.9],[1132.3,-41.5],[1136.4,-38.1],[1142.3,-41.1],[1164.5,-43.6],[1169,-49.2],[1161.3,-58.9],[1146.8,-67.2],[1149.3,-52.6],[1154,-34.9],[1160.9,-18.1],[1169.9,3.1],[1180.1,37.6],[1193.9,74.8],[1193.9,74.8],[1191.6,103.6],[1186.9,136.3],[1186.9,136.3],[1187.9,170.6],[1191.5,190.4],[1181.2,191.9],[1184.2,196.7],[1181.8,197],[1184.2,200.3],[1185.4,190.3],[1182.5,174],[1184.9,172.3],[1189.7,166.7],[1192.7,166],[1198.4,179.5],[1198,179.3],[1184.3,175.8],[1179.5,186.8],[1185.8,195.6],[1186.9,201.8]]","[-0.2,0.6000000000000001]","[0.2,0.6000000000000001]","[0.6000000000000001,0.6000000000000001]","[-0.6000000000000001,-0.2]","[-0.6000000000000001,0.2]","[-0.6000000000000001,-0.6000000000000001]","[-0.2,-0.2]","[0.2,-0.2]","[0.6000000000000001,-0.2]","[-0.2,0.2]","[0.2,0.2]","[0.6000000000000001,0.2]","[-0.2,-0.6000000000000001]","[0.2,-0.6000000000000001]","[0.6000000000000001,-0.6000000000000001]",0,0,0,0,1,3,Monitor,25,40,9,1,50,4,1,60,5
,,,,,,,,,,,,,,,,,,,46,001,2024-11-21_10h32.40.650,Attention_exp_legacy,2023.1.0,Win32,59.88023952,,,,,,,,,,,[0.22604166666666667],[0.5777777777777777],[1],[0],[0],[7.998099999904639],"[""Metro_label""]",Metro_label,2,9.0036,"[[0.228125,0.5666666666666667],[0.228125,0.5666666666666667],[0.228125,0.5666666666666667],[0.228125,0.5666666666666667],[0.228125,0.5666666666666667],[0.228125,0.5666666666666667],[0.228125,0.5666666666666667],[0.228125,0.5666666666666667],[0.228125,0.5666666666666667],[0.228125,0.5666666666666667],[0.228125,0.5666666666666667],[0.228125,0.5666666666666667],[0.228125,0.5666666666666667],[0.228125,0.5666666666666667],[0.228125,0.5666666666666667],[0.228125,0.5666666666666667],[0.228125,0.5666666666666667],[0.228125,0.5666666666666667],[0.228125,0.5666666666666667],[0.228125,0.5666666666666667],[0.228125,0.5666666666666667],[0.228125,0.5666666666666667],[0.228125,0.5666666666666667],[0.228125,0.5666666666666667],[0.228125,0.5666666666666667],[0.228125,0.5666666666666667],[0.228125,0.5666666666666667],[0.228125,0.5666666666666667],[0.228125,0.5666666666666667],[0.228125,0.5666666666666667],[0.228125,0.5666666666666667],[0.228125,0.5666666666666667],[0.228125,0.5666666666666667],[0.228125,0.5666666666666667],[0.228125,0.5666666666666667],[0.228125,0.5666666666666667],[0.228125,0.5666666666666667],[0.228125,0.5666666666666667],[0.228125,0.5666666666666667],[0.228125,0.5666666666666667],[0.228125,0.5666666666666667],[0.228125,0.5666666666666667],[0.228125,0.5666666666666667],[0.228125,0.5666666666666667],[0.228125,0.5666666666666667],[0.228125,0.5666666666666667],[0.228125,0.5666666666666667],[0.228125,0.5666666666666667],[0.228125,0.5666666666666667],[0.228125,0.5666666666666667],[0.228125,0.5666666666666667],[0.228125,0.5666666666666667],[0.228125,0.5666666666666667],[0.228125,0.5666666666666667],[0.228125,0.5666666666666667],[0.228125,0.5666666666666667],[0.228125,0.5666666666666667],[0.228125,0.5666666666666667],[0.228125,0.5666666666666667],[0.228125,0.5666666666666667],[0.228125,0.5666666666666667],[0.228125,0.5666666666666667],[0.228125,0.5666666666666667],[0.228125,0.5666666666666667],[0.228125,0.5666666666666667],[0.228125,0.5666666666666667],[0.228125,0.5666666666666667],[0.228125,0.5666666666666667],[0.228125,0.5666666666666667],[0.228125,0.5666666666666667],[0.228125,0.5666666666666667],[0.228125,0.5666666666666667],[0.228125,0.5666666666666667],[0.228125,0.5666666666666667],[0.228125,0.5666666666666667],[0.228125,0.5666666666666667],[0.228125,0.5666666666666667],[0.228125,0.5666666666666667],[0.228125,0.5666666666666667],[0.228125,0.5666666666666667],[0.228125,0.5666666666666667],[0.228125,0.5666666666666667],[0.228125,0.5666666666666667],[0.228125,0.5666666666666667],[0.228125,0.5666666666666667],[0.228125,0.5666666666666667],[0.228125,0.5666666666666667],[0.228125,0.5666666666666667],[0.228125,0.5666666666666667],[0.228125,0.5666666666666667],[0.228125,0.5666666666666667],[0.228125,0.5666666666666667],[0.228125,0.5666666666666667],[0.228125,0.5666666666666667],[0.228125,0.5666666666666667],[0.228125,0.5666666666666667],[0.228125,0.5666666666666667],[0.228125,0.5666666666666667],[0.228125,0.5666666666666667],[0.228125,0.5666666666666667],[0.228125,0.5666666666666667],[0.228125,0.5666666666666667],[0.228125,0.5666666666666667],[0.228125,0.5666666666666667],[0.228125,0.5666666666666667],[0.228125,0.5666666666666667],[0.228125,0.5666666666666667],[0.228125,0.5666666666666667],[0.228125,0.5666666666666667],[0.228125,0.5666666666666667],[0.228125,0.5666666666666667],[0.228125,0.5666666666666667],[0.228125,0.5666666666666667],[0.228125,0.5666666666666667],[0.228125,0.5666666666666667],[0.228125,0.5666666666666667],[0.228125,0.5666666666666667],[0.228125,0.5666666666666667],[0.228125,0.5666666666666667],[0.228125,0.5666666666666667],[0.228125,0.5666666666666667],[0.228125,0.5666666666666667],[0.228125,0.5666666666666667],[0.228125,0.5666666666666667],[0.228125,0.5666666666666667],[0.228125,0.5666666666666667],[0.228125,0.5666666666666667],[0.228125,0.5666666666666667],[0.228125,0.5666666666666667],[0.228125,0.5666666666666667],[0.228125,0.5666666666666667],[0.228125,0.5666666666666667],[0.228125,0.5666666666666667],[0.228125,0.5666666666666667],[0.228125,0.5666666666666667],[0.228125,0.5666666666666667],[0.228125,0.5666666666666667],[0.228125,0.5666666666666667],[0.228125,0.5666666666666667],[0.228125,0.5666666666666667],[0.228125,0.5666666666666667],[0.228125,0.5666666666666667],[0.228125,0.5666666666666667],[0.228125,0.5666666666666667],[0.228125,0.5666666666666667],[0.228125,0.5666666666666667],[0.228125,0.5666666666666667],[0.228125,0.5666666666666667],[0.228125,0.5666666666666667],[0.228125,0.5666666666666667],[0.228125,0.5666666666666667],[0.228125,0.5666666666666667],[0.228125,0.5666666666666667],[0.228125,0.5666666666666667],[0.228125,0.5666666666666667],[0.228125,0.5666666666666667],[0.228125,0.5666666666666667],[0.228125,0.5666666666666667],[0.228125,0.5666666666666667],[0.228125,0.5666666666666667],[0.228125,0.5666666666666667],[0.228125,0.5666666666666667],[0.228125,0.5666666666666667],[0.228125,0.5666666666666667],[0.228125,0.5666666666666667],[0.228125,0.5666666666666667],[0.228125,0.5666666666666667],[0.228125,0.5666666666666667],[0.228125,0.5666666666666667],[0.228125,0.5666666666666667],[0.228125,0.5666666666666667],[0.228125,0.5666666666666667],[0.228125,0.5666666666666667],[0.228125,0.5666666666666667],[0.228125,0.5666666666666667],[0.228125,0.5666666666666667],[0.228125,0.5666666666666667],[0.228125,0.5666666666666667],[0.228125,0.5666666666666667],[0.228125,0.5666666666666667],[0.228125,0.5666666666666667],[0.228125,0.5666666666666667],[0.228125,0.5666666666666667],[0.228125,0.5666666666666667],[0.228125,0.5666666666666667],[0.228125,0.5666666666666667],[0.228125,0.5666666666666667],[0.228125,0.5666666666666667],[0.228125,0.5666666666666667],[0.228125,0.5666666666666667],[0.228125,0.5666666666666667],[0.228125,0.5666666666666667],[0.228125,0.5666666666666667],[0.228125,0.5666666666666667],[0.228125,0.5666666666666667],[0.228125,0.5666666666666667],[0.228125,0.5666666666666667],[0.228125,0.5666666666666667],[0.228125,0.5666666666666667],[0.228125,0.5666666666666667],[0.228125,0.5666666666666667],[0.228125,0.5666666666666667],[0.228125,0.5666666666666667],[0.228125,0.5666666666666667],[0.228125,0.5666666666666667],[0.228125,0.5666666666666667],[0.228125,0.5666666666666667],[0.228125,0.5666666666666667],[0.228125,0.5666666666666667],[0.228125,0.5666666666666667],[0.228125,0.5666666666666667],[0.228125,0.5666666666666667],[0.228125,0.5666666666666667],[0.228125,0.5666666666666667],[0.228125,0.5666666666666667],[0.228125,0.5666666666666667],[0.228125,0.5666666666666667],[0.228125,0.5666666666666667],[0.228125,0.5666666666666667],[0.228125,0.5666666666666667],[0.228125,0.5666666666666667],[0.228125,0.5666666666666667],[0.228125,0.5666666666666667],[0.228125,0.5666666666666667],[0.228125,0.5666666666666667],[0.228125,0.5666666666666667],[0.228125,0.5666666666666667],[0.228125,0.5666666666666667],[0.228125,0.5666666666666667],[0.228125,0.5666666666666667],[0.228125,0.5666666666666667],[0.228125,0.5666666666666667],[0.228125,0.5666666666666667],[0.228125,0.5666666666666667],[0.228125,0.5666666666666667],[0.228125,0.5666666666666667],[0.228125,0.5666666666666667],[0.228125,0.5666666666666667],[0.228125,0.5666666666666667],[0.228125,0.5666666666666667],[0.228125,0.5666666666666667],[0.228125,0.5666666666666667],[0.228125,0.5666666666666667],[0.228125,0.5666666666666667],[0.228125,0.5666666666666667],[0.228125,0.5666666666666667],[0.228125,0.5666666666666667],[0.228125,0.5666666666666667],[0.228125,0.5666666666666667],[0.228125,0.5666666666666667],[0.228125,0.5666666666666667],[0.228125,0.5666666666666667],[0.228125,0.5666666666666667],[0.228125,0.5666666666666667],[0.228125,0.5666666666666667],[0.228125,0.5666666666666667],[0.228125,0.5666666666666667],[0.228125,0.5666666666666667],[0.228125,0.5666666666666667],[0.228125,0.5666666666666667],[0.228125,0.5666666666666667],[0.228125,0.5666666666666667],[0.228125,0.5666666666666667],[0.228125,0.5666666666666667],[0.228125,0.5666666666666667],[0.228125,0.5666666666666667],[0.228125,0.5666666666666667],[0.228125,0.5666666666666667],[0.228125,0.5666666666666667],[0.228125,0.5666666666666667],[0.228125,0.5666666666666667],[0.228125,0.5666666666666667],[0.228125,0.5666666666666667],[0.228125,0.5666666666666667],[0.228125,0.5666666666666667],[0.228125,0.5666666666666667],[0.228125,0.5666666666666667],[0.228125,0.5666666666666667],[0.228125,0.5666666666666667],[0.228125,0.5666666666666667],[0.228125,0.5666666666666667],[0.228125,0.5666666666666667],[0.228125,0.5666666666666667],[0.228125,0.5666666666666667],[0.228125,0.5666666666666667],[0.228125,0.5666666666666667],[0.228125,0.5666666666666667],[0.228125,0.5666666666666667],[0.228125,0.5666666666666667],[0.228125,0.5666666666666667],[0.228125,0.5666666666666667],[0.228125,0.5666666666666667],[0.228125,0.5666666666666667],[0.228125,0.5666666666666667],[0.228125,0.5666666666666667],[0.228125,0.5666666666666667],[0.228125,0.5666666666666667],[0.228125,0.5666666666666667],[0.228125,0.5666666666666667],[0.228125,0.5666666666666667],[0.228125,0.5666666666666667],[0.228125,0.5666666666666667],[0.228125,0.5666666666666667],[0.228125,0.5666666666666667],[0.228125,0.5666666666666667],[0.228125,0.5666666666666667],[0.228125,0.5666666666666667],[0.228125,0.5666666666666667],[0.228125,0.5666666666666667],[0.22604166666666667,0.5722222222222222],[0.22604166666666667,0.5740740740740741],[0.22604166666666667,0.575925925925926],[0.22604166666666667,0.575925925925926],[0.22604166666666667,0.575925925925926],[0.22604166666666667,0.575925925925926],[0.22604166666666667,0.575925925925926],[0.22604166666666667,0.575925925925926],[0.22604166666666667,0.5777777777777777],[0.22604166666666667,0.5777777777777777],[0.22604166666666667,0.5777777777777777],[0.22604166666666667,0.5777777777777777],[0.22604166666666667,0.5777777777777777],[0.22604166666666667,0.5777777777777777],[0.22604166666666667,0.5777777777777777],[0.22604166666666667,0.5777777777777777],[0.22604166666666667,0.5777777777777777],[0.22604166666666667,0.5777777777777777],[0.22604166666666667,0.5777777777777777],[0.22604166666666667,0.5777777777777777],[0.22604166666666667,0.5777777777777777],[0.22604166666666667,0.5777777777777777],[0.22604166666666667,0.5777777777777777],[0.22604166666666667,0.5777777777777777],[0.22604166666666667,0.5777777777777777],[0.22604166666666667,0.5777777777777777],[0.22604166666666667,0.5777777777777777],[0.22604166666666667,0.5777777777777777],[0.22604166666666667,0.5777777777777777],[0.22604166666666667,0.5777777777777777],[0.22604166666666667,0.5777777777777777],[0.22604166666666667,0.5777777777777777],[0.22604166666666667,0.5777777777777777],[0.22604166666666667,0.5777777777777777],[0.22604166666666667,0.5777777777777777],[0.22604166666666667,0.5777777777777777],[0.22604166666666667,0.5777777777777777],[0.22604166666666667,0.5777777777777777],[0.22604166666666667,0.5777777777777777],[0.22604166666666667,0.5777777777777777],[0.22604166666666667,0.5777777777777777],[0.22604166666666667,0.5777777777777777],[0.22604166666666667,0.5777777777777777],[0.22604166666666667,0.5777777777777777],[0.22604166666666667,0.5777777777777777],[0.22604166666666667,0.5777777777777777],[0.22604166666666667,0.5777777777777777],[0.22604166666666667,0.5777777777777777],[0.22604166666666667,0.5777777777777777],[0.22604166666666667,0.5777777777777777],[0.22604166666666667,0.5777777777777777],[0.22604166666666667,0.5777777777777777],[0.22604166666666667,0.5777777777777777],[0.22604166666666667,0.5777777777777777],[0.22604166666666667,0.5777777777777777],[0.22604166666666667,0.5777777777777777],[0.22604166666666667,0.5777777777777777],[0.22604166666666667,0.5777777777777777],[0.22604166666666667,0.5777777777777777],[0.22604166666666667,0.5777777777777777],[0.22604166666666667,0.5777777777777777],[0.22604166666666667,0.5777777777777777],[0.22604166666666667,0.5777777777777777],[0.22604166666666667,0.5777777777777777],[0.22604166666666667,0.5777777777777777],[0.22604166666666667,0.5777777777777777],[0.22604166666666667,0.5777777777777777],[0.22604166666666667,0.5777777777777777],[0.22604166666666667,0.5777777777777777],[0.22604166666666667,0.5777777777777777],[0.22604166666666667,0.5777777777777777],[0.22604166666666667,0.5777777777777777],[0.22604166666666667,0.5777777777777777],[0.22604166666666667,0.5777777777777777],[0.22604166666666667,0.5777777777777777],[0.22604166666666667,0.5777777777777777],[0.22604166666666667,0.5777777777777777],[0.22604166666666667,0.5777777777777777],[0.22604166666666667,0.5777777777777777],[0.22604166666666667,0.5777777777777777],[0.22604166666666667,0.5777777777777777],[0.22604166666666667,0.5777777777777777],[0.22604166666666667,0.5777777777777777],[0.22604166666666667,0.5777777777777777],[0.22604166666666667,0.5777777777777777],[0.22604166666666667,0.5777777777777777],[0.22604166666666667,0.5777777777777777],[0.22604166666666667,0.5777777777777777],[0.22604166666666667,0.5777777777777777],[0.22604166666666667,0.5777777777777777],[0.22604166666666667,0.5777777777777777],[0.22604166666666667,0.5777777777777777],[0.22604166666666667,0.5777777777777777],[0.22604166666666667,0.5777777777777777],[0.22604166666666667,0.5777777777777777],[0.22604166666666667,0.5777777777777777],[0.22604166666666667,0.5777777777777777],[0.22604166666666667,0.5777777777777777],[0.22604166666666667,0.5777777777777777],[0.22604166666666667,0.5777777777777777],[0.22604166666666667,0.5777777777777777],[0.22604166666666667,0.5777777777777777],[0.22604166666666667,0.5777777777777777],[0.22604166666666667,0.5777777777777777],[0.22604166666666667,0.5777777777777777],[0.22604166666666667,0.5777777777777777],[0.22604166666666667,0.5777777777777777],[0.22604166666666667,0.5777777777777777],[0.22604166666666667,0.5777777777777777],[0.22604166666666667,0.5777777777777777],[0.22604166666666667,0.5777777777777777],[0.22604166666666667,0.5777777777777777],[0.22604166666666667,0.5777777777777777],[0.22604166666666667,0.5777777777777777],[0.22604166666666667,0.5777777777777777],[0.22604166666666667,0.5777777777777777],[0.22604166666666667,0.5777777777777777],[0.22604166666666667,0.5777777777777777],[0.22604166666666667,0.5777777777777777],[0.22604166666666667,0.5777777777777777],[0.22604166666666667,0.5777777777777777],[0.22604166666666667,0.5777777777777777],[0.22604166666666667,0.5777777777777777],[0.22604166666666667,0.5777777777777777],[0.22604166666666667,0.5777777777777777],[0.22604166666666667,0.5777777777777777],[0.22604166666666667,0.5777777777777777],[0.22604166666666667,0.5777777777777777],[0.22604166666666667,0.5777777777777777],[0.22604166666666667,0.5777777777777777],[0.22604166666666667,0.5777777777777777],[0.22604166666666667,0.5777777777777777],[0.22604166666666667,0.5777777777777777],[0.22604166666666667,0.5777777777777777],[0.22604166666666667,0.5777777777777777],[0.22604166666666667,0.5777777777777777],[0.22604166666666667,0.5777777777777777],[0.22604166666666667,0.5777777777777777],[0.22604166666666667,0.5777777777777777],[0.22604166666666667,0.5777777777777777],[0.22604166666666667,0.5777777777777777],[0.22604166666666667,0.5777777777777777],[0.22604166666666667,0.5777777777777777],[0.22604166666666667,0.5777777777777777],[0.22604166666666667,0.5777777777777777],[0.22604166666666667,0.5777777777777777],[0.22604166666666667,0.5777777777777777],[0.22604166666666667,0.5777777777777777],[0.22604166666666667,0.5777777777777777],[0.22604166666666667,0.5777777777777777],[0.22604166666666667,0.5777777777777777],[0.22604166666666667,0.5777777777777777],[0.22604166666666667,0.5777777777777777],[0.22604166666666667,0.5777777777777777],[0.22604166666666667,0.5777777777777777],[0.22604166666666667,0.5777777777777777],[0.22604166666666667,0.5777777777777777],[0.22604166666666667,0.5777777777777777],[0.22604166666666667,0.5777777777777777],[0.22604166666666667,0.5777777777777777],[0.22604166666666667,0.5777777777777777],[0.22604166666666667,0.5777777777777777],[0.22604166666666667,0.5777777777777777],[0.22604166666666667,0.5777777777777777],[0.22604166666666667,0.5777777777777777],[0.22604166666666667,0.5777777777777777],[0.22604166666666667,0.5777777777777777],[0.22604166666666667,0.5777777777777777],[0.22604166666666667,0.5777777777777777],[0.22604166666666667,0.5777777777777777],[0.22604166666666667,0.5777777777777777],[0.22604166666666667,0.5777777777777777],[0.22604166666666667,0.5777777777777777],[0.22604166666666667,0.5777777777777777],[0.22604166666666667,0.5777777777777777],[0.22604166666666667,0.5777777777777777],[0.22604166666666667,0.5777777777777777],[0.22604166666666667,0.5777777777777777],[0.22604166666666667,0.5777777777777777],[0.22604166666666667,0.5777777777777777],[0.22604166666666667,0.5777777777777777],[0.22604166666666667,0.5777777777777777],[0.22604166666666667,0.5777777777777777],[0.22604166666666667,0.5777777777777777],[0.22604166666666667,0.5777777777777777],[0.22604166666666667,0.5777777777777777],[0.22604166666666667,0.5777777777777777],[0.22604166666666667,0.5777777777777777],[0.22604166666666667,0.5777777777777777],[0.22604166666666667,0.5777777777777777],[0.22604166666666667,0.5777777777777777],[0.22604166666666667,0.5777777777777777],[0.22604166666666667,0.5777777777777777],[0.22604166666666667,0.5777777777777777],[0.22604166666666667,0.5777777777777777],[0.22604166666666667,0.5777777777777777],[0.22604166666666667,0.5777777777777777],[0.22604166666666667,0.5777777777777777],[0.22604166666666667,0.5777777777777777],[0.22604166666666667,0.5777777777777777],[0.22604166666666667,0.5777777777777777],[0.22604166666666667,0.5777777777777777],[0.22604166666666667,0.5777777777777777],[0.22604166666666667,0.5777777777777777],[0.22604166666666667,0.5777777777777777],[0.22604166666666667,0.5777777777777777],[0.22604166666666667,0.5777777777777777],[0.22604166666666667,0.5777777777777777],[0.22604166666666667,0.5777777777777777],[0.22604166666666667,0.5777777777777777],[0.22604166666666667,0.5777777777777777],[0.23020833333333332,0.5722222222222222],[0.2375,0.5611111111111111],[0.24479166666666666,0.55],[0.253125,0.5314814814814814],[0.2604166666666667,0.5092592592592593],[0.26875,0.47962962962962963],[0.28229166666666666,0.4185185185185185],[0.29375,0.3296296296296296],[0.3072916666666667,0.1648148148148148],[0.315625,0.06851851851851852],[0.31666666666666665,0.001851851851851852],[0.31666666666666665,-0.03518518518518519],[0.31666666666666665,-0.08888888888888889],[0.31666666666666665,-0.17407407407407408],[0.31666666666666665,-0.2222222222222222],[0.309375,-0.26481481481481484],[0.30520833333333336,-0.29444444444444445],[0.3020833333333333,-0.3148148148148148],[0.30104166666666665,-0.32222222222222224]]","[[0.3932291666666667,-0.647037037037037],[0.4117708333333333,-0.6303703703703704],[0.42916666666666664,-0.6251851851851852],[0.4470833333333334,-0.6320370370370371],[0.4470833333333334,-0.6320370370370371],[0.4367708333333333,-0.6568518518518518],[0.4384375000000001,-0.6587037037037037],[0.4211458333333333,-0.6729629629629629],[0.41124999999999995,-0.6883333333333334],[0.3955208333333334,-0.6996296296296296],[0.3797916666666666,-0.7109259259259259],[0.36270833333333335,-0.7142592592592593],[0.3393749999999999,-0.7222222222222222],[0.31270833333333337,-0.7444444444444445],[0.2855208333333332,-0.7546296296296297],[0.2673958333333334,-0.7640740740740741],[0.24666666666666662,-0.7844444444444445],[0.23947916666666677,-0.8033333333333333],[0.23229166666666667,-0.8222222222222222],[0.22541666666666677,-0.8361111111111111],[0.22541666666666677,-0.8361111111111111],[0.22687499999999997,-0.8361111111111111],[0.2181250000000001,-0.8455555555555556],[0.21666666666666667,-0.8546296296296296],[0.21864583333333343,-0.8564814814814815],[0.22062499999999996,-0.8583333333333333],[0.22322916666666662,-0.8427777777777778],[0.22583333333333327,-0.8272222222222222],[0.2289583333333333,-0.802962962962963],[0.2256249999999999,-0.7890740740740741],[0.22781250000000006,-0.7842592592592592],[0.2345833333333334,-0.7853703703703704],[0.23468749999999997,-0.7814814814814814],[0.21666666666666667,-0.7737037037037037],[0.20979166666666677,-0.7562962962962962],[0.1728125000000001,-0.7150000000000001],[0.12614583333333323,-0.6918518518518519],[0.08479166666666677,-0.675],[0.035000000000000024,-0.6511111111111112],[-0.01270833333333338,-0.6235185185185185],[-0.01270833333333338,-0.6235185185185185],[-0.06468750000000002,-0.5790740740740741],[-0.12447916666666667,-0.5622222222222223],[-0.12447916666666667,-0.5622222222222223],[-0.19156249999999997,-0.5337037037037037],[-0.2367708333333333,-0.5127777777777778],[-0.2867708333333333,-0.4690740740740741],[-0.30666666666666664,-0.4492592592592593],[-0.2989583333333333,-0.4644444444444445],[-0.3023958333333333,-0.4553703703703703],[-0.3325000000000001,-0.4462962962962963],[-0.3325000000000001,-0.4462962962962963],[-0.3411458333333333,-0.43870370370370365],[-0.3444791666666667,-0.4492592592592593],[-0.36124999999999996,-0.4227777777777778],[-0.36781250000000004,-0.4016666666666666],[-0.37916666666666665,-0.38722222222222225],[-0.3798958333333334,-0.39537037037037037],[-0.380625,-0.4035185185185185],[-0.38875000000000004,-0.4022222222222222],[-0.3910416666666666,-0.41888888888888887],[-0.3658333333333334,-0.43129629629629623],[-0.3411458333333333,-0.4351851851851852],[-0.32354166666666667,-0.415925925925926],[-0.2976041666666667,-0.4140740740740741],[-0.26979166666666665,-0.44351851851851853],[-0.24093749999999994,-0.4625925925925926],[-0.2079166666666667,-0.47314814814814815],[-0.1748958333333333,-0.4837037037037037],[-0.15114583333333337,-0.4729629629629629],[-0.1273958333333333,-0.46222222222222226],[-0.09114583333333333,-0.46055555555555555],[-0.04510416666666662,-0.49000000000000005],[-0.0010416666666666667,-0.5422222222222223],[0.06072916666666662,-0.5796296296296296],[0.11437499999999995,-0.5998148148148148],[0.15729166666666666,-0.61],[0.1678124999999999,-0.6392592592592592],[0.2021874999999999,-0.6757407407407408],[0.2021874999999999,-0.6757407407407408],[0.20208333333333334,-0.687962962962963],[0.2179166666666667,-0.7118518518518518],[0.2337500000000001,-0.7357407407407408],[0.21302083333333333,-0.7287037037037037],[0.20031249999999995,-0.7207407407407407],[0.17552083333333332,-0.7337037037037036],[0.1540625000000001,-0.7388888888888889],[0.1540625000000001,-0.7388888888888889],[0.14364583333333342,-0.7346296296296296],[0.1570833333333333,-0.7222222222222222],[0.1466666666666666,-0.7025925925925925],[0.1466666666666666,-0.7025925925925925],[0.14552083333333338,-0.717037037037037],[0.15104166666666666,-0.7055555555555556],[0.15656249999999997,-0.6940740740740741],[0.17229166666666676,-0.6827777777777777],[0.18499999999999991,-0.6653703703703704],[0.18499999999999991,-0.6653703703703704],[0.19208333333333344,-0.6418518518518519],[0.19208333333333344,-0.6418518518518519],[0.2009375000000001,-0.6337037037037037],[0.2009375000000001,-0.6337037037037037],[0.209375,-0.6237037037037038],[0.209375,-0.6237037037037038],[0.20989583333333334,-0.62],[0.20989583333333334,-0.62],[0.20750000000000005,-0.605],[0.2125,-0.5907407407407408],[0.2125,-0.5907407407407408],[0.20208333333333334,-0.5907407407407408],[0.17062499999999994,-0.5805555555555556],[0.1515625,-0.5562962962962963],[0.1515625,-0.5562962962962963],[0.13010416666666677,-0.5477777777777778],[0.11500000000000009,-0.5274074074074074],[0.10458333333333343,-0.5037037037037037],[0.09427083333333333,-0.5012962962962962],[0.08447916666666658,-0.4662962962962963],[0.07760416666666667,-0.4425925925925926],[0.07760416666666667,-0.40407407407407403],[0.049687500000000044,-0.39592592592592596],[0.05677083333333333,-0.3622222222222223],[0.03208333333333328,-0.37222222222222223],[0.03697916666666667,-0.34888888888888886],[0.00916666666666662,-0.37092592592592594],[0.003958333333333286,-0.34629629629629627],[-0.00927083333333331,-0.34314814814814815],[-0.022500000000000023,-0.3685185185185185],[-0.02520833333333338,-0.37537037037037035],[-0.03854166666666667,-0.3925925925925926],[-0.02322916666666662,-0.37759259259259254],[-0.06572916666666669,-0.39814814814814814],[-0.08885416666666662,-0.3890740740740741],[-0.14114583333333333,-0.4087037037037037],[-0.16000000000000003,-0.38425925925925924],[-0.20906250000000004,-0.39759259259259255],[-0.2501041666666667,-0.3894444444444445],[-0.2501041666666667,-0.3894444444444445],[-0.2827083333333333,-0.3605555555555555],[-0.32697916666666665,-0.33537037037037043],[-0.3571875,-0.31074074074074076],[-0.4048958333333334,-0.3125925925925926],[-0.40875,-0.3146296296296296],[-0.40291666666666665,-0.31444444444444447],[-0.3892708333333334,-0.30333333333333334],[-0.38302083333333337,-0.31592592592592594],[-0.37770833333333337,-0.30111111111111116],[-0.37770833333333337,-0.30111111111111116],[-0.3723958333333333,-0.2862962962962963],[-0.40260416666666665,-0.3072222222222222],[-0.4270833333333333,-0.3412962962962963],[-0.453125,-0.3609259259259259],[-0.46208333333333335,-0.3574074074074074],[-0.4670833333333333,-0.34018518518518515],[-0.4817708333333333,-0.32518518518518524],[-0.49583333333333335,-0.3116666666666667],[-0.5204166666666666,-0.2890740740740741],[-0.5366666666666667,-0.2933333333333333],[-0.5541666666666667,-0.29500000000000004],[-0.5333333333333333,-0.2646296296296296],[-0.5333333333333333,-0.2646296296296296],[-0.5264583333333334,-0.25388888888888894],[-0.5044791666666667,-0.23148148148148148],[-0.47239583333333335,-0.19962962962962966],[-0.47239583333333335,-0.19962962962962966],[-0.4508333333333333,-0.21777777777777782],[-0.4015625,-0.21129629629629634],[-0.4015625,-0.21129629629629634],[-0.3498958333333333,-0.23851851851851855],[-0.3498958333333333,-0.23851851851851855],[-0.2911458333333333,-0.2294444444444444],[-0.2911458333333333,-0.2294444444444444],[-0.24020833333333336,-0.2168518518518519],[-0.24020833333333336,-0.2168518518518519],[-0.18854166666666666,-0.20611111111111113],[-0.18854166666666666,-0.20611111111111113],[-0.13989583333333327,-0.2064814814814815],[-0.13989583333333327,-0.2064814814814815],[-0.09791666666666667,-0.1940740740740741],[-0.09791666666666667,-0.1940740740740741],[-0.07562500000000003,-0.19722222222222222],[-0.07562500000000003,-0.19722222222222222],[-0.05499999999999995,-0.19685185185185186],[-0.05499999999999995,-0.19685185185185186],[-0.029375000000000047,-0.1559259259259259],[-0.029375000000000047,-0.1559259259259259],[-0.01593749999999995,-0.1361111111111111],[-0.01593749999999995,-0.1361111111111111],[-0.0068750000000000235,-0.09611111111111106],[-0.0068750000000000235,-0.09611111111111106],[-0.003854166666666714,-0.08111111111111113],[-0.003854166666666714,-0.08111111111111113],[0.007187499999999976,-0.06611111111111109],[0.007187499999999976,-0.06611111111111109],[0.01906249999999995,-0.05703703703703706],[0.01906249999999995,-0.05703703703703706],[0.03187500000000002,-0.044444444444444446],[0.03187500000000002,-0.044444444444444446],[0.07718749999999991,-0.0294444444444444],[0.07718749999999991,-0.0294444444444444],[0.11906249999999995,-0.03037037037037033],[0.11906249999999995,-0.03037037037037033],[0.1515625,-0.04870370370370362],[0.1515625,-0.04870370370370362],[0.1872916666666666,-0.06722222222222224],[0.1872916666666666,-0.06722222222222224],[0.20677083333333332,-0.0940740740740741],[0.20677083333333332,-0.0940740740740741],[0.21666666666666667,-0.10870370370370368],[0.21666666666666667,-0.10870370370370368],[0.24947916666666667,-0.1287037037037037],[0.24947916666666667,-0.1287037037037037],[0.2708333333333333,-0.1655555555555555],[0.2708333333333333,-0.1655555555555555],[0.29093749999999996,-0.19537037037037036],[0.29093749999999996,-0.19537037037037036],[0.31666666666666665,-0.20833333333333334],[0.31666666666666665,-0.20833333333333334],[0.3038541666666667,-0.21092592592592588],[0.3038541666666667,-0.21092592592592588],[0.3008333333333333,-0.1935185185185185],[0.3008333333333333,-0.1935185185185185],[0.2842708333333334,-0.1588888888888889],[0.2842708333333334,-0.1588888888888889],[0.2615624999999999,-0.1388888888888889],[0.2615624999999999,-0.1388888888888889],[0.22729166666666673,-0.10499999999999998],[0.22729166666666673,-0.10499999999999998],[0.21197916666666666,-0.09240740740740737],[0.21197916666666666,-0.09240740740740737],[0.17229166666666676,-0.07999999999999997],[0.17229166666666676,-0.07999999999999997],[0.1580208333333334,-0.06648148148148143],[0.1580208333333334,-0.06648148148148143],[0.1384375000000001,-0.06814814814814817],[0.1384375000000001,-0.06814814814814817],[0.11749999999999995,-0.07518518518518523],[0.09333333333333324,-0.09740740740740746],[0.09333333333333324,-0.09740740740740746],[0.07770833333333324,-0.11185185185185181],[0.05447916666666662,-0.13703703703703704],[0.03822916666666672,-0.16592592592592598],[0.03822916666666672,-0.16592592592592598],[0.03427083333333331,-0.20388888888888893],[0.036458333333333336,-0.2531481481481481],[0.04989583333333331,-0.30407407407407405],[0.058541666666666714,-0.37907407407407406],[0.06343749999999998,-0.4331481481481481],[0.07010416666666662,-0.49370370370370376],[0.09645833333333324,-0.5427777777777778],[0.10864583333333329,-0.6],[0.13166666666666677,-0.6527777777777778],[0.1506249999999999,-0.6892592592592592],[0.16958333333333328,-0.7257407407407407],[0.15583333333333324,-0.7283333333333334],[0.1525000000000001,-0.7292592592592593],[0.07572916666666671,-0.6644444444444445],[0.008958333333333356,-0.6072222222222222],[-0.07312500000000005,-0.5548148148148149],[-0.1482291666666666,-0.5124074074074074],[-0.21145833333333333,-0.45796296296296296],[-0.27406250000000004,-0.4125925925925926],[-0.3319791666666667,-0.36518518518518517],[-0.3958333333333333,-0.3277777777777778],[-0.4439583333333334,-0.2948148148148148],[-0.484375,-0.24129629629629631],[-0.46697916666666667,-0.2146296296296296],[-0.4588541666666667,-0.21500000000000005],[-0.4540625,-0.21185185185185182],[-0.450625,-0.20259259259259255],[-0.45822916666666663,-0.21388888888888888],[-0.4626041666666667,-0.22537037037037036],[-0.47708333333333336,-0.2222222222222222],[-0.485625,-0.20907407407407402],[-0.46541666666666665,-0.18185185185185182],[-0.48812500000000003,-0.20407407407407405],[-0.49802083333333336,-0.2059259259259259],[-0.49677083333333333,-0.18629629629629635],[-0.4859375,-0.1881481481481482],[-0.4761458333333334,-0.19592592592592595],[-0.4608333333333333,-0.19074074074074074],[-0.45593750000000005,-0.18648148148148147],[-0.45593750000000005,-0.18648148148148147],[-0.4382291666666667,-0.1925925925925926],[-0.43374999999999997,-0.18648148148148147],[-0.43374999999999997,-0.18648148148148147],[-0.4580208333333334,-0.19444444444444445],[-0.4453125,-0.1940740740740741],[-0.4454166666666667,-0.2140740740740741],[-0.4391666666666667,-0.20018518518518522],[-0.4391666666666667,-0.20018518518518522],[-0.4331249999999999,-0.1735185185185185],[-0.4219791666666667,-0.16129629629629633],[-0.41520833333333335,-0.15685185185185183],[-0.4,-0.13037037037037033],[-0.38312499999999994,-0.11944444444444445],[-0.3642708333333334,-0.08907407407407411],[-0.3342708333333333,-0.046296296296296294],[-0.321875,0.020740740740740823],[-0.31062500000000004,0.09833333333333337],[-0.28937499999999994,0.11333333333333341],[-0.2647916666666667,0.13851851851851843],[-0.23656250000000004,0.15611111111111103],[-0.21187499999999998,0.17685185185185184],[-0.17458333333333337,0.1579629629629629],[-0.14479166666666668,0.14629629629629629],[-0.10625,0.07925925925925917],[-0.07885416666666671,-0.0001851851851852273],[-0.04822916666666662,-0.09648148148148153],[-0.016458333333333287,-0.20333333333333337],[-0.016458333333333287,-0.20333333333333337],[0.018333333333333358,-0.28203703703703703],[0.04697916666666669,-0.37111111111111106],[0.04697916666666669,-0.37111111111111106],[0.05322916666666669,-0.42907407407407405],[0.05322916666666669,-0.42907407407407405],[0.0806250000000001,-0.4866666666666667],[0.0806250000000001,-0.4866666666666667],[0.07802083333333343,-0.5031481481481481],[0.10114583333333324,-0.547037037037037],[0.09958333333333323,-0.5375925925925926],[0.1056250000000001,-0.5574074074074075],[0.12989583333333338,-0.5664814814814815],[0.1540625000000001,-0.5483333333333333],[0.159375,-0.5446296296296297],[0.1616666666666667,-0.5418518518518519],[0.1712500000000001,-0.5333333333333333],[0.1632291666666667,-0.5283333333333333],[0.17781250000000004,-0.5651851851851851],[0.16666666666666666,-0.5746296296296296],[0.17739583333333328,-0.582962962962963],[0.18260416666666662,-0.5599999999999999],[0.16937499999999991,-0.5375925925925926],[0.1632291666666667,-0.5483333333333333],[0.14489583333333325,-0.5392592592592592],[0.14416666666666675,-0.5381481481481482],[0.1508333333333333,-0.5459259259259259],[0.16020833333333329,-0.5475925925925925],[0.165625,-0.5218518518518519],[0.1775000000000001,-0.5020370370370371],[0.1775000000000001,-0.5020370370370371],[0.19114583333333332,-0.5146296296296295],[0.20520833333333333,-0.5287037037037037],[0.20520833333333333,-0.5287037037037037],[0.2111458333333334,-0.5537037037037037],[0.2111458333333334,-0.5537037037037037],[0.22541666666666677,-0.5594444444444445],[0.2384375000000001,-0.5687037037037037],[0.23208333333333328,-0.5698148148148148],[0.23208333333333328,-0.5698148148148148],[0.2257291666666667,-0.570925925925926],[0.2257291666666667,-0.570925925925926],[0.18875000000000006,-0.5564814814814815],[0.18875000000000006,-0.5564814814814815],[0.15343749999999995,-0.544074074074074],[0.15343749999999995,-0.544074074074074],[0.10187499999999995,-0.5438888888888889],[0.10187499999999995,-0.5438888888888889],[0.07135416666666666,-0.5233333333333334],[0.07135416666666666,-0.5233333333333334],[0.034895833333333334,-0.49592592592592594],[0.02041666666666669,-0.44092592592592594],[0.02041666666666669,-0.44092592592592594],[-0.025,-0.4203703703703704],[-0.05510416666666664,-0.39648148148148155],[-0.05510416666666664,-0.39648148148148155],[-0.07114583333333328,-0.3787037037037037],[-0.08177083333333333,-0.3785185185185185],[-0.08177083333333333,-0.3785185185185185],[-0.08468749999999996,-0.38203703703703706],[-0.08468749999999996,-0.38203703703703706],[-0.08343750000000003,-0.40370370370370373],[-0.05927083333333331,-0.4111111111111111],[-0.05260416666666667,-0.4372222222222223],[-0.04718749999999995,-0.4690740740740741],[-0.05322916666666669,-0.5162962962962964],[-0.0484375,-0.53],[-0.04791666666666667,-0.5427777777777778],[-0.050416666666666644,-0.5524074074074075],[-0.058333333333333334,-0.5444444444444444],[-0.04770833333333328,-0.5659259259259259],[-0.04770833333333328,-0.5659259259259259],[-0.04229166666666669,-0.571111111111111],[-0.04864583333333338,-0.5651851851851851],[-0.05499999999999995,-0.5592592592592592],[-0.05687500000000002,-0.5431481481481482],[-0.058749999999999976,-0.5270370370370371],[-0.04083333333333338,-0.5216666666666666],[-0.022916666666666665,-0.5162962962962964],[0.004062499999999977,-0.5303703703703704],[0.0359375,-0.5537037037037037],[0.07125000000000009,-0.567037037037037],[0.11135416666666677,-0.5627777777777777],[0.15031249999999996,-0.5562962962962963],[0.17864583333333334,-0.554074074074074],[0.20760416666666662,-0.5664814814814815],[0.23635416666666675,-0.5814814814814815],[0.25010416666666657,-0.5981481481481481],[0.2686458333333334,-0.6303703703703704],[0.2686458333333334,-0.6303703703703704],[0.2615624999999999,-0.6374074074074074],[0.2615624999999999,-0.6374074074074074],[0.2713541666666667,-0.6181481481481482],[0.25812499999999994,-0.6157407407407407],[0.24770833333333328,-0.6125925925925926],[0.23708333333333323,-0.6188888888888888],[0.23708333333333323,-0.620925925925926],[0.23937499999999995,-0.6385185185185185],[0.24187500000000003,-0.6535185185185185],[0.23479166666666676,-0.6611111111111111],[0.22291666666666668,-0.6531481481481481],[0.22291666666666668,-0.6531481481481481],[0.22697916666666676,-0.6129629629629629],[0.20145833333333343,-0.5653703703703704],[0.19500000000000003,-0.5048148148148148],[0.18093750000000006,-0.4625925925925926],[0.17197916666666657,-0.4083333333333333],[0.16302083333333334,-0.35407407407407404],[0.14375,-0.28203703703703703],[0.12447916666666667,-0.20999999999999996],[0.11708333333333343,-0.1425925925925926],[0.10968749999999995,-0.07518518518518523],[0.11145833333333334,-0.05425925925925928],[0.12322916666666663,-0.041111111111111195],[0.1330208333333334,-0.04055555555555551],[0.1330208333333334,-0.04055555555555551],[0.1428124999999999,-0.04000000000000004],[0.13770833333333338,-0.05611111111111113],[0.1486458333333334,-0.060370370370370414],[0.1671875,-0.06407407407407412],[0.1857291666666666,-0.06777777777777783],[0.1857291666666666,-0.06777777777777783],[0.2053124999999999,-0.08648148148148146],[0.22333333333333344,-0.11240740740740739],[0.22937500000000005,-0.1259259259259259],[0.24177083333333324,-0.16111111111111112],[0.2537499999999999,-0.1705555555555556],[0.271875,-0.18277777777777776],[0.2913541666666667,-0.1824074074074074],[0.2947916666666667,-0.19388888888888886],[0.3154166666666666,-0.2096296296296296],[0.33604166666666657,-0.22537037037037036],[0.34343750000000006,-0.262037037037037],[0.3523958333333333,-0.29148148148148145],[0.35427083333333326,-0.3096296296296296],[0.3545833333333334,-0.32222222222222224],[0.3614583333333333,-0.3542592592592593],[0.35833333333333334,-0.3983333333333334],[0.3711458333333333,-0.43796296296296294],[0.38395833333333323,-0.47759259259259257],[0.3719791666666666,-0.5162962962962964],[0.35999999999999993,-0.5549999999999999],[0.35135416666666663,-0.5625925925925926],[0.34270833333333334,-0.5701851851851851],[0.3411458333333333,-0.5890740740740741],[0.3349999999999999,-0.597037037037037],[0.3349999999999999,-0.597037037037037],[0.32687499999999997,-0.5933333333333333],[0.3151041666666667,-0.585],[0.31364583333333323,-0.5892592592592593],[0.3147916666666667,-0.5998148148148148],[0.3147916666666667,-0.5998148148148148],[0.3147916666666667,-0.5998148148148148],[0.32354166666666656,-0.607037037037037],[0.32354166666666656,-0.607037037037037],[0.3245833333333332,-0.616111111111111],[0.3245833333333332,-0.616111111111111],[0.3363541666666668,-0.6255555555555555],[0.3363541666666668,-0.6255555555555555],[0.3454166666666666,-0.6181481481481482],[0.3454166666666666,-0.6181481481481482],[0.35187499999999994,-0.6459259259259259],[0.35187499999999994,-0.6459259259259259],[0.35666666666666674,-0.6942592592592592],[0.35666666666666674,-0.6942592592592592],[0.3553124999999999,-0.7385185185185186],[0.3553124999999999,-0.7385185185185186],[0.35999999999999993,-0.7685185185185185],[0.35999999999999993,-0.7685185185185185],[0.35999999999999993,-0.7685185185185185],[0.35999999999999993,-0.7685185185185185],[0.35999999999999993,-0.7685185185185185],[0.35999999999999993,-0.7685185185185185],[0.35999999999999993,-0.7685185185185185],[0.35999999999999993,-0.7685185185185185],[0.3460416666666667,-0.7974074074074075],[0.3460416666666667,-0.7974074074074075],[0.3238541666666668,-0.8105555555555556],[0.3238541666666668,-0.8105555555555556],[0.2830208333333334,-0.8098148148148149],[0.2830208333333334,-0.8098148148148149],[0.2625,-0.8150000000000001],[0.2625,-0.8150000000000001],[0.23718750000000005,-0.8012962962962963],[0.23718750000000005,-0.8012962962962963],[0.21510416666666668,-0.8225925925925925],[0.21510416666666668,-0.8225925925925925],[0.18583333333333343,-0.8103703703703704],[0.17177083333333343,-0.8024074074074075],[0.17312500000000006,-0.7887037037037037],[0.17312500000000006,-0.7887037037037037],[0.1759375000000001,-0.779074074074074],[0.1759375000000001,-0.779074074074074],[0.17416666666666672,-0.7738888888888888],[0.1820833333333333,-0.7820370370370371],[0.20864583333333328,-0.804074074074074],[0.2265625,-0.807962962962963],[0.25270833333333326,-0.8225925925925925],[0.2672916666666666,-0.8222222222222222],[0.27541666666666675,-0.8431481481481482],[0.26760416666666675,-0.8507407407407407],[0.25541666666666674,-0.8696296296296296],[0.24322916666666666,-0.8885185185185185],[0.23489583333333333,-0.8814814814814815],[0.2224999999999999,-0.8705555555555556],[0.20343749999999997,-0.845925925925926],[0.18041666666666673,-0.8316666666666667],[0.15510416666666677,-0.8422222222222222],[0.15510416666666677,-0.8422222222222222],[0.14708333333333337,-0.8331481481481481],[0.16052083333333325,-0.7822222222222222],[0.16052083333333325,-0.7822222222222222],[0.16875,-0.7653703703703704],[0.1814583333333334,-0.7359259259259259],[0.19416666666666677,-0.7064814814814815],[0.20416666666666666,-0.6796296296296296],[0.20614583333333342,-0.67],[0.21479166666666671,-0.674074074074074],[0.23104166666666662,-0.6748148148148148],[0.24291666666666673,-0.6474074074074074],[0.2507291666666667,-0.6246296296296296],[0.2507291666666667,-0.6246296296296296],[0.25906250000000003,-0.6005555555555556],[0.27239583333333334,-0.5085185185185186],[0.27458333333333323,-0.43259259259259264],[0.27843749999999995,-0.33925925925925926],[0.2820833333333333,-0.25462962962962965],[0.3,-0.18462962962962962],[0.3103125000000001,-0.09574074074074072]]","[[0.3932291666666667,-0.647037037037037,0.00020000028609956644],[0.4117708333333333,-0.6303703703703704,0.02030000019072986],[0.42916666666666664,-0.6251851851851852,0.0379999999999967],[0.4470833333333334,-0.6320370370370371,0.0512000002861015],[0.4470833333333334,-0.6320370370370371,0.06630000019073634],[0.4367708333333333,-0.6568518518518518,0.08299999999999841],[0.4384375000000001,-0.6587037037037037,0.09990000009536004],[0.4211458333333333,-0.6729629629629629,0.1163000001907335],[0.41124999999999995,-0.6883333333333334,0.13299999999999557],[0.3955208333333334,-0.6996296296296296,0.1496000003814686],[0.3797916666666666,-0.7109259259259259,0.16630000019073066],[0.36270833333333335,-0.7142592592592593,0.18299999999999272],[0.3393749999999999,-0.7222222222222222,0.19960000038146575],[0.31270833333333337,-0.7444444444444445,0.21630000019072781],[0.2855208333333332,-0.7546296296296297,0.2330000000000041],[0.2673958333333334,-0.7640740740740741,0.2496000003814629],[0.24666666666666662,-0.7844444444444445,0.266300000190725],[0.23947916666666677,-0.8033333333333333,0.28300000000000125],[0.23229166666666667,-0.8222222222222222,0.3033000001907311],[0.22541666666666677,-0.8361111111111111,0.3192000002861022],[0.22541666666666677,-0.8361111111111111,0.3404999999999916],[0.22687499999999997,-0.8361111111111111,0.3497000002861057],[0.2181250000000001,-0.8455555555555556,0.3663000001907335],[0.21666666666666667,-0.8546296296296296,0.38299999999999557],[0.21864583333333343,-0.8564814814814815,0.40160000038146393],[0.22062499999999996,-0.8583333333333333,0.41680000019073304],[0.22322916666666662,-0.8427777777777778,0.43290000009535845],[0.22583333333333327,-0.8272222222222222,0.4497000002861],[0.2289583333333333,-0.802962962962963,0.4694999999999965],[0.2256249999999999,-0.7890740740740741,0.48330000019073793],[0.22781250000000006,-0.7842592592592592,0.4997000002860972],[0.2345833333333334,-0.7853703703703704,0.5189000000953712],[0.23468749999999997,-0.7814814814814814,0.5332000002861008],[0.21666666666666667,-0.7737037037037037,0.5496000003814601],[0.20979166666666677,-0.7562962962962962,0.5663000001907363],[0.1728125000000001,-0.7150000000000001,0.5829000000953641],[0.12614583333333323,-0.6918518518518519,0.6014000000953672],[0.08479166666666677,-0.675,0.6163000001907335],[0.035000000000000024,-0.6511111111111112,0.6329000000953613],[-0.01270833333333338,-0.6235185185185185,0.6499000000953714],[-0.01270833333333338,-0.6235185185185185,0.6664000000953649],[-0.06468750000000002,-0.5790740740740741,0.6829999999999927],[-0.12447916666666667,-0.5622222222222223,0.7069000000953594],[-0.12447916666666667,-0.5622222222222223,0.7163000001907278],[-0.19156249999999997,-0.5337037037037037,0.7330000000000041],[-0.2367708333333333,-0.5127777777777778,0.7499000000953657],[-0.2867708333333333,-0.4690740740740741,0.766300000190725],[-0.30666666666666664,-0.4492592592592593,0.7831000003814665],[-0.2989583333333333,-0.4644444444444445,0.80140000009537],[-0.3023958333333333,-0.4553703703703703,0.817700000286095],[-0.3325000000000001,-0.4462962962962963,0.8455000000000013],[-0.3325000000000001,-0.4462962962962963,0.8539999999999992],[-0.3411458333333333,-0.43870370370370365,0.8664000000953678],[-0.3444791666666667,-0.4492592592592593,0.8848000001907366],[-0.36124999999999996,-0.4227777777777778,0.903499999999994],[-0.36781250000000004,-0.4016666666666666,0.920900000095358],[-0.37916666666666665,-0.38722222222222225,0.9354000000953704],[-0.3798958333333334,-0.39537037037037037,0.9495000000000005],[-0.380625,-0.4035185185185185,0.9683000001907374],[-0.38875000000000004,-0.4022222222222222,0.9843000001907285],[-0.3910416666666666,-0.41888888888888887,1.0002000002860996],[-0.3658333333333334,-0.43129629629629623,1.016200000286105],[-0.3411458333333333,-0.4351851851851852,1.032900000095367],[-0.32354166666666667,-0.415925925925926,1.04960000038146],[-0.2976041666666667,-0.4140740740740741,1.066200000286102],[-0.26979166666666665,-0.44351851851851853,1.0829000000953641],[-0.24093749999999994,-0.4625925925925926,1.1029999999999944],[-0.2079166666666667,-0.47314814814814815,1.1176000003814721],[-0.1748958333333333,-0.4837037037037037,1.1331000003814609],[-0.15114583333333337,-0.4729629629629629,1.1496000003814686],[-0.1273958333333333,-0.46222222222222226,1.1663000001907307],[-0.09114583333333333,-0.46055555555555555,1.1829000000953585],[-0.04510416666666662,-0.49000000000000005,1.201100000381473],[-0.0010416666666666667,-0.5422222222222223,1.2163000001907278],[0.06072916666666662,-0.5796296296296296,1.2329000000953698],[0.11437499999999995,-0.5998148148148148,1.249600000381463],[0.15729166666666666,-0.61,1.269999999999996],[0.1678124999999999,-0.6392592592592592,1.2847000002860938],[0.2021874999999999,-0.6757407407407408,1.3112000002860924],[0.2021874999999999,-0.6757407407407408,1.3183000001907317],[0.20208333333333334,-0.687962962962963,1.3329999999999984],[0.2179166666666667,-0.7118518518518518,1.351700000286101],[0.2337500000000001,-0.7357407407407408,1.3663000001907335],[0.21302083333333333,-0.7287037037037037,1.3829000000953613],[0.20031249999999995,-0.7207407407407407,1.4024000000953691],[0.17552083333333332,-0.7337037037037036,1.4176000003814693],[0.1540625000000001,-0.7388888888888889,1.4383000001907362],[0.1540625000000001,-0.7388888888888889,1.4544000000953616],[0.14364583333333342,-0.7346296296296296,1.4663000001907278],[0.1570833333333333,-0.7222222222222222,1.4831000003814694],[0.1466666666666666,-0.7025925925925925,1.5054999999999978],[0.1466666666666666,-0.7025925925925925,1.5164000000953592],[0.14552083333333338,-0.717037037037037,1.5330000000000013],[0.15104166666666666,-0.7055555555555556,1.5498000001907286],[0.15656249999999997,-0.6940740740740741,1.5663000001907363],[0.17229166666666676,-0.6827777777777777,1.583200000286098],[0.18499999999999991,-0.6653703703703704,1.601700000286101],[0.18499999999999991,-0.6653703703703704,1.6164000000953678],[0.19208333333333344,-0.6418518518518519,1.6331000003814609],[0.19208333333333344,-0.6418518518518519,1.6508000001907277],[0.2009375000000001,-0.6337037037037037,1.666400000095365],[0.2009375000000001,-0.6337037037037037,1.6831000003814722],[0.209375,-0.6237037037037038,1.6998000001907343],[0.209375,-0.6237037037037038,1.7163000001907278],[0.20989583333333334,-0.62,1.733000000000004],[0.20989583333333334,-0.62,1.749600000381463],[0.20750000000000005,-0.605,1.766300000190725],[0.2125,-0.5907407407407408,1.78740000009536],[0.2125,-0.5907407407407408,1.79960000038146],[0.20208333333333334,-0.5907407407407408,1.8163000001907363],[0.17062499999999994,-0.5805555555555556,1.8329999999999984],[0.1515625,-0.5562962962962963,1.8496000003814714],[0.1515625,-0.5562962962962963,1.8662000002860992],[0.13010416666666677,-0.5477777777777778,1.8829000000953613],[0.11500000000000009,-0.5274074074074074,1.8998000001907371],[0.10458333333333343,-0.5037037037037037,1.9163000001907307],[0.09427083333333333,-0.5012962962962962,1.9329000000953585],[0.08447916666666658,-0.4662962962962963,1.9496000003814657],[0.07760416666666667,-0.4425925925925926,1.966400000095362],[0.07760416666666667,-0.40407407407407403,1.983000000000004],[0.049687500000000044,-0.39592592592592596,2.0006000003814677],[0.05677083333333333,-0.3622222222222223,2.016700000286093],[0.03208333333333328,-0.37222222222222223,2.034499999999994],[0.03697916666666667,-0.34888888888888886,2.04960000038146],[0.00916666666666662,-0.37092592592592594,2.067999999999998],[0.003958333333333286,-0.34629629629629627,2.0844999999999914],[-0.00927083333333331,-0.34314814814814815,2.0997000002861057],[-0.022500000000000023,-0.3685185185185185,2.1162000002860992],[-0.02520833333333338,-0.37537037037037035,2.1345000000000027],[-0.03854166666666667,-0.3925925925925926,2.1495000000000033],[-0.02322916666666662,-0.37759259259259254,2.166499999999999],[-0.06572916666666669,-0.39814814814814814,2.1829999999999927],[-0.08885416666666662,-0.3890740740740741,2.2014000000953615],[-0.14114583333333333,-0.4087037037037037,2.216300000190728],[-0.16000000000000003,-0.38425925925925924,2.233300000190738],[-0.20906250000000004,-0.39759259259259255,2.250300000190734],[-0.2501041666666667,-0.3894444444444445,2.2668000001907274],[-0.2501041666666667,-0.3894444444444445,2.2886000003814644],[-0.2827083333333333,-0.3605555555555555,2.2997000002860943],[-0.32697916666666665,-0.33537037037037043,2.3167000002861045],[-0.3571875,-0.31074074074074076,2.332900000095364],[-0.4048958333333334,-0.3125925925925926,2.3496000003814714],[-0.40875,-0.3146296296296296,2.3679000000953607],[-0.40291666666666665,-0.31444444444444447,2.383200000286095],[-0.3892708333333334,-0.30333333333333334,2.4014999999999986],[-0.38302083333333337,-0.31592592592592594,2.416400000095365],[-0.37770833333333337,-0.30111111111111116,2.4329000000953585],[-0.37770833333333337,-0.30111111111111116,2.4496000003814657],[-0.3723958333333333,-0.2862962962962963,2.466300000190728],[-0.40260416666666665,-0.3072222222222222,2.483400000095358],[-0.4270833333333333,-0.3412962962962963,2.502900000095366],[-0.453125,-0.3609259259259259,2.52030000019073],[-0.46208333333333335,-0.3574074074074074,2.536600000381469],[-0.4670833333333333,-0.34018518518518515,2.5513000001907358],[-0.4817708333333333,-0.32518518518518524,2.566200000286102],[-0.49583333333333335,-0.3116666666666667,2.582900000095364],[-0.5204166666666666,-0.2890740740740741,2.6018000001907353],[-0.5366666666666667,-0.2933333333333333,2.6164000000953678],[-0.5541666666666667,-0.29500000000000004,2.6334000000953637],[-0.5333333333333333,-0.2646296296296296,2.6514000000953644],[-0.5333333333333333,-0.2646296296296296,2.6663000001907307],[-0.5264583333333334,-0.25388888888888894,2.6829999999999927],[-0.5044791666666667,-0.23148148148148148,2.703800000190725],[-0.47239583333333335,-0.19962962962962966,2.719400000095362],[-0.47239583333333335,-0.19962962962962966,2.73290000009537],[-0.4508333333333333,-0.21777777777777782,2.749600000381463],[-0.4015625,-0.21129629629629634,2.783300000190735],[-0.4015625,-0.21129629629629634,2.793300000190726],[-0.3498958333333333,-0.23851851851851855,2.8190000000000026],[-0.3498958333333333,-0.23851851851851855,2.8256000003814705],[-0.2911458333333333,-0.2294444444444444,2.8504999999999967],[-0.2911458333333333,-0.2294444444444444,2.8589999999999947],[-0.24020833333333336,-0.2168518518518519,2.8854999999999933],[-0.24020833333333336,-0.2168518518518519,2.8923000001907297],[-0.18854166666666666,-0.20611111111111113,2.91860000038146],[-0.18854166666666666,-0.20611111111111113,2.925700000286099],[-0.13989583333333327,-0.2064814814814815,2.9522000002860977],[-0.13989583333333327,-0.2064814814814815,2.959700000286105],[-0.09791666666666667,-0.1940740740740741,2.985500000000002],[-0.09791666666666667,-0.1940740740740741,2.9921000003814697],[-0.07562500000000003,-0.19722222222222222,3.016999999999996],[-0.07562500000000003,-0.19722222222222222,3.024800000190737],[-0.05499999999999995,-0.19685185185185186,3.0519999999999925],[-0.05499999999999995,-0.19685185185185186,3.059200000286097],[-0.029375000000000047,-0.1559259259259259,3.0857000002860957],[-0.029375000000000047,-0.1559259259259259,3.092500000000001],[-0.01593749999999995,-0.1361111111111111,3.1169999999999902],[-0.01593749999999995,-0.1361111111111111,3.125700000286102],[-0.0068750000000000235,-0.09611111111111106,3.1522000002861006],[-0.0068750000000000235,-0.09611111111111106,3.1593000001907257],[-0.003854166666666714,-0.08111111111111113,3.1859000000953586],[-0.003854166666666714,-0.08111111111111113,3.1928000001907293],[0.007187499999999976,-0.06611111111111109,3.2169999999999987],[0.007187499999999976,-0.06611111111111109,3.2249999999999943],[0.01906249999999995,-0.05703703703703706,3.2521000003814606],[0.01906249999999995,-0.05703703703703706,3.259600000381468],[0.03187500000000002,-0.044444444444444446,3.285499999999999],[0.03187500000000002,-0.044444444444444446,3.2950000000000017],[0.07718749999999991,-0.0294444444444444,3.319100000381468],[0.07718749999999991,-0.0294444444444444,3.325900000095359],[0.11906249999999995,-0.03037037037037033,3.352100000381469],[0.11906249999999995,-0.03037037037037033,3.3601000003814647],[0.1515625,-0.04870370370370362,3.385400000095359],[0.1515625,-0.04870370370370362,3.394300000190725],[0.1872916666666666,-0.06722222222222224,3.4193000001907308],[0.1872916666666666,-0.06722222222222224,3.4262000002861015],[0.20677083333333332,-0.0940740740740741,3.4521000003814635],[0.20677083333333332,-0.0940740740740741,3.4609000000953642],[0.21666666666666667,-0.10870370370370368,3.4864999999999924],[0.21666666666666667,-0.10870370370370368,3.4942000002860993],[0.24947916666666667,-0.1287037037037037,3.519300000190725],[0.24947916666666667,-0.1287037037037037,3.527300000190735],[0.2708333333333333,-0.1655555555555555,3.5524000000953606],[0.2708333333333333,-0.1655555555555555,3.560200000286102],[0.29093749999999996,-0.19537037037037036,3.5853000001907276],[0.29093749999999996,-0.19537037037037036,3.5929000000953693],[0.31666666666666665,-0.20833333333333334,3.6222000002860995],[0.31666666666666665,-0.20833333333333334,