inst1_resp.keys,inst1_resp.rt,calibrationMouse.x,calibrationMouse.y,calibrationMouse.leftButton,calibrationMouse.midButton,calibrationMouse.rightButton,calibrationClick.x,calibrationClick.y,calibrationClick.leftButton,calibrationClick.midButton,calibrationClick.rightButton,calibrationClick.clicked_name,trialsc.thisRepN,trialsc.thisTrialN,trialsc.thisN,trialsc.thisIndex,trialsc.ran,calibration_x,calibration_y,participant,session,date,expName,psychopyVersion,OS,frameRate,ScreenRes_pixels,Camera_pixels,mouse_2.x,mouse_2.y,mouse_2.leftButton,mouse_2.midButton,mouse_2.rightButton,mouse_2.time,mouse_2.clicked_name,mouse.x,mouse.y,mouse.leftButton,mouse.midButton,mouse.rightButton,mouse.time,mouse.clicked_name,Choice,Trial,TrialDuration,MOUSE_GAZE,ET_GAZE,ET_GAZE_x_T,time,unixTime,ET_GAZE_NF,Loc_Bus_label,Loc_Metro_label,Loc_RH_label,Loc_Cost_label,Loc_Travel_label,Loc_Comfort_label,Loc_Bus_cost,Loc_Metro_cost,Loc_RH_cost,Loc_Bus_travel,Loc_Metro_travel,Loc_RH_travel,Loc_Bus_comfort,Loc_Metro_comfort,Loc_RH_comfort,trials.thisRepN,trials.thisTrialN,trials.thisN,trials.thisIndex,trials.ran,Block,Device,RH_cost,RH_travel_time,RH_Comfort,metro_cost,metro_travel_time,metro_Comfort,Bus_cost,Bus_travel_time,Bus_Comfort
space,2.2797,0.086458333,-0.157407407,1,0,0,0.002083333,-0.331481481,1,0,0,calibration_square,0,0,0,10,1,0,-0.33,13,001,2024-11-21_12h45.41.910,Attention_exp_legacy,2023.1.0,Win32,60.24096386,,,,,,,,,,,,,,,,,,,,,,,,,,,,,,,,,,,,,,,,,,,,,,,,,,,,,,,,
,,,,,,,0.001041667,0.675925926,1,0,0,calibration_square,0,1,1,13,1,0,0.67,13,001,2024-11-21_12h45.41.910,Attention_exp_legacy,2023.1.0,Win32,60.24096386,,,,,,,,,,,,,,,,,,,,,,,,,,,,,,,,,,,,,,,,,,,,,,,,,,,,,,,,
,,,,,,,-0.673958333,0.011111111,1,0,0,,0,2,2,2,1,-0.67,0,13,001,2024-11-21_12h45.41.910,Attention_exp_legacy,2023.1.0,Win32,60.24096386,,,,,,,,,,,,,,,,,,,,,,,,,,,,,,,,,,,,,,,,,,,,,,,,,,,,,,,,
,,,,,,,0.342708333,-0.324074074,1,0,0,,0,3,3,15,1,0.33,-0.33,13,001,2024-11-21_12h45.41.910,Attention_exp_legacy,2023.1.0,Win32,60.24096386,,,,,,,,,,,,,,,,,,,,,,,,,,,,,,,,,,,,,,,,,,,,,,,,,,,,,,,,
,,,,,,,-0.676041667,-0.331481481,1,0,0,calibration_square,0,4,4,1,1,-0.67,-0.33,13,001,2024-11-21_12h45.41.910,Attention_exp_legacy,2023.1.0,Win32,60.24096386,,,,,,,,,,,,,,,,,,,,,,,,,,,,,,,,,,,,,,,,,,,,,,,,,,,,,,,,
,,,,,,,0.33125,0.327777778,1,0,0,calibration_square,0,5,5,17,1,0.33,0.33,13,001,2024-11-21_12h45.41.910,Attention_exp_legacy,2023.1.0,Win32,60.24096386,,,,,,,,,,,,,,,,,,,,,,,,,,,,,,,,,,,,,,,,,,,,,,,,,,,,,,,,
,,,,,,,-0.665625,0.325925926,1,0,0,calibration_square,0,6,6,3,1,-0.67,0.33,13,001,2024-11-21_12h45.41.910,Attention_exp_legacy,2023.1.0,Win32,60.24096386,,,,,,,,,,,,,,,,,,,,,,,,,,,,,,,,,,,,,,,,,,,,,,,,,,,,,,,,
,,,,,,,0.677083333,0.675925926,1,0,0,calibration_square,0,7,7,19,1,0.67,0.67,13,001,2024-11-21_12h45.41.910,Attention_exp_legacy,2023.1.0,Win32,60.24096386,,,,,,,,,,,,,,,,,,,,,,,,,,,,,,,,,,,,,,,,,,,,,,,,,,,,,,,,
,,,,,,,0.332291667,-0.003703704,1,0,0,calibration_square,0,8,8,16,1,0.33,0,13,001,2024-11-21_12h45.41.910,Attention_exp_legacy,2023.1.0,Win32,60.24096386,,,,,,,,,,,,,,,,,,,,,,,,,,,,,,,,,,,,,,,,,,,,,,,,,,,,,,,,
,,,,,,,0.33125,-0.661111111,1,0,0,calibration_square,0,9,9,14,1,0.33,-0.67,13,001,2024-11-21_12h45.41.910,Attention_exp_legacy,2023.1.0,Win32,60.24096386,,,,,,,,,,,,,,,,,,,,,,,,,,,,,,,,,,,,,,,,,,,,,,,,,,,,,,,,
,,,,,,,-0.323958333,0.337037037,1,0,0,calibration_square,0,10,10,7,1,-0.33,0.33,13,001,2024-11-21_12h45.41.910,Attention_exp_legacy,2023.1.0,Win32,60.24096386,,,,,,,,,,,,,,,,,,,,,,,,,,,,,,,,,,,,,,,,,,,,,,,,,,,,,,,,
,,,,,,,-0.007291667,-0.009259259,1,0,0,calibration_square,0,11,11,11,1,0,0,13,001,2024-11-21_12h45.41.910,Attention_exp_legacy,2023.1.0,Win32,60.24096386,,,,,,,,,,,,,,,,,,,,,,,,,,,,,,,,,,,,,,,,,,,,,,,,,,,,,,,,
,,,,,,,-0.330208333,-0.337037037,1,0,0,calibration_square,0,12,12,5,1,-0.33,-0.33,13,001,2024-11-21_12h45.41.910,Attention_exp_legacy,2023.1.0,Win32,60.24096386,,,,,,,,,,,,,,,,,,,,,,,,,,,,,,,,,,,,,,,,,,,,,,,,,,,,,,,,
,,,,,,,0.328125,0.687037037,1,0,0,,0,13,13,18,1,0.33,0.67,13,001,2024-11-21_12h45.41.910,Attention_exp_legacy,2023.1.0,Win32,60.24096386,,,,,,,,,,,,,,,,,,,,,,,,,,,,,,,,,,,,,,,,,,,,,,,,,,,,,,,,
,,,,,,,-0.328125,-0.675925926,1,0,0,calibration_square,0,14,14,4,1,-0.33,-0.67,13,001,2024-11-21_12h45.41.910,Attention_exp_legacy,2023.1.0,Win32,60.24096386,,,,,,,,,,,,,,,,,,,,,,,,,,,,,,,,,,,,,,,,,,,,,,,,,,,,,,,,
,,,,,,,0.666666667,-0.659259259,1,0,0,,0,15,15,20,1,0.67,-0.67,13,001,2024-11-21_12h45.41.910,Attention_exp_legacy,2023.1.0,Win32,60.24096386,,,,,,,,,,,,,,,,,,,,,,,,,,,,,,,,,,,,,,,,,,,,,,,,,,,,,,,,
,,,,,,,0.005208333,0.325925926,1,0,0,calibration_square,0,16,16,12,1,0,0.33,13,001,2024-11-21_12h45.41.910,Attention_exp_legacy,2023.1.0,Win32,60.24096386,,,,,,,,,,,,,,,,,,,,,,,,,,,,,,,,,,,,,,,,,,,,,,,,,,,,,,,,
,,,,,,,-0.325,0.668518519,1,0,0,calibration_square,0,17,17,8,1,-0.33,0.67,13,001,2024-11-21_12h45.41.910,Attention_exp_legacy,2023.1.0,Win32,60.24096386,,,,,,,,,,,,,,,,,,,,,,,,,,,,,,,,,,,,,,,,,,,,,,,,,,,,,,,,
,,,,,,,-0.009375,-0.67962963,1,0,0,calibration_square,0,18,18,9,1,0,-0.67,13,001,2024-11-21_12h45.41.910,Attention_exp_legacy,2023.1.0,Win32,60.24096386,,,,,,,,,,,,,,,,,,,,,,,,,,,,,,,,,,,,,,,,,,,,,,,,,,,,,,,,
,,,,,,,-0.6625,-0.664814815,1,0,0,calibration_square,0,19,19,0,1,-0.67,-0.67,13,001,2024-11-21_12h45.41.910,Attention_exp_legacy,2023.1.0,Win32,60.24096386,,,,,,,,,,,,,,,,,,,,,,,,,,,,,,,,,,,,,,,,,,,,,,,,,,,,,,,,
,,,,,,,-0.342708333,0.003703704,1,0,0,,0,20,20,6,1,-0.33,0,13,001,2024-11-21_12h45.41.910,Attention_exp_legacy,2023.1.0,Win32,60.24096386,,,,,,,,,,,,,,,,,,,,,,,,,,,,,,,,,,,,,,,,,,,,,,,,,,,,,,,,
,,,,,,,,,,,,,,,,,,,,13,001,2024-11-21_12h45.41.910,Attention_exp_legacy,2023.1.0,Win32,60.24096386,"[1920,1080]","[640,480]",[0.057291666666666664],[-0.5185185185185185],[1],[0],[0],[1.4317000002860993],"[""StartButton""]",[-0.04375],[0.17592592592592593],[1],[0],[0],[6.943799999713903],"[""Bus_label""]",Bus_label,1,7.9737,"[[0.14895833333333333,0.19444444444444445],[0.14895833333333333,0.19444444444444445],[0.14895833333333333,0.19444444444444445],[0.14895833333333333,0.19444444444444445],[0.14895833333333333,0.19444444444444445],[0.14895833333333333,0.19444444444444445],[0.14895833333333333,0.19444444444444445],[0.14895833333333333,0.19444444444444445],[0.14895833333333333,0.19444444444444445],[0.14895833333333333,0.19444444444444445],[0.14895833333333333,0.19444444444444445],[0.14895833333333333,0.19444444444444445],[0.14895833333333333,0.19444444444444445],[0.14895833333333333,0.19444444444444445],[0.14895833333333333,0.19444444444444445],[0.14895833333333333,0.19444444444444445],[0.14895833333333333,0.19444444444444445],[0.14895833333333333,0.19444444444444445],[0.14895833333333333,0.19444444444444445],[0.14895833333333333,0.19444444444444445],[0.14895833333333333,0.19444444444444445],[0.14791666666666667,0.19444444444444445],[0.14166666666666666,0.19444444444444445],[0.12916666666666668,0.18518518518518517],[0.128125,0.18333333333333332],[0.12291666666666666,0.17777777777777778],[0.12083333333333333,0.17592592592592593],[0.115625,0.17037037037037037],[0.11354166666666667,0.17037037037037037],[0.10833333333333334,0.16666666666666666],[0.10729166666666666,0.1648148148148148],[0.10208333333333333,0.16296296296296298],[0.10208333333333333,0.16111111111111112],[0.09583333333333334,0.15925925925925927],[0.09479166666666666,0.1574074074074074],[0.09166666666666666,0.1574074074074074],[0.08854166666666667,0.1574074074074074],[0.08645833333333333,0.1574074074074074],[0.08541666666666667,0.1574074074074074],[0.08229166666666667,0.1574074074074074],[0.08229166666666667,0.1574074074074074],[0.08020833333333334,0.1574074074074074],[0.08020833333333334,0.1574074074074074],[0.08020833333333334,0.1574074074074074],[0.08020833333333334,0.1574074074074074],[0.08020833333333334,0.1574074074074074],[0.08020833333333334,0.1574074074074074],[0.08020833333333334,0.1574074074074074],[0.08020833333333334,0.1574074074074074],[0.08020833333333334,0.1574074074074074],[0.08020833333333334,0.1574074074074074],[0.08020833333333334,0.1574074074074074],[0.08020833333333334,0.1574074074074074],[0.08020833333333334,0.1574074074074074],[0.08020833333333334,0.1574074074074074],[0.07916666666666666,0.1574074074074074],[0.07708333333333334,0.1574074074074074],[0.07604166666666666,0.15555555555555556],[0.07604166666666666,0.15555555555555556],[0.07395833333333333,0.15185185185185185],[0.06979166666666667,0.14814814814814814],[0.065625,0.14074074074074075],[0.06145833333333333,0.12777777777777777],[0.057291666666666664,0.12222222222222222],[0.05416666666666667,0.11481481481481481],[0.04895833333333333,0.10555555555555556],[0.046875,0.10185185185185185],[0.040625,0.0962962962962963],[0.03854166666666667,0.09444444444444444],[0.030208333333333334,0.09074074074074075],[0.020833333333333332,0.08703703703703704],[0.017708333333333333,0.08518518518518518],[0.010416666666666666,0.08333333333333333],[0.005208333333333333,0.07962962962962963],[0.0010416666666666667,0.07777777777777778],[-0.003125,0.07407407407407407],[-0.007291666666666667,0.06851851851851852],[-0.013541666666666667,0.06481481481481481],[-0.015625,0.06296296296296296],[-0.020833333333333332,0.05925925925925926],[-0.026041666666666668,0.05555555555555555],[-0.028125,0.053703703703703705],[-0.03229166666666667,0.05185185185185185],[-0.034375,0.05],[-0.0375,0.04814814814814815],[-0.042708333333333334,0.046296296296296294],[-0.046875,0.044444444444444446],[-0.051041666666666666,0.044444444444444446],[-0.05520833333333333,0.04259259259259259],[-0.058333333333333334,0.04259259259259259],[-0.06145833333333333,0.04259259259259259],[-0.06354166666666666,0.04259259259259259],[-0.06354166666666666,0.04259259259259259],[-0.06354166666666666,0.04259259259259259],[-0.06354166666666666,0.04259259259259259],[-0.06354166666666666,0.04259259259259259],[-0.06354166666666666,0.04259259259259259],[-0.06354166666666666,0.04259259259259259],[-0.06354166666666666,0.04259259259259259],[-0.06354166666666666,0.04259259259259259],[-0.06354166666666666,0.04259259259259259],[-0.06354166666666666,0.04259259259259259],[-0.06354166666666666,0.04259259259259259],[-0.06354166666666666,0.04259259259259259],[-0.06354166666666666,0.04259259259259259],[-0.06354166666666666,0.04259259259259259],[-0.06354166666666666,0.04259259259259259],[-0.06354166666666666,0.04259259259259259],[-0.06354166666666666,0.04259259259259259],[-0.06354166666666666,0.04259259259259259],[-0.06354166666666666,0.04259259259259259],[-0.06145833333333333,0.044444444444444446],[-0.046875,0.053703703703703705],[-0.019791666666666666,0.07592592592592592],[-0.011458333333333333,0.08148148148148149],[0.009375,0.09814814814814815],[0.017708333333333333,0.1037037037037037],[0.022916666666666665,0.10555555555555556],[0.027083333333333334,0.10555555555555556],[0.030208333333333334,0.10555555555555556],[0.035416666666666666,0.10555555555555556],[0.03958333333333333,0.10555555555555556],[0.03958333333333333,0.10555555555555556],[0.040625,0.10555555555555556],[0.040625,0.10555555555555556],[0.04375,0.10555555555555556],[0.04895833333333333,0.10555555555555556],[0.05625,0.11296296296296296],[0.06354166666666666,0.11666666666666667],[0.06770833333333333,0.12037037037037036],[0.07291666666666667,0.12407407407407407],[0.075,0.1259259259259259],[0.07708333333333334,0.12777777777777777],[0.07916666666666666,0.12962962962962962],[0.08541666666666667,0.13333333333333333],[0.09375,0.13703703703703704],[0.10104166666666667,0.13703703703703704],[0.10729166666666666,0.13703703703703704],[0.11145833333333334,0.13703703703703704],[0.12395833333333334,0.12407407407407407],[0.12604166666666666,0.1111111111111111],[0.13125,0.08888888888888889],[0.1375,0.05740740740740741],[0.14270833333333333,0.03333333333333333],[0.146875,0.014814814814814815],[0.15,0.003703703703703704],[0.15208333333333332,0],[0.153125,-0.003703703703703704],[0.153125,-0.003703703703703704],[0.153125,-0.003703703703703704],[0.153125,-0.003703703703703704],[0.153125,-0.003703703703703704],[0.153125,-0.003703703703703704],[0.153125,-0.003703703703703704],[0.153125,-0.003703703703703704],[0.153125,-0.003703703703703704],[0.153125,-0.003703703703703704],[0.153125,-0.003703703703703704],[0.153125,-0.003703703703703704],[0.153125,-0.007407407407407408],[0.153125,-0.012962962962962963],[0.15,-0.016666666666666666],[0.14583333333333334,-0.024074074074074074],[0.13958333333333334,-0.03333333333333333],[0.13333333333333333,-0.044444444444444446],[0.125,-0.06111111111111111],[0.11979166666666667,-0.06851851851851852],[0.11458333333333333,-0.07777777777777778],[0.1125,-0.08333333333333333],[0.11041666666666666,-0.08518518518518518],[0.10833333333333334,-0.08703703703703704],[0.10833333333333334,-0.08703703703703704],[0.10729166666666666,-0.08703703703703704],[0.10729166666666666,-0.08703703703703704],[0.10625,-0.08703703703703704],[0.10520833333333333,-0.08703703703703704],[0.10520833333333333,-0.08703703703703704],[0.10520833333333333,-0.08703703703703704],[0.10520833333333333,-0.08703703703703704],[0.10520833333333333,-0.08703703703703704],[0.10416666666666667,-0.08703703703703704],[0.10416666666666667,-0.08703703703703704],[0.10416666666666667,-0.08703703703703704],[0.10416666666666667,-0.08703703703703704],[0.10416666666666667,-0.08518518518518518],[0.10416666666666667,-0.08333333333333333],[0.10416666666666667,-0.07962962962962963],[0.10416666666666667,-0.07962962962962963],[0.10416666666666667,-0.07962962962962963],[0.10416666666666667,-0.07962962962962963],[0.103125,-0.07777777777777778],[0.103125,-0.07777777777777778],[0.103125,-0.07777777777777778],[0.103125,-0.07777777777777778],[0.103125,-0.07777777777777778],[0.103125,-0.07777777777777778],[0.103125,-0.07777777777777778],[0.103125,-0.07407407407407407],[0.103125,-0.07222222222222222],[0.10104166666666667,-0.06666666666666667],[0.1,-0.06666666666666667],[0.1,-0.06666666666666667],[0.09895833333333333,-0.06481481481481481],[0.09583333333333334,-0.05925925925925926],[0.09479166666666666,-0.05740740740740741],[0.09270833333333334,-0.053703703703703705],[0.090625,-0.05],[0.08958333333333333,-0.04814814814814815],[0.0875,-0.046296296296296294],[0.084375,-0.04259259259259259],[0.08229166666666667,-0.03888888888888889],[0.08125,-0.037037037037037035],[0.078125,-0.03518518518518519],[0.075,-0.03333333333333333],[0.07291666666666667,-0.03333333333333333],[0.07083333333333333,-0.03148148148148148],[0.06770833333333333,-0.03148148148148148],[0.065625,-0.02962962962962963],[0.065625,-0.02962962962962963],[0.065625,-0.02962962962962963],[0.06458333333333334,-0.02962962962962963],[0.06458333333333334,-0.02962962962962963],[0.06458333333333334,-0.02962962962962963],[0.06458333333333334,-0.02962962962962963],[0.06458333333333334,-0.02962962962962963],[0.06458333333333334,-0.02962962962962963],[0.06458333333333334,-0.02962962962962963],[0.06458333333333334,-0.02962962962962963],[0.06458333333333334,-0.02962962962962963],[0.06458333333333334,-0.02962962962962963],[0.06458333333333334,-0.02962962962962963],[0.06458333333333334,-0.02962962962962963],[0.06458333333333334,-0.02962962962962963],[0.06458333333333334,-0.02962962962962963],[0.06458333333333334,-0.02962962962962963],[0.06458333333333334,-0.02962962962962963],[0.06458333333333334,-0.02962962962962963],[0.06458333333333334,-0.02962962962962963],[0.06458333333333334,-0.02962962962962963],[0.06458333333333334,-0.02962962962962963],[0.06458333333333334,-0.02962962962962963],[0.06458333333333334,-0.02962962962962963],[0.06458333333333334,-0.02962962962962963],[0.06458333333333334,-0.02962962962962963],[0.06458333333333334,-0.02962962962962963],[0.06458333333333334,-0.02962962962962963],[0.06458333333333334,-0.02962962962962963],[0.06458333333333334,-0.02962962962962963],[0.06458333333333334,-0.02962962962962963],[0.06458333333333334,-0.02962962962962963],[0.06458333333333334,-0.02962962962962963],[0.06458333333333334,-0.02962962962962963],[0.06458333333333334,-0.02962962962962963],[0.06458333333333334,-0.02962962962962963],[0.06458333333333334,-0.02962962962962963],[0.0625,-0.025925925925925925],[0.06145833333333333,-0.024074074074074074],[0.06041666666666667,-0.022222222222222223],[0.059375,-0.020370370370370372],[0.059375,-0.020370370370370372],[0.058333333333333334,-0.020370370370370372],[0.058333333333333334,-0.020370370370370372],[0.058333333333333334,-0.020370370370370372],[0.058333333333333334,-0.020370370370370372],[0.058333333333333334,-0.020370370370370372],[0.058333333333333334,-0.018518518518518517],[0.058333333333333334,-0.018518518518518517],[0.05520833333333333,-0.014814814814814815],[0.05416666666666667,-0.011111111111111112],[0.052083333333333336,-0.005555555555555556],[0.04791666666666667,0.001851851851851852],[0.046875,0.005555555555555556],[0.04583333333333333,0.005555555555555556],[0.04583333333333333,0.007407407407407408],[0.04479166666666667,0.007407407407407408],[0.04479166666666667,0.007407407407407408],[0.04479166666666667,0.007407407407407408],[0.04479166666666667,0.007407407407407408],[0.04479166666666667,0.007407407407407408],[0.04479166666666667,0.007407407407407408],[0.04479166666666667,0.007407407407407408],[0.04479166666666667,0.007407407407407408],[0.04479166666666667,0.007407407407407408],[0.04479166666666667,0.007407407407407408],[0.04479166666666667,0.007407407407407408],[0.04479166666666667,0.007407407407407408],[0.04479166666666667,0.007407407407407408],[0.04479166666666667,0.007407407407407408],[0.04479166666666667,0.007407407407407408],[0.04479166666666667,0.007407407407407408],[0.04479166666666667,0.007407407407407408],[0.04479166666666667,0.007407407407407408],[0.04375,0.011111111111111112],[0.04375,0.012962962962962963],[0.04375,0.012962962962962963],[0.04375,0.016666666666666666],[0.04375,0.018518518518518517],[0.04375,0.022222222222222223],[0.04375,0.025925925925925925],[0.04375,0.027777777777777776],[0.04375,0.03518518518518519],[0.04375,0.03518518518518519],[0.04375,0.03888888888888889],[0.04375,0.044444444444444446],[0.04375,0.05185185185185185],[0.04375,0.05740740740740741],[0.04375,0.05925925925925926],[0.04375,0.06296296296296296],[0.04375,0.06666666666666667],[0.04375,0.06666666666666667],[0.04375,0.07222222222222222],[0.04375,0.07777777777777778],[0.04375,0.08703703703703704],[0.04375,0.09444444444444444],[0.04375,0.1],[0.04375,0.10740740740740741],[0.04375,0.11296296296296296],[0.04375,0.11851851851851852],[0.04375,0.11851851851851852],[0.04375,0.11851851851851852],[0.04375,0.11851851851851852],[0.04375,0.11851851851851852],[0.04375,0.11851851851851852],[0.04375,0.11851851851851852],[0.04375,0.11851851851851852],[0.04375,0.11851851851851852],[0.04375,0.11851851851851852],[0.04375,0.11851851851851852],[0.04375,0.11851851851851852],[0.04375,0.11851851851851852],[0.04375,0.11851851851851852],[0.04375,0.11851851851851852],[0.04375,0.11851851851851852],[0.04375,0.11851851851851852],[0.04375,0.11851851851851852],[0.04375,0.11851851851851852],[0.04375,0.11851851851851852],[0.04375,0.12037037037037036],[0.021875,0.1259259259259259],[0.015625,0.1259259259259259],[0.0010416666666666667,0.12962962962962962],[-0.0125,0.13518518518518519],[-0.016666666666666666,0.13518518518518519],[-0.020833333333333332,0.13703703703703704],[-0.022916666666666665,0.1388888888888889],[-0.025,0.14074074074074075],[-0.028125,0.1425925925925926],[-0.03229166666666667,0.1425925925925926],[-0.035416666666666666,0.14629629629629629],[-0.03854166666666667,0.14814814814814814],[-0.040625,0.14814814814814814],[-0.04479166666666667,0.15],[-0.04583333333333333,0.1537037037037037],[-0.04791666666666667,0.1537037037037037],[-0.05,0.1537037037037037],[-0.051041666666666666,0.15555555555555556],[-0.052083333333333336,0.1574074074074074],[-0.053125,0.1574074074074074],[-0.053125,0.1574074074074074],[-0.053125,0.1574074074074074],[-0.053125,0.1574074074074074],[-0.05416666666666667,0.15925925925925927],[-0.05416666666666667,0.15925925925925927],[-0.05416666666666667,0.15925925925925927],[-0.05416666666666667,0.15925925925925927],[-0.05416666666666667,0.15925925925925927],[-0.05520833333333333,0.15925925925925927],[-0.05520833333333333,0.16111111111111112],[-0.053125,0.1648148148148148],[-0.04895833333333333,0.1685185185185185],[-0.04375,0.17222222222222222],[-0.035416666666666666,0.17407407407407408],[-0.028125,0.17407407407407408],[-0.017708333333333333,0.17777777777777778],[-0.0020833333333333333,0.17777777777777778],[0.01875,0.17777777777777778],[0.036458333333333336,0.17777777777777778],[0.051041666666666666,0.17777777777777778],[0.058333333333333334,0.17777777777777778],[0.06354166666666666,0.17777777777777778],[0.06458333333333334,0.17777777777777778],[0.065625,0.17777777777777778],[0.06666666666666667,0.17777777777777778],[0.06666666666666667,0.17777777777777778],[0.06666666666666667,0.17777777777777778],[0.06666666666666667,0.17777777777777778],[0.06666666666666667,0.17777777777777778],[0.06666666666666667,0.17777777777777778],[0.06666666666666667,0.17777777777777778],[0.06666666666666667,0.17777777777777778],[0.06666666666666667,0.17777777777777778],[0.06666666666666667,0.17777777777777778],[0.06666666666666667,0.17777777777777778],[0.06666666666666667,0.17777777777777778],[0.06666666666666667,0.17777777777777778],[0.065625,0.17962962962962964],[0.059375,0.17962962962962964],[0.046875,0.17962962962962964],[0.03854166666666667,0.17962962962962964],[0.03125,0.17962962962962964],[0.016666666666666666,0.17962962962962964],[0,0.17962962962962964],[-0.013541666666666667,0.17962962962962964],[-0.026041666666666668,0.17962962962962964],[-0.03125,0.17962962962962964],[-0.034375,0.17962962962962964],[-0.0375,0.17962962962962964],[-0.0375,0.17962962962962964],[-0.03958333333333333,0.17962962962962964],[-0.040625,0.17962962962962964],[-0.041666666666666664,0.17777777777777778],[-0.042708333333333334,0.17777777777777778],[-0.04375,0.17592592592592593],[-0.04375,0.17592592592592593],[-0.04375,0.17592592592592593],[-0.04375,0.17592592592592593],[-0.04375,0.17592592592592593],[-0.04375,0.17592592592592593],[-0.04375,0.17592592592592593],[-0.04375,0.17592592592592593],[-0.04375,0.17592592592592593],[-0.04375,0.17592592592592593],[-0.04375,0.17592592592592593],[-0.04375,0.17592592592592593],[-0.04375,0.17592592592592593],[-0.04375,0.17592592592592593],[-0.04375,0.17592592592592593],[-0.04375,0.17592592592592593],[-0.04375,0.17592592592592593],[-0.04375,0.17592592592592593],[-0.04375,0.17592592592592593],[-0.04375,0.17592592592592593],[-0.04375,0.17592592592592593],[-0.04375,0.17592592592592593],[-0.04375,0.17592592592592593],[-0.04375,0.17592592592592593],[-0.04375,0.17592592592592593],[-0.04375,0.17592592592592593],[-0.04375,0.17592592592592593],[-0.04375,0.17592592592592593],[-0.04375,0.17592592592592593],[-0.04375,0.17592592592592593],[-0.04375,0.17592592592592593],[-0.04375,0.17592592592592593],[-0.04375,0.17592592592592593],[-0.04375,0.17592592592592593],[-0.04375,0.17592592592592593],[-0.04375,0.17592592592592593],[-0.04375,0.17592592592592593],[-0.04375,0.17592592592592593],[-0.04375,0.17592592592592593],[-0.04375,0.17592592592592593],[-0.04375,0.17592592592592593],[-0.04375,0.17592592592592593],[-0.04375,0.17592592592592593],[-0.04375,0.17592592592592593],[-0.04375,0.17592592592592593],[-0.04375,0.17592592592592593],[-0.04375,0.17592592592592593],[-0.04375,0.17592592592592593],[-0.04375,0.17592592592592593],[-0.04375,0.17592592592592593],[-0.04375,0.17592592592592593],[-0.04375,0.17592592592592593],[-0.04375,0.17592592592592593],[-0.04375,0.17592592592592593],[-0.04375,0.17592592592592593],[-0.04375,0.17592592592592593],[-0.04375,0.17592592592592593],[-0.04375,0.17592592592592593],[-0.04375,0.17592592592592593],[-0.04375,0.17407407407407408],[-0.04375,0.17407407407407408],[-0.04375,0.17407407407407408],[-0.042708333333333334,0.17407407407407408],[-0.040625,0.17407407407407408]]","[[0.18677083333333327,-0.20537037037037034],[0.2287499999999999,-0.1794444444444444],[0.2287499999999999,-0.1794444444444444],[0.2497916666666666,-0.122037037037037],[0.2497916666666666,-0.122037037037037],[0.2534374999999999,-0.0742592592592593],[0.2534374999999999,-0.0742592592592593],[0.28125,-0.014259259259259343],[0.28125,-0.014259259259259343],[0.2865624999999999,0.004444444444444402],[0.2865624999999999,0.004444444444444402],[0.2994791666666667,0.012592592592592508],[0.2994791666666667,0.012592592592592508],[0.30739583333333326,0.034999999999999955],[0.30739583333333326,0.034999999999999955],[0.30666666666666675,0.09203703703703713],[0.3182291666666667,0.12444444444444452],[0.3381249999999999,0.15407407407407417],[0.3381249999999999,0.15407407407407417],[0.30791666666666656,0.14370370370370375],[0.30791666666666656,0.14370370370370375],[0.3085416666666667,0.13499999999999995],[0.2897916666666667,0.11722222222222214],[0.2759375000000001,0.09759259259259268],[0.2759375000000001,0.09759259259259268],[0.2586458333333333,0.06814814814814807],[0.2586458333333333,0.06814814814814807],[0.2275000000000001,0.04277777777777782],[0.2275000000000001,0.04277777777777782],[0.23041666666666671,0.016111111111111194],[0.23041666666666671,0.016111111111111194],[0.23156249999999995,-0.04611111111111107],[0.23156249999999995,-0.04611111111111107],[0.1974999999999999,-0.06296296296296296],[0.1974999999999999,-0.06296296296296296],[0.16572916666666657,-0.09185185185185189],[0.16572916666666657,-0.09185185185185189],[0.15187499999999995,-0.1007407407407407],[0.15187499999999995,-0.1007407407407407],[0.12260416666666671,-0.12759259259259256],[0.12260416666666671,-0.12759259259259256],[0.13333333333333333,-0.1257407407407407],[0.13333333333333333,-0.1257407407407407],[0.1415625000000001,-0.1398148148148148],[0.1415625000000001,-0.1398148148148148],[0.1415625000000001,-0.1398148148148148],[0.1415625000000001,-0.1398148148148148],[0.13875000000000004,-0.1331481481481481],[0.13875000000000004,-0.1331481481481481],[0.14583333333333334,-0.13296296296296298],[0.14583333333333334,-0.13296296296296298],[0.12322916666666663,-0.1425925925925926],[0.12322916666666663,-0.1425925925925926],[0.11677083333333324,-0.12777777777777777],[0.11677083333333324,-0.12777777777777777],[0.11375000000000005,-0.12092592592592595],[0.11375000000000005,-0.12092592592592595],[0.10322916666666657,-0.13092592592592592],[0.09854166666666657,-0.14222222222222225],[0.09854166666666657,-0.14222222222222225],[0.11489583333333328,-0.14685185185185187],[0.11197916666666667,-0.14296296296296293],[0.10427083333333324,-0.12833333333333335],[0.10427083333333324,-0.12833333333333335],[0.12479166666666662,-0.1411111111111111],[0.11697916666666662,-0.1485185185185185],[0.11697916666666662,-0.1485185185185185],[0.1140625,-0.13870370370370366],[0.10447916666666662,-0.1398148148148148],[0.128125,-0.15055555555555558],[0.128125,-0.15055555555555558],[0.13916666666666658,-0.14481481481481479],[0.13031249999999991,-0.14166666666666666],[0.10062499999999991,-0.13240740740740742],[0.08624999999999995,-0.13370370370370369],[0.07697916666666677,-0.14148148148148143],[0.05572916666666667,-0.12759259259259256],[0.05343749999999995,-0.10018518518518522],[0.05343749999999995,-0.10018518518518522],[0.041875000000000044,-0.09962962962962965],[0.041875000000000044,-0.09962962962962965],[0.028750000000000022,-0.08851851851851854],[0.004166666666666667,-0.09185185185185189],[-0.004375000000000047,-0.10240740740740743],[0.0002083333333333807,-0.11981481481481479],[0.001145833333333357,-0.10407407407407405],[-0.022083333333333382,-0.11814814814814817],[-0.04604166666666672,-0.122037037037037],[-0.05375000000000003,-0.11740740740740736],[-0.05375000000000003,-0.11740740740740736],[-0.051770833333333384,-0.12037037037037036],[-0.0234375,-0.11407407407407412],[-0.01739583333333338,-0.12111111111111107],[-0.017916666666666713,-0.11444444444444446],[-0.011354166666666643,-0.11240740740740739],[-0.0048958333333333805,-0.10037037037037035],[-0.0048958333333333805,-0.10037037037037035],[0.005937500000000048,-0.12888888888888894],[0.005937500000000048,-0.12888888888888894],[0.034062500000000044,-0.13092592592592592],[0.0853125000000001,-0.13870370370370366],[0.09614583333333329,-0.12407407407407407],[0.09614583333333329,-0.12407407407407407],[0.11979166666666667,-0.13185185185185183],[0.11979166666666667,-0.13185185185185183],[0.10947916666666657,-0.12666666666666662],[0.1224999999999999,-0.14148148148148143],[0.1224999999999999,-0.14148148148148143],[0.12322916666666663,-0.1398148148148148],[0.13864583333333325,-0.12851851851851848],[0.15093750000000009,-0.12222222222222222],[0.1716666666666666,-0.10629629629629625],[0.17645833333333344,-0.09611111111111106],[0.16052083333333325,-0.05592592592592591],[0.19010416666666666,-0.06555555555555552],[0.19010416666666666,-0.06555555555555552],[0.15302083333333344,-0.07092592592592595],[0.13572916666666662,-0.08074074074074078],[0.13572916666666662,-0.08074074074074078],[0.10895833333333324,-0.08425925925925926],[0.09958333333333323,-0.09870370370370372],[0.07510416666666657,-0.10740740740740741],[0.051041666666666666,-0.11240740740740739],[0.051041666666666666,-0.11240740740740739],[-0.002395833333333286,-0.11962962962962967],[-0.002395833333333286,-0.11962962962962967],[-0.0002083333333333807,-0.12388888888888884],[-0.0002083333333333807,-0.12388888888888884],[0.0018749999999999527,-0.13055555555555556],[0.0018749999999999527,-0.13055555555555556],[-0.03114583333333331,-0.14944444444444444],[-0.03114583333333331,-0.14944444444444444],[-0.01427083333333338,-0.15629629629629627],[-0.01427083333333338,-0.15629629629629627],[-0.015312500000000047,-0.1809259259259259],[-0.013020833333333334,-0.16888888888888887],[-0.018124999999999978,-0.1609259259259259],[-0.018124999999999978,-0.1609259259259259],[0.010625000000000048,-0.14592592592592596],[0.010625000000000048,-0.14592592592592596],[0.050937499999999976,-0.11722222222222224],[0.09114583333333333,-0.11296296296296296],[0.10343749999999995,-0.10999999999999996],[0.10343749999999995,-0.10999999999999996],[0.10906250000000005,-0.13259259259259262],[0.10906250000000005,-0.13259259259259262],[0.1304166666666667,-0.10166666666666663],[0.16270833333333337,-0.06407407407407412],[0.1796875,-0.03425925925925926],[0.20281250000000003,-0.027037037037037078],[0.22333333333333344,-0.004444444444444402],[0.20416666666666666,0.026851851851851852],[0.1892708333333334,0.05277777777777778],[0.1865624999999999,0.09074074074074075],[0.1712500000000001,0.13222222222222219],[0.15416666666666667,0.1574074074074074],[0.1412499999999999,0.14574074074074084],[0.1412499999999999,0.14574074074074084],[0.09020833333333324,0.10037037037037046],[0.06635416666666671,0.0977777777777777],[0.06052083333333336,0.07888888888888893],[0.05437500000000005,0.060370370370370414],[0.05437500000000005,0.060370370370370414],[0.05322916666666669,0.040740740740740744],[0.0609375,-0.012222222222222264],[0.07625000000000005,-0.06166666666666669],[0.06833333333333323,-0.12740740740740744],[0.0806250000000001,-0.14055555555555552],[0.10333333333333337,-0.14296296296296293],[0.13020833333333334,-0.11666666666666667],[0.1564583333333334,-0.10999999999999996],[0.14416666666666675,-0.11296296296296296],[0.1580208333333334,-0.10648148148148148],[0.1580208333333334,-0.10648148148148148],[0.15635416666666657,-0.12462962962962965],[0.15906250000000005,-0.1235185185185185],[0.15479166666666658,-0.0883333333333333],[0.15479166666666658,-0.0883333333333333],[0.18875000000000006,-0.0653703703703704],[0.19072916666666656,-0.08351851851851856],[0.1759375000000001,-0.10444444444444441],[0.19760416666666672,-0.08037037037037033],[0.18364583333333329,-0.08407407407407404],[0.21770833333333334,-0.052222222222222205],[0.23072916666666668,-0.046296296296296294],[0.23072916666666668,-0.046296296296296294],[0.24343750000000006,-0.02296296296296292],[0.2367708333333333,-0.009259259259259259],[0.23760416666666656,-0.020740740740740823],[0.23093750000000005,0.049074074074074076],[0.23093750000000005,0.049074074074074076],[0.19666666666666663,0.060370370370370414],[0.17156250000000003,0.06870370370370374],[0.1243750000000001,0.04796296296296292],[0.1265625,0.03888888888888889],[0.1265625,0.03888888888888889],[0.09281249999999991,0.014259259259259343],[0.09281249999999991,0.014259259259259343],[0.08489583333333334,0.002777777777777778],[0.11354166666666667,-0.006111111111111027],[0.11354166666666667,-0.006111111111111027],[0.11749999999999995,0.018703703703703747],[0.11864583333333342,0.03037037037037033],[0.12052083333333338,-0.04296296296296305],[0.12052083333333338,-0.04296296296296305],[0.15197916666666675,-0.02388888888888885],[0.1772916666666667,-0.05425925925925928],[0.2195833333333333,-0.07981481481481485],[0.2296875,-0.07537037037037035],[0.25791666666666657,-0.04759259259259268],[0.25791666666666657,-0.04759259259259268],[0.24354166666666663,-0.05537037037037033],[0.19072916666666656,-0.06148148148148146],[0.18885416666666663,-0.05351851851851848],[0.1868750000000001,-0.03851851851851843],[0.1868750000000001,-0.03851851851851843],[0.17052083333333337,-0.0301851851851851],[0.17927083333333324,-0.05611111111111113],[0.17927083333333324,-0.05611111111111113],[0.1814583333333334,-0.018518518518518517],[0.17374999999999996,0.024629629629629547],[0.14979166666666663,0.04222222222222214],[0.1125,0.04685185185185177],[0.09114583333333333,0.051666666666666625],[0.09114583333333333,0.051666666666666625],[0.06166666666666672,0.0837037037037038],[0.02041666666666669,0.046481481481481526],[0.0068750000000000235,0.018703703703703747],[-0.0017708333333333807,0.0257407407407407],[-0.0017708333333333807,0.0257407407407407],[-0.04229166666666669,0.02240740740740745],[-0.05697916666666671,0.030000000000000086],[-0.07635416666666663,0.010925925925925884],[-0.05010416666666669,0.005740740740740783],[-0.03145833333333338,-0.009074074074074031],[-0.011249999999999953,-0.002962962962963005],[0.01604166666666664,-0.05499999999999998],[0.03604166666666669,-0.06129629629629634],[0.024166666666666715,-0.044999999999999915],[0.024166666666666715,-0.044999999999999915],[0.01229166666666662,-0.028703703703703703],[0.005208333333333333,-0.000925925925925926],[-0.02791666666666662,-0.015555555555555513],[-0.02791666666666662,-0.015555555555555513],[-0.03114583333333331,-0.03259259259259263],[-0.03114583333333331,-0.03259259259259263],[-0.06541666666666662,-0.06944444444444445],[-0.06541666666666662,-0.06944444444444445],[-0.09427083333333333,-0.09611111111111106],[-0.09427083333333333,-0.09611111111111106],[-0.12906249999999997,-0.11314814814814819],[-0.12906249999999997,-0.11314814814814819],[-0.1622916666666666,-0.12092592592592595],[-0.1622916666666666,-0.12092592592592595],[-0.16416666666666668,-0.11851851851851852],[-0.14552083333333338,-0.14685185185185187],[-0.14552083333333338,-0.14685185185185187],[-0.15281250000000005,-0.15981481481481483],[-0.15281250000000005,-0.15981481481481483],[-0.14614583333333328,-0.16740740740740737],[-0.14614583333333328,-0.16740740740740737],[-0.1264583333333333,-0.1259259259259259],[-0.10510416666666664,-0.1014814814814815],[-0.10531250000000002,-0.0477777777777777],[-0.07677083333333339,-0.01185185185185181],[-0.04624999999999998,0.018703703703703747],[-0.014895833333333285,0.06537037037037029],[-0.002708333333333357,0.07462962962962955],[-0.013854166666666619,0.09351851851851851],[-0.013854166666666619,0.09351851851851851],[0.008020833333333382,0.09092592592592597],[0.03239583333333336,0.13537037037037042],[0.03239583333333336,0.13537037037037042],[0.03958333333333333,0.0868518518518518],[0.03958333333333333,0.0868518518518518],[0.051145833333333356,0.042407407407407366],[0.07489583333333343,-0.017407407407407365],[0.08458333333333339,-0.03481481481481473],[0.1296875,-0.0735185185185185],[0.15229166666666671,-0.08259259259259263],[0.17374999999999996,-0.08722222222222227],[0.17374999999999996,-0.08722222222222227],[0.22979166666666656,-0.05740740740740741],[0.26614583333333336,0.013333333333333417],[0.2946875000000001,0.015000000000000043],[0.3444791666666667,0.08314814814814811],[0.3444791666666667,0.08314814814814811],[0.3763541666666666,0.1388888888888889],[0.39343750000000005,0.172037037037037],[0.42458333333333326,0.20092592592592592],[0.42458333333333326,0.20092592592592592],[0.43156249999999996,0.2524074074074073],[0.46031250000000007,0.2594444444444445],[0.44375,0.2933333333333333],[0.4025000000000001,0.287962962962963],[0.3792708333333332,0.2942592592592592],[0.3792708333333332,0.2942592592592592],[0.3345833333333334,0.2390740740740741],[0.29697916666666657,0.1725925925925927],[0.2267708333333334,0.1449999999999999],[0.2267708333333334,0.1449999999999999],[0.2021874999999999,0.16074074074074066],[0.15479166666666658,0.14833333333333337],[0.09593749999999991,0.1388888888888889],[0.09593749999999991,0.1388888888888889],[0.058229166666666644,0.12537037037037047],[0.04052083333333331,0.09740740740740746],[0.02822916666666669,0.06740740740740736],[0.02822916666666669,0.06740740740740736],[0.00927083333333331,0.0022222222222223064],[0.01906249999999995,0.03462962962962971],[0.0037500000000000237,0.044444444444444446],[0.0037500000000000237,0.044444444444444446],[-0.009062500000000048,0.02240740740740745],[-0.033645833333333285,-0.015555555555555513],[-0.04729166666666664,-0.03722222222222227],[-0.049479166666666664,-0.07370370370370373],[-0.05687500000000002,-0.1014814814814815],[-0.05687500000000002,-0.1014814814814815],[-0.05562499999999997,-0.11092592592592589],[-0.06802083333333328,-0.11166666666666669],[-0.07270833333333329,-0.13407407407407404],[-0.09104166666666665,-0.1514814814814815],[-0.07239583333333334,-0.15407407407407406],[-0.041666666666666664,-0.1359259259259259],[-0.022812499999999975,-0.10796296296296298],[-0.014479166666666644,-0.09111111111111109],[-0.01583333333333338,-0.09425925925925922],[-0.01583333333333338,-0.09425925925925922],[-0.026250000000000048,-0.09222222222222225],[-0.009687499999999953,-0.0735185185185185],[0.005624999999999976,-0.05333333333333336],[0.013541666666666667,-0.03759259259259251],[0.03270833333333331,-0.04222222222222214],[0.02385416666666664,-0.03518518518518519],[0.005104166666666643,-0.032407407407407406],[0.035625000000000046,-0.0338888888888888],[0.03791666666666664,-0.051111111111111156],[0.05447916666666662,-0.021851851851851768],[0.06989583333333324,0.022777777777777692],[0.041666666666666664,0.022222222222222223],[0.041666666666666664,0.022222222222222223],[0.043437500000000046,-0.01185185185185181],[0.05604166666666662,-0.025925925925925925],[0.057083333333333285,-0.0455555555555556],[0.03343750000000002,-0.04018518518518527],[0.019687499999999976,-0.030555555555555555],[0.019687499999999976,-0.030555555555555555],[-0.029999999999999954,-0.05129629629629638],[-0.04645833333333336,-0.056851851851851834],[-0.07135416666666666,-0.0824074074074074],[-0.06458333333333334,-0.1],[-0.04645833333333336,-0.125],[-0.04645833333333336,-0.125],[-0.05583333333333336,-0.08888888888888889],[-0.05583333333333336,-0.08888888888888889],[-0.07302083333333335,-0.09981481481481477],[-0.07302083333333335,-0.09981481481481477],[-0.1015625,-0.09851851851851849],[-0.07531249999999995,-0.1346296296296296],[-0.06708333333333331,-0.16222222222222227],[-0.043958333333333384,-0.1646296296296296],[-0.02010416666666662,-0.18185185185185182],[-0.02010416666666662,-0.18185185185185182],[0.021354166666666667,-0.16925925925925922],[0.021354166666666667,-0.16925925925925922],[0.01593749999999995,-0.18074074074074079],[0.01593749999999995,-0.18074074074074079],[0.01572916666666669,-0.16629629629629633],[0.01572916666666669,-0.16629629629629633],[0.011354166666666643,-0.2096296296296296],[0.011354166666666643,-0.2096296296296296],[0.008645833333333287,-0.207962962962963],[0.008645833333333287,-0.207962962962963],[0.04041666666666662,-0.20203703703703707],[0.022187499999999954,-0.15481481481481485],[0.021979166666666692,-0.1161111111111111],[0.021979166666666692,-0.1161111111111111],[0.03208333333333328,-0.11444444444444446],[0.03208333333333328,-0.11444444444444446],[0.0046875,-0.09611111111111106],[0.0046875,-0.09611111111111106],[-0.028125,-0.10851851851851856],[-0.01593749999999995,-0.13092592592592592],[-0.01593749999999995,-0.1653703703703704],[-0.004791666666666691,-0.17777777777777778],[0.0026041666666666665,-0.1933333333333333],[-0.0005208333333333333,-0.20277777777777778],[0.015208333333333357,-0.23481481481481484],[0.019583333333333286,-0.2512962962962963],[-0.005208333333333333,-0.23129629629629625],[0.030104166666666644,-0.2381481481481482],[0.04916666666666671,-0.24370370370370376],[0.03125,-0.21870370370370373],[0.029999999999999954,-0.18722222222222226],[0.029999999999999954,-0.18722222222222226],[0.017916666666666713,-0.13425925925925927],[0.019375000000000024,-0.08629629629629634],[0.019375000000000024,-0.08629629629629634],[-0.011770833333333286,-0.044999999999999915],[-0.0328125,-0.049074074074074076],[-0.027708333333333356,-0.025925925925925925],[0.030729166666666665,-0.0485185185185186],[0.006666666666666643,-0.002407407407407323],[-0.05333333333333338,-0.032407407407407406],[-0.07281249999999997,-0.0242592592592593],[-0.07999999999999995,-0.04888888888888885],[-0.07229166666666664,-0.10203703703703708],[-0.07229166666666664,-0.10203703703703708],[-0.07197916666666669,-0.14092592592592595],[-0.04010416666666667,-0.19018518518518515],[-0.021041666666666715,-0.22907407407407404],[-0.04020833333333336,-0.2559259259259259],[-0.11229166666666662,-0.24351851851851852],[-0.10666666666666665,-0.2711111111111111],[-0.10666666666666665,-0.2711111111111111],[-0.06302083333333333,-0.2675925925925926],[-0.07781250000000005,-0.2705555555555556],[-0.11208333333333335,-0.24833333333333338],[-0.12166666666666662,-0.2494444444444444],[-0.14614583333333328,-0.2537037037037037],[-0.18718750000000003,-0.2890740740740741],[-0.2077083333333333,-0.2596296296296296],[-0.2169791666666666,-0.2601851851851852],[-0.22072916666666664,-0.25555555555555554],[-0.21583333333333338,-0.267037037037037],[-0.21052083333333335,-0.2146296296296296],[-0.16677083333333337,-0.22092592592592594],[-0.13177083333333334,-0.2140740740740741],[-0.12437499999999997,-0.20462962962962963],[-0.12437499999999997,-0.20462962962962963],[-0.10614583333333331,-0.18796296296296297],[-0.08020833333333334,-0.1507407407407407],[-0.04885416666666664,-0.1388888888888889],[-0.005312500000000024,-0.15185185185185185],[0.04614583333333329,-0.19425925925925921],[0.058854166666666666,-0.23296296296296298],[0.058854166666666666,-0.23296296296296298],[0.058854166666666666,-0.23296296296296298],[0.08989583333333329,-0.25759259259259265],[0.08989583333333329,-0.25759259259259265],[0.0900000000000001,-0.27740740740740744],[0.0900000000000001,-0.27740740740740744],[0.10270833333333323,-0.3116666666666667],[0.10270833333333323,-0.3116666666666667],[0.1021874999999999,-0.2831481481481481],[0.1021874999999999,-0.2831481481481481],[0.10354166666666677,-0.2737037037037037],[0.10354166666666677,-0.2737037037037037],[0.12291666666666666,-0.2564814814814815],[0.12291666666666666,-0.2564814814814815],[0.10260416666666666,-0.2390740740740741],[0.10260416666666666,-0.2390740740740741],[0.1178124999999999,-0.21574074074074073],[0.1178124999999999,-0.21574074074074073],[0.08156249999999995,-0.1425925925925926],[0.08156249999999995,-0.1425925925925926],[0.07291666666666667,-0.08333333333333333],[0.07291666666666667,-0.08333333333333333],[0.03854166666666667,-0.062037037037037036],[0.03854166666666667,-0.062037037037037036],[0.05645833333333338,-0.048333333333333374],[0.05645833333333338,-0.048333333333333374],[0.052083333333333336,-0.04685185185185177],[0.052083333333333336,-0.04685185185185177],[0.06822916666666666,-0.07814814814814813],[0.06822916666666666,-0.07814814814814813],[0.08479166666666677,-0.09981481481481477],[0.08479166666666677,-0.09981481481481477],[0.1056250000000001,-0.14537037037037037],[0.1056250000000001,-0.14537037037037037],[0.15,-0.19944444444444442],[0.15,-0.19944444444444442],[0.15125000000000005,-0.21851851851851853],[0.15125000000000005,-0.21851851851851853],[0.18677083333333327,-0.2505555555555556]]","[[0.18677083333333327,-0.20537037037037034,0.0003999996185228838],[0.2287499999999999,-0.1794444444444444,0.050499999999999545],[0.2287499999999999,-0.1794444444444444,0.059199999809266046],[0.2497916666666666,-0.122037037037037,0.06739999961853016],[0.2497916666666666,-0.122037037037037,0.08400000000000318],[0.2534374999999999,-0.0742592592592593,0.10069999980926525],[0.2534374999999999,-0.0742592592592593,0.11749999999999261],[0.28125,-0.014259259259259343,0.1341999998092689],[0.28125,-0.014259259259259343,0.1506999998092624],[0.2865624999999999,0.004444444444444402,0.16750000000000398],[0.2865624999999999,0.004444444444444402,0.18409999990463177],[0.2994791666666667,0.012592592592592508,0.20079999971389384],[0.2994791666666667,0.012592592592592508,0.21729999971390157],[0.30739583333333326,0.034999999999999955,0.23399999999999466],[0.30739583333333326,0.034999999999999955,0.2506999998092567],[0.30666666666666675,0.09203703703703713,0.267399999618533],[0.3182291666666667,0.12444444444444452,0.2874999999999943],[0.3381249999999999,0.15407407407407417,0.3053999996185297],[0.3381249999999999,0.15407407407407417,0.3175999999046297],[0.30791666666666656,0.14370370370370375,0.3341999998092575],[0.30791666666666656,0.14370370370370375,0.35069999980926525],[0.3085416666666667,0.13499999999999995,0.3715999999046318],[0.2897916666666667,0.11722222222222214,0.38869999980926195],[0.2759375000000001,0.09759259259259268,0.42629999971389054],[0.2759375000000001,0.09759259259259268,0.43329999971389555],[0.2586458333333333,0.06814814814814807,0.4531999998092573],[0.2586458333333333,0.06814814814814807,0.460099999904628],[0.2275000000000001,0.04277777777777782,0.4890999999046244],[0.2275000000000001,0.04277777777777782,0.49629999971389793],[0.23041666666666671,0.016111111111111194,0.5201999998092646],[0.23041666666666671,0.016111111111111194,0.5291999998092649],[0.23156249999999995,-0.04611111111111107,0.5561999998092659],[0.23156249999999995,-0.04611111111111107,0.5647999997138982],[0.1974999999999999,-0.06296296296296296,0.5865999999046352],[0.1974999999999999,-0.06296296296296296,0.5941999998092626],[0.16572916666666657,-0.09185185185185189,0.6228999996185252],[0.16572916666666657,-0.09185185185185189,0.6304999999999978],[0.15187499999999995,-0.1007407407407407,0.6532999997138944],[0.15187499999999995,-0.1007407407407407,0.6605999999046333],[0.12260416666666671,-0.12759259259259256,0.6911999998092568],[0.12260416666666671,-0.12759259259259256,0.6988999996185328],[0.13333333333333333,-0.1257407407407407,0.7202999997139017],[0.13333333333333333,-0.1257407407407407,0.7287999997138996],[0.1415625000000001,-0.1398148148148148,0.7535000000000025],[0.1415625000000001,-0.1398148148148148,0.7611999998092642],[0.1415625000000001,-0.1398148148148148,0.767399999618533],[0.1415625000000001,-0.1398148148148148,0.7861999998092699],[0.13875000000000004,-0.1331481481481481,0.8204999999999956],[0.13875000000000004,-0.1331481481481481,0.8276999998092691],[0.14583333333333334,-0.13296296296296298,0.8512999997139019],[0.14583333333333334,-0.13296296296296298,0.8590999999046289],[0.12322916666666663,-0.1425925925925926,0.8847999997138913],[0.12322916666666663,-0.1425925925925926,0.8924999999999983],[0.11677083333333324,-0.12777777777777777,0.9180999999046264],[0.11677083333333324,-0.12777777777777777,0.9267999997138929],[0.11375000000000005,-0.12092592592592595,0.9698999996185336],[0.11375000000000005,-0.12092592592592595,0.9772999997138925],[0.10322916666666657,-0.13092592592592592,0.9847999997138999],[0.09854166666666657,-0.14222222222222225,1.0030000000000001],[0.09854166666666657,-0.14222222222222225,1.0204999999999984],[0.11489583333333328,-0.14685185185185187,1.0342999997138946],[0.11197916666666667,-0.14296296296296293,1.0525999999046292],[0.10427083333333324,-0.12833333333333335,1.0715000000000003],[0.10427083333333324,-0.12833333333333335,1.0841999998092575],[0.12479166666666662,-0.1411111111111111,1.1008999996185338],[0.11697916666666662,-0.1485185185185185,1.1241999998092638],[0.11697916666666662,-0.1485185185185185,1.1343999996185232],[0.1140625,-0.13870370370370366,1.150899999618531],[0.10447916666666662,-0.1398148148148148,1.1681999998092607],[0.128125,-0.15055555555555558,1.1929999999999978],[0.128125,-0.15055555555555558,1.2092999997138918],[0.13916666666666658,-0.14481481481481479,1.2175000000000011],[0.13031249999999991,-0.14166666666666666,1.2342999997138975],[0.10062499999999991,-0.13240740740740742,1.2528999996185348],[0.08624999999999995,-0.13370370370370369,1.268500000000003],[0.07697916666666677,-0.14148148148148143,1.2844999999999942],[0.05572916666666667,-0.12759259259259256,1.3008999996185224],[0.05343749999999995,-0.10018518518518522,1.3208999996185327],[0.05343749999999995,-0.10018518518518522,1.3342999997138918],[0.041875000000000044,-0.09962962962962965,1.3510999999046334],[0.041875000000000044,-0.09962962962962965,1.3674999999999926],[0.028750000000000022,-0.08851851851851854,1.3866999998092666],[0.004166666666666667,-0.09185185185185189,1.4009999999999962],[-0.004375000000000047,-0.10240740740740743,1.4176999998092583],[0.0002083333333333807,-0.11981481481481479,1.4362999997138957],[0.001145833333333357,-0.10407407407407405,1.4507999997138938],[-0.022083333333333382,-0.11814814814814817,1.4675999999046354],[-0.04604166666666672,-0.122037037037037,1.4861999998092585],[-0.05375000000000003,-0.11740740740740736,1.5008999996185253],[-0.05375000000000003,-0.11740740740740736,1.5174999999999983],[-0.051770833333333384,-0.12037037037037036,1.534399999618529],[-0.0234375,-0.11407407407407412,1.5529999999999973],[-0.01739583333333338,-0.12111111111111107,1.5673999996185302],[-0.017916666666666713,-0.11444444444444446,1.5840000000000032],[-0.011354166666666643,-0.11240740740740739,1.601299999713902],[-0.0048958333333333805,-0.10037037037037035,1.623199999809259],[-0.0048958333333333805,-0.10037037037037035,1.6340000000000003],[0.005937500000000048,-0.12888888888888894,1.6506999998092624],[0.005937500000000048,-0.12888888888888894,1.6672999997138902],[0.034062500000000044,-0.13092592592592592,1.6839999999999975],[0.0853125000000001,-0.13870370370370366,1.7006999998092596],[0.09614583333333329,-0.12407407407407407,1.7186999998092602],[0.09614583333333329,-0.12407407407407407,1.7339999999999947],[0.11979166666666667,-0.13185185185185183,1.750799999713891],[0.11979166666666667,-0.13185185185185183,1.767399999618533],[0.10947916666666657,-0.12666666666666662,1.7839999999999918],[0.1224999999999999,-0.14148148148148143,1.800699999809268],[0.1224999999999999,-0.14148148148148143,1.8173999996185302],[0.12322916666666663,-0.1398148148148148,1.8340999999046375],[0.13864583333333325,-0.12851851851851848,1.8534999999999968],[0.15093750000000009,-0.12222222222222222,1.8693999996185227],[0.1716666666666666,-0.10629629629629625,1.8875000000000028],[0.17645833333333344,-0.09611111111111106,1.9018999996185215],[0.16052083333333325,-0.05592592592592591,1.9194999999999993],[0.19010416666666666,-0.06555555555555552,1.9375999999046343],[0.19010416666666666,-0.06555555555555552,1.9508999996185281],[0.15302083333333344,-0.07092592592592595,1.9675999999046354],[0.13572916666666662,-0.08074074074074078,1.9923999996185273],[0.13572916666666662,-0.08074074074074078,2.000799999713891],[0.10895833333333324,-0.08425925925925926,2.0174999999999983],[0.09958333333333323,-0.09870370370370372,2.0341999998092604],[0.07510416666666657,-0.10740740740740741,2.053199999809266],[0.051041666666666666,-0.11240740740740739,2.0678999996185325],[0.051041666666666666,-0.11240740740740739,2.0841999998092575],[-0.002395833333333286,-0.11962962962962967,2.1006999998092653],[-0.002395833333333286,-0.11962962962962967,2.1225999999046365],[-0.0002083333333333807,-0.12388888888888884,2.1343999996185232],[-0.0002083333333333807,-0.12388888888888884,2.150899999618531],[0.0018749999999999527,-0.13055555555555556,2.1725999999046337],[0.0018749999999999527,-0.13055555555555556,2.184199999809266],[-0.03114583333333331,-0.14944444444444444,2.2010999999046277],[-0.03114583333333331,-0.14944444444444444,2.224199999809258],[-0.01427083333333338,-0.15629629629629627,2.2342999997138975],[-0.01427083333333338,-0.15629629629629627,2.2508999996185253],[-0.015312500000000047,-0.1809259259259259,2.27219999980926],[-0.013020833333333334,-0.16888888888888887,2.288099999904631],[-0.018124999999999978,-0.1609259259259259,2.3056999998092635],[-0.018124999999999978,-0.1609259259259259,2.3271999998092667],[0.010625000000000048,-0.14592592592592596,2.334399999618526],[0.010625000000000048,-0.14592592592592596,2.350999999999999],[0.050937499999999976,-0.11722222222222224,2.367599999904627],[0.09114583333333333,-0.11296296296296296,2.3873999996185233],[0.10343749999999995,-0.10999999999999996,2.401599999904633],[0.10343749999999995,-0.10999999999999996,2.417599999904624],[0.10906250000000005,-0.13259259259259262,2.437799999713903],[0.10906250000000005,-0.13259259259259262,2.450899999618528],[0.1304166666666667,-0.10166666666666663,2.4675999999046354],[0.16270833333333337,-0.06407407407407412,2.486699999809261],[0.1796875,-0.03425925925925926,2.502899999618535],[0.20281250000000003,-0.027037037037037078,2.521899999618526],[0.22333333333333344,-0.004444444444444402,2.5378999996185314],[0.20416666666666666,0.026851851851851852,2.5537999997139025],[0.1892708333333334,0.05277777777777778,2.569099999904637],[0.1865624999999999,0.09074074074074075,2.585399999618531],[0.1712500000000001,0.13222222222222219,2.6022999997138925],[0.15416666666666667,0.1574074074074074,2.620599999904627],[0.1412499999999999,0.14574074074074084,2.637199999809269],[0.1412499999999999,0.14574074074074084,2.6506999998092624],[0.09020833333333324,0.10037037037037046,2.6673999996185245],[0.06635416666666671,0.0977777777777777,2.6872999997139004],[0.06052083333333336,0.07888888888888893,2.702799999713889],[0.05437500000000005,0.060370370370370414,2.7197999997138993],[0.05437500000000005,0.060370370370370414,2.745299999713893],[0.05322916666666669,0.040740740740740744,2.7510000000000048],[0.0609375,-0.012222222222222264,2.7680000000000007],[0.07625000000000005,-0.06166666666666669,2.7849999999999966],[0.06833333333333323,-0.12740740740740744,2.8056999998092635],[0.0806250000000001,-0.14055555555555552,2.8211999998092665],[0.10333333333333337,-0.14296296296296293,2.836899999618538],[0.13020833333333334,-0.11666666666666667,2.853899999618534],[0.1564583333333334,-0.10999999999999996,2.870500000000007],[0.14416666666666675,-0.11296296296296296,2.8858999996185304],[0.1580208333333334,-0.10648148148148148,2.906399999618529],[0.1580208333333334,-0.10648148148148148,2.9172999997139044],[0.15635416666666657,-0.12462962962962965,2.9342999997139003],[0.15906250000000005,-0.1235185185185185,2.950799999713894],[0.15479166666666658,-0.0883333333333333,2.969699999809265],[0.15479166666666658,-0.0883333333333333,2.9850999999046337],[0.18875000000000006,-0.0653703703703704,3.000699999809271],[0.19072916666666656,-0.08351851851851856,3.018899999618526],[0.1759375000000001,-0.10444444444444441,3.036299999713904],[0.19760416666666672,-0.08037037037037033,3.050699999809268],[0.18364583333333329,-0.08407407407407404,3.067299999713896],[0.21770833333333334,-0.052222222222222205,3.084000000000003],[0.23072916666666668,-0.046296296296296294,3.106599999904631],[0.23072916666666668,-0.046296296296296294,3.117500000000007],[0.24343750000000006,-0.02296296296296292,3.1343999996185374],[0.2367708333333333,-0.009259259259259259,3.1506999998092624],[0.23760416666666656,-0.020740740740740823,3.1710000000000065],[0.23093750000000005,0.049074074074074076,3.185699999809273],[0.23093750000000005,0.049074074074074076,3.2108999996185332],[0.19666666666666663,0.060370370370370414,3.217399999618536],[0.17156250000000003,0.06870370370370374,3.2339999999999947],[0.1243750000000001,0.04796296296296292,3.250699999809271],[0.1265625,0.03888888888888889,3.268899999618526],[0.1265625,0.03888888888888889,3.284000000000006],[0.09281249999999991,0.014259259259259343,3.300699999809268],[0.09281249999999991,0.014259259259259343,3.3211999998092665],[0.08489583333333334,0.002777777777777778,3.334299999713906],[0.11354166666666667,-0.006111111111111027,3.355000000000004],[0.11354166666666667,-0.006111111111111027,3.3732999997138933],[0.11749999999999995,0.018703703703703747,3.3840000000000003],[0.11864583333333342,0.03037037037037033,3.4007999997138967],[0.12052083333333338,-0.04296296296296305,3.421999999999997],[0.12052083333333338,-0.04296296296296305,3.434199999809266],[0.15197916666666675,-0.02388888888888885,3.450799999713894],[0.1772916666666667,-0.05425925925925928,3.469299999713897],[0.2195833333333333,-0.07981481481481485,3.4871999998092633],[0.2296875,-0.07537037037037035,3.5012999997138934],[0.25791666666666657,-0.04759259259259268,3.5215999999046375],[0.25791666666666657,-0.04759259259259268,3.5393999996185386],[0.24354166666666663,-0.05537037037037033,3.5508999996185366],[0.19072916666666656,-0.06148148148148146,3.568099999904632],[0.18885416666666663,-0.05351851851851848,3.5840999999046375],[0.1868750000000001,-0.03851851851851843,3.6097999997139],[0.1868750000000001,-0.03851851851851843,3.619099999904634],[0.17052083333333337,-0.0301851851851851,3.634299999713903],[0.17927083333333324,-0.05611111111111113,3.651699999809267],[0.17927083333333324,-0.05611111111111113,3.6672999997139044],[0.1814583333333334,-0.018518518518518517,3.6839999999999975],[0.17374999999999996,0.024629629629629547,3.704199999809262],[0.14979166666666663,0.04222222222222214,3.7208999996185383],[0.1125,0.04685185185185177,3.7356999998092704],[0.09114583333333333,0.051666666666666625,3.7510000000000048],[0.09114583333333333,0.051666666666666625,3.7672999997138987],[0.06166666666666672,0.0837037037037038,3.7840999999046403],[0.02041666666666669,0.046481481481481526,3.800699999809268],[0.0068750000000000235,0.018703703703703747,3.8200999999046275],[-0.0017708333333333807,0.0257407407407407,3.8370000000000033],[-0.0017708333333333807,0.0257407407407407,3.8506999998092653],[-0.04229166666666669,0.02240740740740745,3.8673999996185273],[-0.05697916666666671,0.030000000000000086,3.8843999996185374],[-0.07635416666666663,0.010925925925925884,3.906399999618529],[-0.05010416666666669,0.005740740740740783,3.921299999713895],[-0.03145833333333338,-0.009074074074074031,3.9375],[-0.011249999999999953,-0.002962962962963005,3.9540000000000077],[0.01604166666666664,-0.05499999999999998,3.9710000000000036],[0.03604166666666669,-0.06129629629629634,3.987399999618532],[0.024166666666666715,-0.044999999999999915,4.006199999809269],[0.024166666666666715,-0.044999999999999915,4.017399999618533],[0.01229166666666662,-0.028703703703703703,4.034000000000006],[0.005208333333333333,-0.000925925925925926,4.050699999809268],[-0.02791666666666662,-0.015555555555555513,4.069799999713894],[-0.02791666666666662,-0.015555555555555513,4.084000000000003],[-0.03114583333333331,-0.03259259259259263,4.1007999997138995],[-0.03114583333333331,-0.03259259259259263,4.117299999713893],[-0.06541666666666662,-0.06944444444444445,4.134],[-0.06541666666666662,-0.06944444444444445,4.150699999809262],[-0.09427083333333333,-0.09611111111111106,4.167299999713904],[-0.09427083333333333,-0.09611111111111106,4.1839999999999975],[-0.12906249999999997,-0.11314814814814819,4.200699999809274],[-0.12906249999999997,-0.11314814814814819,4.217399999618536],[-0.1622916666666666,-0.12092592592592595,4.234099999904629],[-0.1622916666666666,-0.12092592592592595,4.250599999904637],[-0.16416666666666668,-0.11851851851851852,4.267399999618533],[-0.14552083333333338,-0.14685185185185187,4.29219999980927],[-0.14552083333333338,-0.14685185185185187,4.301000000000002],[-0.15281250000000005,-0.15981481481481483,4.317799999713898],[-0.15281250000000005,-0.15981481481481483,4.334399999618526],[-0.14614583333333328,-0.16740740740740737,4.3507999997138995],[-0.14614583333333328,-0.16740740740740737,4.371599999904632],[-0.1264583333333333,-0.1259259259259259,4.384],[-0.10510416666666664,-0.1014814814814815,4.404599999904633],[-0.10531250000000002,-0.0477777777777777,4.420399999618539],[-0.07677083333333339,-0.01185185185185181,4.4365999999046295],[-0.04624999999999998,0.018703703703703747,4.453500000000005],[-0.014895833333333285,0.06537037037037029,4.469799999713899],[-0.002708333333333357,0.07462962962962955,4.484699999809266],[-0.013854166666666619,0.09351851851851851,4.50509999990463],[-0.013854166666666619,0.09351851851851851,4.517399999618533],[0.008020833333333382,0.09092592592592597,4.535099999904631],[0.03239583333333336,0.13537037037037042,4.555599999904629],[0.03239583333333336,0.13537037037037042,4.56739999961853],[0.03958333333333333,0.0868518518518518,4.584299999713906],[0.03958333333333333,0.0868518518518518,4.6007999997138995],[0.051145833333333356,0.042407407407407366,4.617299999713893],[0.07489583333333343,-0.017407407407407365,4.634599999904637],[0.08458333333333339,-0.03481481481481473,4.651399999618533],[0.1296875,-0.0735185185185185,4.667299999713904],[0.15229166666666671,-0.08259259259259263,4.6839999999999975],[0.17374999999999996,-0.08722222222222227,4.7013999996185305],[0.17374999999999996,-0.08722222222222227,4.717299999713902],[0.22979166666666656,-0.05740740740740741,4.733999999999995],[0.26614583333333336,0.013333333333333417,4.75209999990463],[0.2946875000000001,0.015000000000000043,4.77209999990464],[0.3444791666666667,0.08314814814814811,4.788899999618536],[0.3444791666666667,0.08314814814814811,4.800699999809268],[0.3763541666666666,0.1388888888888889,4.81739999961853],[0.39343750000000005,0.172037037037037,4.835899999618533],[0.42458333333333326,0.20092592592592592,4.851299999713902],[0.42458333333333326,0.20092592592592592,4.87689999961853],[0.43156249999999996,0.2524074074074073,4.885799999713896],[0.46031250000000007,0.2594444444444445,4.904199999809265],[0.44375,0.2933333333333333,4.918899999618532],[0.4025000000000001,0.287962962962963,4.9339999999999975],[0.3792708333333332,0.2942592592592592,4.950799999713894],[0.3792708333333332,0.2942592592592592,4.970099999904633],[0.3345833333333334,0.2390740740740741,4.984399999618532],[0.29697916666666657,0.1725925925925927,5.000899999618525],[0.2267708333333334,0.1449999999999999,5.039699999809272],[0.2267708333333334,0.1449999999999999,5.046599999904629],[0.2021874999999999,0.16074074074074066,5.0537999997139025],[0.15479166666666658,0.14833333333333337,5.06759999990463],[0.09593749999999991,0.1388888888888889,5.087399999618526],[0.09593749999999991,0.1388888888888889,5.1007999997138995],[0.058229166666666644,0.12537037037037047,5.117500000000007],[0.04052083333333331,0.09740740740740746,5.136799999713901],[0.02822916666666669,0.06740740740740736,5.151199999809265],[0.02822916666666669,0.06740740740740736,5.167599999904638],[0.00927083333333331,0.0022222222222223064,5.1839999999999975],[0.01906249999999995,0.03462962962962971,5.20459999990463],[0.0037500000000000237,0.044444444444444446,5.220799999713904],[0.0037500000000000237,0.044444444444444446,5.234099999904629],[-0.009062500000000048,0.02240740740740745,5.250799999713905],[-0.033645833333333285,-0.015555555555555513,5.270199999809265],[-0.04729166666666664,-0.03722222222222227,5.28409999990464],[-0.049479166666666664,-0.07370370370370373,5.300799999713902],[-0.05687500000000002,-0.1014814814814815,5.326000000000008],[-0.05687500000000002,-0.1014814814814815,5.334000000000003],[-0.05562499999999997,-0.11092592592592589,5.350699999809265],[-0.06802083333333328,-0.11166666666666669,5.367999999999995],[-0.07270833333333329,-0.13407407407407404,5.385799999713896],[-0.09104166666666665,-0.1514814814814815,5.400699999809262],[-0.07239583333333334,-0.15407407407407406,5.42019999980927],[-0.041666666666666664,-0.1359259259259259,5.435799999713893],[-0.022812499999999975,-0.10796296296296298,5.451000000000008],[-0.014479166666666644,-0.09111111111111109,5.467599999904635],[-0.01583333333333338,-0.09425925925925922,5.485799999713905],[-0.01583333333333338,-0.09425925925925922,5.500599999904637],[-0.026250000000000048,-0.09222222222222225,5.517399999618533],[-0.009687499999999953,-0.0735185185185185,5.535599999904633],[0.005624999999999976,-0.05333333333333336,5.554799999713893],[0.013541666666666667,-0.03759259259259251,5.571399999618535],[0.03270833333333331,-0.04222222222222214,5.588000000000008],[0.02385416666666664,-0.03518518518518519,5.605000000000004],[0.005104166666666643,-0.032407407407407406,5.620099999904639],[0.035625000000000046,-0.0338888888888888,5.634199999809269],[0.03791666666666664,-0.051111111111111156,5.653799999713897],[0.05447916666666662,-0.021851851851851768,5.671199999809261],[0.06989583333333324,0.022777777777777692,5.686000000000007],[0.041666666666666664,0.022222222222222223,5.705199999809267],[0.041666666666666664,0.022222222222222223,5.717599999904635],[0.043437500000000046,-0.01185185185185181,5.734399999618532],[0.05604166666666662,-0.025925925925925925,5.754000000000005],[0.057083333333333285,-0.0455555555555556,5.772299999713894],[0.03343750000000002,-0.04018518518518527,5.7875000000000085],[0.019687499999999976,-0.030555555555555555,5.8063999996185345],[0.019687499999999976,-0.030555555555555555,5.8174999999999955],[-0.029999999999999954,-0.05129629629629638,5.8340999999046375],[-0.04645833333333336,-0.056851851851851834,5.8507999997138995],[-0.07135416666666666,-0.0824074074074074,5.871299999713898],[-0.06458333333333334,-0.1,5.886799999713901],[-0.04645833333333336,-0.125,5.903299999713894],[-0.04645833333333336,-0.125,5.917399999618539],[-0.05583333333333336,-0.08888888888888889,5.948299999713896],[-0.05583333333333336,-0.08888888888888889,5.954999999999998],[-0.07302083333333335,-0.09981481481481477,5.967500000000001],[-0.07302083333333335,-0.09981481481481477,5.984199999809263],[-0.1015625,-0.09851851851851849,6.000799999713905],[-0.07531249999999995,-0.1346296296296296,6.020399999618533],[-0.06708333333333331,-0.16222222222222227,6.0363999996185385],[-0.043958333333333384,-0.1646296296296296,6.0530999999046315],[-0.02010416666666662,-0.18185185185185182,6.068299999713901],[-0.02010416666666662,-0.18185185185185182,6.084000000000003],[0.021354166666666667,-0.16925925925925922,6.100699999809265],[0.021354166666666667,-0.16925925925925922,6.117299999713893],[0.01593749999999995,-0.18074074074074079,6.140199999809269],[0.01593749999999995,-0.18074074074074079,6.150799999713897],[0.01572916666666669,-0.16629629629629633,6.167500000000004],[0.01572916666666669,-0.16629629629629633,6.184099999904632],[0.011354166666666643,-0.2096296296296296,6.206199999809272],[0.011354166666666643,-0.2096296296296296,6.217599999904635],[0.008645833333333287,-0.207962962962963,6.234199999809263],[0.008645833333333287,-0.207962962962963,6.250799999713905],[0.04041666666666662,-0.20203703703703707,6.2708999996185355],[0.022187499999999954,-0.15481481481481485,6.285099999904631],[0.021979166666666692,-0.1161111111111111,6.302599999904629],[0.021979166666666692,-0.1161111111111111,6.3237999997138985],[0.03208333333333328,-0.11444444444444446,6.334299999713906],[0.03208333333333328,-0.11444444444444446,6.350999999999999],[0.0046875,-0.09611111111111106,6.3725999999046365],[0.0046875,-0.09611111111111106,6.384099999904635],[-0.028125,-0.10851851851851856,6.400899999618531],[-0.01593749999999995,-0.13092592592592592,6.419899999618536],[-0.01593749999999995,-0.1653703703703704,6.436199999809261],[-0.004791666666666691,-0.17777777777777778,6.454000000000008],[0.0026041666666666665,-0.1933333333333333,6.469099999904628],[-0.0005208333333333333,-0.20277777777777778,6.484499999999997],[0.015208333333333357,-0.23481481481481484,6.500699999809271],[0.019583333333333286,-0.2512962962962963,6.521099999904635],[-0.005208333333333333,-0.23129629629629625,6.536699999809272],[0.030104166666666644,-0.2381481481481482,6.5530999999046315],[0.04916666666666671,-0.24370370370370376,6.570299999713896],[0.03125,-0.21870370370370373,6.584000000000003],[0.029999999999999954,-0.18722222222222226,6.600599999904631],[0.029999999999999954,-0.18722222222222226,6.620399999618527],[0.017916666666666713,-0.13425925925925927,6.634199999809269],[0.019375000000000024,-0.08629629629629634,6.6562999997138945],[0.019375000000000024,-0.08629629629629634,6.680999999999997],[-0.011770833333333286,-0.044999999999999915,6.686199999809261],[-0.0328125,-0.049074074074074076,6.700899999618528],[-0.027708333333333356,-0.025925925925925925,6.717500000000001],[0.030729166666666665,-0.0485185185185186,6.737399999618532],[0.006666666666666643,-0.002407407407407323,6.751599999904627],[-0.05333333333333338,-0.032407407407407406,6.767699999809267],[-0.07281249999999997,-0.0242592592592593,6.786099999904636],[-0.07999999999999995,-0.04888888888888885,6.800899999618537],[-0.07229166666666664,-0.10203703703703708,6.817299999713896],[-0.07229166666666664,-0.10203703703703708,6.836299999713901],[-0.07197916666666669,-0.14092592592592595,6.850699999809265],[-0.04010416666666667,-0.19018518518518515,6.867399999618527],[-0.021041666666666715,-0.22907407407407404,6.887199999809269],[-0.04020833333333336,-0.2559259259259259,6.901199999809265],[-0.11229166666666662,-0.24351851851851852,6.91719999980927],[-0.10666666666666665,-0.2711111111111111,6.9339999999999975],[-0.10666666666666665,-0.2711111111111111,6.950699999809274],[-0.06302083333333333,-0.2675925925925926,6.967299999713902],[-0.07781250000000005,-0.2705555555555556,6.983999999999995],[-0.11208333333333335,-0.24833333333333338,7.000599999904637],[-0.12166666666666662,-0.2494444444444444,7.01909999990464],[-0.14614583333333328,-0.2537037037037037,7.0338999996185265],[-0.18718750000000003,-0.2890740740740741,7.050599999904634],[-0.2077083333333333,-0.2596296296296296,7.067299999713896],[-0.2169791666666666,-0.2601851851851852,7.083899999618538],[-0.22072916666666664,-0.25555555555555554,7.100899999618534],[-0.21583333333333338,-0.267037037037037,7.120199999809273],[-0.21052083333333335,-0.2146296296296296,7.134],[-0.16677083333333337,-0.22092592592592594,7.150599999904628],[-0.13177083333333334,-0.2140740740740741,7.167299999713904],[-0.12437499999999997,-0.20462962962962963,7.184199999809266],[-0.12437499999999997,-0.20462962962962963,7.200699999809274],[-0.10614583333333331,-0.18796296296296297,7.217399999618536],[-0.08020833333333334,-0.1507407407407407,7.237299999713898],[-0.04885416666666664,-0.1388888888888889,7.251399999618528],[-0.005312500000000024,-0.15185185185185185,7.268799999713906],[0.04614583333333329,-0.19425925925925921,7.284000000000006],[0.058854166666666666,-0.23296296296296298,7.300599999904634],[0.058854166666666666,-0.23296296296296298,7.318299999713901],[0.058854166666666666,-0.23296296296296298,7.336299999713901],[0.08989583333333329,-0.25759259259259265,7.370299999713893],[0.08989583333333329,-0.25759259259259265,7.377499999999998],[0.0900000000000001,-0.27740740740740744,7.401299999713899],[0.0900000000000001,-0.27740740740740744,7.4095999999046285],[0.10270833333333323,-0.3116666666666667,7.434699999809268],[0.10270833333333323,-0.3116666666666667,7.442299999713896],[0.1021874999999999,-0.2831481481481481,7.468099999904638],[0.1021874999999999,-0.2831481481481481,7.475099999904629],[0.10354166666666677,-0.2737037037037037,7.501399999618528],[0.10354166666666677,-0.2737037037037037,7.511399999618533],[0.12291666666666666,-0.2564814814814815,7.536500000000004],[0.12291666666666666,-0.2564814814814815,7.543599999904629],[0.10260416666666666,-0.2390740740740741,7.5700999999046275],[0.10260416666666666,-0.2390740740740741,7.576899999618533],[0.1178124999999999,-0.21574074074074073,7.601199999809268],[0.1178124999999999,-0.21574074074074073,7.6092999997138975],[0.08156249999999995,-0.1425925925925926,7.6347999997139055],[0.08156249999999995,-0.1425925925925926,7.641699999809262],[0.07291666666666667,-0.08333333333333333,7.668000000000006],[0.07291666666666667,-0.08333333333333333,7.675599999904634],[0.03854166666666667,-0.062037037037037036,7.7057999997139035],[0.03854166666666667,-0.062037037037037036,7.713499999999996],[0.05645833333333338,-0.048333333333333374,7.736699999809261],[0.05645833333333338,-0.048333333333333374,7.7437999997139],[0.052083333333333336,-0.04685185185185177,7.770299999713899],[0.052083333333333336,-0.04685185185185177,7.778399999618529],[0.06822916666666666,-0.07814814814814813,7.803599999904634],[0.06822916666666666,-0.07814814814814813,7.81139999961853],[0.08479166666666677,-0.09981481481481477,7.839799999713904],[0.08479166666666677,-0.09981481481481477,7.849099999904638],[0.1056250000000001,-0.14537037037037037,7.870199999809273],[0.1056250000000001,-0.14537037037037037,7.877699999809266],[0.15,-0.19944444444444442,7.908500000000004],[0.15,-0.19944444444444442,7.915699999809263],[0.15125000000000005,-0.21851851851851853,7.936699999809264],[0.15125000000000005,-0.21851851851851853,7.9435999999046345],[0.18677083333333327,-0.2505555555555556,7.97369999980927]]","[0.0003999996185228838,0.050499999999999545,0.059199999809266046,0.06739999961853016,0.08400000000000318,0.10069999980926525,0.11749999999999261,0.1341999998092689,0.1506999998092624,0.16750000000000398,0.18409999990463177,0.20079999971389384,0.21729999971390157,0.23399999999999466,0.2506999998092567,0.267399999618533,0.2874999999999943,0.3053999996185297,0.3175999999046297,0.3341999998092575,0.35069999980926525,0.3715999999046318,0.38869999980926195,0.42629999971389054,0.43329999971389555,0.4531999998092573,0.460099999904628,0.4890999999046244,0.49629999971389793,0.5201999998092646,0.5291999998092649,0.5561999998092659,0.5647999997138982,0.5865999999046352,0.5941999998092626,0.6228999996185252,0.6304999999999978,0.6532999997138944,0.6605999999046333,0.6911999998092568,0.6988999996185328,0.7202999997139017,0.7287999997138996,0.7535000000000025,0.7611999998092642,0.767399999618533,0.7861999998092699,0.8204999999999956,0.8276999998092691,0.8512999997139019,0.8590999999046289,0.8847999997138913,0.8924999999999983,0.9180999999046264,0.9267999997138929,0.9698999996185336,0.9772999997138925,0.9847999997138999,1.0030000000000001,1.0204999999999984,1.0342999997138946,1.0525999999046292,1.0715000000000003,1.0841999998092575,1.1008999996185338,1.1241999998092638,1.1343999996185232,1.150899999618531,1.1681999998092607,1.1929999999999978,1.2092999997138918,1.2175000000000011,1.2342999997138975,1.2528999996185348,1.268500000000003,1.2844999999999942,1.3008999996185224,1.3208999996185327,1.3342999997138918,1.3510999999046334,1.3674999999999926,1.3866999998092666,1.4009999999999962,1.4176999998092583,1.4362999997138957,1.4507999997138938,1.4675999999046354,1.4861999998092585,1.5008999996185253,1.5174999999999983,1.534399999618529,1.5529999999999973,1.5673999996185302,1.5840000000000032,1.601299999713902,1.623199999809259,1.6340000000000003,1.6506999998092624,1.6672999997138902,1.6839999999999975,1.7006999998092596,1.7186999998092602,1.7339999999999947,1.750799999713891,1.767399999618533,1.7839999999999918,1.800699999809268,1.8173999996185302,1.8340999999046375,1.8534999999999968,1.8693999996185227,1.8875000000000028,1.9018999996185215,1.9194999999999993,1.9375999999046343,1.9508999996185281,1.9675999999046354,1.9923999996185273,2.000799999713891,2.0174999999999983,2.0341999998092604,2.053199999809266,2.0678999996185325,2.0841999998092575,2.1006999998092653,2.1225999999046365,2.1343999996185232,2.150899999618531,2.1725999999046337,2.184199999809266,2.2010999999046277,2.224199999809258,2.2342999997138975,2.2508999996185253,2.27219999980926,2.288099999904631,2.3056999998092635,2.3271999998092667,2.334399999618526,2.350999999999999,2.367599999904627,2.3873999996185233,2.401599999904633,2.417599999904624,2.437799999713903,2.450899999618528,2.4675999999046354,2.486699999809261,2.502899999618535,2.521899999618526,2.5378999996185314,2.5537999997139025,2.569099999904637,2.585399999618531,2.6022999997138925,2.620599999904627,2.637199999809269,2.6506999998092624,2.6673999996185245,2.6872999997139004,2.702799999713889,2.7197999997138993,2.745299999713893,2.7510000000000048,2.7680000000000007,2.7849999999999966,2.8056999998092635,2.8211999998092665,2.836899999618538,2.853899999618534,2.870500000000007,2.8858999996185304,2.906399999618529,2.9172999997139044,2.9342999997139003,2.950799999713894,2.969699999809265,2.9850999999046337,3.000699999809271,3.018899999618526,3.036299999713904,3.050699999809268,3.067299999713896,3.084000000000003,3.106599999904631,3.117500000000007,3.1343999996185374,3.1506999998092624,3.1710000000000065,3.185699999809273,3.2108999996185332,3.217399999618536,3.2339999999999947,3.250699999809271,3.268899999618526,3.284000000000006,3.300699999809268,3.3211999998092665,3.334299999713906,3.355000000000004,3.3732999997138933,3.3840000000000003,3.4007999997138967,3.421999999999997,3.434199999809266,3.450799999713894,3.469299999713897,3.4871999998092633,3.5012999997138934,3.5215999999046375,3.5393999996185386,3.5508999996185366,3.568099999904632,3.5840999999046375,3.6097999997139,3.619099999904634,3.634299999713903,3.651699999809267,3.6672999997139044,3.6839999999999975,3.704199999809262,3.7208999996185383,3.7356999998092704,3.7510000000000048,3.7672999997138987,3.7840999999046403,3.800699999809268,3.8200999999046275,3.8370000000000033,3.8506999998092653,3.8673999996185273,3.8843999996185374,3.906399999618529,3.921299999713895,3.9375,3.9540000000000077,3.9710000000000036,3.987399999618532,4.006199999809269,4.017399999618533,4.034000000000006,4.050699999809268,4.069799999713894,4.084000000000003,4.1007999997138995,4.117299999713893,4.134,4.150699999809262,4.167299999713904,4.1839999999999975,4.200699999809274,4.217399999618536,4.234099999904629,4.250599999904637,4.267399999618533,4.29219999980927,4.301000000000002,4.317799999713898,4.334399999618526,4.3507999997138995,4.371599999904632,4.384,4.404599999904633,4.420399999618539,4.4365999999046295,4.453500000000005,4.469799999713899,4.484699999809266,4.50509999990463,4.517399999618533,4.535099999904631,4.555599999904629,4.56739999961853,4.584299999713906,4.6007999997138995,4.617299999713893,4.634599999904637,4.651399999618533,4.667299999713904,4.6839999999999975,4.7013999996185305,4.717299999713902,4.733999999999995,4.75209999990463,4.77209999990464,4.788899999618536,4.800699999809268,4.81739999961853,4.835899999618533,4.851299999713902,4.87689999961853,4.885799999713896,4.904199999809265,4.918899999618532,4.9339999999999975,4.950799999713894,4.970099999904633,4.984399999618532,5.000899999618525,5.039699999809272,5.046599999904629,5.0537999997139025,5.06759999990463,5.087399999618526,5.1007999997138995,5.117500000000007,5.136799999713901,5.151199999809265,5.167599999904638,5.1839999999999975,5.20459999990463,5.220799999713904,5.234099999904629,5.250799999713905,5.270199999809265,5.28409999990464,5.300799999713902,5.326000000000008,5.334000000000003,5.350699999809265,5.367999999999995,5.385799999713896,5.400699999809262,5.42019999980927,5.435799999713893,5.451000000000008,5.467599999904635,5.485799999713905,5.500599999904637,5.517399999618533,5.535599999904633,5.554799999713893,5.571399999618535,5.588000000000008,5.605000000000004,5.620099999904639,5.634199999809269,5.653799999713897,5.671199999809261,5.686000000000007,5.705199999809267,5.717599999904635,5.734399999618532,5.754000000000005,5.772299999713894,5.7875000000000085,5.8063999996185345,5.8174999999999955,5.8340999999046375,5.8507999997138995,5.871299999713898,5.886799999713901,5.903299999713894,5.917399999618539,5.948299999713896,5.954999999999998,5.967500000000001,5.984199999809263,6.000799999713905,6.020399999618533,6.0363999996185385,6.0530999999046315,6.068299999713901,6.084000000000003,6.100699999809265,6.117299999713893,6.140199999809269,6.150799999713897,6.167500000000004,6.184099999904632,6.206199999809272,6.217599999904635,6.234199999809263,6.250799999713905,6.2708999996185355,6.285099999904631,6.302599999904629,6.3237999997138985,6.334299999713906,6.350999999999999,6.3725999999046365,6.384099999904635,6.400899999618531,6.419899999618536,6.436199999809261,6.454000000000008,6.469099999904628,6.484499999999997,6.500699999809271,6.521099999904635,6.536699999809272,6.5530999999046315,6.570299999713896,6.584000000000003,6.600599999904631,6.620399999618527,6.634199999809269,6.6562999997138945,6.680999999999997,6.686199999809261,6.700899999618528,6.717500000000001,6.737399999618532,6.751599999904627,6.767699999809267,6.786099999904636,6.800899999618537,6.817299999713896,6.836299999713901,6.850699999809265,6.867399999618527,6.887199999809269,6.901199999809265,6.91719999980927,6.9339999999999975,6.950699999809274,6.967299999713902,6.983999999999995,7.000599999904637,7.01909999990464,7.0338999996185265,7.050599999904634,7.067299999713896,7.083899999618538,7.100899999618534,7.120199999809273,7.134,7.150599999904628,7.167299999713904,7.184199999809266,7.200699999809274,7.217399999618536,7.237299999713898,7.251399999618528,7.268799999713906,7.284000000000006,7.300599999904634,7.318299999713901,7.336299999713901,7.370299999713893,7.377499999999998,7.401299999713899,7.4095999999046285,7.434699999809268,7.442299999713896,7.468099999904638,7.475099999904629,7.501399999618528,7.511399999618533,7.536500000000004,7.543599999904629,7.5700999999046275,7.576899999618533,7.601199999809268,7.6092999997138975,7.6347999997139055,7.641699999809262,7.668000000000006,7.675599999904634,7.7057999997139035,7.713499999999996,7.736699999809261,7.7437999997139,7.770299999713899,7.778399999618529,7.803599999904634,7.81139999961853,7.839799999713904,7.849099999904638,7.870199999809273,7.877699999809266,7.908500000000004,7.915699999809263,7.936699999809264,7.9435999999046345,7.97369999980927]","[1732164384971,1732164385009,1732164385018,1732164385026,1732164385043,1732164385060,1732164385076,1732164385093,1732164385110,1732164385126,1732164385143,1732164385160,1732164385176,1732164385193,1732164385210,1732164385226,1732164385246,1732164385264,1732164385277,1732164385293,1732164385310,1732164385331,1732164385348,1732164385385,1732164385392,1732164385412,1732164385419,1732164385448,1732164385455,1732164385479,1732164385488,1732164385515,1732164385524,1732164385546,1732164385553,1732164385582,1732164385589,1732164385612,1732164385620,1732164385650,1732164385658,1732164385679,1732164385688,1732164385712,1732164385720,1732164385726,1732164385745,1732164385780,1732164385787,1732164385810,1732164385818,1732164385844,1732164385852,1732164385877,1732164385886,1732164385929,1732164385936,1732164385944,1732164385962,1732164385980,1732164385993,1732164386012,1732164386031,1732164386043,1732164386060,1732164386083,1732164386093,1732164386110,1732164386127,1732164386152,1732164386168,1732164386177,1732164386193,1732164386212,1732164386227,1732164386243,1732164386260,1732164386280,1732164386293,1732164386310,1732164386327,1732164386346,1732164386360,1732164386377,1732164386395,1732164386410,1732164386427,1732164386445,1732164386460,1732164386477,1732164386493,1732164386512,1732164386526,1732164386543,1732164386560,1732164386582,1732164386593,1732164386610,1732164386626,1732164386643,1732164386660,1732164386678,1732164386693,1732164386710,1732164386726,1732164386743,1732164386760,1732164386776,1732164386793,1732164386812,1732164386828,1732164386847,1732164386861,1732164386878,1732164386897,1732164386910,1732164386927,1732164386951,1732164386960,1732164386977,1732164386993,1732164387012,1732164387027,1732164387043,1732164387060,1732164387082,1732164387093,1732164387110,1732164387132,1732164387143,1732164387160,1732164387183,1732164387193,1732164387210,1732164387231,1732164387247,1732164387265,1732164387286,1732164387293,1732164387310,1732164387327,1732164387346,1732164387361,1732164387377,1732164387397,1732164387410,1732164387427,1732164387446,1732164387462,1732164387481,1732164387497,1732164387513,1732164387528,1732164387544,1732164387561,1732164387580,1732164387596,1732164387610,1732164387626,1732164387646,1732164387662,1732164387679,1732164387704,1732164387710,1732164387727,1732164387744,1732164387765,1732164387780,1732164387796,1732164387813,1732164387830,1732164387845,1732164387865,1732164387876,1732164387893,1732164387910,1732164387929,1732164387944,1732164387960,1732164387978,1732164387995,1732164388010,1732164388026,1732164388043,1732164388066,1732164388076,1732164388093,1732164388110,1732164388130,1732164388145,1732164388170,1732164388176,1732164388193,1732164388210,1732164388228,1732164388243,1732164388260,1732164388280,1732164388293,1732164388314,1732164388332,1732164388343,1732164388360,1732164388381,1732164388393,1732164388410,1732164388428,1732164388446,1732164388460,1732164388481,1732164388498,1732164388510,1732164388527,1732164388543,1732164388569,1732164388578,1732164388593,1732164388611,1732164388626,1732164388643,1732164388663,1732164388680,1732164388695,1732164388710,1732164388726,1732164388743,1732164388760,1732164388779,1732164388796,1732164388810,1732164388826,1732164388843,1732164388865,1732164388880,1732164388896,1732164388913,1732164388930,1732164388946,1732164388965,1732164388976,1732164388993,1732164389010,1732164389029,1732164389043,1732164389060,1732164389076,1732164389093,1732164389110,1732164389126,1732164389143,1732164389160,1732164389176,1732164389193,1732164389210,1732164389226,1732164389251,1732164389260,1732164389277,1732164389293,1732164389310,1732164389331,1732164389343,1732164389364,1732164389379,1732164389396,1732164389413,1732164389429,1732164389444,1732164389464,1732164389477,1732164389494,1732164389515,1732164389526,1732164389543,1732164389560,1732164389576,1732164389594,1732164389610,1732164389626,1732164389643,1732164389660,1732164389676,1732164389693,1732164389711,1732164389731,1732164389748,1732164389760,1732164389776,1732164389795,1732164389810,1732164389836,1732164389845,1732164389863,1732164389878,1732164389893,1732164389910,1732164389929,1732164389943,1732164389960,1732164389999,1732164390006,1732164390013,1732164390027,1732164390046,1732164390060,1732164390077,1732164390096,1732164390110,1732164390127,1732164390143,1732164390164,1732164390180,1732164390193,1732164390210,1732164390229,1732164390243,1732164390260,1732164390285,1732164390293,1732164390310,1732164390327,1732164390345,1732164390360,1732164390379,1732164390395,1732164390410,1732164390427,1732164390445,1732164390460,1732164390476,1732164390495,1732164390514,1732164390530,1732164390547,1732164390564,1732164390579,1732164390593,1732164390613,1732164390630,1732164390645,1732164390664,1732164390677,1732164390693,1732164390713,1732164390731,1732164390746,1732164390765,1732164390776,1732164390793,1732164390810,1732164390830,1732164390846,1732164390862,1732164390876,1732164390907,1732164390914,1732164390927,1732164390943,1732164390960,1732164390979,1732164390995,1732164391012,1732164391027,1732164391043,1732164391060,1732164391076,1732164391099,1732164391110,1732164391127,1732164391143,1732164391165,1732164391177,1732164391193,1732164391210,1732164391230,1732164391244,1732164391262,1732164391283,1732164391293,1732164391310,1732164391332,1732164391343,1732164391360,1732164391379,1732164391395,1732164391413,1732164391428,1732164391444,1732164391460,1732164391480,1732164391496,1732164391512,1732164391529,1732164391543,1732164391560,1732164391579,1732164391593,1732164391615,1732164391640,1732164391645,1732164391660,1732164391676,1732164391696,1732164391711,1732164391727,1732164391745,1732164391760,1732164391776,1732164391795,1732164391810,1732164391827,1732164391846,1732164391860,1732164391876,1732164391893,1732164391914,1732164391926,1732164391943,1732164391960,1732164391978,1732164391993,1732164392010,1732164392026,1732164392043,1732164392060,1732164392079,1732164392093,1732164392110,1732164392126,1732164392143,1732164392160,1732164392176,1732164392196,1732164392210,1732164392228,1732164392243,1732164392260,1732164392277,1732164392295,1732164392329,1732164392337,1732164392360,1732164392369,1732164392394,1732164392401,1732164392427,1732164392434,1732164392460,1732164392470,1732164392496,1732164392503,1732164392529,1732164392536,1732164392560,1732164392568,1732164392594,1732164392601,1732164392627,1732164392635,1732164392665,1732164392673,1732164392696,1732164392703,1732164392729,1732164392737,1732164392763,1732164392770,1732164392799,1732164392808,1732164392829,1732164392837,1732164392868,1732164392875,1732164392896,1732164392903,1732164392933]","[[1139.3,429.1],[1179.6,443.1],[1179.6,443.1],[1199.8,474.1],[1199.8,474.1],[1203.3,499.9],[1203.3,499.9],[1230,532.3],[1230,532.3],[1235.1,542.4],[1235.1,542.4],[1247.5,546.8],[1247.5,546.8],[1255.1,558.9],[1255.1,558.9],[1254.4,589.7],[1265.5,607.2],[1284.6,623.2],[1284.6,623.2],[1255.6,617.6],[1255.6,617.6],[1256.2,612.9],[1238.2,603.3],[1224.9,592.7],[1224.9,592.7],[1208.3,576.8],[1208.3,576.8],[1178.4,563.1],[1178.4,563.1],[1181.2,548.7],[1181.2,548.7],[1182.3,515.1],[1182.3,515.1],[1149.6,506],[1149.6,506],[1119.1,490.4],[1119.1,490.4],[1105.8,485.6],[1105.8,485.6],[1077.7,471.1],[1077.7,471.1],[1088,472.1],[1088,472.1],[1095.9,464.5],[1095.9,464.5],[1095.9,464.5],[1095.9,464.5],[1093.2,468.1],[1093.2,468.1],[1100,468.2],[1100,468.2],[1078.3,463],[1078.3,463],[1072.1,471],[1072.1,471],[1069.2,474.7],[1069.2,474.7],[1059.1,469.3],[1054.6,463.2],[1054.6,463.2],[1070.3,460.7],[1067.5,462.8],[1060.1,470.7],[1060.1,470.7],[1079.8,463.8],[1072.3,459.8],[1072.3,459.8],[1069.5,465.1],[1060.3,464.5],[1083,458.7],[1083,458.7],[1093.6,461.8],[1085.1,463.5],[1056.6,468.5],[1042.8,467.8],[1033.9,463.6],[1013.5,471.1],[1011.3,485.9],[1011.3,485.9],[1000.2,486.2],[1000.2,486.2],[987.6,492.2],[964,490.4],[955.8,484.7],[960.2,475.3],[961.1,483.8],[938.8,476.2],[915.8,474.1],[908.4,476.6],[908.4,476.6],[910.3,475],[937.5,478.4],[943.3,474.6],[942.8,478.2],[949.1,479.3],[955.3,485.8],[955.3,485.8],[965.7,470.4],[965.7,470.4],[992.7,469.3],[1041.9,465.1],[1052.3,473],[1052.3,473],[1075,468.8],[1075,468.8],[1065.1,471.6],[1077.6,463.6],[1077.6,463.6],[1078.3,464.5],[1093.1,470.6],[1104.9,474],[1124.8,482.6],[1129.4,488.1],[1114.1,509.8],[1142.5,504.6],[1142.5,504.6],[1106.9,501.7],[1090.3,496.4],[1090.3,496.4],[1064.6,494.5],[1055.6,486.7],[1032.1,482],[1009,479.3],[1009,479.3],[957.7,475.4],[957.7,475.4],[959.8,473.1],[959.8,473.1],[961.8,469.5],[961.8,469.5],[930.1,459.3],[930.1,459.3],[946.3,455.6],[946.3,455.6],[945.3,442.3],[947.5,448.8],[942.6,453.1],[942.6,453.1],[970.2,461.2],[970.2,461.2],[1008.9,476.7],[1047.5,479],[1059.3,480.6],[1059.3,480.6],[1064.7,468.4],[1064.7,468.4],[1085.2,485.1],[1116.2,505.4],[1132.5,521.5],[1154.7,525.4],[1174.4,537.6],[1156,554.5],[1141.7,568.5],[1139.1,589],[1124.4,611.4],[1108,625],[1095.6,618.7],[1095.6,618.7],[1046.6,594.2],[1023.7,592.8],[1018.1,582.6],[1012.2,572.6],[1012.2,572.6],[1011.1,562],[1018.5,533.4],[1033.2,506.7],[1025.6,471.2],[1037.4,464.1],[1059.2,462.8],[1085,477],[1110.2,480.6],[1098.4,479],[1111.7,482.5],[1111.7,482.5],[1110.1,472.7],[1112.7,473.3],[1108.6,492.3],[1108.6,492.3],[1141.2,504.7],[1143.1,494.9],[1128.9,483.6],[1149.7,496.6],[1136.3,494.6],[1169,511.8],[1181.5,515],[1181.5,515],[1193.7,527.6],[1187.3,535],[1188.1,528.8],[1181.7,566.5],[1181.7,566.5],[1148.8,572.6],[1124.7,577.1],[1079.4,565.9],[1081.5,561],[1081.5,561],[1049.1,547.7],[1049.1,547.7],[1041.5,541.5],[1069,536.7],[1069,536.7],[1072.8,550.1],[1073.9,556.4],[1075.7,516.8],[1075.7,516.8],[1105.9,527.1],[1130.2,510.7],[1170.8,496.9],[1180.5,499.3],[1207.6,514.3],[1207.6,514.3],[1193.8,510.1],[1143.1,506.8],[1141.3,511.1],[1139.4,519.2],[1139.4,519.2],[1123.7,523.7],[1132.1,509.7],[1132.1,509.7],[1134.2,530],[1126.8,553.3],[1103.8,562.8],[1068,565.3],[1047.5,567.9],[1047.5,567.9],[1019.2,585.2],[979.6,565.1],[966.6,550.1],[958.3,553.9],[958.3,553.9],[919.4,552.1],[905.3,556.2],[886.7,545.9],[911.9,543.1],[929.8,535.1],[949.2,538.4],[975.4,510.3],[994.6,506.9],[983.2,515.7],[983.2,515.7],[971.8,524.5],[965,539.5],[933.2,531.6],[933.2,531.6],[930.1,522.4],[930.1,522.4],[897.2,502.5],[897.2,502.5],[869.5,488.1],[869.5,488.1],[836.1,478.9],[836.1,478.9],[804.2,474.7],[804.2,474.7],[802.4,476],[820.3,460.7],[820.3,460.7],[813.3,453.7],[813.3,453.7],[819.7,449.6],[819.7,449.6],[838.6,472],[859.1,485.2],[858.9,514.2],[886.3,533.6],[915.6,550.1],[945.7,575.3],[957.4,580.3],[946.7,590.5],[946.7,590.5],[967.7,589.1],[991.1,613.1],[991.1,613.1],[998,586.9],[998,586.9],[1009.1,562.9],[1031.9,530.6],[1041.2,521.2],[1084.5,500.3],[1106.2,495.4],[1126.8,492.9],[1126.8,492.9],[1180.6,509],[1215.5,547.2],[1242.9,548.1],[1290.7,584.9],[1290.7,584.9],[1321.3,615],[1337.7,632.9],[1367.6,648.5],[1367.6,648.5],[1374.3,676.3],[1401.9,680.1],[1386,698.4],[1346.4,695.5],[1324.1,698.9],[1324.1,698.9],[1281.2,669.1],[1245.1,633.2],[1177.7,618.3],[1177.7,618.3],[1154.1,626.8],[1108.6,620.1],[1052.1,615],[1052.1,615],[1015.9,607.7],[998.9,592.6],[987.1,576.4],[987.1,576.4],[968.9,541.2],[978.3,558.7],[963.6,564],[963.6,564],[951.3,552.1],[927.7,531.6],[914.6,519.9],[912.5,500.2],[905.4,485.2],[905.4,485.2],[906.6,480.1],[894.7,479.7],[890.2,467.6],[872.6,458.2],[890.5,456.8],[920,466.6],[938.1,481.7],[946.1,490.8],[944.8,489.1],[944.8,489.1],[934.8,490.2],[950.7,500.3],[965.4,511.2],[973,519.7],[991.4,517.2],[982.9,521],[964.9,522.5],[994.2,521.7],[996.4,512.4],[1012.3,528.2],[1027.1,552.3],[1000,552],[1000,552],[1001.7,533.6],[1013.8,526],[1014.8,515.4],[992.1,518.3],[978.9,523.5],[978.9,523.5],[931.2,512.3],[915.4,509.3],[891.5,495.5],[898,486],[915.4,472.5],[915.4,472.5],[906.4,492],[906.4,492],[889.9,486.1],[889.9,486.1],[862.5,486.8],[887.7,467.3],[895.6,452.4],[917.8,451.1],[940.7,441.8],[940.7,441.8],[980.5,448.6],[980.5,448.6],[975.3,442.4],[975.3,442.4],[975.1,450.2],[975.1,450.2],[970.9,426.8],[970.9,426.8],[968.3,427.7],[968.3,427.7],[998.8,430.9],[981.3,456.4],[981.1,477.3],[981.1,477.3],[990.8,478.2],[990.8,478.2],[964.5,488.1],[964.5,488.1],[933,481.4],[944.7,469.3],[944.7,450.7],[955.4,444],[962.5,435.6],[959.5,430.5],[974.6,413.2],[978.8,404.3],[955,415.1],[988.9,411.4],[1007.2,408.4],[990,421.9],[988.8,438.9],[988.8,438.9],[977.2,467.5],[978.6,493.4],[978.6,493.4],[948.7,515.7],[928.5,513.5],[933.4,526],[989.5,513.8],[966.4,538.7],[908.8,522.5],[890.1,526.9],[883.2,513.6],[890.6,484.9],[890.6,484.9],[890.9,463.9],[921.5,437.3],[939.8,416.3],[921.4,401.8],[852.2,408.5],[857.6,393.6],[857.6,393.6],[899.5,395.5],[885.3,393.9],[852.4,405.9],[843.2,405.3],[819.7,403],[780.3,383.9],[760.6,399.8],[751.7,399.5],[748.1,402],[752.8,395.8],[757.9,424.1],[799.9,420.7],[833.5,424.4],[840.6,429.5],[840.6,429.5],[858.1,438.5],[883,458.6],[913.1,465],[954.9,458],[1004.3,435.1],[1016.5,414.2],[1016.5,414.2],[1016.5,414.2],[1046.3,400.9],[1046.3,400.9],[1046.4,390.2],[1046.4,390.2],[1058.6,371.7],[1058.6,371.7],[1058.1,387.1],[1058.1,387.1],[1059.4,392.2],[1059.4,392.2],[1078,401.5],[1078,401.5],[1058.5,410.9],[1058.5,410.9],[1073.1,423.5],[1073.1,423.5],[1038.3,463],[1038.3,463],[1030,495],[1030,495],[997,506.5],[997,506.5],[1014.2,513.9],[1014.2,513.9],[1010,514.7],[1010,514.7],[1025.5,497.8],[1025.5,497.8],[1041.4,486.1],[1041.4,486.1],[1061.4,461.5],[1061.4,461.5],[1104,432.3],[1104,432.3],[1105.2,422],[1105.2,422],[1139.3,404.7]]","[-0.056692,0.170076]","[0.056692,0.170076]","[0.170076,0.170076]","[-0.170076,0.056692]","[-0.170076,-0.056692]","[-0.170076,-0.170076]","[-0.056692,0.056692]","[0.056692,0.056692]","[0.170076,0.056692]","[-0.056692,-0.056692]","[0.056692,-0.056692]","[0.170076,-0.056692]","[-0.056692,-0.170076]","[0.056692,-0.170076]","[0.170076,-0.170076]",0,0,0,0,1,1,Smartphone,20,20,7,2,70,4,2,70,4
