inst1_resp.keys,inst1_resp.rt,calibrationMouse.x,calibrationMouse.y,calibrationMouse.leftButton,calibrationMouse.midButton,calibrationMouse.rightButton,calibrationClick.x,calibrationClick.y,calibrationClick.leftButton,calibrationClick.midButton,calibrationClick.rightButton,calibrationClick.clicked_name,trialsc.thisRepN,trialsc.thisTrialN,trialsc.thisN,trialsc.thisIndex,trialsc.ran,calibration_x,calibration_y,participant,session,date,expName,psychopyVersion,OS,frameRate,ScreenRes_pixels,Camera_pixels,mouse_2.x,mouse_2.y,mouse_2.leftButton,mouse_2.midButton,mouse_2.rightButton,mouse_2.time,mouse_2.clicked_name,mouse.x,mouse.y,mouse.leftButton,mouse.midButton,mouse.rightButton,mouse.time,mouse.clicked_name,Choice,Trial,TrialDuration,MOUSE_GAZE,ET_GAZE,ET_GAZE_x_T,time,unixTime,ET_GAZE_NF,Loc_Bus_label,Loc_Metro_label,Loc_RH_label,Loc_Cost_label,Loc_Travel_label,Loc_Comfort_label,Loc_Bus_cost,Loc_Metro_cost,Loc_RH_cost,Loc_Bus_travel,Loc_Metro_travel,Loc_RH_travel,Loc_Bus_comfort,Loc_Metro_comfort,Loc_RH_comfort,trials.thisRepN,trials.thisTrialN,trials.thisN,trials.thisIndex,trials.ran,Block,Device,RH_cost,RH_travel_time,RH_Comfort,metro_cost,metro_travel_time,metro_Comfort,Bus_cost,Bus_travel_time,Bus_Comfort
space,2.1227,-0.35625,0.17037037,1,0,0,0.327083333,0.331481481,1,0,0,calibration_square,0,0,0,17,1,0.33,0.33,17,001,2024-11-25_12h48.02.111,Attention_exp_legacy,2023.1.0,Win32,59.88023952,,,,,,,,,,,,,,,,,,,,,,,,,,,,,,,,,,,,,,,,,,,,,,,,,,,,,,,,
,,,,,,,0.005208333,-0.337037037,1,0,0,calibration_square,0,1,1,10,1,0,-0.33,17,001,2024-11-25_12h48.02.111,Attention_exp_legacy,2023.1.0,Win32,59.88023952,,,,,,,,,,,,,,,,,,,,,,,,,,,,,,,,,,,,,,,,,,,,,,,,,,,,,,,,
,,,,,,,-0.666666667,-0.655555556,1,0,0,,0,2,2,0,1,-0.67,-0.67,17,001,2024-11-25_12h48.02.111,Attention_exp_legacy,2023.1.0,Win32,59.88023952,,,,,,,,,,,,,,,,,,,,,,,,,,,,,,,,,,,,,,,,,,,,,,,,,,,,,,,,
,,,,,,,0.322916667,0.683333333,1,0,0,,0,3,3,18,1,0.33,0.67,17,001,2024-11-25_12h48.02.111,Attention_exp_legacy,2023.1.0,Win32,59.88023952,,,,,,,,,,,,,,,,,,,,,,,,,,,,,,,,,,,,,,,,,,,,,,,,,,,,,,,,
,,,,,,,-0.676041667,0.02037037,1,0,0,,0,4,4,2,1,-0.67,0,17,001,2024-11-25_12h48.02.111,Attention_exp_legacy,2023.1.0,Win32,59.88023952,,,,,,,,,,,,,,,,,,,,,,,,,,,,,,,,,,,,,,,,,,,,,,,,,,,,,,,,
,,,,,,,0.321875,-0.001851852,1,0,0,calibration_square,0,5,5,16,1,0.33,0,17,001,2024-11-25_12h48.02.111,Attention_exp_legacy,2023.1.0,Win32,59.88023952,,,,,,,,,,,,,,,,,,,,,,,,,,,,,,,,,,,,,,,,,,,,,,,,,,,,,,,,
,,,,,,,-0.00625,0.001851852,1,0,0,calibration_square,0,6,6,11,1,0,0,17,001,2024-11-25_12h48.02.111,Attention_exp_legacy,2023.1.0,Win32,59.88023952,,,,,,,,,,,,,,,,,,,,,,,,,,,,,,,,,,,,,,,,,,,,,,,,,,,,,,,,
,,,,,,,-0.678125,-0.318518519,1,0,0,,0,7,7,1,1,-0.67,-0.33,17,001,2024-11-25_12h48.02.111,Attention_exp_legacy,2023.1.0,Win32,59.88023952,,,,,,,,,,,,,,,,,,,,,,,,,,,,,,,,,,,,,,,,,,,,,,,,,,,,,,,,
,,,,,,,-0.336458333,-0.333333333,1,0,0,calibration_square,0,8,8,5,1,-0.33,-0.33,17,001,2024-11-25_12h48.02.111,Attention_exp_legacy,2023.1.0,Win32,59.88023952,,,,,,,,,,,,,,,,,,,,,,,,,,,,,,,,,,,,,,,,,,,,,,,,,,,,,,,,
,,,,,,,-0.346875,-0.677777778,1,0,0,,0,9,9,4,1,-0.33,-0.67,17,001,2024-11-25_12h48.02.111,Attention_exp_legacy,2023.1.0,Win32,59.88023952,,,,,,,,,,,,,,,,,,,,,,,,,,,,,,,,,,,,,,,,,,,,,,,,,,,,,,,,
,,,,,,,-0.00625,-0.668518519,1,0,0,calibration_square,0,10,10,9,1,0,-0.67,17,001,2024-11-25_12h48.02.111,Attention_exp_legacy,2023.1.0,Win32,59.88023952,,,,,,,,,,,,,,,,,,,,,,,,,,,,,,,,,,,,,,,,,,,,,,,,,,,,,,,,
,,,,,,,0.332291667,-0.32962963,1,0,0,calibration_square,0,11,11,15,1,0.33,-0.33,17,001,2024-11-25_12h48.02.111,Attention_exp_legacy,2023.1.0,Win32,59.88023952,,,,,,,,,,,,,,,,,,,,,,,,,,,,,,,,,,,,,,,,,,,,,,,,,,,,,,,,
,,,,,,,-0.339583333,0.007407407,1,0,0,calibration_square,0,12,12,6,1,-0.33,0,17,001,2024-11-25_12h48.02.111,Attention_exp_legacy,2023.1.0,Win32,59.88023952,,,,,,,,,,,,,,,,,,,,,,,,,,,,,,,,,,,,,,,,,,,,,,,,,,,,,,,,
,,,,,,,0.328125,-0.666666667,1,0,0,calibration_square,0,13,13,14,1,0.33,-0.67,17,001,2024-11-25_12h48.02.111,Attention_exp_legacy,2023.1.0,Win32,59.88023952,,,,,,,,,,,,,,,,,,,,,,,,,,,,,,,,,,,,,,,,,,,,,,,,,,,,,,,,
,,,,,,,-0.66875,0.324074074,1,0,0,calibration_square,0,14,14,3,1,-0.67,0.33,17,001,2024-11-25_12h48.02.111,Attention_exp_legacy,2023.1.0,Win32,59.88023952,,,,,,,,,,,,,,,,,,,,,,,,,,,,,,,,,,,,,,,,,,,,,,,,,,,,,,,,
,,,,,,,0.672916667,0.664814815,1,0,0,calibration_square,0,15,15,19,1,0.67,0.67,17,001,2024-11-25_12h48.02.111,Attention_exp_legacy,2023.1.0,Win32,59.88023952,,,,,,,,,,,,,,,,,,,,,,,,,,,,,,,,,,,,,,,,,,,,,,,,,,,,,,,,
,,,,,,,-0.325,0.666666667,1,0,0,calibration_square,0,16,16,8,1,-0.33,0.67,17,001,2024-11-25_12h48.02.111,Attention_exp_legacy,2023.1.0,Win32,59.88023952,,,,,,,,,,,,,,,,,,,,,,,,,,,,,,,,,,,,,,,,,,,,,,,,,,,,,,,,
,,,,,,,0.665625,-0.668518519,1,0,0,calibration_square,0,17,17,20,1,0.67,-0.67,17,001,2024-11-25_12h48.02.111,Attention_exp_legacy,2023.1.0,Win32,59.88023952,,,,,,,,,,,,,,,,,,,,,,,,,,,,,,,,,,,,,,,,,,,,,,,,,,,,,,,,
,,,,,,,-0.33125,0.333333333,1,0,0,calibration_square,0,18,18,7,1,-0.33,0.33,17,001,2024-11-25_12h48.02.111,Attention_exp_legacy,2023.1.0,Win32,59.88023952,,,,,,,,,,,,,,,,,,,,,,,,,,,,,,,,,,,,,,,,,,,,,,,,,,,,,,,,
,,,,,,,0.00625,0.335185185,1,0,0,calibration_square,0,19,19,12,1,0,0.33,17,001,2024-11-25_12h48.02.111,Attention_exp_legacy,2023.1.0,Win32,59.88023952,,,,,,,,,,,,,,,,,,,,,,,,,,,,,,,,,,,,,,,,,,,,,,,,,,,,,,,,
,,,,,,,-0.008333333,0.672222222,1,0,0,calibration_square,0,20,20,13,1,0,0.67,17,001,2024-11-25_12h48.02.111,Attention_exp_legacy,2023.1.0,Win32,59.88023952,,,,,,,,,,,,,,,,,,,,,,,,,,,,,,,,,,,,,,,,,,,,,,,,,,,,,,,,
,,,,,,,,,,,,,,,,,,,,17,001,2024-11-25_12h48.02.111,Attention_exp_legacy,2023.1.0,Win32,59.88023952,"[1920,1080]","[640,480]",[0.023958333333333335],[-0.5111111111111111],[1],[0],[0],[3.3614999999999995],"[""StartButton""]",[-0.115625],[0.40185185185185185],[1],[0],[0],[4.899299999997012],"[""Bus_label""]",Bus_label,1,5.922,"[[0.05416666666666667,-0.4685185185185185],[0.05520833333333333,-0.4666666666666667],[0.05520833333333333,-0.4666666666666667],[0.05520833333333333,-0.4666666666666667],[0.05520833333333333,-0.4666666666666667],[0.05520833333333333,-0.46111111111111114],[0.05520833333333333,-0.45185185185185184],[0.05625,-0.4425925925925926],[0.059375,-0.42592592592592593],[0.06041666666666667,-0.4111111111111111],[0.0625,-0.3962962962962963],[0.0625,-0.3907407407407407],[0.0625,-0.37962962962962965],[0.0625,-0.3648148148148148],[0.058333333333333334,-0.34629629629629627],[0.053125,-0.3277777777777778],[0.03958333333333333,-0.2851851851851852],[0.026041666666666668,-0.2518518518518518],[0.011458333333333333,-0.22407407407407406],[-0.00625,-0.19444444444444445],[-0.023958333333333335,-0.16296296296296298],[-0.04583333333333333,-0.12222222222222222],[-0.07083333333333333,-0.06851851851851852],[-0.08958333333333333,-0.03148148148148148],[-0.11041666666666666,0.007407407407407408],[-0.125,0.03333333333333333],[-0.140625,0.05185185185185185],[-0.14583333333333334,0.05925925925925926],[-0.14791666666666667,0.06296296296296296],[-0.14895833333333333,0.06481481481481481],[-0.15208333333333332,0.07037037037037037],[-0.153125,0.07037037037037037],[-0.15416666666666667,0.07407407407407407],[-0.15416666666666667,0.07407407407407407],[-0.15520833333333334,0.07592592592592592],[-0.15520833333333334,0.07592592592592592],[-0.15625,0.08148148148148149],[-0.15625,0.08148148148148149],[-0.15625,0.08148148148148149],[-0.15625,0.08148148148148149],[-0.15625,0.08148148148148149],[-0.15625,0.08148148148148149],[-0.15625,0.08148148148148149],[-0.15625,0.08148148148148149],[-0.15625,0.08148148148148149],[-0.15625,0.08148148148148149],[-0.15625,0.08148148148148149],[-0.15625,0.08148148148148149],[-0.15625,0.08148148148148149],[-0.15625,0.08148148148148149],[-0.15625,0.08148148148148149],[-0.15625,0.08148148148148149],[-0.15625,0.08148148148148149],[-0.15625,0.08148148148148149],[-0.15625,0.08148148148148149],[-0.15625,0.08148148148148149],[-0.15625,0.08148148148148149],[-0.15625,0.08148148148148149],[-0.15625,0.08148148148148149],[-0.15625,0.08148148148148149],[-0.15625,0.08148148148148149],[-0.15625,0.08148148148148149],[-0.15625,0.07962962962962963],[-0.15104166666666666,0.07962962962962963],[-0.14375,0.07962962962962963],[-0.12083333333333333,0.07962962962962963],[-0.09791666666666667,0.07962962962962963],[-0.07083333333333333,0.07962962962962963],[-0.0375,0.07962962962962963],[-0.0010416666666666667,0.07962962962962963],[0.030208333333333334,0.07962962962962963],[0.059375,0.07962962962962963],[0.08125,0.07407407407407407],[0.096875,0.07037037037037037],[0.10625,0.06851851851851852],[0.1125,0.06851851851851852],[0.11770833333333333,0.06851851851851852],[0.125,0.06666666666666667],[0.13229166666666667,0.06481481481481481],[0.13541666666666666,0.06296296296296296],[0.13854166666666667,0.06296296296296296],[0.13958333333333334,0.06296296296296296],[0.13958333333333334,0.06296296296296296],[0.13958333333333334,0.06296296296296296],[0.14166666666666666,0.06296296296296296],[0.14166666666666666,0.06296296296296296],[0.14270833333333333,0.06296296296296296],[0.14270833333333333,0.06296296296296296],[0.14375,0.06296296296296296],[0.14375,0.06296296296296296],[0.14479166666666668,0.06296296296296296],[0.14479166666666668,0.06296296296296296],[0.14479166666666668,0.06296296296296296],[0.14479166666666668,0.06296296296296296],[0.14479166666666668,0.06296296296296296],[0.14479166666666668,0.06296296296296296],[0.14479166666666668,0.06296296296296296],[0.14479166666666668,0.06296296296296296],[0.14479166666666668,0.06296296296296296],[0.14479166666666668,0.06296296296296296],[0.14479166666666668,0.06296296296296296],[0.14479166666666668,0.06296296296296296],[0.14479166666666668,0.06296296296296296],[0.14479166666666668,0.06296296296296296],[0.14479166666666668,0.06296296296296296],[0.14479166666666668,0.06296296296296296],[0.14479166666666668,0.06296296296296296],[0.14479166666666668,0.06296296296296296],[0.14479166666666668,0.06296296296296296],[0.14479166666666668,0.06296296296296296],[0.14583333333333334,0.05925925925925926],[0.14583333333333334,0.05925925925925926],[0.14583333333333334,0.05925925925925926],[0.14583333333333334,0.05925925925925926],[0.14583333333333334,0.05925925925925926],[0.14583333333333334,0.05925925925925926],[0.14583333333333334,0.05925925925925926],[0.14583333333333334,0.05925925925925926],[0.14583333333333334,0.05925925925925926],[0.14583333333333334,0.05925925925925926],[0.14583333333333334,0.05925925925925926],[0.14583333333333334,0.05925925925925926],[0.14583333333333334,0.05740740740740741],[0.153125,0.05555555555555555],[0.16145833333333334,0.053703703703703705],[0.17395833333333333,0.053703703703703705],[0.18645833333333334,0.053703703703703705],[0.20520833333333333,0.053703703703703705],[0.22916666666666666,0.053703703703703705],[0.25625,0.053703703703703705],[0.28541666666666665,0.053703703703703705],[0.3104166666666667,0.053703703703703705],[0.334375,0.053703703703703705],[0.35520833333333335,0.053703703703703705],[0.36875,0.053703703703703705],[0.378125,0.053703703703703705],[0.38645833333333335,0.05555555555555555],[0.38958333333333334,0.05740740740740741],[0.3927083333333333,0.05925925925925926],[0.39479166666666665,0.06111111111111111],[0.3958333333333333,0.06111111111111111],[0.3958333333333333,0.06111111111111111],[0.3958333333333333,0.06111111111111111],[0.3958333333333333,0.06111111111111111],[0.3958333333333333,0.06111111111111111],[0.3958333333333333,0.06111111111111111],[0.3958333333333333,0.06111111111111111],[0.3958333333333333,0.06111111111111111],[0.3958333333333333,0.06111111111111111],[0.3958333333333333,0.06111111111111111],[0.3958333333333333,0.06111111111111111],[0.3958333333333333,0.06111111111111111],[0.3958333333333333,0.06111111111111111],[0.3958333333333333,0.06111111111111111],[0.3958333333333333,0.06111111111111111],[0.3958333333333333,0.06111111111111111],[0.3958333333333333,0.06111111111111111],[0.39375,0.05740740740740741],[0.39166666666666666,0.053703703703703705],[0.38645833333333335,0.046296296296296294],[0.37916666666666665,0.03333333333333333],[0.36875,0.022222222222222223],[0.3416666666666667,-0.012962962962962963],[0.31666666666666665,-0.03518518518518519],[0.27395833333333336,-0.06851851851851852],[0.221875,-0.10555555555555556],[0.159375,-0.1537037037037037],[0.103125,-0.1962962962962963],[0.057291666666666664,-0.2222222222222222],[0.022916666666666665,-0.24259259259259258],[-0.004166666666666667,-0.2518518518518518],[-0.023958333333333335,-0.2537037037037037],[-0.042708333333333334,-0.25555555555555554],[-0.071875,-0.25555555555555554],[-0.0875,-0.25555555555555554],[-0.10833333333333334,-0.25555555555555554],[-0.128125,-0.25555555555555554],[-0.146875,-0.25555555555555554],[-0.1625,-0.25555555555555554],[-0.171875,-0.25555555555555554],[-0.175,-0.25555555555555554],[-0.17604166666666668,-0.25555555555555554],[-0.17604166666666668,-0.25555555555555554],[-0.17604166666666668,-0.25555555555555554],[-0.17604166666666668,-0.25555555555555554],[-0.17604166666666668,-0.25555555555555554],[-0.17604166666666668,-0.25555555555555554],[-0.17604166666666668,-0.25555555555555554],[-0.17604166666666668,-0.25555555555555554],[-0.17604166666666668,-0.25555555555555554],[-0.17604166666666668,-0.25555555555555554],[-0.17604166666666668,-0.26296296296296295],[-0.17395833333333333,-0.29444444444444445],[-0.16770833333333332,-0.3277777777777778],[-0.1625,-0.3611111111111111],[-0.15625,-0.37962962962962965],[-0.15208333333333332,-0.3925925925925926],[-0.14791666666666667,-0.40370370370370373],[-0.14479166666666668,-0.412962962962963],[-0.14270833333333333,-0.4148148148148148],[-0.14270833333333333,-0.4148148148148148],[-0.14166666666666666,-0.4148148148148148],[-0.13958333333333334,-0.4148148148148148],[-0.134375,-0.4148148148148148],[-0.13020833333333334,-0.4148148148148148],[-0.11666666666666667,-0.40925925925925927],[-0.10729166666666666,-0.40370370370370373],[-0.10208333333333333,-0.40370370370370373],[-0.09270833333333334,-0.40185185185185185],[-0.08020833333333334,-0.39444444444444443],[-0.07083333333333333,-0.3851851851851852],[-0.065625,-0.37592592592592594],[-0.0625,-0.36666666666666664],[-0.06145833333333333,-0.3388888888888889],[-0.06145833333333333,-0.2833333333333333],[-0.06145833333333333,-0.16296296296296298],[-0.071875,-0.053703703703703705],[-0.07604166666666666,0.022222222222222223],[-0.08125,0.07777777777777778],[-0.084375,0.11296296296296296],[-0.08645833333333333,0.15],[-0.08645833333333333,0.1574074074074074],[-0.08645833333333333,0.17037037037037037],[-0.08645833333333333,0.17222222222222222],[-0.08645833333333333,0.17407407407407408],[-0.08645833333333333,0.17592592592592593],[-0.08645833333333333,0.17592592592592593],[-0.08645833333333333,0.17962962962962964],[-0.08645833333333333,0.1814814814814815],[-0.08645833333333333,0.18703703703703703],[-0.08645833333333333,0.19444444444444445],[-0.08645833333333333,0.20185185185185187],[-0.0875,0.21481481481481482],[-0.08958333333333333,0.23148148148148148],[-0.09166666666666666,0.24814814814814815],[-0.09479166666666666,0.26481481481481484],[-0.09583333333333334,0.2759259259259259],[-0.09791666666666667,0.2851851851851852],[-0.09895833333333333,0.29444444444444445],[-0.1,0.3037037037037037],[-0.10104166666666667,0.3148148148148148],[-0.10208333333333333,0.32222222222222224],[-0.103125,0.3314814814814815],[-0.10520833333333333,0.3388888888888889],[-0.10625,0.34444444444444444],[-0.10729166666666666,0.35185185185185186],[-0.109375,0.362962962962963],[-0.11041666666666666,0.3685185185185185],[-0.11041666666666666,0.37222222222222223],[-0.11041666666666666,0.37962962962962965],[-0.11145833333333334,0.3851851851851852],[-0.11145833333333334,0.3907407407407407],[-0.11145833333333334,0.3907407407407407],[-0.1125,0.39444444444444443],[-0.1125,0.39444444444444443],[-0.1125,0.39444444444444443],[-0.1125,0.39444444444444443],[-0.1125,0.39444444444444443],[-0.11458333333333333,0.3962962962962963],[-0.11458333333333333,0.4],[-0.115625,0.40185185185185185],[-0.115625,0.40185185185185185],[-0.115625,0.40185185185185185],[-0.115625,0.40185185185185185],[-0.115625,0.40185185185185185],[-0.115625,0.40185185185185185],[-0.115625,0.40185185185185185],[-0.115625,0.40185185185185185],[-0.115625,0.40185185185185185],[-0.115625,0.40185185185185185],[-0.115625,0.40185185185185185],[-0.115625,0.40185185185185185],[-0.115625,0.40185185185185185],[-0.115625,0.40185185185185185],[-0.115625,0.40185185185185185],[-0.115625,0.40185185185185185],[-0.115625,0.40185185185185185],[-0.115625,0.40185185185185185],[-0.115625,0.40185185185185185],[-0.115625,0.40185185185185185],[-0.115625,0.40185185185185185],[-0.115625,0.40185185185185185],[-0.115625,0.40185185185185185],[-0.115625,0.40185185185185185],[-0.115625,0.40185185185185185],[-0.115625,0.40185185185185185],[-0.115625,0.40185185185185185],[-0.115625,0.40185185185185185],[-0.115625,0.40185185185185185],[-0.115625,0.40185185185185185],[-0.115625,0.40185185185185185],[-0.115625,0.40185185185185185],[-0.115625,0.40185185185185185],[-0.115625,0.40185185185185185],[-0.115625,0.40185185185185185],[-0.115625,0.40185185185185185],[-0.115625,0.40185185185185185],[-0.115625,0.40185185185185185],[-0.115625,0.40185185185185185],[-0.115625,0.40185185185185185],[-0.115625,0.40185185185185185],[-0.115625,0.40185185185185185],[-0.115625,0.40185185185185185],[-0.115625,0.40185185185185185],[-0.115625,0.40185185185185185],[-0.115625,0.40185185185185185],[-0.115625,0.40185185185185185],[-0.115625,0.40185185185185185],[-0.115625,0.40185185185185185],[-0.115625,0.40185185185185185],[-0.115625,0.40185185185185185],[-0.115625,0.40185185185185185],[-0.115625,0.40185185185185185],[-0.115625,0.40185185185185185],[-0.115625,0.40185185185185185],[-0.115625,0.40185185185185185],[-0.115625,0.40185185185185185],[-0.115625,0.40185185185185185],[-0.115625,0.40185185185185185],[-0.115625,0.40185185185185185],[-0.115625,0.40185185185185185],[-0.115625,0.40185185185185185],[-0.115625,0.40185185185185185],[-0.115625,0.40185185185185185],[-0.115625,0.40185185185185185],[-0.115625,0.40185185185185185],[-0.115625,0.40185185185185185],[-0.115625,0.40185185185185185],[-0.115625,0.40185185185185185],[-0.115625,0.40185185185185185],[-0.115625,0.40185185185185185],[-0.115625,0.40185185185185185],[-0.115625,0.40185185185185185],[-0.115625,0.40185185185185185],[-0.115625,0.40185185185185185],[-0.115625,0.40185185185185185],[-0.115625,0.40185185185185185],[-0.115625,0.40185185185185185],[-0.115625,0.40185185185185185],[-0.115625,0.40185185185185185],[-0.115625,0.40185185185185185],[-0.115625,0.40185185185185185],[-0.115625,0.40185185185185185],[-0.115625,0.40185185185185185],[-0.115625,0.40185185185185185],[-0.115625,0.40185185185185185],[-0.115625,0.40185185185185185],[-0.115625,0.40185185185185185],[-0.115625,0.40185185185185185],[-0.115625,0.40185185185185185],[-0.115625,0.40185185185185185],[-0.115625,0.40185185185185185],[-0.115625,0.40185185185185185],[-0.115625,0.40185185185185185],[-0.115625,0.40185185185185185]]","[[-0.027083333333333334,0.020185185185185143],[-0.027083333333333334,0.020185185185185143],[-0.036458333333333336,-0.005000000000000084],[-0.036458333333333336,-0.005000000000000084],[-0.04583333333333333,-0.0301851851851851],[-0.04583333333333333,-0.0301851851851851],[-0.011666666666666714,0.009259259259259259],[0.006562499999999953,0.030000000000000086],[-0.00927083333333331,0.03537037037037041],[0.019375000000000024,0.08666666666666659],[0.024270833333333287,0.15425925925925918],[0.01895833333333338,0.18925925925925935],[0.01895833333333338,0.18925925925925935],[0.033749999999999974,0.23592592592592587],[0.026145833333333358,0.3014814814814814],[0.04895833333333333,0.33351851851851855],[0.05406249999999998,0.36314814814814816],[0.03708333333333336,0.35703703703703693],[0.04864583333333338,0.3475925925925927],[0.06437499999999995,0.3537037037037037],[0.03968750000000002,0.36425925925925934],[0.014999999999999977,0.37481481481481477],[-0.008229166666666643,0.3962962962962963],[-0.021562500000000047,0.36425925925925934],[-0.021562500000000047,0.36425925925925934],[-0.05802083333333338,0.3292592592592592],[-0.07260416666666672,0.31555555555555553],[-0.07260416666666672,0.31555555555555553],[-0.08093750000000005,0.2566666666666667],[-0.08093750000000005,0.2566666666666667],[-0.08802083333333334,0.2668518518518519],[-0.12687499999999996,0.23833333333333342],[-0.15125000000000005,0.19425925925925921],[-0.15812499999999996,0.14981481481481476],[-0.17906249999999999,0.09574074074074082],[-0.17572916666666671,0.10444444444444441],[-0.18458333333333338,0.11666666666666667],[-0.17614583333333336,0.11462962962962958],[-0.2203125,0.07814814814814823],[-0.2530208333333333,0.08925925925925934],[-0.3007291666666667,-0.022037037037036994],[-0.32927083333333335,-0.07259259259259257],[-0.32927083333333335,-0.07259259259259257],[-0.3616666666666667,-0.0742592592592593],[-0.39385416666666667,-0.05259259259259255],[-0.43781249999999994,0.014814814814814815],[-0.48260416666666667,0.019444444444444445],[-0.5453125,0.01055555555555564],[-0.574375,0.046296296296296294],[-0.5727083333333333,0.09518518518518514],[-0.5638541666666667,0.15314814814814823],[-0.54125,0.26444444444444437],[-0.5047916666666666,0.34740740740740744],[-0.5047916666666666,0.34740740740740744],[-0.4789583333333333,0.397037037037037],[-0.44979166666666665,0.43074074074074076],[-0.39083333333333337,0.4300000000000001],[-0.34656250000000005,0.45092592592592595],[-0.2920833333333333,0.4618518518518518],[-0.27125,0.4281481481481482],[-0.26229166666666665,0.3790740740740742],[-0.26052083333333337,0.32092592592592584],[-0.26052083333333337,0.32092592592592584],[-0.2328125,0.2566666666666667],[-0.22458333333333336,0.2390740740740741],[-0.2163541666666667,0.22148148148148153],[-0.22302083333333336,0.14611111111111108],[-0.23364583333333327,0.069074074074074],[-0.23968750000000003,0.0992592592592593],[-0.24906250000000002,0.15185185185185185],[-0.22614583333333335,0.13425925925925927],[-0.21614583333333334,0.1557407407407408],[-0.17468750000000005,0.17296296296296293],[-0.1564583333333334,0.16592592592592598],[-0.14260416666666664,0.14518518518518514],[-0.14260416666666664,0.14518518518518514],[-0.12875000000000003,0.12444444444444452],[-0.10895833333333335,0.16592592592592598],[-0.05458333333333331,0.24148148148148144],[-0.004791666666666691,0.20981481481481473],[0.030729166666666665,0.12981481481481486],[0.07479166666666662,0.14518518518518514],[0.12927083333333325,0.13277777777777786],[0.12927083333333325,0.13277777777777786],[0.12927083333333325,0.05314814814814823],[0.14312500000000009,0.06425925925925935],[0.16281249999999994,0.04055555555555551],[0.1834374999999999,0.02111111111111107],[0.17614583333333325,-0.00851851851851856],[0.1632291666666667,-0.05814814814814811],[0.10166666666666657,-0.07018518518518514],[0.06385416666666661,-0.022592592592592678],[-0.011666666666666714,-0.011666666666666582],[-0.07281249999999997,0.003333333333333249],[-0.12208333333333338,0.08666666666666659],[-0.18635416666666665,0.10240740740740732],[-0.1935416666666666,0.14740740740740746],[-0.23125,0.23555555555555563],[-0.22041666666666668,0.29814814814814816],[-0.23854166666666668,0.34666666666666673],[-0.2202083333333333,0.325],[-0.2077083333333333,0.2716666666666668],[-0.1967708333333333,0.24944444444444452],[-0.18583333333333332,0.2272222222222223],[-0.1267708333333334,0.22092592592592583],[-0.06927083333333334,0.22185185185185177],[-0.05645833333333338,0.21092592592592588],[-0.0140625,0.15259259259259256],[0.035208333333333286,0.11388888888888889],[0.08447916666666658,0.07518518518518523],[0.14135416666666673,0.09833333333333337],[0.17937500000000003,0.10444444444444441],[0.22427083333333328,0.06518518518518526],[0.2691666666666668,0.025925925925925925],[0.3129166666666668,-0.001851851851851852],[0.3394791666666668,-0.0485185185185186],[0.34312500000000007,-0.11481481481481481],[0.3572916666666667,-0.17555555555555558],[0.33093750000000005,-0.24444444444444444],[0.33093750000000005,-0.24444444444444444],[0.30458333333333343,-0.3133333333333333],[0.3016666666666666,-0.3933333333333333],[0.29322916666666665,-0.41740740740740734],[0.2846874999999999,-0.39166666666666666],[0.29583333333333334,-0.35481481481481486],[0.2834374999999999,-0.3581481481481481],[0.2709374999999999,-0.40796296296296297],[0.27312500000000006,-0.42537037037037034],[0.22760416666666666,-0.4116666666666667],[0.20052083333333334,-0.38555555555555554],[0.19489583333333324,-0.33666666666666667],[0.17041666666666658,-0.3059259259259259],[0.17041666666666658,-0.3059259259259259],[0.1703125,-0.29666666666666663],[0.1703125,-0.29666666666666663],[0.17854166666666677,-0.3375925925925926],[0.15395833333333328,-0.36203703703703705],[0.11322916666666671,-0.3696296296296297],[0.09979166666666663,-0.3031481481481481],[0.08635416666666676,-0.2366666666666667],[0.12822916666666656,-0.21425925925925923],[0.1701041666666666,-0.19185185185185188],[0.1742708333333333,-0.19166666666666668],[0.17843749999999994,-0.19148148148148145],[0.19656250000000006,-0.18833333333333332],[0.19874999999999995,-0.15962962962962962],[0.2013541666666666,-0.1361111111111111],[0.2078125,-0.11351851851851855],[0.22000000000000006,-0.12888888888888894],[0.23312499999999994,-0.14888888888888885],[0.20187499999999994,-0.12888888888888894],[0.17062499999999994,-0.10888888888888891],[0.12760416666666666,-0.08592592592592588],[0.08458333333333339,-0.06296296296296296],[0.04822916666666662,-0.027407407407407325],[0.01885416666666669,0.04222222222222214],[0.0021875000000000236,0.08944444444444435],[-0.014479166666666644,0.13666666666666658],[-0.014479166666666644,0.13666666666666658],[-0.02322916666666662,0.1714814814814815],[-0.04656250000000005,0.20481481481481487],[-0.029062499999999977,0.19870370370370363],[0.006666666666666643,0.23796296296296296],[0.07041666666666657,0.2737037037037036],[0.10625,0.24537037037037038],[0.14114583333333333,0.22148148148148153],[0.16802083333333329,0.2116666666666666],[0.19489583333333324,0.20185185185185187],[0.2681250000000001,0.1088888888888888],[0.28572916666666665,0.06592592592592597],[0.3212500000000001,0.06129629629629634],[0.3311458333333334,0.07388888888888885],[0.33468749999999997,0.0294444444444444],[0.3382291666666667,-0.015000000000000043],[0.3515625,-0.038703703703703664],[0.43427083333333344,-0.014629629629629588],[0.48760416666666656,-0.0338888888888888],[0.5409375,-0.053148148148148125],[0.49114583333333334,0.00592592592592601],[0.49114583333333334,0.00592592592592601],[0.5119791666666667,0.08314814814814811],[0.5285416666666668,0.12814814814814823],[0.4757291666666667,0.15240740740740732],[0.4110416666666666,0.1883333333333334],[0.3936458333333334,0.2035185185185185],[0.3943749999999999,0.262037037037037],[0.26843750000000005,0.31074074074074065],[0.17218749999999997,0.3551851851851851],[0.07572916666666671,0.3237037037037036],[0.07572916666666671,0.3237037037037036],[-0.017708333333333333,0.2946296296296297],[-0.0704166666666667,0.27314814814814814],[-0.0704166666666667,0.27314814814814814],[-0.1872916666666666,0.24462962962962967],[-0.14708333333333337,0.23870370370370367],[-0.14708333333333337,0.23870370370370367],[-0.14052083333333332,0.24092592592592596],[-0.13031250000000003,0.27259259259259266],[-0.14510416666666662,0.2892592592592593],[-0.13781249999999995,0.275],[-0.11020833333333328,0.2698148148148149],[-0.09510416666666661,0.33055555555555555],[-0.03812500000000003,0.3844444444444445],[-0.026250000000000048,0.4203703703703704],[0.041875000000000044,0.46222222222222226],[0.03333333333333333,0.4918518518518519],[0.0796875,0.4838888888888888],[0.07729166666666672,0.48629629629629634],[0.07729166666666672,0.48629629629629634],[0.065625,0.44722222222222224],[0.06802083333333328,0.467962962962963],[0.06802083333333328,0.467962962962963],[0.05010416666666669,0.47962962962962963],[0.049374999999999974,0.43740740740740747],[0.06520833333333335,0.4235185185185186],[0.04677083333333331,0.39351851851851855],[0.029270833333333357,0.3375925925925925],[-0.005520833333333286,0.26444444444444437],[-0.06947916666666672,0.252962962962963],[-0.13562500000000005,0.22240740740740744],[-0.15874999999999997,0.18185185185185193],[-0.15874999999999997,0.18185185185185193],[-0.17302083333333335,0.05851851851851856],[-0.18072916666666666,-0.009814814814814731],[-0.17718750000000003,-0.06814814814814817],[-0.17000000000000004,-0.10185185185185185],[-0.1929166666666667,-0.14240740740740737],[-0.1929166666666667,-0.14240740740740737],[-0.19593750000000001,-0.14018518518518516],[-0.18166666666666664,-0.12074074074074072],[-0.1538541666666667,-0.15611111111111114],[-0.12302083333333336,-0.22999999999999998],[-0.12302083333333336,-0.22999999999999998],[-0.11124999999999995,-0.20981481481481484],[-0.11124999999999995,-0.20981481481481484],[-0.09802083333333336,-0.18722222222222226],[-0.10364583333333334,-0.1653703703703704],[-0.11052083333333336,-0.1440740740740741],[-0.1313541666666667,-0.1427777777777778],[-0.11364583333333336,-0.15722222222222218],[-0.11229166666666662,-0.15722222222222218],[-0.1109375,-0.15722222222222218],[-0.11468750000000003,-0.16944444444444445],[-0.12145833333333336,-0.14314814814814816],[-0.11291666666666664,-0.13129629629629624],[-0.10583333333333336,-0.12185185185185188],[-0.09885416666666665,-0.15481481481481485],[-0.1063541666666667,-0.13333333333333333],[-0.10822916666666664,-0.11500000000000005],[-0.10822916666666664,-0.11500000000000005],[-0.11854166666666661,-0.07407407407407407],[-0.12281249999999998,-0.08574074074074076],[-0.14656250000000004,-0.13277777777777774],[-0.15135416666666662,-0.1096296296296296],[-0.14375,-0.1022222222222222],[-0.14114583333333333,-0.12759259259259256],[-0.14114583333333333,-0.12759259259259256],[-0.13781249999999995,-0.16166666666666668],[-0.12697916666666664,-0.23870370370370367],[-0.12124999999999998,-0.27240740740740743],[-0.11135416666666664,-0.3509259259259259],[-0.1014583333333333,-0.4294444444444444],[-0.08062499999999997,-0.44722222222222224],[-0.04031250000000005,-0.42962962962962964],[-0.04375,-0.41870370370370374],[-0.059583333333333384,-0.392037037037037],[-0.05458333333333331,-0.42777777777777776],[-0.050312499999999954,-0.45481481481481484],[-0.050312499999999954,-0.45481481481481484],[-0.011041666666666691,-0.43648148148148147],[-0.019166666666666644,-0.425],[-0.03145833333333338,-0.38925925925925925],[-0.03947916666666664,-0.38740740740740737],[-0.06104166666666669,-0.42388888888888887],[-0.03677083333333329,-0.47314814814814815],[0.011770833333333286,-0.5511111111111111],[0.021562500000000047,-0.6116666666666667],[0.010520833333333358,-0.5901851851851851],[0.04552083333333338,-0.5581481481481481],[0.050416666666666644,-0.5403703703703704],[0.12072916666666676,-0.5796296296296296],[0.19104166666666675,-0.6188888888888888],[0.24802083333333325,-0.6333333333333333],[0.30499999999999994,-0.6477777777777778],[0.3109375,-0.6366666666666667],[0.3168750000000001,-0.6255555555555555],[0.3616666666666667,-0.6092592592592593],[0.40645833333333337,-0.5929629629629629],[0.40562500000000007,-0.5868518518518518],[0.40479166666666655,-0.5807407407407408],[0.4105208333333332,-0.5716666666666667],[0.4162499999999999,-0.5625925925925926],[0.39729166666666677,-0.5181481481481481],[0.37833333333333335,-0.47370370370370374],[0.3610416666666666,-0.44592592592592595],[0.3610416666666666,-0.44592592592592595],[0.34375,-0.41814814814814816],[0.2960416666666667,-0.43277777777777776],[0.2808333333333332,-0.3383333333333333],[0.2867708333333333,-0.2490740740740741],[0.26979166666666665,-0.18796296296296297],[0.26197916666666665,-0.0883333333333333],[0.23104166666666662,0.051111111111111156],[0.21885416666666657,0.14870370370370362],[0.2273958333333333,0.20537037037037034],[0.23947916666666677,0.26592592592592595],[0.2125,0.247037037037037],[0.21583333333333338,0.2479629629629629],[0.21770833333333334,0.19518518518518516],[0.19802083333333323,0.14722222222222223],[0.23104166666666662,0.1427777777777778],[0.2321875000000001,0.13407407407407404],[0.21760416666666677,0.09611111111111106],[0.21802083333333327,0.07370370370370362],[0.20104166666666667,0.04462962962962967],[0.19177083333333325,0.03129629629629625],[0.2557291666666667,0.07777777777777778],[0.2557291666666667,0.07777777777777778],[0.2989583333333333,0.1698148148148149],[0.3245833333333332,0.16777777777777783],[0.3474999999999999,0.14129629629629623],[0.340625,0.09944444444444453],[0.35614583333333344,0.05944444444444449],[0.4105208333333332,0.008888888888888804],[0.45770833333333344,-0.06574074074074074],[0.45770833333333344,-0.06574074074074074],[0.4828125,-0.10999999999999996],[0.5095833333333334,-0.1646296296296296],[0.49968750000000006,-0.1814814814814815],[0.5294791666666666,-0.25462962962962965],[0.51875,-0.2757407407407407],[0.5107291666666666,-0.27240740740740743],[0.4479166666666667,-0.21092592592592588],[0.3770833333333333,-0.1742592592592593],[0.2546875,-0.18259259259259264],[0.13947916666666677,-0.1668518518518519],[0.08499999999999991,-0.09185185185185189],[0.021145833333333287,-0.022222222222222223],[-0.058229166666666644,0.030000000000000086],[-0.15656249999999997,0.09296296296296305],[-0.20958333333333337,0.15592592592592602],[-0.20958333333333337,0.15592592592592602],[-0.26531250000000006,0.21740740740740735],[-0.25270833333333337,0.2762962962962964],[-0.2617708333333333,0.2579629629629629],[-0.21927083333333333,0.28462962962962973],[-0.17052083333333337,0.3387037037037037],[-0.16375000000000003,0.3507407407407407],[-0.1578125,0.36796296296296305],[-0.12302083333333336,0.3774074074074073],[-0.12302083333333336,0.3774074074074073],[-0.09500000000000004,0.4396296296296296],[-0.07947916666666661,0.4581481481481481],[-0.06124999999999995,0.4781481481481482],[-0.03739583333333331,0.4396296296296296]]","[[-0.027083333333333334,0.020185185185185143,0.00029999999701857405],[-0.027083333333333334,0.020185185185185143,0.05689999999106021],[-0.036458333333333336,-0.005000000000000084,0.06159999999403709],[-0.036458333333333336,-0.005000000000000084,0.07220000000297944],[-0.04583333333333333,-0.0301851851851851,0.08879999999702193],[-0.04583333333333333,-0.0301851851851851,0.10889999999105981],[-0.011666666666666714,0.009259259259259259,0.12229999999701846],[0.006562499999999953,0.030000000000000086,0.1390000000000029],[-0.00927083333333331,0.03537037037037041,0.16049999999999898],[0.019375000000000024,0.08666666666666659,0.17520000000298097],[0.024270833333333287,0.15425925925925918,0.1905000000000001],[0.01895833333333338,0.18925925925925935,0.2110999999940404],[0.01895833333333338,0.18925925925925935,0.22239999999106175],[0.033749999999999974,0.23592592592592587,0.23920000000298103],[0.026145833333333358,0.3014814814814814,0.2557999999970235],[0.04895833333333333,0.33351851851851855,0.27559999999404283],[0.05406249999999998,0.36314814814814816,0.29229999999702017],[0.03708333333333336,0.35703703703703693,0.30700000000000216],[0.04864583333333338,0.3475925925925927,0.3222999999970213],[0.06437499999999995,0.3537037037037037,0.3410000000000011],[0.03968750000000002,0.36425925925925934,0.3555999999940411],[0.014999999999999977,0.37481481481481477,0.3728999999910627],[-0.008229166666666643,0.3962962962962963,0.39289999999105873],[-0.021562500000000047,0.36425925925925934,0.4082999999970198],[-0.021562500000000047,0.36425925925925934,0.4222999999970227],[-0.05802083333333338,0.3292592592592592,0.43900000000000006],[-0.07260416666666672,0.31555555555555553,0.4612999999970242],[-0.07260416666666672,0.31555555555555553,0.479200000002983],[-0.08093750000000005,0.2566666666666667,0.4945999999940369],[-0.08093750000000005,0.2566666666666667,0.5058999999910583],[-0.08802083333333334,0.2668518518518519,0.5260000000000034],[-0.12687499999999996,0.23833333333333342,0.540899999991062],[-0.15125000000000005,0.19425925925925921,0.5572000000029789],[-0.15812499999999996,0.14981481481481476,0.5722000000029794],[-0.17906249999999999,0.09574074074074082,0.5915999999940382],[-0.17572916666666671,0.10444444444444441,0.6054999999999993],[-0.18458333333333338,0.11666666666666667,0.6223999999910603],[-0.17614583333333336,0.11462962962962958,0.638899999991061],[-0.2203125,0.07814814814814823,0.6555000000000035],[-0.2530208333333333,0.08925925925925934,0.6722999999970227],[-0.3007291666666667,-0.022037037037036994,0.6900999999940396],[-0.32927083333333335,-0.07259259259259257,0.7053999999910587],[-0.32927083333333335,-0.07259259259259257,0.7220999999940432],[-0.3616666666666667,-0.0742592592592593,0.7387999999970205],[-0.39385416666666667,-0.05259259259259255,0.755399999991063],[-0.43781249999999994,0.014814814814814815,0.7722000000029823],[-0.48260416666666667,0.019444444444444445,0.7887999999970177],[-0.5453125,0.01055555555555564,0.8053999999910602],[-0.574375,0.046296296296296294,0.8220999999940375],[-0.5727083333333333,0.09518518518518514,0.8388999999910567],[-0.5638541666666667,0.15314814814814823,0.8554999999999993],[-0.54125,0.26444444444444437,0.8722000000029837],[-0.5047916666666666,0.34740740740740744,0.888899999991061],[-0.5047916666666666,0.34740740740740744,0.9055000000000035],[-0.4789583333333333,0.397037037037037,0.9222999999970227],[-0.44979166666666665,0.43074074074074076,0.9387999999970233],[-0.39083333333333337,0.4300000000000001,0.9575999999940379],[-0.34656250000000005,0.45092592592592595,0.9720999999940432],[-0.2920833333333333,0.4618518518518518,0.9887999999970205],[-0.27125,0.4281481481481482,1.005399999991063],[-0.26229166666666665,0.3790740740740742,1.0220999999940403],[-0.26052083333333337,0.32092592592592584,1.0387999999970177],[-0.26052083333333337,0.32092592592592584,1.0579999999999998],[-0.2328125,0.2566666666666667,1.0722999999970213],[-0.22458333333333336,0.2390740740740741,1.0897999999970196],[-0.2163541666666667,0.22148148148148153,1.1088999999910598],[-0.22302083333333336,0.14611111111111108,1.1235],[-0.23364583333333327,0.069074074074074,1.139000000000003],[-0.23968750000000003,0.0992592592592593,1.1555999999940383],[-0.24906250000000002,0.15185185185185185,1.1740999999940414],[-0.22614583333333335,0.13425925925925927,1.1892999999970186],[-0.21614583333333334,0.1557407407407408,1.2057999999970193],[-0.17468750000000005,0.17296296296296293,1.2242000000029805],[-0.1564583333333334,0.16592592592592598,1.2390000000000043],[-0.14260416666666664,0.14518518518518514,1.2557000000029817],[-0.14260416666666664,0.14518518518518514,1.2722999999970241],[-0.12875000000000003,0.12444444444444452,1.2913999999910573],[-0.10895833333333335,0.16592592592592598,1.305599999994044],[-0.05458333333333331,0.24148148148148144,1.3225999999940399],[-0.004791666666666691,0.20981481481481473,1.3417000000029802],[0.030729166666666665,0.12981481481481486,1.3555999999940411],[0.07479166666666662,0.14518518518518514,1.3768999999910605],[0.12927083333333325,0.13277777777777786,1.3933999999910611],[0.12927083333333325,0.13277777777777786,1.4055999999940383],[0.12927083333333325,0.05314814814814823,1.4254999999999995],[0.14312500000000009,0.06425925925925935,1.4417000000029816],[0.16281249999999994,0.04055555555555551,1.456000000000003],[0.1834374999999999,0.02111111111111107,1.472200000002978],[0.17614583333333325,-0.00851851851851856,1.4905000000000044],[0.1632291666666667,-0.05814814814814811,1.5054999999999978],[0.10166666666666657,-0.07018518518518514,1.5222999999970241],[0.06385416666666661,-0.022592592592592678,1.5414999999999992],[-0.011666666666666714,-0.011666666666666582,1.5553999999910602],[-0.07281249999999997,0.003333333333333249,1.5720999999940375],[-0.12208333333333338,0.08666666666666659,1.588799999997022],[-0.18635416666666665,0.10240740740740732,1.6053999999910573],[-0.1935416666666666,0.14740740740740746,1.6220999999940418],[-0.23125,0.23555555555555563,1.638799999997019],[-0.22041666666666668,0.29814814814814816,1.6553999999910616],[-0.23854166666666668,0.34666666666666673,1.672099999994039],[-0.2202083333333333,0.325,1.6917999999970235],[-0.2077083333333333,0.2716666666666668,1.7055000000000007],[-0.1967708333333333,0.24944444444444452,1.7220999999940432],[-0.18583333333333332,0.2272222222222223,1.7388999999910624],[-0.1267708333333334,0.22092592592592583,1.755399999991063],[-0.06927083333333334,0.22185185185185177,1.7720999999940403],[-0.05645833333333338,0.21092592592592588,1.7888999999910595],[-0.0140625,0.15259259259259256,1.805500000000002],[0.035208333333333286,0.11388888888888889,1.8220999999940375],[0.08447916666666658,0.07518518518518523,1.8389999999999986],[0.14135416666666673,0.09833333333333337,1.8587000000029832],[0.17937500000000003,0.10444444444444441,1.8722999999970185],[0.22427083333333328,0.06518518518518526,1.8900000000000006],[0.2691666666666668,0.025925925925925925,1.9053999999910616],[0.3129166666666668,-0.001851851851851852,1.922099999994039],[0.3394791666666668,-0.0485185185185186,1.9387999999970233],[0.34312500000000007,-0.11481481481481481,1.9555000000000007],[0.3572916666666667,-0.17555555555555558,1.9720999999940432],[0.33093750000000005,-0.24444444444444444,1.990000000000002],[0.33093750000000005,-0.24444444444444444,2.005499999999998],[0.30458333333333343,-0.3133333333333333,2.0222000000029823],[0.3016666666666666,-0.3933333333333333,2.0387999999970177],[0.29322916666666665,-0.41740740740740734,2.0595999999940418],[0.2846874999999999,-0.39166666666666666,2.074899999991061],[0.29583333333333334,-0.35481481481481486,2.091000000000001],[0.2834374999999999,-0.3581481481481481,2.111099999994039],[0.2709374999999999,-0.40796296296296297,2.125200000002984],[0.27312500000000006,-0.42537037037037034,2.1393999999910633],[0.22760416666666666,-0.4116666666666667,2.1555999999940383],[0.20052083333333334,-0.38555555555555554,2.1753999999910576],[0.19489583333333324,-0.33666666666666667,2.190700000002984],[0.17041666666666658,-0.3059259259259259,2.206099999994038],[0.17041666666666658,-0.3059259259259259,2.2247999999970176],[0.1703125,-0.29666666666666663,2.2390000000000043],[0.1703125,-0.29666666666666663,2.2555999999940397],[0.17854166666666677,-0.3375925925925926,2.275500000000001],[0.15395833333333328,-0.36203703703703705,2.2905000000000015],[0.11322916666666671,-0.3696296296296297,2.305700000002979],[0.09979166666666663,-0.3031481481481481,2.3222999999970213],[0.08635416666666676,-0.2366666666666667,2.34170000000298],[0.12822916666666656,-0.21425925925925923,2.3558999999910597],[0.1701041666666666,-0.19185185185185188,2.3720999999940418],[0.1742708333333333,-0.19166666666666668,2.388799999997019],[0.17843749999999994,-0.19148148148148145,2.4055999999940383],[0.19656250000000006,-0.18833333333333332,2.422200000002981],[0.19874999999999995,-0.15962962962962962,2.4387999999970233],[0.2013541666666666,-0.1361111111111111,2.4553999999910587],[0.2078125,-0.11351851851851855,2.472200000002978],[0.22000000000000006,-0.12888888888888894,2.4887999999970205],[0.23312499999999994,-0.14888888888888885,2.505399999991063],[0.20187499999999994,-0.12888888888888894,2.5220999999940403],[0.17062499999999994,-0.10888888888888891,2.5422000000029783],[0.12760416666666666,-0.08592592592592588,2.556399999991058],[0.08458333333333339,-0.06296296296296296,2.5720999999940375],[0.04822916666666662,-0.027407407407407325,2.5928999999910616],[0.01885416666666669,0.04222222222222214,2.6073999999910598],[0.0021875000000000236,0.08944444444444435,2.6220999999940418],[-0.014479166666666644,0.13666666666666658,2.645899999991059],[-0.014479166666666644,0.13666666666666658,2.6555999999940383],[-0.02322916666666662,0.1714814814814815,2.6722999999970227],[-0.04656250000000005,0.20481481481481487,2.689],[-0.029062499999999977,0.19870370370370363,2.7077999999970217],[0.006666666666666643,0.23796296296296296,2.722200000002978],[0.07041666666666657,0.2737037037037036,2.7395999999940415],[0.10625,0.24537037037037038,2.75859999999404],[0.14114583333333333,0.22148148148148153,2.773299999997022],[0.16802083333333329,0.2116666666666666,2.789399999991062],[0.19489583333333324,0.20185185185185187,2.809399999991058],[0.2681250000000001,0.1088888888888888,2.825000000000003],[0.28572916666666665,0.06592592592592597,2.8390999999940334],[0.3212500000000001,0.06129629629629634,2.855599999994041],[0.3311458333333334,0.07388888888888885,2.8745999999940466],[0.33468749999999997,0.0294444444444444,2.8893999999910562],[0.3382291666666667,-0.015000000000000043,2.909099999994041],[0.3515625,-0.038703703703703664,2.926599999994039],[0.43427083333333344,-0.014629629629629588,2.9410000000000025],[0.48760416666666656,-0.0338888888888888,2.9563999999910635],[0.5409375,-0.053148148148148125,2.97229999999702],[0.49114583333333334,0.00592592592592601,2.993200000002986],[0.49114583333333334,0.00592592592592601,3.005599999994047],[0.5119791666666667,0.08314814814814811,3.022399999991066],[0.5285416666666668,0.12814814814814823,3.0434999999999945],[0.4757291666666667,0.15240740740740732,3.059299999997023],[0.4110416666666666,0.1883333333333334,3.074599999994035],[0.3936458333333334,0.2035185185185185,3.0892000000029753],[0.3943749999999999,0.262037037037037,3.1053999999910644],[0.26843750000000005,0.31074074074074065,3.1220999999940346],[0.17218749999999997,0.3551851851851851,3.138799999997019],[0.07572916666666671,0.3237037037037036,3.1555000000000035],[0.07572916666666671,0.3237037037037036,3.172099999994046],[-0.017708333333333333,0.2946296296296297,3.1887999999970162],[-0.0704166666666667,0.27314814814814814,3.207599999994045],[-0.0704166666666667,0.27314814814814814,3.222200000002985],[-0.1872916666666666,0.24462962962962967,3.239200000002981],[-0.14708333333333337,0.23870370370370367,3.2587000000029747],[-0.14708333333333337,0.23870370370370367,3.2722000000029823],[-0.14052083333333332,0.24092592592592596,3.2890000000000015],[-0.13031250000000003,0.27259259259259266,3.305599999994044],[-0.14510416666666662,0.2892592592592593,3.3262000000029843],[-0.13781249999999995,0.275,3.340999999999994],[-0.11020833333333328,0.2698148148148149,3.3553999999910644],[-0.09510416666666661,0.33055555555555555,3.3722999999970256],[-0.03812500000000003,0.3844444444444445,3.3930999999940354],[-0.026250000000000048,0.4203703703703704,3.4070999999940454],[0.041875000000000044,0.46222222222222226,3.422599999994034],[0.03333333333333333,0.4918518518518519,3.444500000000005],[0.0796875,0.4838888888888888,3.459099999994038],[0.07729166666666672,0.48629629629629634,3.473700000002978],[0.07729166666666672,0.48629629629629634,3.4890000000000043],[0.065625,0.44722222222222224,3.5080999999940445],[0.06802083333333328,0.467962962962963,3.5234999999999985],[0.06802083333333328,0.467962962962963,3.5388999999910595],[0.05010416666666669,0.47962962962962963,3.558799999997021],[0.049374999999999974,0.43740740740740747,3.5734999999999957],[0.06520833333333335,0.4235185185185186,3.5912999999970197],[0.04677083333333331,0.39351851851851855,3.608000000000004],[0.029270833333333357,0.3375925925925925,3.6222000000029766],[-0.005520833333333286,0.26444444444444437,3.638999999999996],[-0.06947916666666672,0.252962962962963,3.6555999999940383],[-0.13562500000000005,0.22240740740740744,3.6747000000029857],[-0.15874999999999997,0.18185185185185193,3.693799999997026],[-0.15874999999999997,0.18185185185185193,3.7055000000000007],[-0.17302083333333335,0.05851851851851856,3.7255999999940457],[-0.18072916666666666,-0.009814814814814731,3.742500000000007],[-0.17718750000000003,-0.06814814814814817,3.759399999991061],[-0.17000000000000004,-0.10185185185185185,3.7764999999999986],[-0.1929166666666667,-0.14240740740740737,3.792500000000004],[-0.1929166666666667,-0.14240740740740737,3.805499999999995],[-0.19593750000000001,-0.14018518518518516,3.822299999997014],[-0.18166666666666664,-0.12074074074074072,3.8413999999910544],[-0.1538541666666667,-0.15611111111111114,3.8575999999940365],[-0.12302083333333336,-0.22999999999999998,3.8739999999999952],[-0.12302083333333336,-0.22999999999999998,3.9072000000029874],[-0.11124999999999995,-0.20981481481481484,3.913499999999999],[-0.11124999999999995,-0.20981481481481484,3.9222999999970227],[-0.09802083333333336,-0.18722222222222226,3.938899999991065],[-0.10364583333333334,-0.1653703703703704,3.958500000000001],[-0.11052083333333336,-0.1440740740740741,3.97229999999702],[-0.1313541666666667,-0.1427777777777778,3.9890000000000043],[-0.11364583333333336,-0.15722222222222218,4.008299999997021],[-0.11229166666666662,-0.15722222222222218,4.022200000002982],[-0.1109375,-0.15722222222222218,4.0388999999910595],[-0.11468750000000003,-0.16944444444444445,4.055599999994044],[-0.12145833333333336,-0.14314814814814816,4.073700000002987],[-0.11291666666666664,-0.13129629629629624,4.089200000002975],[-0.10583333333333336,-0.12185185185185188,4.105799999997018],[-0.09885416666666665,-0.15481481481481485,4.122200000002977],[-0.1063541666666667,-0.13333333333333333,4.140399999991061],[-0.10822916666666664,-0.11500000000000005,4.1555000000000035],[-0.10822916666666664,-0.11500000000000005,4.172200000002988],[-0.11854166666666661,-0.07407407407407407,4.191799999997016],[-0.12281249999999998,-0.08574074074074076,4.205500000000001],[-0.14656250000000004,-0.13277777777777774,4.221999999999994],[-0.15135416666666662,-0.1096296296296296,4.241500000000002],[-0.14375,-0.1022222222222222,4.255499999999998],[-0.14114583333333333,-0.12759259259259256,4.275899999991054],[-0.14114583333333333,-0.12759259259259256,4.288799999997025],[-0.13781249999999995,-0.16166666666666668,4.305399999991067],[-0.12697916666666664,-0.23870370370370367,4.324799999997026],[-0.12124999999999998,-0.27240740740740743,4.338999999999999],[-0.11135416666666664,-0.3509259259259259,4.355599999994041],[-0.1014583333333333,-0.4294444444444444,4.372099999994035],[-0.08062499999999997,-0.44722222222222224,4.388899999991054],[-0.04031250000000005,-0.42962962962962964,4.405399999991062],[-0.04375,-0.41870370370370374,4.422200000002988],[-0.059583333333333384,-0.392037037037037,4.4387000000029815],[-0.05458333333333331,-0.42777777777777776,4.455399999991059],[-0.050312499999999954,-0.45481481481481484,4.472099999994043],[-0.050312499999999954,-0.45481481481481484,4.488799999997028],[-0.011041666666666691,-0.43648148148148147,4.505399999991056],[-0.019166666666666644,-0.425,4.52209999999404],[-0.03145833333333338,-0.38925925925925925,4.539200000002978],[-0.03947916666666664,-0.38740740740740737,4.555399999991067],[-0.06104166666666669,-0.42388888888888887,4.572000000000003],[-0.03677083333333329,-0.47314814814814815,4.588799999997022],[0.011770833333333286,-0.5511111111111111,4.605399999991064],[0.021562500000000047,-0.6116666666666667,4.622099999994035],[0.010520833333333358,-0.5901851851851851,4.638999999999996],[0.04552083333333338,-0.5581481481481481,4.655399999991062],[0.050416666666666644,-0.5403703703703704,4.671999999999997],[0.12072916666666676,-0.5796296296296296,4.688799999997016],[0.19104166666666675,-0.6188888888888888,4.705399999991059],[0.24802083333333325,-0.6333333333333333,4.722099999994043],[0.30499999999999994,-0.6477777777777778,4.738799999997028],[0.3109375,-0.6366666666666667,4.755399999991056],[0.3168750000000001,-0.6255555555555555,4.77209999999404],[0.3616666666666667,-0.6092592592592593,4.788799999997025],[0.40645833333333337,-0.5929629629629629,4.805599999994044],[0.40562500000000007,-0.5868518518518518,4.8220999999940375],[0.40479166666666655,-0.5807407407407408,4.838799999997022],[0.4105208333333332,-0.5716666666666667,4.855399999991064],[0.4162499999999999,-0.5625925925925926,4.872099999994035],[0.39729166666666677,-0.5181481481481481,4.888799999997019],[0.37833333333333335,-0.47370370370370374,4.9093999999910665],[0.3610416666666666,-0.44592592592592595,4.923799999997016],[0.3610416666666666,-0.44592592592592595,4.938799999997016],[0.34375,-0.41814814814814816,4.955500000000001],[0.2960416666666667,-0.43277777777777776,4.972099999994043],[0.2808333333333332,-0.3383333333333333,4.988799999997028],[0.2867708333333333,-0.2490740740740741,5.0057000000029745],[0.26979166666666665,-0.18796296296296297,5.02209999999404],[0.26197916666666665,-0.0883333333333333,5.038799999997025],[0.23104166666666662,0.051111111111111156,5.055399999991067],[0.21885416666666657,0.14870370370370362,5.072200000002979],[0.2273958333333333,0.20537037037037034,5.088799999997022],[0.23947916666666677,0.26592592592592595,5.105399999991064],[0.2125,0.247037037037037,5.122099999994035],[0.21583333333333338,0.2479629629629629,5.138700000002984],[0.21770833333333334,0.19518518518518516,5.155399999991062],[0.19802083333333323,0.14722222222222223,5.174399999991067],[0.23104166666666662,0.1427777777777778,5.189000000000007],[0.2321875000000001,0.13407407407407404,5.205399999991059],[0.21760416666666677,0.09611111111111106,5.221999999999994],[0.21802083333333327,0.07370370370370362,5.238799999997028],[0.20104166666666667,0.04462962962962967,5.255399999991056],[0.19177083333333325,0.03129629629629625,5.27209999999404],[0.2557291666666667,0.07777777777777778,5.288799999997025],[0.2557291666666667,0.07777777777777778,5.305399999991067],[0.2989583333333333,0.1698148148148149,5.322299999997014],[0.3245833333333332,0.16777777777777783,5.338799999997022],[0.3474999999999999,0.14129629629629623,5.355399999991064],[0.340625,0.09944444444444453,5.372099999994035],[0.35614583333333344,0.05944444444444449,5.388700000002984],[0.4105208333333332,0.008888888888888804,5.405399999991062],[0.45770833333333344,-0.06574074074074074,5.422099999994046],[0.45770833333333344,-0.06574074074074074,5.4387000000029815],[0.4828125,-0.10999999999999996,5.455500000000001],[0.5095833333333334,-0.1646296296296296,5.472200000002985],[0.49968750000000006,-0.1814814814814815,5.492500000000007],[0.5294791666666666,-0.25462962962962965,5.509],[0.51875,-0.2757407407407407,5.525499999999994],[0.5107291666666666,-0.27240740740740743,5.542599999994039],[0.4479166666666667,-0.21092592592592588,5.558799999997021],[0.3770833333333333,-0.1742592592592593,5.573999999999998],[0.2546875,-0.18259259259259264,5.59020000000298],[0.13947916666666677,-0.1668518518518519,5.605500000000006],[0.08499999999999991,-0.09185185185185189,5.622],[0.021145833333333287,-0.022222222222222223,5.638799999997019],[-0.058229166666666644,0.030000000000000086,5.655599999994038],[-0.15656249999999997,0.09296296296296305,5.672099999994046],[-0.20958333333333337,0.15592592592592602,5.689000000000007],[-0.20958333333333337,0.15592592592592602,5.705299999997024],[-0.26531250000000006,0.21740740740740735,5.722099999994043],[-0.25270833333333337,0.2762962962962964,5.738700000002979],[-0.2617708333333333,0.2579629629629629,5.755299999997021],[-0.21927083333333333,0.28462962962962973,5.77209999999404],[-0.17052083333333337,0.3387037037037037,5.788700000002976],[-0.16375000000000003,0.3507407407407407,5.805399999991067],[-0.1578125,0.36796296296296305,5.8220999999940375],[-0.12302083333333336,0.3774074074074073,5.838700000002987],[-0.12302083333333336,0.3774074074074073,5.855399999991064],[-0.09500000000000004,0.4396296296296296,5.872099999994035],[-0.07947916666666661,0.4581481481481481,5.890000000000001],[-0.06124999999999995,0.4781481481481482,5.906499999999994],[-0.03739583333333331,0.4396296296296296,5.921999999999997]]","[0.00029999999701857405,0.05689999999106021,0.06159999999403709,0.07220000000297944,0.08879999999702193,0.10889999999105981,0.12229999999701846,0.1390000000000029,0.16049999999999898,0.17520000000298097,0.1905000000000001,0.2110999999940404,0.22239999999106175,0.23920000000298103,0.2557999999970235,0.27559999999404283,0.29229999999702017,0.30700000000000216,0.3222999999970213,0.3410000000000011,0.3555999999940411,0.3728999999910627,0.39289999999105873,0.4082999999970198,0.4222999999970227,0.43900000000000006,0.4612999999970242,0.479200000002983,0.4945999999940369,0.5058999999910583,0.5260000000000034,0.540899999991062,0.5572000000029789,0.5722000000029794,0.5915999999940382,0.6054999999999993,0.6223999999910603,0.638899999991061,0.6555000000000035,0.6722999999970227,0.6900999999940396,0.7053999999910587,0.7220999999940432,0.7387999999970205,0.755399999991063,0.7722000000029823,0.7887999999970177,0.8053999999910602,0.8220999999940375,0.8388999999910567,0.8554999999999993,0.8722000000029837,0.888899999991061,0.9055000000000035,0.9222999999970227,0.9387999999970233,0.9575999999940379,0.9720999999940432,0.9887999999970205,1.005399999991063,1.0220999999940403,1.0387999999970177,1.0579999999999998,1.0722999999970213,1.0897999999970196,1.1088999999910598,1.1235,1.139000000000003,1.1555999999940383,1.1740999999940414,1.1892999999970186,1.2057999999970193,1.2242000000029805,1.2390000000000043,1.2557000000029817,1.2722999999970241,1.2913999999910573,1.305599999994044,1.3225999999940399,1.3417000000029802,1.3555999999940411,1.3768999999910605,1.3933999999910611,1.4055999999940383,1.4254999999999995,1.4417000000029816,1.456000000000003,1.472200000002978,1.4905000000000044,1.5054999999999978,1.5222999999970241,1.5414999999999992,1.5553999999910602,1.5720999999940375,1.588799999997022,1.6053999999910573,1.6220999999940418,1.638799999997019,1.6553999999910616,1.672099999994039,1.6917999999970235,1.7055000000000007,1.7220999999940432,1.7388999999910624,1.755399999991063,1.7720999999940403,1.7888999999910595,1.805500000000002,1.8220999999940375,1.8389999999999986,1.8587000000029832,1.8722999999970185,1.8900000000000006,1.9053999999910616,1.922099999994039,1.9387999999970233,1.9555000000000007,1.9720999999940432,1.990000000000002,2.005499999999998,2.0222000000029823,2.0387999999970177,2.0595999999940418,2.074899999991061,2.091000000000001,2.111099999994039,2.125200000002984,2.1393999999910633,2.1555999999940383,2.1753999999910576,2.190700000002984,2.206099999994038,2.2247999999970176,2.2390000000000043,2.2555999999940397,2.275500000000001,2.2905000000000015,2.305700000002979,2.3222999999970213,2.34170000000298,2.3558999999910597,2.3720999999940418,2.388799999997019,2.4055999999940383,2.422200000002981,2.4387999999970233,2.4553999999910587,2.472200000002978,2.4887999999970205,2.505399999991063,2.5220999999940403,2.5422000000029783,2.556399999991058,2.5720999999940375,2.5928999999910616,2.6073999999910598,2.6220999999940418,2.645899999991059,2.6555999999940383,2.6722999999970227,2.689,2.7077999999970217,2.722200000002978,2.7395999999940415,2.75859999999404,2.773299999997022,2.789399999991062,2.809399999991058,2.825000000000003,2.8390999999940334,2.855599999994041,2.8745999999940466,2.8893999999910562,2.909099999994041,2.926599999994039,2.9410000000000025,2.9563999999910635,2.97229999999702,2.993200000002986,3.005599999994047,3.022399999991066,3.0434999999999945,3.059299999997023,3.074599999994035,3.0892000000029753,3.1053999999910644,3.1220999999940346,3.138799999997019,3.1555000000000035,3.172099999994046,3.1887999999970162,3.207599999994045,3.222200000002985,3.239200000002981,3.2587000000029747,3.2722000000029823,3.2890000000000015,3.305599999994044,3.3262000000029843,3.340999999999994,3.3553999999910644,3.3722999999970256,3.3930999999940354,3.4070999999940454,3.422599999994034,3.444500000000005,3.459099999994038,3.473700000002978,3.4890000000000043,3.5080999999940445,3.5234999999999985,3.5388999999910595,3.558799999997021,3.5734999999999957,3.5912999999970197,3.608000000000004,3.6222000000029766,3.638999999999996,3.6555999999940383,3.6747000000029857,3.693799999997026,3.7055000000000007,3.7255999999940457,3.742500000000007,3.759399999991061,3.7764999999999986,3.792500000000004,3.805499999999995,3.822299999997014,3.8413999999910544,3.8575999999940365,3.8739999999999952,3.9072000000029874,3.913499999999999,3.9222999999970227,3.938899999991065,3.958500000000001,3.97229999999702,3.9890000000000043,4.008299999997021,4.022200000002982,4.0388999999910595,4.055599999994044,4.073700000002987,4.089200000002975,4.105799999997018,4.122200000002977,4.140399999991061,4.1555000000000035,4.172200000002988,4.191799999997016,4.205500000000001,4.221999999999994,4.241500000000002,4.255499999999998,4.275899999991054,4.288799999997025,4.305399999991067,4.324799999997026,4.338999999999999,4.355599999994041,4.372099999994035,4.388899999991054,4.405399999991062,4.422200000002988,4.4387000000029815,4.455399999991059,4.472099999994043,4.488799999997028,4.505399999991056,4.52209999999404,4.539200000002978,4.555399999991067,4.572000000000003,4.588799999997022,4.605399999991064,4.622099999994035,4.638999999999996,4.655399999991062,4.671999999999997,4.688799999997016,4.705399999991059,4.722099999994043,4.738799999997028,4.755399999991056,4.77209999999404,4.788799999997025,4.805599999994044,4.8220999999940375,4.838799999997022,4.855399999991064,4.872099999994035,4.888799999997019,4.9093999999910665,4.923799999997016,4.938799999997016,4.955500000000001,4.972099999994043,4.988799999997028,5.0057000000029745,5.02209999999404,5.038799999997025,5.055399999991067,5.072200000002979,5.088799999997022,5.105399999991064,5.122099999994035,5.138700000002984,5.155399999991062,5.174399999991067,5.189000000000007,5.205399999991059,5.221999999999994,5.238799999997028,5.255399999991056,5.27209999999404,5.288799999997025,5.305399999991067,5.322299999997014,5.338799999997022,5.355399999991064,5.372099999994035,5.388700000002984,5.405399999991062,5.422099999994046,5.4387000000029815,5.455500000000001,5.472200000002985,5.492500000000007,5.509,5.525499999999994,5.542599999994039,5.558799999997021,5.573999999999998,5.59020000000298,5.605500000000006,5.622,5.638799999997019,5.655599999994038,5.672099999994046,5.689000000000007,5.705299999997024,5.722099999994043,5.738700000002979,5.755299999997021,5.77209999999404,5.788700000002976,5.805399999991067,5.8220999999940375,5.838700000002987,5.855399999991064,5.872099999994035,5.890000000000001,5.906499999999994,5.921999999999997]","[1732510132965,1732510133012,1732510133016,1732510133027,1732510133044,1732510133064,1732510133077,1732510133094,1732510133115,1732510133130,1732510133145,1732510133166,1732510133177,1732510133194,1732510133211,1732510133231,1732510133247,1732510133262,1732510133277,1732510133296,1732510133310,1732510133328,1732510133348,1732510133363,1732510133377,1732510133394,1732510133416,1732510133434,1732510133449,1732510133461,1732510133481,1732510133496,1732510133512,1732510133527,1732510133546,1732510133560,1732510133577,1732510133594,1732510133610,1732510133627,1732510133645,1732510133660,1732510133677,1732510133694,1732510133710,1732510133727,1732510133744,1732510133760,1732510133777,1732510133794,1732510133810,1732510133827,1732510133844,1732510133860,1732510133877,1732510133894,1732510133912,1732510133927,1732510133944,1732510133960,1732510133977,1732510133994,1732510134013,1732510134027,1732510134045,1732510134064,1732510134078,1732510134094,1732510134111,1732510134129,1732510134144,1732510134161,1732510134179,1732510134194,1732510134211,1732510134227,1732510134246,1732510134260,1732510134277,1732510134297,1732510134310,1732510134332,1732510134348,1732510134360,1732510134380,1732510134397,1732510134411,1732510134427,1732510134445,1732510134460,1732510134477,1732510134496,1732510134510,1732510134527,1732510134544,1732510134560,1732510134577,1732510134594,1732510134610,1732510134627,1732510134647,1732510134660,1732510134677,1732510134694,1732510134710,1732510134727,1732510134744,1732510134760,1732510134777,1732510134794,1732510134814,1732510134827,1732510134845,1732510134860,1732510134877,1732510134894,1732510134910,1732510134927,1732510134945,1732510134960,1732510134977,1732510134994,1732510135014,1732510135030,1732510135046,1732510135066,1732510135080,1732510135094,1732510135111,1732510135130,1732510135146,1732510135161,1732510135180,1732510135194,1732510135210,1732510135230,1732510135245,1732510135261,1732510135277,1732510135297,1732510135311,1732510135327,1732510135344,1732510135360,1732510135377,1732510135394,1732510135410,1732510135427,1732510135444,1732510135460,1732510135477,1732510135497,1732510135511,1732510135527,1732510135548,1732510135562,1732510135577,1732510135601,1732510135610,1732510135627,1732510135644,1732510135663,1732510135677,1732510135694,1732510135713,1732510135728,1732510135744,1732510135764,1732510135780,1732510135794,1732510135811,1732510135829,1732510135844,1732510135864,1732510135881,1732510135896,1732510135911,1732510135927,1732510135948,1732510135960,1732510135977,1732510135998,1732510136014,1732510136029,1732510136044,1732510136060,1732510136077,1732510136094,1732510136110,1732510136127,1732510136144,1732510136162,1732510136177,1732510136194,1732510136214,1732510136227,1732510136244,1732510136260,1732510136281,1732510136296,1732510136310,1732510136327,1732510136348,1732510136362,1732510136377,1732510136399,1732510136414,1732510136429,1732510136444,1732510136463,1732510136478,1732510136494,1732510136514,1732510136528,1732510136546,1732510136563,1732510136577,1732510136594,1732510136610,1732510136630,1732510136649,1732510136660,1732510136680,1732510136697,1732510136714,1732510136731,1732510136747,1732510136760,1732510136777,1732510136796,1732510136812,1732510136829,1732510136862,1732510136868,1732510136877,1732510136894,1732510136913,1732510136927,1732510136944,1732510136963,1732510136977,1732510136994,1732510137010,1732510137029,1732510137044,1732510137061,1732510137077,1732510137095,1732510137110,1732510137127,1732510137147,1732510137160,1732510137177,1732510137196,1732510137210,1732510137231,1732510137244,1732510137260,1732510137280,1732510137294,1732510137310,1732510137327,1732510137344,1732510137360,1732510137377,1732510137394,1732510137410,1732510137427,1732510137444,1732510137460,1732510137477,1732510137494,1732510137510,1732510137527,1732510137544,1732510137560,1732510137577,1732510137594,1732510137610,1732510137627,1732510137644,1732510137660,1732510137677,1732510137694,1732510137710,1732510137727,1732510137744,1732510137760,1732510137777,1732510137794,1732510137810,1732510137827,1732510137844,1732510137864,1732510137879,1732510137894,1732510137910,1732510137927,1732510137944,1732510137961,1732510137977,1732510137994,1732510138010,1732510138027,1732510138044,1732510138060,1732510138077,1732510138094,1732510138110,1732510138129,1732510138144,1732510138160,1732510138177,1732510138194,1732510138210,1732510138227,1732510138244,1732510138260,1732510138277,1732510138294,1732510138310,1732510138327,1732510138344,1732510138360,1732510138377,1732510138394,1732510138410,1732510138427,1732510138447,1732510138464,1732510138480,1732510138497,1732510138514,1732510138529,1732510138545,1732510138560,1732510138577,1732510138594,1732510138610,1732510138627,1732510138644,1732510138660,1732510138677,1732510138694,1732510138710,1732510138727,1732510138744,1732510138760,1732510138777,1732510138794,1732510138810,1732510138827,1732510138845,1732510138861,1732510138877]","[[934,550.9],[934,550.9],[925,537.3],[925,537.3],[916,523.7],[916,523.7],[948.8,545],[966.3,556.2],[951.1,559.1],[978.6,586.8],[983.3,623.3],[978.2,642.2],[978.2,642.2],[992.4,667.4],[985.1,702.8],[1007,720.1],[1011.9,736.1],[995.6,732.8],[1006.7,727.7],[1021.8,731],[998.1,736.7],[974.4,742.4],[952.1,754],[939.3,736.7],[939.3,736.7],[904.3,717.8],[890.3,710.4],[890.3,710.4],[882.3,678.6],[882.3,678.6],[875.5,684.1],[838.2,668.7],[814.8,644.9],[808.2,620.9],[788.1,591.7],[791.3,596.4],[782.8,603],[790.9,601.9],[748.5,582.2],[717.1,588.2],[671.3,528.1],[643.9,500.8],[643.9,500.8],[612.8,499.9],[581.9,511.6],[539.7,548],[496.7,550.5],[436.5,545.7],[408.6,565],[410.2,591.4],[418.7,622.7],[440.4,682.8],[475.4,727.6],[475.4,727.6],[500.2,754.4],[528.2,772.6],[584.8,772.2],[627.3,783.5],[679.6,789.4],[699.6,771.2],[708.2,744.7],[709.9,713.3],[709.9,713.3],[736.5,678.6],[744.4,669.1],[752.3,659.6],[745.9,618.9],[735.7,577.3],[729.9,593.6],[720.9,622],[742.9,612.5],[752.5,624.1],[792.3,633.4],[809.8,629.6],[823.1,618.4],[823.1,618.4],[836.4,607.2],[855.4,629.6],[907.6,670.4],[955.4,653.3],[989.5,610.1],[1031.8,618.4],[1084.1,611.7],[1084.1,611.7],[1084.1,568.7],[1097.4,574.7],[1116.3,561.9],[1136.1,551.4],[1129.1,535.4],[1116.7,508.6],[1057.6,502.1],[1021.3,527.8],[948.8,533.7],[890.1,541.8],[842.8,586.8],[781.1,595.3],[774.2,619.6],[738,667.2],[748.4,701],[731,727.2],[748.6,715.5],[760.6,686.7],[771.1,674.7],[781.6,662.7],[838.3,659.3],[893.5,659.8],[905.8,653.9],[946.5,622.4],[993.8,601.5],[1041.1,580.6],[1095.7,593.1],[1132.2,596.4],[1175.3,575.2],[1218.4,554],[1260.4,539],[1285.9,513.8],[1289.4,478],[1303,445.2],[1277.7,408],[1277.7,408],[1252.4,370.8],[1249.6,327.6],[1241.5,314.6],[1233.3,328.5],[1244,348.4],[1232.1,346.6],[1220.1,319.7],[1222.2,310.3],[1178.5,317.7],[1152.5,331.8],[1147.1,358.2],[1123.6,374.8],[1123.6,374.8],[1123.5,379.8],[1123.5,379.8],[1131.4,357.7],[1107.8,344.5],[1068.7,340.4],[1055.8,376.3],[1042.9,412.2],[1083.1,424.3],[1123.3,436.4],[1127.3,436.5],[1131.3,436.6],[1148.7,438.3],[1150.8,453.8],[1153.3,466.5],[1159.5,478.7],[1171.2,470.4],[1183.8,459.6],[1153.8,470.4],[1123.8,481.2],[1082.5,493.6],[1041.2,506],[1006.3,525.2],[978.1,562.8],[962.1,588.3],[946.1,613.8],[946.1,613.8],[937.7,632.6],[915.3,650.6],[932.1,647.3],[966.4,668.5],[1027.6,687.8],[1062,672.5],[1095.5,659.6],[1121.3,654.3],[1147.1,649],[1217.4,598.8],[1234.3,575.6],[1268.4,573.1],[1277.9,579.9],[1281.3,555.9],[1284.7,531.9],[1297.5,519.1],[1376.9,532.1],[1428.1,521.7],[1479.3,511.3],[1431.5,543.2],[1431.5,543.2],[1451.5,584.9],[1467.4,609.2],[1416.7,622.3],[1354.6,641.7],[1337.9,649.9],[1338.6,681.5],[1217.7,707.8],[1125.3,731.8],[1032.7,714.8],[1032.7,714.8],[943,699.1],[892.4,687.5],[892.4,687.5],[780.2,672.1],[818.8,668.9],[818.8,668.9],[825.1,670.1],[834.9,687.2],[820.7,696.2],[827.7,688.5],[854.2,685.7],[868.7,718.5],[923.4,747.6],[934.8,767],[1000.2,789.6],[992,805.6],[1036.5,801.3],[1034.2,802.6],[1034.2,802.6],[1023,781.5],[1025.3,792.7],[1025.3,792.7],[1008.1,799],[1007.4,776.2],[1022.6,768.7],[1004.9,752.5],[988.1,722.3],[954.7,682.8],[893.3,676.6],[829.8,660.1],[807.6,638.2],[807.6,638.2],[793.9,571.6],[786.5,534.7],[789.9,503.2],[796.8,485],[774.8,463.1],[774.8,463.1],[771.9,464.3],[785.6,474.8],[812.3,455.7],[841.9,415.8],[841.9,415.8],[853.2,426.7],[853.2,426.7],[865.9,438.9],[860.5,450.7],[853.9,462.2],[833.9,462.9],[850.9,455.1],[852.2,455.1],[853.5,455.1],[849.9,448.5],[843.4,462.7],[851.6,469.1],[858.4,474.2],[865.1,456.4],[857.9,468],[856.1,477.9],[856.1,477.9],[846.2,500],[842.1,493.7],[819.3,468.3],[814.7,480.8],[822,484.8],[824.5,471.1],[824.5,471.1],[827.7,452.7],[838.1,411.1],[843.6,392.9],[853.1,350.5],[862.6,308.1],[882.6,298.5],[921.3,308],[918,313.9],[902.8,328.3],[907.6,309],[911.7,294.4],[911.7,294.4],[949.4,304.3],[941.6,310.5],[929.8,329.8],[922.1,330.8],[901.4,311.1],[924.7,284.5],[971.3,242.4],[980.7,209.7],[970.1,221.3],[1003.7,238.6],[1008.4,248.2],[1075.9,227],[1143.4,205.8],[1198.1,198],[1252.8,190.2],[1258.5,196.2],[1264.2,202.2],[1307.2,211],[1350.2,219.8],[1349.4,223.1],[1348.6,226.4],[1354.1,231.3],[1359.6,236.2],[1341.4,260.2],[1323.2,284.2],[1306.6,299.2],[1306.6,299.2],[1290,314.2],[1244.2,306.3],[1229.6,357.3],[1235.3,405.5],[1219,438.5],[1211.5,492.3],[1181.8,567.6],[1170.1,620.3],[1178.3,650.9],[1189.9,683.6],[1164,673.4],[1167.2,673.9],[1169,645.4],[1150.1,619.5],[1181.8,617.1],[1182.9,612.4],[1168.9,591.9],[1169.3,579.8],[1153,564.1],[1144.1,556.9],[1205.5,582],[1205.5,582],[1247,631.7],[1271.6,630.6],[1293.6,616.3],[1287,593.7],[1301.9,572.1],[1354.1,544.8],[1399.4,504.5],[1399.4,504.5],[1423.5,480.6],[1449.2,451.1],[1439.7,442],[1468.3,402.5],[1458,391.1],[1450.3,392.9],[1390,426.1],[1322,445.9],[1204.5,441.4],[1093.9,449.9],[1041.6,490.4],[980.3,528],[904.1,556.2],[809.7,590.2],[758.8,624.2],[758.8,624.2],[705.3,657.4],[717.4,689.2],[708.7,679.3],[749.5,693.7],[796.3,722.9],[802.8,729.4],[808.5,738.7],[841.9,743.8],[841.9,743.8],[868.8,777.4],[883.7,787.4],[901.2,798.2],[924.1,777.4]]","[-0.132282,0.39684600000000003]","[0.132282,0.39684600000000003]","[0.39684600000000003,0.39684600000000003]","[-0.39684600000000003,0.132282]","[-0.39684600000000003,-0.39684600000000003]","[-0.39684600000000003,-0.132282]","[-0.132282,0.132282]","[0.132282,0.132282]","[0.39684600000000003,0.132282]","[-0.132282,-0.39684600000000003]","[0.132282,-0.39684600000000003]","[0.39684600000000003,-0.39684600000000003]","[-0.132282,-0.132282]","[0.132282,-0.132282]","[0.39684600000000003,-0.132282]",0,0,0,0,1,2,Tablet,15,20,8,3,70,4,3,60,4
