inst1_resp.keys,inst1_resp.rt,calibrationMouse.x,calibrationMouse.y,calibrationMouse.leftButton,calibrationMouse.midButton,calibrationMouse.rightButton,calibrationClick.x,calibrationClick.y,calibrationClick.leftButton,calibrationClick.midButton,calibrationClick.rightButton,calibrationClick.clicked_name,trialsc.thisRepN,trialsc.thisTrialN,trialsc.thisN,trialsc.thisIndex,trialsc.ran,calibration_x,calibration_y,participant,session,date,expName,psychopyVersion,OS,frameRate,ScreenRes_pixels,Camera_pixels,mouse_2.x,mouse_2.y,mouse_2.leftButton,mouse_2.midButton,mouse_2.rightButton,mouse_2.time,mouse_2.clicked_name,mouse.x,mouse.y,mouse.leftButton,mouse.midButton,mouse.rightButton,mouse.time,mouse.clicked_name,Choice,Trial,TrialDuration,MOUSE_GAZE,ET_GAZE,ET_GAZE_x_T,time,unixTime,ET_GAZE_NF,Loc_Bus_label,Loc_Metro_label,Loc_RH_label,Loc_Cost_label,Loc_Travel_label,Loc_Comfort_label,Loc_Bus_cost,Loc_Metro_cost,Loc_RH_cost,Loc_Bus_travel,Loc_Metro_travel,Loc_RH_travel,Loc_Bus_comfort,Loc_Metro_comfort,Loc_RH_comfort,trials.thisRepN,trials.thisTrialN,trials.thisN,trials.thisIndex,trials.ran,Block,Device,RH_cost,RH_travel_time,RH_Comfort,metro_cost,metro_travel_time,metro_Comfort,Bus_cost,Bus_travel_time,Bus_Comfort
space,2.3716,-0.46875,-0.425925926,1,0,0,0.669791667,0.672222222,1,0,0,calibration_square,0,0,0,19,1,0.67,0.67,08,001,2024-11-18_11h10.24.115,Attention_exp_legacy,2023.1.0,Win32,59.88023952,,,,,,,,,,,,,,,,,,,,,,,,,,,,,,,,,,,,,,,,,,,,,,,,,,,,,,,,
,,,,,,,-0.001041667,0.333333333,1,0,0,calibration_square,0,1,1,12,1,0,0.33,08,001,2024-11-18_11h10.24.115,Attention_exp_legacy,2023.1.0,Win32,59.88023952,,,,,,,,,,,,,,,,,,,,,,,,,,,,,,,,,,,,,,,,,,,,,,,,,,,,,,,,
,,,,,,,0.334375,0.331481481,1,0,0,calibration_square,0,2,2,17,1,0.33,0.33,08,001,2024-11-18_11h10.24.115,Attention_exp_legacy,2023.1.0,Win32,59.88023952,,,,,,,,,,,,,,,,,,,,,,,,,,,,,,,,,,,,,,,,,,,,,,,,,,,,,,,,
,,,,,,,-0.671875,-0.67037037,1,0,0,calibration_square,0,3,3,0,1,-0.67,-0.67,08,001,2024-11-18_11h10.24.115,Attention_exp_legacy,2023.1.0,Win32,59.88023952,,,,,,,,,,,,,,,,,,,,,,,,,,,,,,,,,,,,,,,,,,,,,,,,,,,,,,,,
,,,,,,,-0.327083333,-0.327777778,1,0,0,calibration_square,0,4,4,5,1,-0.33,-0.33,08,001,2024-11-18_11h10.24.115,Attention_exp_legacy,2023.1.0,Win32,59.88023952,,,,,,,,,,,,,,,,,,,,,,,,,,,,,,,,,,,,,,,,,,,,,,,,,,,,,,,,
,,,,,,,-0.667708333,-0.009259259,1,0,0,calibration_square,0,5,5,2,1,-0.67,0,08,001,2024-11-18_11h10.24.115,Attention_exp_legacy,2023.1.0,Win32,59.88023952,,,,,,,,,,,,,,,,,,,,,,,,,,,,,,,,,,,,,,,,,,,,,,,,,,,,,,,,
,,,,,,,0.332291667,-0.007407407,1,0,0,calibration_square,0,6,6,16,1,0.33,0,08,001,2024-11-18_11h10.24.115,Attention_exp_legacy,2023.1.0,Win32,59.88023952,,,,,,,,,,,,,,,,,,,,,,,,,,,,,,,,,,,,,,,,,,,,,,,,,,,,,,,,
,,,,,,,0.329166667,0.664814815,1,0,0,calibration_square,0,7,7,18,1,0.33,0.67,08,001,2024-11-18_11h10.24.115,Attention_exp_legacy,2023.1.0,Win32,59.88023952,,,,,,,,,,,,,,,,,,,,,,,,,,,,,,,,,,,,,,,,,,,,,,,,,,,,,,,,
,,,,,,,-0.329166667,-0.009259259,1,0,0,calibration_square,0,8,8,6,1,-0.33,0,08,001,2024-11-18_11h10.24.115,Attention_exp_legacy,2023.1.0,Win32,59.88023952,,,,,,,,,,,,,,,,,,,,,,,,,,,,,,,,,,,,,,,,,,,,,,,,,,,,,,,,
,,,,,,,-0.672916667,-0.331481481,1,0,0,calibration_square,0,9,9,1,1,-0.67,-0.33,08,001,2024-11-18_11h10.24.115,Attention_exp_legacy,2023.1.0,Win32,59.88023952,,,,,,,,,,,,,,,,,,,,,,,,,,,,,,,,,,,,,,,,,,,,,,,,,,,,,,,,
,,,,,,,0.002083333,0.67037037,1,0,0,calibration_square,0,10,10,13,1,0,0.67,08,001,2024-11-18_11h10.24.115,Attention_exp_legacy,2023.1.0,Win32,59.88023952,,,,,,,,,,,,,,,,,,,,,,,,,,,,,,,,,,,,,,,,,,,,,,,,,,,,,,,,
,,,,,,,-0.66875,0.331481481,1,0,0,calibration_square,0,11,11,3,1,-0.67,0.33,08,001,2024-11-18_11h10.24.115,Attention_exp_legacy,2023.1.0,Win32,59.88023952,,,,,,,,,,,,,,,,,,,,,,,,,,,,,,,,,,,,,,,,,,,,,,,,,,,,,,,,
,,,,,,,0.330208333,-0.659259259,1,0,0,,0,12,12,14,1,0.33,-0.67,08,001,2024-11-18_11h10.24.115,Attention_exp_legacy,2023.1.0,Win32,59.88023952,,,,,,,,,,,,,,,,,,,,,,,,,,,,,,,,,,,,,,,,,,,,,,,,,,,,,,,,
,,,,,,,0.326041667,-0.325925926,1,0,0,calibration_square,0,13,13,15,1,0.33,-0.33,08,001,2024-11-18_11h10.24.115,Attention_exp_legacy,2023.1.0,Win32,59.88023952,,,,,,,,,,,,,,,,,,,,,,,,,,,,,,,,,,,,,,,,,,,,,,,,,,,,,,,,
,,,,,,,-0.336458333,0.327777778,1,0,0,calibration_square,0,14,14,7,1,-0.33,0.33,08,001,2024-11-18_11h10.24.115,Attention_exp_legacy,2023.1.0,Win32,59.88023952,,,,,,,,,,,,,,,,,,,,,,,,,,,,,,,,,,,,,,,,,,,,,,,,,,,,,,,,
,,,,,,,-0.332291667,-0.666666667,1,0,0,calibration_square,0,15,15,4,1,-0.33,-0.67,08,001,2024-11-18_11h10.24.115,Attention_exp_legacy,2023.1.0,Win32,59.88023952,,,,,,,,,,,,,,,,,,,,,,,,,,,,,,,,,,,,,,,,,,,,,,,,,,,,,,,,
,,,,,,,0.676041667,-0.67962963,1,0,0,calibration_square,0,16,16,20,1,0.67,-0.67,08,001,2024-11-18_11h10.24.115,Attention_exp_legacy,2023.1.0,Win32,59.88023952,,,,,,,,,,,,,,,,,,,,,,,,,,,,,,,,,,,,,,,,,,,,,,,,,,,,,,,,
,,,,,,,-0.326041667,0.666666667,1,0,0,calibration_square,0,17,17,8,1,-0.33,0.67,08,001,2024-11-18_11h10.24.115,Attention_exp_legacy,2023.1.0,Win32,59.88023952,,,,,,,,,,,,,,,,,,,,,,,,,,,,,,,,,,,,,,,,,,,,,,,,,,,,,,,,
,,,,,,,0.002083333,-0.325925926,1,0,0,calibration_square,0,18,18,10,1,0,-0.33,08,001,2024-11-18_11h10.24.115,Attention_exp_legacy,2023.1.0,Win32,59.88023952,,,,,,,,,,,,,,,,,,,,,,,,,,,,,,,,,,,,,,,,,,,,,,,,,,,,,,,,
,,,,,,,0.005208333,-0.674074074,1,0,0,calibration_square,0,19,19,9,1,0,-0.67,08,001,2024-11-18_11h10.24.115,Attention_exp_legacy,2023.1.0,Win32,59.88023952,,,,,,,,,,,,,,,,,,,,,,,,,,,,,,,,,,,,,,,,,,,,,,,,,,,,,,,,
,,,,,,,0.010416667,0,1,0,0,,0,20,20,11,1,0,0,08,001,2024-11-18_11h10.24.115,Attention_exp_legacy,2023.1.0,Win32,59.88023952,,,,,,,,,,,,,,,,,,,,,,,,,,,,,,,,,,,,,,,,,,,,,,,,,,,,,,,,
,,,,,,,,,,,,,,,,,,,,08,001,2024-11-18_11h10.24.115,Attention_exp_legacy,2023.1.0,Win32,59.88023952,"[1920,1080]","[640,480]",[0.005208333333333333],[-0.5259259259259259],[1],[0],[0],[4.9838999996185365],"[""StartButton""]",[0.16145833333333334],[0.17962962962962964],[1],[0],[0],[9.338699999809265],"[""RH_label""]",RH_label,1,10.3626,"[[0.490625,0.1537037037037037],[0.48854166666666665,0.1537037037037037],[0.48854166666666665,0.1537037037037037],[0.48854166666666665,0.1537037037037037],[0.48854166666666665,0.1537037037037037],[0.48854166666666665,0.1537037037037037],[0.4875,0.1537037037037037],[0.4875,0.1537037037037037],[0.4875,0.1537037037037037],[0.4875,0.1537037037037037],[0.4875,0.1537037037037037],[0.4875,0.1537037037037037],[0.4875,0.1537037037037037],[0.4875,0.1537037037037037],[0.4875,0.1537037037037037],[0.4875,0.1537037037037037],[0.4875,0.1537037037037037],[0.4864583333333333,0.15185185185185185],[0.4864583333333333,0.15185185185185185],[0.4864583333333333,0.15185185185185185],[0.48541666666666666,0.15185185185185185],[0.48541666666666666,0.15185185185185185],[0.48541666666666666,0.15185185185185185],[0.48541666666666666,0.15185185185185185],[0.48541666666666666,0.15185185185185185],[0.48541666666666666,0.15185185185185185],[0.484375,0.15185185185185185],[0.484375,0.15185185185185185],[0.484375,0.15185185185185185],[0.484375,0.15185185185185185],[0.484375,0.15185185185185185],[0.484375,0.15185185185185185],[0.484375,0.15185185185185185],[0.48333333333333334,0.15185185185185185],[0.48125,0.15185185185185185],[0.478125,0.15185185185185185],[0.475,0.15185185185185185],[0.47291666666666665,0.15185185185185185],[0.46875,0.15185185185185185],[0.46458333333333335,0.15555555555555556],[0.4625,0.15555555555555556],[0.4583333333333333,0.15555555555555556],[0.4583333333333333,0.15555555555555556],[0.45625,0.15555555555555556],[0.4552083333333333,0.15555555555555556],[0.45208333333333334,0.1574074074074074],[0.45208333333333334,0.1574074074074074],[0.45,0.1574074074074074],[0.44895833333333335,0.1574074074074074],[0.4479166666666667,0.1574074074074074],[0.44583333333333336,0.1574074074074074],[0.44583333333333336,0.1574074074074074],[0.44479166666666664,0.1574074074074074],[0.44375,0.1574074074074074],[0.4427083333333333,0.1574074074074074],[0.44166666666666665,0.1574074074074074],[0.440625,0.1574074074074074],[0.4395833333333333,0.1574074074074074],[0.4375,0.1574074074074074],[0.43645833333333334,0.1574074074074074],[0.4354166666666667,0.15925925925925927],[0.4354166666666667,0.16111111111111112],[0.434375,0.16111111111111112],[0.434375,0.16111111111111112],[0.43333333333333335,0.16111111111111112],[0.43333333333333335,0.16111111111111112],[0.43125,0.16111111111111112],[0.43125,0.16111111111111112],[0.43020833333333336,0.16111111111111112],[0.43020833333333336,0.16111111111111112],[0.43020833333333336,0.16111111111111112],[0.428125,0.16111111111111112],[0.428125,0.16111111111111112],[0.428125,0.16111111111111112],[0.4270833333333333,0.16111111111111112],[0.4270833333333333,0.16111111111111112],[0.4270833333333333,0.16111111111111112],[0.425,0.16111111111111112],[0.4239583333333333,0.16111111111111112],[0.42291666666666666,0.16111111111111112],[0.42291666666666666,0.16111111111111112],[0.42291666666666666,0.16111111111111112],[0.42291666666666666,0.16111111111111112],[0.421875,0.16111111111111112],[0.421875,0.16111111111111112],[0.421875,0.16111111111111112],[0.421875,0.16111111111111112],[0.421875,0.16111111111111112],[0.421875,0.16111111111111112],[0.421875,0.16111111111111112],[0.421875,0.16111111111111112],[0.421875,0.16111111111111112],[0.42291666666666666,0.15925925925925927],[0.4239583333333333,0.15925925925925927],[0.425,0.15925925925925927],[0.425,0.15925925925925927],[0.42604166666666665,0.15925925925925927],[0.4270833333333333,0.15925925925925927],[0.4270833333333333,0.15925925925925927],[0.4270833333333333,0.15925925925925927],[0.4270833333333333,0.15925925925925927],[0.4270833333333333,0.15925925925925927],[0.4270833333333333,0.15925925925925927],[0.4270833333333333,0.15925925925925927],[0.4270833333333333,0.15925925925925927],[0.4270833333333333,0.15925925925925927],[0.4270833333333333,0.15925925925925927],[0.4270833333333333,0.15925925925925927],[0.4270833333333333,0.15925925925925927],[0.4270833333333333,0.15925925925925927],[0.4270833333333333,0.15925925925925927],[0.4270833333333333,0.15925925925925927],[0.4270833333333333,0.15925925925925927],[0.4270833333333333,0.15925925925925927],[0.4270833333333333,0.15925925925925927],[0.4270833333333333,0.15925925925925927],[0.4270833333333333,0.15925925925925927],[0.4270833333333333,0.15925925925925927],[0.4270833333333333,0.15925925925925927],[0.4270833333333333,0.15925925925925927],[0.4270833333333333,0.15925925925925927],[0.4270833333333333,0.15925925925925927],[0.4270833333333333,0.15925925925925927],[0.4270833333333333,0.15925925925925927],[0.4270833333333333,0.15925925925925927],[0.4270833333333333,0.15925925925925927],[0.4270833333333333,0.15925925925925927],[0.4270833333333333,0.15925925925925927],[0.4270833333333333,0.15925925925925927],[0.4270833333333333,0.15925925925925927],[0.4270833333333333,0.15925925925925927],[0.4270833333333333,0.15925925925925927],[0.4270833333333333,0.15925925925925927],[0.4270833333333333,0.15925925925925927],[0.4270833333333333,0.15925925925925927],[0.4270833333333333,0.15925925925925927],[0.4270833333333333,0.15925925925925927],[0.4270833333333333,0.15925925925925927],[0.4270833333333333,0.15925925925925927],[0.4270833333333333,0.15925925925925927],[0.4270833333333333,0.15925925925925927],[0.428125,0.1574074074074074],[0.428125,0.1574074074074074],[0.428125,0.15555555555555556],[0.428125,0.15555555555555556],[0.428125,0.1537037037037037],[0.428125,0.1537037037037037],[0.428125,0.15185185185185185],[0.428125,0.15185185185185185],[0.428125,0.15185185185185185],[0.428125,0.15],[0.428125,0.15],[0.428125,0.15],[0.428125,0.15],[0.428125,0.14629629629629629],[0.4270833333333333,0.14444444444444443],[0.4270833333333333,0.14444444444444443],[0.4270833333333333,0.14444444444444443],[0.4270833333333333,0.14074074074074075],[0.4270833333333333,0.1388888888888889],[0.4270833333333333,0.13518518518518519],[0.4270833333333333,0.13518518518518519],[0.4270833333333333,0.13333333333333333],[0.4270833333333333,0.13333333333333333],[0.4270833333333333,0.13333333333333333],[0.4270833333333333,0.12962962962962962],[0.4270833333333333,0.12962962962962962],[0.4270833333333333,0.12962962962962962],[0.4270833333333333,0.12962962962962962],[0.4270833333333333,0.12962962962962962],[0.4270833333333333,0.12962962962962962],[0.4270833333333333,0.12962962962962962],[0.4270833333333333,0.12962962962962962],[0.4270833333333333,0.12962962962962962],[0.4270833333333333,0.12962962962962962],[0.4270833333333333,0.12962962962962962],[0.4270833333333333,0.12962962962962962],[0.4270833333333333,0.12962962962962962],[0.4270833333333333,0.12962962962962962],[0.4270833333333333,0.12962962962962962],[0.4270833333333333,0.12962962962962962],[0.4270833333333333,0.12962962962962962],[0.4270833333333333,0.12962962962962962],[0.4270833333333333,0.12962962962962962],[0.4270833333333333,0.12962962962962962],[0.4270833333333333,0.12962962962962962],[0.4270833333333333,0.12962962962962962],[0.4270833333333333,0.12962962962962962],[0.4270833333333333,0.12962962962962962],[0.4270833333333333,0.12962962962962962],[0.4270833333333333,0.12962962962962962],[0.4270833333333333,0.12962962962962962],[0.4270833333333333,0.12962962962962962],[0.4270833333333333,0.12962962962962962],[0.4270833333333333,0.12962962962962962],[0.4270833333333333,0.12962962962962962],[0.4270833333333333,0.12962962962962962],[0.4270833333333333,0.12962962962962962],[0.4270833333333333,0.12962962962962962],[0.4270833333333333,0.12962962962962962],[0.4270833333333333,0.12962962962962962],[0.4270833333333333,0.12962962962962962],[0.4270833333333333,0.12962962962962962],[0.4270833333333333,0.12962962962962962],[0.4270833333333333,0.12962962962962962],[0.4270833333333333,0.12962962962962962],[0.4270833333333333,0.12962962962962962],[0.4270833333333333,0.12962962962962962],[0.4270833333333333,0.12962962962962962],[0.4270833333333333,0.12962962962962962],[0.4270833333333333,0.12962962962962962],[0.4270833333333333,0.12962962962962962],[0.4270833333333333,0.12962962962962962],[0.4270833333333333,0.12962962962962962],[0.4270833333333333,0.12962962962962962],[0.4270833333333333,0.12962962962962962],[0.4270833333333333,0.12962962962962962],[0.4270833333333333,0.12962962962962962],[0.4270833333333333,0.12962962962962962],[0.4270833333333333,0.12962962962962962],[0.4270833333333333,0.12962962962962962],[0.4270833333333333,0.12962962962962962],[0.4270833333333333,0.12962962962962962],[0.4270833333333333,0.12962962962962962],[0.4270833333333333,0.12962962962962962],[0.4270833333333333,0.12962962962962962],[0.4270833333333333,0.12962962962962962],[0.4270833333333333,0.12962962962962962],[0.4270833333333333,0.12962962962962962],[0.4270833333333333,0.12962962962962962],[0.4270833333333333,0.12962962962962962],[0.4270833333333333,0.12962962962962962],[0.4270833333333333,0.12962962962962962],[0.4270833333333333,0.12962962962962962],[0.4270833333333333,0.12962962962962962],[0.4270833333333333,0.12962962962962962],[0.4270833333333333,0.12962962962962962],[0.4270833333333333,0.12962962962962962],[0.4270833333333333,0.12962962962962962],[0.4270833333333333,0.12962962962962962],[0.4270833333333333,0.12962962962962962],[0.4270833333333333,0.12962962962962962],[0.4270833333333333,0.12962962962962962],[0.4270833333333333,0.12962962962962962],[0.4270833333333333,0.12962962962962962],[0.4270833333333333,0.12962962962962962],[0.4270833333333333,0.12962962962962962],[0.4270833333333333,0.12962962962962962],[0.4270833333333333,0.12962962962962962],[0.4270833333333333,0.12962962962962962],[0.4270833333333333,0.12962962962962962],[0.4270833333333333,0.12962962962962962],[0.4270833333333333,0.12962962962962962],[0.4270833333333333,0.12962962962962962],[0.4270833333333333,0.12962962962962962],[0.4270833333333333,0.12962962962962962],[0.4270833333333333,0.12962962962962962],[0.4270833333333333,0.12962962962962962],[0.4270833333333333,0.12962962962962962],[0.4270833333333333,0.12962962962962962],[0.4270833333333333,0.12962962962962962],[0.4270833333333333,0.12962962962962962],[0.4270833333333333,0.12962962962962962],[0.4270833333333333,0.12962962962962962],[0.4270833333333333,0.12962962962962962],[0.4270833333333333,0.12962962962962962],[0.4270833333333333,0.12962962962962962],[0.4270833333333333,0.12962962962962962],[0.4270833333333333,0.12962962962962962],[0.4270833333333333,0.12962962962962962],[0.4270833333333333,0.12962962962962962],[0.4270833333333333,0.12962962962962962],[0.4270833333333333,0.12962962962962962],[0.4270833333333333,0.12962962962962962],[0.4270833333333333,0.12962962962962962],[0.4270833333333333,0.12962962962962962],[0.4270833333333333,0.12962962962962962],[0.4270833333333333,0.12962962962962962],[0.4270833333333333,0.12962962962962962],[0.4270833333333333,0.12962962962962962],[0.4270833333333333,0.12962962962962962],[0.4270833333333333,0.12962962962962962],[0.4270833333333333,0.12962962962962962],[0.4270833333333333,0.12962962962962962],[0.4270833333333333,0.12962962962962962],[0.4270833333333333,0.12962962962962962],[0.4270833333333333,0.12962962962962962],[0.4270833333333333,0.12962962962962962],[0.4270833333333333,0.12962962962962962],[0.4270833333333333,0.12962962962962962],[0.4270833333333333,0.12962962962962962],[0.4270833333333333,0.12962962962962962],[0.4270833333333333,0.12962962962962962],[0.4270833333333333,0.12962962962962962],[0.4270833333333333,0.12962962962962962],[0.4270833333333333,0.12962962962962962],[0.4270833333333333,0.12962962962962962],[0.4270833333333333,0.12962962962962962],[0.4270833333333333,0.12962962962962962],[0.4270833333333333,0.12962962962962962],[0.4270833333333333,0.12962962962962962],[0.4270833333333333,0.12962962962962962],[0.4270833333333333,0.12962962962962962],[0.4270833333333333,0.12962962962962962],[0.4270833333333333,0.12962962962962962],[0.4270833333333333,0.12962962962962962],[0.4270833333333333,0.12962962962962962],[0.4270833333333333,0.12962962962962962],[0.4270833333333333,0.12962962962962962],[0.4270833333333333,0.12962962962962962],[0.4270833333333333,0.12962962962962962],[0.4270833333333333,0.12962962962962962],[0.4270833333333333,0.12962962962962962],[0.4270833333333333,0.12962962962962962],[0.4270833333333333,0.12962962962962962],[0.4270833333333333,0.12962962962962962],[0.4270833333333333,0.12962962962962962],[0.3854166666666667,0.12962962962962962],[0.2520833333333333,0.14629629629629629],[0.11666666666666667,0.18518518518518517],[0.036458333333333336,0.1925925925925926],[0.022916666666666665,0.19444444444444445],[0.022916666666666665,0.19444444444444445],[0.022916666666666665,0.19444444444444445],[0.022916666666666665,0.19444444444444445],[0.022916666666666665,0.19444444444444445],[0.025,0.19444444444444445],[0.027083333333333334,0.19444444444444445],[0.030208333333333334,0.19444444444444445],[0.034375,0.19814814814814816],[0.035416666666666666,0.19814814814814816],[0.035416666666666666,0.19814814814814816],[0.035416666666666666,0.19814814814814816],[0.035416666666666666,0.19814814814814816],[0.036458333333333336,0.19814814814814816],[0.040625,0.19814814814814816],[0.04479166666666667,0.19814814814814816],[0.05,0.19444444444444445],[0.05520833333333333,0.19444444444444445],[0.057291666666666664,0.19074074074074074],[0.057291666666666664,0.18888888888888888],[0.057291666666666664,0.18888888888888888],[0.057291666666666664,0.18888888888888888],[0.057291666666666664,0.18888888888888888],[0.057291666666666664,0.18888888888888888],[0.057291666666666664,0.18888888888888888],[0.057291666666666664,0.18888888888888888],[0.057291666666666664,0.18888888888888888],[0.057291666666666664,0.18888888888888888],[0.057291666666666664,0.18888888888888888],[0.057291666666666664,0.18888888888888888],[0.057291666666666664,0.18888888888888888],[0.057291666666666664,0.18888888888888888],[0.057291666666666664,0.18888888888888888],[0.057291666666666664,0.18888888888888888],[0.057291666666666664,0.18888888888888888],[0.057291666666666664,0.18888888888888888],[0.057291666666666664,0.18888888888888888],[0.057291666666666664,0.18888888888888888],[0.057291666666666664,0.18888888888888888],[0.057291666666666664,0.18888888888888888],[0.057291666666666664,0.18888888888888888],[0.057291666666666664,0.18888888888888888],[0.057291666666666664,0.18888888888888888],[0.057291666666666664,0.18888888888888888],[0.057291666666666664,0.18888888888888888],[0.057291666666666664,0.18888888888888888],[0.057291666666666664,0.18888888888888888],[0.057291666666666664,0.18888888888888888],[0.057291666666666664,0.18888888888888888],[0.057291666666666664,0.18888888888888888],[0.057291666666666664,0.18888888888888888],[0.057291666666666664,0.18888888888888888],[0.057291666666666664,0.18888888888888888],[0.057291666666666664,0.18888888888888888],[0.057291666666666664,0.18888888888888888],[0.057291666666666664,0.18888888888888888],[0.057291666666666664,0.18888888888888888],[0.057291666666666664,0.18888888888888888],[0.057291666666666664,0.18888888888888888],[0.057291666666666664,0.18888888888888888],[0.057291666666666664,0.18888888888888888],[0.057291666666666664,0.18888888888888888],[0.057291666666666664,0.18888888888888888],[0.057291666666666664,0.18888888888888888],[0.057291666666666664,0.18888888888888888],[0.057291666666666664,0.18888888888888888],[0.057291666666666664,0.18888888888888888],[0.057291666666666664,0.18888888888888888],[0.057291666666666664,0.18888888888888888],[0.057291666666666664,0.18888888888888888],[0.057291666666666664,0.18888888888888888],[0.057291666666666664,0.18888888888888888],[0.057291666666666664,0.18888888888888888],[0.057291666666666664,0.18888888888888888],[0.057291666666666664,0.18888888888888888],[0.057291666666666664,0.18888888888888888],[0.057291666666666664,0.18888888888888888],[0.057291666666666664,0.18888888888888888],[0.057291666666666664,0.18888888888888888],[0.057291666666666664,0.18888888888888888],[0.057291666666666664,0.18888888888888888],[0.057291666666666664,0.18888888888888888],[0.057291666666666664,0.18888888888888888],[0.057291666666666664,0.18888888888888888],[0.057291666666666664,0.18888888888888888],[0.057291666666666664,0.18888888888888888],[0.057291666666666664,0.18888888888888888],[0.057291666666666664,0.18888888888888888],[0.057291666666666664,0.18888888888888888],[0.057291666666666664,0.18888888888888888],[0.057291666666666664,0.18888888888888888],[0.057291666666666664,0.18888888888888888],[0.057291666666666664,0.18888888888888888],[0.057291666666666664,0.18888888888888888],[0.057291666666666664,0.18888888888888888],[0.057291666666666664,0.18888888888888888],[0.057291666666666664,0.18888888888888888],[0.057291666666666664,0.18888888888888888],[0.057291666666666664,0.18888888888888888],[0.057291666666666664,0.18888888888888888],[0.057291666666666664,0.18888888888888888],[0.057291666666666664,0.18888888888888888],[0.057291666666666664,0.18888888888888888],[0.057291666666666664,0.18888888888888888],[0.057291666666666664,0.18888888888888888],[0.057291666666666664,0.18888888888888888],[0.057291666666666664,0.18888888888888888],[0.057291666666666664,0.18888888888888888],[0.057291666666666664,0.18888888888888888],[0.057291666666666664,0.18888888888888888],[0.057291666666666664,0.18888888888888888],[0.057291666666666664,0.18888888888888888],[0.057291666666666664,0.18888888888888888],[0.057291666666666664,0.18888888888888888],[0.057291666666666664,0.18888888888888888],[0.057291666666666664,0.18888888888888888],[0.057291666666666664,0.18888888888888888],[0.057291666666666664,0.18888888888888888],[0.057291666666666664,0.18888888888888888],[0.057291666666666664,0.18888888888888888],[0.057291666666666664,0.18888888888888888],[0.057291666666666664,0.18888888888888888],[0.057291666666666664,0.18888888888888888],[0.057291666666666664,0.18888888888888888],[0.057291666666666664,0.18703703703703703],[0.057291666666666664,0.18703703703703703],[0.057291666666666664,0.18703703703703703],[0.057291666666666664,0.18703703703703703],[0.057291666666666664,0.18518518518518517],[0.057291666666666664,0.18518518518518517],[0.057291666666666664,0.18518518518518517],[0.057291666666666664,0.18518518518518517],[0.057291666666666664,0.18518518518518517],[0.057291666666666664,0.18518518518518517],[0.057291666666666664,0.18518518518518517],[0.057291666666666664,0.18518518518518517],[0.057291666666666664,0.18518518518518517],[0.057291666666666664,0.18518518518518517],[0.057291666666666664,0.18518518518518517],[0.057291666666666664,0.18518518518518517],[0.057291666666666664,0.18518518518518517],[0.057291666666666664,0.18518518518518517],[0.057291666666666664,0.18518518518518517],[0.057291666666666664,0.18518518518518517],[0.057291666666666664,0.18518518518518517],[0.057291666666666664,0.18518518518518517],[0.057291666666666664,0.18518518518518517],[0.057291666666666664,0.18518518518518517],[0.057291666666666664,0.18518518518518517],[0.057291666666666664,0.18518518518518517],[0.057291666666666664,0.18518518518518517],[0.057291666666666664,0.18518518518518517],[0.057291666666666664,0.18518518518518517],[0.057291666666666664,0.18518518518518517],[0.057291666666666664,0.18518518518518517],[0.057291666666666664,0.18518518518518517],[0.057291666666666664,0.18518518518518517],[0.057291666666666664,0.18518518518518517],[0.057291666666666664,0.18518518518518517],[0.057291666666666664,0.18518518518518517],[0.057291666666666664,0.18518518518518517],[0.057291666666666664,0.18518518518518517],[0.057291666666666664,0.18518518518518517],[0.057291666666666664,0.18518518518518517],[0.057291666666666664,0.18518518518518517],[0.057291666666666664,0.18518518518518517],[0.057291666666666664,0.18518518518518517],[0.057291666666666664,0.18518518518518517],[0.057291666666666664,0.18518518518518517],[0.057291666666666664,0.18518518518518517],[0.057291666666666664,0.18518518518518517],[0.057291666666666664,0.18518518518518517],[0.057291666666666664,0.18518518518518517],[0.057291666666666664,0.18518518518518517],[0.057291666666666664,0.18518518518518517],[0.057291666666666664,0.18518518518518517],[0.057291666666666664,0.18518518518518517],[0.057291666666666664,0.18518518518518517],[0.057291666666666664,0.18518518518518517],[0.057291666666666664,0.18518518518518517],[0.057291666666666664,0.18518518518518517],[0.057291666666666664,0.18518518518518517],[0.057291666666666664,0.18518518518518517],[0.057291666666666664,0.18518518518518517],[0.057291666666666664,0.18518518518518517],[0.057291666666666664,0.18518518518518517],[0.057291666666666664,0.18518518518518517],[0.057291666666666664,0.18518518518518517],[0.057291666666666664,0.18518518518518517],[0.057291666666666664,0.18518518518518517],[0.057291666666666664,0.18518518518518517],[0.057291666666666664,0.18518518518518517],[0.057291666666666664,0.18518518518518517],[0.057291666666666664,0.18518518518518517],[0.059375,0.18333333333333332],[0.09270833333333334,0.17592592592592593],[0.1625,0.15925925925925927],[0.24479166666666666,0.1388888888888889],[0.271875,0.12962962962962962],[0.275,0.12962962962962962],[0.275,0.12962962962962962],[0.275,0.12962962962962962],[0.27395833333333336,0.12962962962962962],[0.26979166666666665,0.12962962962962962],[0.26458333333333334,0.13148148148148148],[0.2625,0.13148148148148148],[0.259375,0.13148148148148148],[0.25104166666666666,0.13148148148148148],[0.23854166666666668,0.13703703703703704],[0.21979166666666666,0.1388888888888889],[0.20729166666666668,0.14074074074074075],[0.2,0.14074074074074075],[0.196875,0.14074074074074075],[0.18958333333333333,0.14074074074074075],[0.17395833333333333,0.1425925925925926],[0.165625,0.14629629629629629],[0.16145833333333334,0.14814814814814814],[0.16145833333333334,0.14814814814814814],[0.16145833333333334,0.14814814814814814],[0.16041666666666668,0.15],[0.16041666666666668,0.15185185185185185],[0.16041666666666668,0.1574074074074074],[0.16145833333333334,0.16666666666666666],[0.16145833333333334,0.17407407407407408],[0.16145833333333334,0.17777777777777778],[0.16145833333333334,0.17777777777777778],[0.16145833333333334,0.17777777777777778],[0.16145833333333334,0.17777777777777778],[0.16145833333333334,0.17962962962962964],[0.16145833333333334,0.17962962962962964],[0.16145833333333334,0.17962962962962964],[0.16145833333333334,0.17962962962962964],[0.16145833333333334,0.17962962962962964],[0.16145833333333334,0.17962962962962964],[0.16145833333333334,0.17962962962962964],[0.16145833333333334,0.17962962962962964],[0.16145833333333334,0.17962962962962964],[0.16145833333333334,0.17962962962962964],[0.16145833333333334,0.17962962962962964],[0.16145833333333334,0.17962962962962964],[0.16145833333333334,0.17962962962962964],[0.16145833333333334,0.17962962962962964],[0.16145833333333334,0.17962962962962964],[0.16145833333333334,0.17962962962962964],[0.16145833333333334,0.17962962962962964],[0.16145833333333334,0.17962962962962964],[0.16145833333333334,0.17962962962962964],[0.16145833333333334,0.17962962962962964],[0.16145833333333334,0.17962962962962964],[0.16145833333333334,0.17962962962962964],[0.16145833333333334,0.17962962962962964],[0.16145833333333334,0.17962962962962964],[0.16145833333333334,0.17962962962962964],[0.16145833333333334,0.17962962962962964],[0.16145833333333334,0.17962962962962964],[0.16145833333333334,0.17962962962962964],[0.16145833333333334,0.17962962962962964],[0.16145833333333334,0.17962962962962964],[0.16145833333333334,0.17962962962962964],[0.16145833333333334,0.17962962962962964],[0.16145833333333334,0.17962962962962964],[0.16145833333333334,0.17962962962962964],[0.16145833333333334,0.17962962962962964],[0.16145833333333334,0.17962962962962964],[0.16145833333333334,0.17962962962962964],[0.16145833333333334,0.17962962962962964],[0.16145833333333334,0.17962962962962964],[0.16145833333333334,0.17962962962962964],[0.16145833333333334,0.17962962962962964],[0.16145833333333334,0.17962962962962964],[0.16145833333333334,0.17962962962962964],[0.16145833333333334,0.17962962962962964],[0.16145833333333334,0.17962962962962964],[0.16145833333333334,0.17962962962962964],[0.16145833333333334,0.17962962962962964],[0.16145833333333334,0.17962962962962964],[0.16145833333333334,0.17962962962962964],[0.16145833333333334,0.17962962962962964],[0.16145833333333334,0.17962962962962964],[0.16145833333333334,0.17962962962962964],[0.16145833333333334,0.17962962962962964],[0.16145833333333334,0.17962962962962964],[0.16145833333333334,0.17962962962962964],[0.16145833333333334,0.17962962962962964],[0.16145833333333334,0.17962962962962964],[0.16145833333333334,0.17962962962962964],[0.16145833333333334,0.17962962962962964],[0.16145833333333334,0.17962962962962964],[0.16145833333333334,0.17962962962962964],[0.16145833333333334,0.17962962962962964],[0.16145833333333334,0.17777777777777778],[0.16145833333333334,0.17777777777777778],[0.16145833333333334,0.17777777777777778],[0.16145833333333334,0.17777777777777778],[0.16145833333333334,0.17777777777777778],[0.16145833333333334,0.17777777777777778],[0.16145833333333334,0.17777777777777778],[0.16145833333333334,0.17777777777777778],[0.16145833333333334,0.17777777777777778],[0.1625,0.17777777777777778]]","[[0.4726041666666667,-0.3285185185185185],[0.4726041666666667,-0.3285185185185185],[0.4779166666666666,-0.3148148148148148],[0.4779166666666666,-0.3148148148148148],[0.45989583333333334,-0.28129629629629627],[0.45989583333333334,-0.28129629629629627],[0.4782291666666666,-0.23722222222222225],[0.4782291666666666,-0.23722222222222225],[0.47114583333333326,-0.23499999999999996],[0.47114583333333326,-0.23499999999999996],[0.44020833333333326,-0.25407407407407406],[0.4053124999999999,-0.2796296296296296],[0.3941666666666668,-0.29018518518518516],[0.3941666666666668,-0.29018518518518516],[0.4144791666666668,-0.31296296296296294],[0.4144791666666668,-0.31296296296296294],[0.43562500000000004,-0.34148148148148144],[0.43562500000000004,-0.34148148148148144],[0.45281250000000006,-0.34388888888888886],[0.45281250000000006,-0.34388888888888886],[0.4864583333333333,-0.34018518518518515],[0.5141666666666665,-0.2796296296296296],[0.5208333333333334,-0.22870370370370371],[0.5208333333333334,-0.22870370370370371],[0.5448958333333332,-0.22407407407407406],[0.5640625,-0.22666666666666663],[0.5839583333333332,-0.1742592592592593],[0.5877083333333334,-0.20185185185185187],[0.6172916666666666,-0.14740740740740746],[0.6168750000000001,-0.13703703703703704],[0.5820833333333333,-0.10203703703703708],[0.5778125000000001,-0.07296296296296292],[0.5873958333333335,-0.0787037037037037],[0.5539583333333333,-0.10037037037037035],[0.5708333333333333,-0.03185185185185194],[0.5958333333333333,0.044444444444444446],[0.5983333333333334,0.06814814814814807],[0.5983333333333334,0.06814814814814807],[0.5860416666666666,0.11074074074074065],[0.5396874999999999,0.12814814814814823],[0.5318749999999999,0.15925925925925927],[0.5638541666666667,0.1338888888888888],[0.5759375000000001,0.08222222222222218],[0.5759375000000001,0.08222222222222218],[0.48802083333333335,0.05537037037037033],[0.4258333333333333,0.0698148148148149],[0.3021874999999999,0.062037037037037036],[0.16937499999999991,0.06333333333333342],[0.13895833333333343,0.09425925925925922],[0.10385416666666672,0.14907407407407408],[0.07395833333333333,0.25092592592592594],[0.07395833333333333,0.25092592592592594],[0.10541666666666671,0.22777777777777777],[0.07374999999999995,0.227962962962963],[0.04041666666666662,0.23962962962962958],[0.06041666666666667,0.2627777777777777],[0.06041666666666667,0.2627777777777777],[0.1087500000000001,0.25555555555555554],[0.18958333333333333,0.18333333333333332],[0.28791666666666677,0.1398148148148148],[0.3095833333333334,0.07074074074074083],[0.3559375000000001,0.03166666666666671],[0.42520833333333335,-0.08407407407407404],[0.4018749999999999,-0.06314814814814819],[0.42979166666666657,-0.02555555555555547],[0.44583333333333336,-0.03925925925925934],[0.49854166666666655,-0.016666666666666666],[0.5220833333333333,-0.07481481481481478],[0.5220833333333333,-0.07481481481481478],[0.5256249999999999,-0.03888888888888889],[0.5717708333333335,-0.11074074074074076],[0.6126041666666666,-0.16277777777777774],[0.6340625000000001,-0.17166666666666663],[0.65,-0.16055555555555553],[0.65,-0.16055555555555553],[0.6653125000000001,-0.17166666666666663],[0.6466666666666666,-0.21148148148148146],[0.6298958333333334,-0.20555555555555555],[0.5912499999999999,-0.3374074074074074],[0.6046875,-0.37240740740740746],[0.5753125,-0.42018518518518516],[0.5260416666666666,-0.3785185185185185],[0.4591666666666666,-0.37296296296296294],[0.38958333333333334,-0.43333333333333335],[0.35,-0.4675925925925926],[0.37302083333333325,-0.4981481481481482],[0.38302083333333337,-0.5216666666666666],[0.3714583333333332,-0.5401851851851852],[0.40510416666666677,-0.47314814814814815],[0.41593749999999996,-0.42888888888888893],[0.47625000000000006,-0.38074074074074077],[0.5008333333333332,-0.34740740740740744],[0.5483333333333335,-0.2977777777777778],[0.5644791666666668,-0.27148148148148155],[0.565625,-0.27240740740740743],[0.5364583333333334,-0.23703703703703705],[0.5180208333333333,-0.21296296296296297],[0.5119791666666667,-0.15870370370370368],[0.5161458333333333,-0.1542592592592593],[0.48333333333333334,-0.16518518518518516],[0.48333333333333334,-0.16518518518518516],[0.44656250000000003,-0.19296296296296295],[0.4241666666666667,-0.1757407407407407],[0.40177083333333335,-0.15851851851851856],[0.41510416666666666,-0.13222222222222219],[0.4189583333333334,-0.12481481481481477],[0.4205208333333334,-0.12148148148148152],[0.43468749999999995,-0.11333333333333331],[0.4370833333333332,-0.14000000000000004],[0.43687500000000007,-0.11796296296296294],[0.44718749999999996,-0.06981481481481479],[0.46031250000000007,-0.03333333333333333],[0.4786458333333333,-0.03259259259259263],[0.48156249999999995,-0.06259259259259262],[0.4731250000000001,-0.06444444444444447],[0.4978125000000001,-0.07018518518518514],[0.5065624999999999,-0.05740740740740741],[0.4959374999999999,-0.02907407407407416],[0.50625,-0.0011111111111111532],[0.5142708333333333,0.004444444444444402],[0.5222916666666667,0.009999999999999959],[0.5243750000000001,0.012777777777777735],[0.5243750000000001,0.012777777777777735],[0.5191666666666668,-0.03462962962962971],[0.5230208333333333,-0.030740740740740784],[0.5338541666666666,-0.040740740740740744],[0.5338541666666666,-0.040740740740740744],[0.4952083333333334,-0.029814814814814856],[0.45729166666666665,0.012037037037037037],[0.45729166666666665,0.012037037037037037],[0.43875000000000003,0.03833333333333342],[0.43875000000000003,0.03833333333333342],[0.42604166666666665,0.03611111111111111],[0.42604166666666665,0.03611111111111111],[0.3877083333333334,0.023148148148148147],[0.3877083333333334,0.023148148148148147],[0.3559375000000001,-0.02833333333333325],[0.31260416666666657,0.04944444444444453],[0.31260416666666657,0.04944444444444453],[0.28406250000000005,0.07277777777777769],[0.28406250000000005,0.07277777777777769],[0.23541666666666666,0.19148148148148145],[0.1890625,0.2403703703703703],[0.18635416666666677,0.21148148148148158],[0.15427083333333325,0.2022222222222223],[0.15416666666666667,0.14240740740740737],[0.15416666666666667,0.14240740740740737],[0.12302083333333323,0.17777777777777778],[0.11177083333333329,0.21092592592592588],[0.09395833333333338,0.2825925925925926],[0.09395833333333338,0.2825925925925926],[0.1256249999999999,0.20314814814814824],[0.12229166666666676,0.20777777777777787],[0.12229166666666676,0.20777777777777787],[0.15812499999999996,0.08092592592592601],[0.15812499999999996,0.08092592592592601],[0.1953125,0.04796296296296292],[0.1955208333333334,0.03629629629629634],[0.26708333333333345,-0.06259259259259262],[0.27354166666666657,-0.07388888888888885],[0.30520833333333336,-0.15185185185185185],[0.3333333333333333,-0.1646296296296296],[0.35052083333333334,-0.205],[0.35052083333333334,-0.205],[0.35614583333333344,-0.15555555555555556],[0.36739583333333337,-0.11425925925925924],[0.36739583333333337,-0.11425925925925924],[0.4009375000000001,-0.06592592592592597],[0.40614583333333343,-0.05277777777777778],[0.4270833333333333,0.011666666666666582],[0.4270833333333333,0.011666666666666582],[0.3977083333333333,0.075],[0.4546875,0.09074074074074075],[0.4546875,0.09074074074074075],[0.4887500000000001,0.13129629629629624],[0.551875,0.11203703703703703],[0.5961458333333333,0.1051851851851851],[0.6596875,0.04018518518518527],[0.7032291666666666,0.02388888888888885],[0.6993750000000001,-0.0003703703703704546],[0.7326041666666666,0.002962962962963005],[0.7605208333333332,-0.01444444444444436],[0.7974999999999999,0.009814814814814731],[0.7797916666666665,0.02759259259259255],[0.7777083333333332,0.016666666666666666],[0.7599999999999999,-0.03166666666666671],[0.7570833333333333,-0.041666666666666664],[0.6984375,-0.02444444444444453],[0.6897916666666667,-0.040370370370370286],[0.6729166666666667,-0.016111111111111194],[0.6509375000000001,-0.03611111111111111],[0.6460416666666667,-0.03537037037037041],[0.6474999999999999,-0.08555555555555554],[0.6025000000000001,-0.102962962962963],[0.5736458333333334,-0.11981481481481479],[0.4883333333333333,-0.10925925925925926],[0.43729166666666663,-0.11944444444444445],[0.40343749999999995,-0.13537037037037042],[0.3568749999999999,-0.11500000000000005],[0.33093750000000005,-0.11833333333333329],[0.2945833333333333,-0.08518518518518518],[0.25583333333333325,-0.08129629629629626],[0.24864583333333337,-0.04388888888888897],[0.27072916666666674,-0.0418518518518519],[0.28395833333333326,-0.036481481481481566],[0.29885416666666675,0.0242592592592593],[0.32760416666666664,0.049074074074074076],[0.37437500000000007,0.09685185185185177],[0.41083333333333344,0.10759259259259263],[0.44947916666666665,0.09592592592592585],[0.4912499999999999,0.07555555555555547],[0.4953125,0.047037037037036995],[0.46937499999999993,0.02166666666666675],[0.4557291666666667,0.028518518518518478],[0.4632291666666667,0.05277777777777778],[0.4929166666666667,0.06648148148148143],[0.5005208333333333,0.08425925925925926],[0.505,0.07481481481481478],[0.4943749999999999,0.06592592592592597],[0.4930208333333333,0.08944444444444435],[0.45729166666666665,0.1111111111111111],[0.4573958333333332,0.1668518518518519],[0.47458333333333325,0.2168518518518519],[0.47458333333333325,0.2168518518518519],[0.4947916666666667,0.2418518518518519],[0.4947916666666667,0.2418518518518519],[0.4644791666666668,0.24648148148148152],[0.4115624999999999,0.2733333333333334],[0.3523958333333333,0.29296296296296304],[0.271875,0.34],[0.22020833333333342,0.36500000000000005],[0.22020833333333342,0.36500000000000005],[0.15010416666666657,0.39814814814814814],[0.11541666666666663,0.402962962962963],[0.05270833333333336,0.4027777777777778],[-0.014999999999999977,0.42166666666666675],[-0.08875000000000005,0.4449999999999999],[-0.14427083333333332,0.46574074074074073],[-0.1610416666666667,0.422037037037037],[-0.1851041666666667,0.4140740740740741],[-0.20270833333333335,0.3829629629629629],[-0.19968750000000005,0.3877777777777777],[-0.18968750000000004,0.3757407407407407],[-0.19041666666666662,0.39648148148148155],[-0.15916666666666662,0.43796296296296294],[-0.16000000000000003,0.4661111111111112],[-0.15437500000000004,0.467962962962963],[-0.10687500000000003,0.47537037037037044],[-0.07760416666666667,0.5044444444444444],[-0.04760416666666671,0.5122222222222222],[-0.04760416666666671,0.5122222222222222],[-0.027187500000000024,0.5114814814814815],[-0.027187500000000024,0.5114814814814815],[-0.04114583333333333,0.4962962962962963],[-0.04114583333333333,0.4962962962962963],[-0.06937500000000002,0.4744444444444445],[-0.06937500000000002,0.4744444444444445],[-0.07927083333333336,0.45740740740740743],[-0.07927083333333336,0.45740740740740743],[-0.09822916666666662,0.44518518518518513],[-0.09822916666666662,0.44518518518518513],[-0.08145833333333338,0.42407407407407405],[-0.06177083333333329,0.4372222222222223],[-0.06104166666666669,0.4294444444444444],[-0.06281249999999995,0.39944444444444455],[-0.06281249999999995,0.39166666666666666],[-0.059375,0.3794444444444444],[-0.05593750000000005,0.3672222222222221],[-0.05593750000000005,0.3672222222222221],[-0.04125000000000002,0.3653703703703703],[-0.016354166666666715,0.39759259259259266],[-0.013020833333333334,0.38629629629629636],[-0.015625,0.3853703703703704],[-0.018229166666666668,0.3844444444444445],[-0.02354166666666669,0.418888888888889],[-0.008124999999999953,0.45388888888888895],[0.007291666666666667,0.4888888888888889],[0.0359375,0.5192592592592592],[0.06458333333333334,0.5496296296296296],[0.08031249999999991,0.6062962962962962],[0.07718749999999991,0.6214814814814815],[0.10697916666666671,0.6214814814814815],[0.11791666666666671,0.6251851851851852],[0.11791666666666671,0.6251851851851852],[0.13333333333333333,0.6214814814814815],[0.12083333333333333,0.5979629629629629],[0.12083333333333333,0.5979629629629629],[0.10833333333333334,0.5744444444444445],[0.08645833333333333,0.5403703703703703],[0.051250000000000046,0.49314814814814806],[0.04468749999999998,0.4905555555555555],[0.03687499999999998,0.41351851851851845],[0.025729166666666713,0.3685185185185185],[-0.010000000000000024,0.35111111111111115],[-0.010000000000000024,0.35111111111111115],[0.01906249999999995,0.318888888888889],[0.0109375,0.31814814814814807],[0.02166666666666662,0.3227777777777777],[0.026250000000000048,0.319074074074074],[0.04020833333333336,0.32592592592592595],[0.06041666666666667,0.3635185185185184],[0.05625,0.347037037037037],[0.05916666666666662,0.37518518518518523],[0.07718749999999991,0.3707407407407408],[0.10343749999999995,0.372037037037037],[0.07552083333333333,0.39814814814814814],[0.08031249999999991,0.40018518518518525],[0.06489583333333329,0.3851851851851852],[0.05562499999999997,0.3785185185185185],[0.06229166666666662,0.3848148148148147],[0.06187499999999998,0.3762962962962964],[0.07479166666666662,0.39018518518518525],[0.0978125000000001,0.40259259259259256],[0.1068749999999999,0.4161111111111112],[0.1224999999999999,0.4681481481481481],[0.1365624999999999,0.5050000000000001],[0.13916666666666658,0.5353703703703704],[0.1476041666666667,0.5638888888888889],[0.17291666666666666,0.5459259259259258],[0.17291666666666666,0.5459259259259258],[0.1912499999999999,0.4859259259259259],[0.2306250000000001,0.47925925925925916],[0.20572916666666666,0.43444444444444447],[0.19072916666666656,0.3859259259259259],[0.16802083333333329,0.3405555555555555],[0.13729166666666662,0.23833333333333342],[0.11510416666666666,0.15925925925925927],[0.13385416666666666,0.0911111111111112],[0.1400000000000001,0.018518518518518517],[0.11822916666666666,-0.003888888888888931],[0.08145833333333338,0.00851851851851856],[0.057291666666666664,-0.014259259259259343],[0.07979166666666657,-0.01185185185185181],[0.07260416666666672,-0.008888888888888804],[0.05531250000000002,-0.011666666666666582],[0.06854166666666663,-0.01962962962962967],[0.06593749999999995,-0.03222222222222218],[0.04583333333333333,-0.03611111111111111],[0.04583333333333333,-0.03611111111111111],[0.05916666666666662,-0.03370370370370379],[0.06770833333333333,-0.003888888888888931],[0.08229166666666667,0.020185185185185143],[0.1009375000000001,0.026851851851851852],[0.1009375000000001,0.026851851851851852],[0.11958333333333329,0.03351851851851856],[0.11958333333333329,0.03351851851851856],[0.11958333333333329,0.03759259259259251],[0.17822916666666658,0.0668518518518519],[0.20437500000000006,0.11592592592592597],[0.20979166666666677,0.16537037037037028],[0.20979166666666677,0.16537037037037028],[0.20322916666666657,0.20166666666666663],[0.21354166666666666,0.2683333333333333],[0.19583333333333333,0.2785185185185185],[0.19343750000000004,0.3007407407407407],[0.1712500000000001,0.2890740740740741],[0.1490624999999999,0.2774074074074073],[0.19520833333333343,0.28462962962962973],[0.16697916666666662,0.25925925925925924],[0.14812500000000003,0.2748148148148148],[0.16572916666666657,0.2735185185185186],[0.18333333333333332,0.2722222222222222],[0.1877083333333334,0.22259259259259268],[0.1877083333333334,0.22259259259259268],[0.2359375,0.1983333333333334],[0.2573958333333332,0.1588888888888888],[0.26624999999999993,0.17703703703703708],[0.2751041666666666,0.19518518518518516],[0.23583333333333342,0.1725925925925927],[0.23583333333333342,0.1725925925925927],[0.23229166666666667,0.1594444444444445],[0.23229166666666667,0.1594444444444445],[0.2257291666666667,0.1287037037037037],[0.2257291666666667,0.1287037037037037],[0.20833333333333334,0.08351851851851856],[0.20833333333333334,0.08351851851851856],[0.18718750000000003,0.017592592592592594],[0.18718750000000003,0.017592592592592594],[0.1404166666666666,-0.026481481481481398],[0.1404166666666666,-0.026481481481481398],[0.11541666666666663,-0.04666666666666675],[0.09489583333333323,-0.07462962962962966],[0.07614583333333323,-0.11222222222222226],[0.07614583333333323,-0.11222222222222226],[0.07125000000000009,-0.12814814814814812],[0.06020833333333329,-0.14055555555555552],[0.052187500000000026,-0.13925925925925925],[0.03802083333333333,-0.16074074074074077],[0.016666666666666666,-0.21481481481481482],[-0.0009374999999999763,-0.24814814814814815],[-0.015312500000000047,-0.29148148148148145],[-0.015312500000000047,-0.29148148148148145],[-0.04812500000000005,-0.35259259259259257],[-0.07052083333333338,-0.425],[-0.07166666666666661,-0.43703703703703706],[-0.11468750000000003,-0.47537037037037033],[-0.12104166666666671,-0.45092592592592595],[-0.1530208333333333,-0.4455555555555556],[-0.18489583333333334,-0.4324074074074074],[-0.2101041666666667,-0.36444444444444446],[-0.23604166666666668,-0.29444444444444445],[-0.22718750000000001,-0.17851851851851847],[-0.22166666666666662,-0.06870370370370374],[-0.22166666666666662,-0.06870370370370374],[-0.2267708333333334,0.030740740740740784],[-0.2267708333333334,0.030740740740740784],[-0.26802083333333326,0.06592592592592597],[-0.2612499999999999,0.09425925925925922],[-0.26677083333333335,0.0838888888888888],[-0.24322916666666666,0.08222222222222218],[-0.21666666666666667,0.07314814814814814],[-0.18718750000000003,0.054259259259259174],[-0.1694791666666667,0.04518518518518514],[-0.17552083333333332,0.0035185185185184764],[-0.16572916666666668,-0.021481481481481525],[-0.14874999999999997,-0.013888888888888888],[-0.14874999999999997,-0.013888888888888888],[-0.13229166666666667,-0.012592592592592508],[-0.12260416666666671,-0.0020370370370370794],[-0.11291666666666664,0.00851851851851856],[-0.10968749999999995,0.01574074074074074],[-0.11468750000000003,0.030000000000000086],[-0.11968749999999997,0.04425925925925922],[-0.11229166666666662,0.018333333333333292],[-0.10364583333333334,0.0022222222222223064],[-0.12041666666666669,-0.011111111111111112],[-0.1382291666666667,-0.03129629629629625],[-0.11458333333333333,-0.006296296296296254],[-0.10416666666666667,0.02092592592592584],[-0.10197916666666665,0.015000000000000043],[-0.09979166666666663,0.009074074074074031],[-0.06583333333333338,0.027407407407407325],[-0.03187500000000002,0.045740740740740825],[-0.00604166666666662,0.10574074074074079],[0.02781250000000005,0.1587037037037038],[0.07125000000000009,0.19222222222222213],[0.1056250000000001,0.21666666666666667],[0.11395833333333343,0.20611111111111102],[0.11395833333333343,0.18777777777777774],[0.12218749999999995,0.20259259259259255],[0.1326041666666666,0.2596296296296297],[0.1326041666666666,0.2596296296296297],[0.11614583333333334,0.2844444444444445],[0.11177083333333329,0.2946296296296297],[0.10479166666666657,0.28462962962962973],[0.08822916666666672,0.24962962962962953],[0.06072916666666662,0.20574074074074078],[0.0626041666666667,0.2222222222222222],[0.00947916666666669,0.21296296296296297],[0.002395833333333286,0.23555555555555563],[0.005104166666666643,0.2081481481481481],[0.005104166666666643,0.2081481481481481],[-0.001979166666666643,0.14166666666666666],[-0.027291666666666714,0.11481481481481481],[-0.04822916666666662,0.10999999999999996],[-0.04874999999999995,0.08425925925925926],[-0.04770833333333328,0.09055555555555551],[-0.043333333333333356,0.07814814814814823],[-0.06885416666666669,0.042407407407407366],[-0.03937499999999995,0.032407407407407406],[-0.04572916666666664,-0.03518518518518519],[-0.06166666666666672,-0.020740740740740823],[-0.04510416666666662,-0.002777777777777778],[-0.04510416666666662,-0.002777777777777778],[-0.010312499999999976,-0.02444444444444453],[-0.001979166666666643,-0.052037037037037076],[0.016458333333333287,-0.041111111111111195],[0.016458333333333287,-0.041111111111111195],[0.034895833333333334,-0.0301851851851851],[-0.002395833333333286,0.010925925925925884],[0.026145833333333358,0.052407407407407326],[0.011249999999999953,0.10500000000000008],[-0.005520833333333286,0.1911111111111112],[-0.019895833333333356,0.18907407407407412],[-0.04791666666666667,0.2124074074074075],[-0.07010416666666662,0.25314814814814823],[-0.07260416666666672,0.25759259259259265],[-0.11645833333333329,0.29666666666666675],[-0.15072916666666672,0.3168518518518519],[-0.1508333333333333,0.302962962962963],[-0.2061458333333333,0.2675925925925926],[-0.23093750000000005,0.21370370370370367],[-0.2561458333333333,0.18611111111111112],[-0.2898958333333333,0.2222222222222222],[-0.32145833333333335,0.21500000000000005],[-0.3601041666666667,0.2014814814814814],[-0.41677083333333337,0.20703703703703696],[-0.4517708333333334,0.16722222222222213],[-0.4921875,0.13518518518518519],[-0.4921875,0.13518518518518519],[-0.5125,0.12185185185185177],[-0.5125,0.12185185185185177],[-0.5191666666666667,0.14944444444444452],[-0.5191666666666667,0.14944444444444452],[-0.5238541666666666,0.15999999999999995],[-0.5238541666666666,0.15999999999999995],[-0.5294791666666667,0.127962962962963],[-0.5294791666666667,0.127962962962963],[-0.5336458333333333,0.09722222222222222],[-0.5559375000000001,0.10907407407407403],[-0.5559375000000001,0.10907407407407403],[-0.5613541666666666,0.11092592592592589],[-0.5584375,0.12851851851851848],[-0.5413541666666667,0.12296296296296293],[-0.5284375,0.12851851851851848],[-0.4791666666666667,0.1557407407407408],[-0.4791666666666667,0.1557407407407408],[-0.4454166666666667,0.10425925925925918],[-0.40958333333333335,0.09611111111111106],[-0.37302083333333336,0.09611111111111106],[-0.33166666666666667,0.10555555555555556],[-0.2856250000000001,0.0837037037037038],[-0.2515625,0.06425925925925935],[-0.21749999999999994,0.0448148148148149],[-0.2007291666666667,0.02629629629629638],[-0.18395833333333336,0.007777777777777862],[-0.18395833333333336,0.007777777777777862],[-0.17156250000000003,-0.011296296296296339],[-0.1546875,0.027777777777777776],[-0.1546875,0.027777777777777776],[-0.13895833333333332,0.014814814814814815],[-0.11656249999999997,-0.003888888888888931],[-0.09447916666666671,-0.04092592592592597],[-0.09447916666666671,-0.04092592592592597],[-0.05333333333333338,-0.05814814814814811],[-0.007500000000000047,-0.03777777777777774],[-0.007500000000000047,-0.03777777777777774],[0.025520833333333333,-0.05499999999999998],[0.07645833333333343,-0.05740740740740741],[0.10729166666666666,-0.06518518518518517],[0.12854166666666675,-0.06388888888888888],[0.14572916666666677,-0.09648148148148153],[0.16354166666666667,-0.08499999999999996],[0.17531249999999995,-0.05962962962962961],[0.1756249999999999,-0.01444444444444436],[0.15510416666666677,-0.019999999999999917],[0.11677083333333324,-0.08074074074074078],[0.09114583333333333,-0.10537037037037032],[0.06531250000000005,-0.08425925925925926],[0.059583333333333384,-0.057777777777777754],[0.04052083333333331,-0.04870370370370362],[0.024583333333333356,-0.030000000000000086],[0.024583333333333356,-0.030000000000000086],[0.018020833333333285,-0.022222222222222223],[0.015208333333333357,-0.052037037037037076],[0.044270833333333336,-0.10722222222222218],[0.07989583333333337,-0.13185185185185183],[0.13833333333333328,-0.11777777777777781],[0.2103125000000001,-0.1272222222222222],[0.24895833333333334,-0.15],[0.2869791666666667,-0.17462962962962966],[0.2868750000000001,-0.18851851851851853],[0.3007291666666667,-0.18740740740740738],[0.3134375000000001,-0.18944444444444447],[0.3493750000000001,-0.17240740740740745],[0.3421875,-0.14000000000000004],[0.35958333333333337,-0.08499999999999996],[0.3636458333333332,-0.05462962962962963],[0.31666666666666665,-0.00851851851851856],[0.27197916666666655,0.01796296296296305],[0.23364583333333327,0.03370370370370379],[0.23364583333333327,0.03370370370370379],[0.2334374999999999,0.038703703703703664],[0.21385416666666662,0.021851851851851768],[0.19541666666666657,0.008148148148148106],[0.1631249999999999,0.0001851851851852273],[0.15354166666666677,-0.017592592592592594],[0.121875,-0.030555555555555555],[0.121875,-0.030555555555555555],[0.09020833333333324,-0.04351851851851852],[0.09020833333333324,-0.04351851851851852],[0.096875,-0.05851851851851856],[0.11489583333333328,-0.07000000000000002],[0.1421875,-0.08629629629629634],[0.1694791666666667,-0.10259259259259255],[0.19208333333333344,-0.08666666666666668],[0.19208333333333344,-0.08666666666666668],[0.21458333333333332,-0.0705555555555556],[0.22854166666666675,-0.1022222222222222],[0.2397916666666667,-0.13203703703703706],[0.22625000000000003,-0.16648148148148145],[0.2127083333333334,-0.20092592592592592],[0.2171875,-0.202962962962963],[0.2267708333333334,-0.21388888888888888],[0.2267708333333334,-0.21388888888888888],[0.21604166666666677,-0.22259259259259256],[0.21604166666666677,-0.22259259259259256],[0.20572916666666666,-0.2309259259259259],[0.19010416666666666,-0.2403703703703704],[0.16958333333333328,-0.24518518518518514],[0.15854166666666672,-0.20833333333333334],[0.16979166666666667,-0.1690740740740741],[0.19854166666666656,-0.1522222222222222],[0.2125,-0.15203703703703708],[0.20770833333333344,-0.17296296296296293],[0.2131249999999999,-0.17240740740740745],[0.22385416666666677,-0.1566666666666667],[0.2171875,-0.16648148148148145],[0.21885416666666657,-0.19870370370370372],[0.22229166666666675,-0.22240740740740744],[0.21166666666666673,-0.22722222222222221],[0.19416666666666677,-0.23962962962962958],[0.16416666666666657,-0.2331481481481481],[0.14895833333333333,-0.20999999999999996],[0.1375,-0.16870370370370374],[0.11177083333333329,-0.15203703703703708],[0.07687499999999996,-0.15796296296296297],[0.058958333333333356,-0.13870370370370366],[0.05447916666666662,-0.1359259259259259],[0.05447916666666662,-0.1359259259259259],[0.05677083333333333,-0.14500000000000002],[0.03802083333333333,-0.13037037037037033],[0.03802083333333333,-0.13037037037037033],[0.035625000000000046,-0.12148148148148152],[0.035625000000000046,-0.12148148148148152],[0.03260416666666662,-0.12185185185185188],[0.027395833333333286,-0.1412962962962963],[0.027395833333333286,-0.1412962962962963],[0.024062500000000025,-0.16407407407407412],[0.024062500000000025,-0.16407407407407412],[0.042499999999999954,-0.17407407407407408]]","[[0.4726041666666667,-0.3285185185185185,0.0003000001907338401],[0.4726041666666667,-0.3285185185185185,0.059900000095368],[0.4779166666666666,-0.3148148148148148,0.06590000009536823],[0.4779166666666666,-0.3148148148148148,0.07609999990462768],[0.45989583333333334,-0.28129629629629627,0.09259999990463541],[0.45989583333333334,-0.28129629629629627,0.1093000001907285],[0.4782291666666666,-0.23722222222222225,0.13020000028609502],[0.4782291666666666,-0.23722222222222225,0.14259999990463257],[0.47114583333333326,-0.23499999999999996,0.15940000009535993],[0.47114583333333326,-0.23499999999999996,0.176099999904622],[0.44020833333333326,-0.25407407407407406,0.19270000028609502],[0.4053124999999999,-0.2796296296296296,0.21399999999999864],[0.3941666666666668,-0.29018518518518516,0.23130000019072838],[0.3941666666666668,-0.29018518518518516,0.24270000028609218],[0.4144791666666668,-0.31296296296296294,0.2593000001907342],[0.4144791666666668,-0.31296296296296294,0.275900000095362],[0.43562500000000004,-0.34148148148148144,0.29259999990462404],[0.43562500000000004,-0.34148148148148144,0.31270000028609957],[0.45281250000000006,-0.34388888888888886,0.3259999999999934],[0.45281250000000006,-0.34388888888888886,0.3427000002861007],[0.4864583333333333,-0.34018518518518515,0.36249999999999716],[0.5141666666666665,-0.2796296296296296,0.37859999990462256],[0.5208333333333334,-0.22870370370370371,0.39349999999998886],[0.5208333333333334,-0.22870370370370371,0.40930000019072565],[0.5448958333333332,-0.22407407407407406,0.42600000000000193],[0.5640625,-0.22666666666666663,0.442700000286095],[0.5839583333333332,-0.1742592592592593,0.4632000002860934],[0.5877083333333334,-0.20185185185185187,0.47920000028609877],[0.6172916666666666,-0.14740740740740746,0.4949000000953703],[0.6168750000000001,-0.13703703703703704,0.5094000000953685],[0.5820833333333333,-0.10203703703703708,0.5259999999999962],[0.5778125000000001,-0.07296296296296292,0.5432000002860917],[0.5873958333333335,-0.0787037037037037,0.5600999999046223],[0.5539583333333333,-0.10037037037037035,0.5785999999046254],[0.5708333333333333,-0.03185185185185194,0.5958000001907351],[0.5958333333333333,0.044444444444444446,0.6099999999999994],[0.5983333333333334,0.06814814814814807,0.6329999999999956],[0.5983333333333334,0.06814814814814807,0.6430000000000007],[0.5860416666666666,0.11074074074074065,0.6594999999999942],[0.5396874999999999,0.12814814814814823,0.676099999904622],[0.5318749999999999,0.15925925925925927,0.6964000000953661],[0.5638541666666667,0.1338888888888888,0.713400000095362],[0.5759375000000001,0.08222222222222218,0.7288000001907307],[0.5759375000000001,0.08222222222222218,0.7477000002861018],[0.48802083333333335,0.05537037037037033,0.7597000002861023],[0.4258333333333333,0.0698148148148149,0.7782000002860912],[0.3021874999999999,0.062037037037037036,0.7953000001907355],[0.16937499999999991,0.06333333333333342,0.8137000002861043],[0.13895833333333343,0.09425925925925922,0.8295999999046302],[0.10385416666666672,0.14907407407407408,0.8455000000000013],[0.07395833333333333,0.25092592592592594,0.8662000002860992],[0.07395833333333333,0.25092592592592594,0.8759999999999906],[0.10541666666666671,0.22777777777777777,0.8928000001907321],[0.07374999999999995,0.227962962962963,0.9094000000953599],[0.04041666666666662,0.23962962962962958,0.9320000000000022],[0.06041666666666667,0.2627777777777777,0.9508000001907249],[0.06041666666666667,0.2627777777777777,0.9594000000953571],[0.1087500000000001,0.25555555555555554,0.9760999999046334],[0.18958333333333333,0.18333333333333332,0.9953000001907242],[0.28791666666666677,0.1398148148148148,1.0094000000953685],[0.3095833333333334,0.07074074074074083,1.0260999999046305],[0.3559375000000001,0.03166666666666671,1.0428000001907378],[0.42520833333333335,-0.08407407407407404,1.0643000001907268],[0.4018749999999999,-0.06314814814814819,1.0794000000953616],[0.42979166666666657,-0.02555555555555547,1.0952000002860984],[0.44583333333333336,-0.03925925925925934,1.1105999999046219],[0.49854166666666655,-0.016666666666666666,1.128300000190734],[0.5220833333333333,-0.07481481481481478,1.1427000002860979],[0.5220833333333333,-0.07481481481481478,1.1654999999999944],[0.5256249999999999,-0.03888888888888889,1.1759000000953677],[0.5717708333333335,-0.11074074074074076,1.1925999999046297],[0.6126041666666666,-0.16277777777777774,1.2114000000953666],[0.6340625000000001,-0.17166666666666663,1.226300000190733],[0.65,-0.16055555555555553,1.2432000002860946],[0.65,-0.16055555555555553,1.2629000000953567],[0.6653125000000001,-0.17166666666666663,1.2759999999999962],[0.6466666666666666,-0.21148148148148146,1.2927000002861035],[0.6298958333333334,-0.20555555555555555,1.3110999999046271],[0.5912499999999999,-0.3374074074074074,1.3295999999046302],[0.6046875,-0.37240740740740746,1.3467000002860914],[0.5753125,-0.42018518518518516,1.3614999999999924],[0.5260416666666666,-0.3785185185185185,1.3759000000953563],[0.4591666666666666,-0.37296296296296294,1.3925999999046326],[0.38958333333333334,-0.43333333333333335,1.4127000002860939],[0.35,-0.4675925925925926,1.427200000286092],[0.37302083333333325,-0.4981481481481482,1.442700000286095],[0.38302083333333337,-0.5216666666666666,1.4599000000953595],[0.3714583333333332,-0.5401851851851852,1.4759000000953648],[0.40510416666666677,-0.47314814814814815,1.4925999999046269],[0.41593749999999996,-0.42888888888888893,1.5093000001907342],[0.47625000000000006,-0.38074074074074077,1.525900000095362],[0.5008333333333332,-0.34740740740740744,1.542599999904624],[0.5483333333333335,-0.2977777777777778,1.5630000000000024],[0.5644791666666668,-0.27148148148148155,1.5768000001907296],[0.565625,-0.27240740740740743,1.5927000002861007],[0.5364583333333334,-0.23703703703703705,1.6092000002860942],[0.5180208333333333,-0.21296296296296297,1.6285000000000025],[0.5119791666666667,-0.15870370370370368,1.6434999999999889],[0.5161458333333333,-0.1542592592592593,1.6623000001907258],[0.48333333333333334,-0.16518518518518516,1.6759000000953677],[0.48333333333333334,-0.16518518518518516,1.6954999999999956],[0.44656250000000003,-0.19296296296296295,1.709300000190737],[0.4241666666666667,-0.1757407407407407,1.7259000000953648],[0.40177083333333335,-0.15851851851851856,1.7425999999046269],[0.41510416666666666,-0.13222222222222219,1.7620000000000005],[0.4189583333333334,-0.12481481481481477,1.775900000095362],[0.4205208333333334,-0.12148148148148152,1.7927000002861035],[0.43468749999999995,-0.11333333333333331,1.8093000001907313],[0.4370833333333332,-0.14000000000000004,1.8259000000953591],[0.43687500000000007,-0.11796296296296294,1.8427000002861007],[0.44718749999999996,-0.06981481481481479,1.8595999999046313],[0.46031250000000007,-0.03333333333333333,1.8759999999999906],[0.4786458333333333,-0.03259259259259263,1.8924999999999983],[0.48156249999999995,-0.06259259259259262,1.9092000002860914],[0.4731250000000001,-0.06444444444444447,1.9259000000953677],[0.4978125000000001,-0.07018518518518514,1.9425999999046297],[0.5065624999999999,-0.05740740740740741,1.9615999999046352],[0.4959374999999999,-0.02907407407407416,1.9759000000953648],[0.50625,-0.0011111111111111532,1.9925999999046269],[0.5142708333333333,0.004444444444444402,2.0092000002861],[0.5222916666666667,0.009999999999999959,2.0259999999999962],[0.5243750000000001,0.012777777777777735,2.042599999904624],[0.5243750000000001,0.012777777777777735,2.0593000001907313],[0.5191666666666668,-0.03462962962962971,2.0759999999999934],[0.5230208333333333,-0.030740740740740784,2.0925999999046354],[0.5338541666666666,-0.040740740740740744,2.1092000002860942],[0.5338541666666666,-0.040740740740740744,2.1259999999999906],[0.4952083333333334,-0.029814814814814856,2.1425999999046326],[0.45729166666666665,0.012037037037037037,2.1650999999046263],[0.45729166666666665,0.012037037037037037,2.1759000000953677],[0.43875000000000003,0.03833333333333342,2.192700000286095],[0.43875000000000003,0.03833333333333342,2.209300000190737],[0.42604166666666665,0.03611111111111111,2.225900000095365],[0.42604166666666665,0.03611111111111111,2.242700000286092],[0.3877083333333334,0.023148148148148147,2.2594000000953685],[0.3877083333333334,0.023148148148148147,2.2759999999999962],[0.3559375000000001,-0.02833333333333325,2.2927000002861035],[0.31260416666666657,0.04944444444444453,2.3145999999046296],[0.31260416666666657,0.04944444444444453,2.3259999999999934],[0.28406250000000005,0.07277777777777769,2.3427000002861007],[0.28406250000000005,0.07277777777777769,2.3594000000953628],[0.23541666666666666,0.19148148148148145,2.3795999999046273],[0.1890625,0.2403703703703703,2.396400000095369],[0.18635416666666677,0.21148148148148158,2.4114000000953695],[0.15427083333333325,0.2022222222222223,2.4289000000953678],[0.15416666666666667,0.14240740740740737,2.4518000001907296],[0.15416666666666667,0.14240740740740737,2.4605999999046304],[0.12302083333333323,0.17777777777777778,2.476300000190733],[0.11177083333333329,0.21092592592592588,2.494400000095368],[0.09395833333333338,0.2825925925925926,2.513300000190725],[0.09395833333333338,0.2825925925925926,2.5302000002861007],[0.1256249999999999,0.20314814814814824,2.5427000002861035],[0.12229166666666676,0.20777777777777787,2.563599999904625],[0.12229166666666676,0.20777777777777787,2.575900000095359],[0.15812499999999996,0.08092592592592601,2.6038000001907307],[0.15812499999999996,0.08092592592592601,2.610500000000002],[0.1953125,0.04796296296296292,2.6259000000953563],[0.1955208333333334,0.03629629629629634,2.6425999999046326],[0.26708333333333345,-0.06259259259259262,2.6644000000953696],[0.27354166666666657,-0.07388888888888885,2.680200000286092],[0.30520833333333336,-0.15185185185185185,2.6944000000953565],[0.3333333333333333,-0.1646296296296296,2.709800000190725],[0.35052083333333334,-0.205,2.7292000002860988],[0.35052083333333334,-0.205,2.742700000286092],[0.35614583333333344,-0.15555555555555556,2.7594000000953685],[0.36739583333333337,-0.11425925925925924,2.7845999999046285],[0.36739583333333337,-0.11425925925925924,2.7959999999999923],[0.4009375000000001,-0.06592592592592597,2.809200000286097],[0.40614583333333343,-0.05277777777777778,2.8279000000953687],[0.4270833333333333,0.011666666666666582,2.8425999999046354],[0.4270833333333333,0.011666666666666582,2.8593000001907285],[0.3977083333333333,0.075,2.8759999999999906],[0.4546875,0.09074074074074075,2.8982000002860957],[0.4546875,0.09074074074074075,2.913400000095365],[0.4887500000000001,0.13129629629629624,2.9259000000953677],[0.551875,0.11203703703703703,2.942700000286095],[0.5961458333333333,0.1051851851851851,2.959300000190737],[0.6596875,0.04018518518518527,2.975900000095365],[0.7032291666666666,0.02388888888888885,2.992599999904627],[0.6993750000000001,-0.0003703703703704546,3.0092000002861],[0.7326041666666666,0.002962962962963005,3.025900000095362],[0.7605208333333332,-0.01444444444444436,3.042800000190738],[0.7974999999999999,0.009814814814814731,3.0607000002861042],[0.7797916666666665,0.02759259259259255,3.075900000095359],[0.7777083333333332,0.016666666666666666,3.0925999999046354],[0.7599999999999999,-0.03166666666666671,3.1092000002860942],[0.7570833333333333,-0.041666666666666664,3.1259000000953563],[0.6984375,-0.02444444444444453,3.1425999999046326],[0.6897916666666667,-0.040370370370370286,3.161200000286101],[0.6729166666666667,-0.016111111111111194,3.1759000000953677],[0.6509375000000001,-0.03611111111111111,3.1925999999046297],[0.6460416666666667,-0.03537037037037041,3.2092000002861027],[0.6474999999999999,-0.08555555555555554,3.225999999999999],[0.6025000000000001,-0.102962962962963,3.242599999904627],[0.5736458333333334,-0.11981481481481479,3.2624000000953686],[0.4883333333333333,-0.10925925925925926,3.275900000095362],[0.43729166666666663,-0.11944444444444445,3.2924999999999898],[0.40343749999999995,-0.13537037037037042,3.3094000000953656],[0.3568749999999999,-0.11500000000000005,3.325900000095359],[0.33093750000000005,-0.11833333333333329,3.342500000000001],[0.2945833333333333,-0.08518518518518518,3.362099999904629],[0.25583333333333325,-0.08129629629629626,3.3759000000953563],[0.24864583333333337,-0.04388888888888897,3.3925999999046326],[0.27072916666666674,-0.0418518518518519,3.4093000001907257],[0.28395833333333326,-0.036481481481481566,3.4259000000953677],[0.29885416666666675,0.0242592592592593,3.4425999999046297],[0.32760416666666664,0.049074074074074076,3.4609999999999985],[0.37437500000000007,0.09685185185185177,3.475900000095365],[0.41083333333333344,0.10759259259259263,3.492599999904627],[0.44947916666666665,0.09592592592592585,3.5092000002861],[0.4912499999999999,0.07555555555555547,3.525900000095362],[0.4953125,0.047037037037036995,3.542599999904624],[0.46937499999999993,0.02166666666666675,3.562099999904632],[0.4557291666666667,0.028518518518518478,3.577300000190732],[0.4632291666666667,0.05277777777777778,3.592500000000001],[0.4929166666666667,0.06648148148148143,3.6093000001907285],[0.5005208333333333,0.08425925925925926,3.6259000000953563],[0.505,0.07481481481481478,3.6425999999046326],[0.4943749999999999,0.06592592592592597,3.6622000002860915],[0.4930208333333333,0.08944444444444435,3.676000000000002],[0.45729166666666665,0.1111111111111111,3.6940999999046227],[0.4573958333333332,0.1668518518518519,3.7120999999046234],[0.47458333333333325,0.2168518518518519,3.7275999999046263],[0.47458333333333325,0.2168518518518519,3.7428000001907265],[0.4947916666666667,0.2418518518518519,3.7594000000953685],[0.4947916666666667,0.2418518518518519,3.7759999999999962],[0.4644791666666668,0.24648148148148152,3.7927000002861035],[0.4115624999999999,0.2733333333333334,3.8109000000953586],[0.3523958333333333,0.29296296296296304,3.825900000095359],[0.271875,0.34,3.8425999999046354],[0.22020833333333342,0.36500000000000005,3.8612000002861038],[0.22020833333333342,0.36500000000000005,3.8759000000953563],[0.15010416666666657,0.39814814814814814,3.892700000286098],[0.11541666666666663,0.402962962962963,3.9093000001907257],[0.05270833333333336,0.4027777777777778,3.926000000000002],[-0.014999999999999977,0.42166666666666675,3.9433000001907317],[-0.08875000000000005,0.4449999999999999,3.9624999999999915],[-0.14427083333333332,0.46574074074074073,3.9777000002860916],[-0.1610416666666667,0.422037037037037,3.993300000190729],[-0.1851041666666667,0.4140740740740741,4.0092000002861],[-0.20270833333333335,0.3829629629629629,4.026200000286096],[-0.19968750000000005,0.3877777777777777,4.042599999904624],[-0.18968750000000004,0.3757407407407407,4.062400000095366],[-0.19041666666666662,0.39648148148148155,4.076700000286095],[-0.15916666666666662,0.43796296296296294,4.092599999904635],[-0.16000000000000003,0.4661111111111112,4.109200000286094],[-0.15437500000000004,0.467962962962963,4.128],[-0.10687500000000003,0.47537037037037044,4.142599999904633],[-0.07760416666666667,0.5044444444444444,4.163099999904631],[-0.04760416666666671,0.5122222222222222,4.180499999999995],[-0.04760416666666671,0.5122222222222222,4.19259999990463],[-0.027187500000000024,0.5114814814814815,4.209300000190737],[-0.027187500000000024,0.5114814814814815,4.225900000095365],[-0.04114583333333333,0.4962962962962963,4.242599999904627],[-0.04114583333333333,0.4962962962962963,4.2594000000953685],[-0.06937500000000002,0.4744444444444445,4.275900000095362],[-0.06937500000000002,0.4744444444444445,4.292599999904624],[-0.07927083333333336,0.45740740740740743,4.309300000190731],[-0.07927083333333336,0.45740740740740743,4.325999999999993],[-0.09822916666666662,0.44518518518518513,4.342599999904635],[-0.09822916666666662,0.44518518518518513,4.3593000001907285],[-0.08145833333333338,0.42407407407407405,4.375900000095356],[-0.06177083333333329,0.4372222222222223,4.392599999904633],[-0.06104166666666669,0.4294444444444444,4.409200000286091],[-0.06281249999999995,0.39944444444444455,4.4277000002860945],[-0.06281249999999995,0.39166666666666666,4.442800000190729],[-0.059375,0.3794444444444444,4.4624999999999915],[-0.05593750000000005,0.3672222222222221,4.478599999904631],[-0.05593750000000005,0.3672222222222221,4.496400000095363],[-0.04125000000000002,0.3653703703703703,4.5092000002861],[-0.016354166666666715,0.39759259259259266,4.525800000190728],[-0.013020833333333334,0.38629629629629636,4.5427000002861035],[-0.015625,0.3853703703703704,4.5627000002861],[-0.018229166666666668,0.3844444444444445,4.575800000190725],[-0.02354166666666669,0.418888888888889,4.595500000000001],[-0.008124999999999953,0.45388888888888895,4.609200000286094],[0.007291666666666667,0.4888888888888889,4.625900000095356],[0.0359375,0.5192592592592592,4.642700000286098],[0.06458333333333334,0.5496296296296296,4.659499999999994],[0.08031249999999991,0.6062962962962962,4.675900000095368],[0.07718749999999991,0.6214814814814815,4.69259999990463],[0.10697916666666671,0.6214814814814815,4.709200000286103],[0.11791666666666671,0.6251851851851852,4.725900000095365],[0.11791666666666671,0.6251851851851852,4.742599999904627],[0.13333333333333333,0.6214814814814815,4.759300000190734],[0.12083333333333333,0.5979629629629629,4.778499999999994],[0.12083333333333333,0.5979629629629629,4.792900000095358],[0.10833333333333334,0.5744444444444445,4.809200000286097],[0.08645833333333333,0.5403703703703703,4.826099999904628],[0.051250000000000046,0.49314814814814806,4.842599999904635],[0.04468749999999998,0.4905555555555555,4.862200000286094],[0.03687499999999998,0.41351851851851845,4.875900000095356],[0.025729166666666713,0.3685185185185185,4.893900000095357],[-0.010000000000000024,0.35111111111111115,4.909300000190726],[-0.010000000000000024,0.35111111111111115,4.925900000095368],[0.01906249999999995,0.318888888888889,4.9424999999999955],[0.0109375,0.31814814814814807,4.962099999904623],[0.02166666666666662,0.3227777777777777,4.975999999999999],[0.026250000000000048,0.319074074074074,4.992599999904627],[0.04020833333333336,0.32592592592592595,5.009300000190734],[0.06041666666666667,0.3635185185185184,5.025900000095362],[0.05625,0.347037037037037,5.04249999999999],[0.05916666666666662,0.37518518518518523,5.061900000095363],[0.07718749999999991,0.3707407407407408,5.075900000095359],[0.10343749999999995,0.372037037037037,5.092500000000001],[0.07552083333333333,0.39814814814814814,5.109200000286094],[0.08031249999999991,0.40018518518518525,5.125900000095356],[0.06489583333333329,0.3851851851851852,5.142599999904633],[0.05562499999999997,0.3785185185185185,5.162300000190726],[0.06229166666666662,0.3848148148148147,5.175900000095368],[0.06187499999999998,0.3762962962962964,5.1924999999999955],[0.07479166666666662,0.39018518518518525,5.209700000286105],[0.0978125000000001,0.40259259259259256,5.225900000095365],[0.1068749999999999,0.4161111111111112,5.242599999904627],[0.1224999999999999,0.4681481481481481,5.262099999904635],[0.1365624999999999,0.5050000000000001,5.275999999999996],[0.13916666666666658,0.5353703703703704,5.2927000002861035],[0.1476041666666667,0.5638888888888889,5.311700000286095],[0.17291666666666666,0.5459259259259258,5.3264000000953615],[0.17291666666666666,0.5459259259259258,5.342900000095369],[0.1912499999999999,0.4859259259259259,5.363400000095368],[0.2306250000000001,0.47925925925925916,5.379099999904625],[0.20572916666666666,0.43444444444444447,5.3932000002861],[0.19072916666666656,0.3859259259259259,5.409200000286091],[0.16802083333333329,0.3405555555555555,5.425900000095368],[0.13729166666666662,0.23833333333333342,5.442900000095364],[0.11510416666666666,0.15925925925925927,5.463099999904628],[0.13385416666666666,0.0911111111111112,5.479300000190733],[0.1400000000000001,0.018518518518518517,5.494500000000002],[0.11822916666666666,-0.003888888888888931,5.5094000000953685],[0.08145833333333338,0.00851851851851856,5.528200000286091],[0.057291666666666664,-0.014259259259259343,5.545099999904622],[0.07979166666666657,-0.01185185185185181,5.5625],[0.07260416666666672,-0.008888888888888804,5.578599999904625],[0.05531250000000002,-0.011666666666666582,5.597200000286094],[0.06854166666666663,-0.01962962962962967,5.612099999904629],[0.06593749999999995,-0.03222222222222218,5.6292000002861045],[0.04583333333333333,-0.03611111111111111,5.650499999999994],[0.04583333333333333,-0.03611111111111111,5.65940000009536],[0.05916666666666662,-0.03370370370370379,5.6762000002861015],[0.06770833333333333,-0.003888888888888931,5.693099999904632],[0.08229166666666667,0.020185185185185143,5.709200000286103],[0.1009375000000001,0.026851851851851852,5.7258000001907305],[0.1009375000000001,0.026851851851851852,5.742700000286092],[0.11958333333333329,0.03351851851851856,5.7594000000953685],[0.11958333333333329,0.03351851851851856,5.775900000095362],[0.11958333333333329,0.03759259259259251,5.7927000002861035],[0.17822916666666658,0.0668518518518519,5.810999999999993],[0.20437500000000006,0.11592592592592597,5.825900000095359],[0.20979166666666677,0.16537037037037028,5.842599999904635],[0.20979166666666677,0.16537037037037028,5.859200000286094],[0.20322916666666657,0.20166666666666663,5.875800000190736],[0.21354166666666666,0.2683333333333333,5.892800000190732],[0.19583333333333333,0.2785185185185185,5.909200000286091],[0.19343750000000004,0.3007407407407407,5.925800000190733],[0.1712500000000001,0.2890740740740741,5.942999999999998],[0.1490624999999999,0.2774074074074073,5.962800000190725],[0.19520833333333343,0.28462962962962973,5.979300000190733],[0.16697916666666662,0.25925925925925924,5.995599999904627],[0.14812500000000003,0.2748148148148148,6.0092000002861],[0.16572916666666657,0.2735185185185186,6.028300000190725],[0.18333333333333332,0.2722222222222222,6.0427000002861035],[0.1877083333333334,0.22259259259259268,6.062200000286097],[0.1877083333333334,0.22259259259259268,6.076700000286095],[0.2359375,0.1983333333333334,6.092800000190735],[0.2573958333333332,0.1588888888888888,6.109200000286094],[0.26624999999999993,0.17703703703703708,6.125900000095356],[0.2751041666666666,0.19518518518518516,6.142499999999998],[0.23583333333333342,0.1725925925925927,6.163800000190733],[0.23583333333333342,0.1725925925925927,6.175900000095368],[0.23229166666666667,0.1594444444444445,6.19259999990463],[0.23229166666666667,0.1594444444444445,6.209200000286103],[0.2257291666666667,0.1287037037037037,6.225999999999999],[0.2257291666666667,0.1287037037037037,6.242499999999993],[0.20833333333333334,0.08351851851851856,6.2592000002861],[0.20833333333333334,0.08351851851851856,6.2760999999046305],[0.18718750000000003,0.017592592592592594,6.292599999904624],[0.18718750000000003,0.017592592592592594,6.309300000190731],[0.1404166666666666,-0.026481481481481398,6.325900000095359],[0.1404166666666666,-0.026481481481481398,6.342500000000001],[0.11541666666666663,-0.04666666666666675,6.359200000286094],[0.09489583333333323,-0.07462962962962966,6.375800000190736],[0.07614583333333323,-0.11222222222222226,6.392700000286098],[0.07614583333333323,-0.11222222222222226,6.409300000190726],[0.07125000000000009,-0.12814814814814812,6.425900000095368],[0.06020833333333329,-0.14055555555555552,6.44259999990463],[0.052187500000000026,-0.13925925925925925,6.462800000190725],[0.03802083333333333,-0.16074074074074077,6.476800000190735],[0.016666666666666666,-0.21481481481481482,6.493200000286095],[-0.0009374999999999763,-0.24814814814814815,6.510900000095361],[-0.015312500000000047,-0.29148148148148145,6.525800000190728],[-0.015312500000000047,-0.29148148148148145,6.542599999904624],[-0.04812500000000005,-0.35259259259259257,6.559400000095366],[-0.07052083333333338,-0.425,6.575900000095359],[-0.07166666666666661,-0.43703703703703706,6.592500000000001],[-0.11468750000000003,-0.47537037037037033,6.610200000286099],[-0.12104166666666671,-0.45092592592592595,6.6285000000000025],[-0.1530208333333333,-0.4455555555555556,6.644900000095362],[-0.18489583333333334,-0.4324074074074074,6.662700000286094],[-0.2101041666666667,-0.36444444444444446,6.679900000095358],[-0.23604166666666668,-0.29444444444444445,6.6950999999046275],[-0.22718750000000001,-0.17851851851851847,6.7109999999999985],[-0.22166666666666662,-0.06870370370370374,6.725900000095365],[-0.22166666666666662,-0.06870370370370374,6.742700000286092],[-0.2267708333333334,0.030740740740740784,6.759300000190734],[-0.2267708333333334,0.030740740740740784,6.775900000095362],[-0.26802083333333326,0.06592592592592597,6.792599999904624],[-0.2612499999999999,0.09425925925925922,6.809300000190731],[-0.26677083333333335,0.0838888888888888,6.825800000190725],[-0.24322916666666666,0.08222222222222218,6.842500000000001],[-0.21666666666666667,0.07314814814814814,6.862900000095365],[-0.18718750000000003,0.054259259259259174,6.878700000286102],[-0.1694791666666667,0.04518518518518514,6.89509999990463],[-0.17552083333333332,0.0035185185185184764,6.910900000095367],[-0.16572916666666668,-0.021481481481481525,6.927099999904627],[-0.14874999999999997,-0.013888888888888888,6.947999999999993],[-0.14874999999999997,-0.013888888888888888,6.959300000190737],[-0.13229166666666667,-0.012592592592592508,6.9758000001907305],[-0.12260416666666671,-0.0020370370370370794,6.992499999999993],[-0.11291666666666664,0.00851851851851856,7.0092000002861],[-0.10968749999999995,0.01574074074074074,7.025900000095362],[-0.11468750000000003,0.030000000000000086,7.042599999904624],[-0.11968749999999997,0.04425925925925922,7.0623000001907315],[-0.11229166666666662,0.018333333333333292,7.075900000095359],[-0.10364583333333334,0.0022222222222223064,7.092599999904635],[-0.12041666666666669,-0.011111111111111112,7.109200000286094],[-0.1382291666666667,-0.03129629629629625,7.127200000286095],[-0.11458333333333333,-0.006296296296296254,7.142499999999998],[-0.10416666666666667,0.02092592592592584,7.162099999904626],[-0.10197916666666665,0.015000000000000043,7.178599999904634],[-0.09979166666666663,0.009074074074074031,7.194000000000003],[-0.06583333333333338,0.027407407407407325,7.209499999999991],[-0.03187500000000002,0.045740740740740825,7.228099999904629],[-0.00604166666666662,0.10574074074074079,7.243599999904632],[0.02781250000000005,0.1587037037037038,7.263300000190725],[0.07125000000000009,0.19222222222222213,7.279900000095367],[0.1056250000000001,0.21666666666666667,7.293900000095363],[0.11395833333333343,0.20611111111111102,7.310599999904625],[0.11395833333333343,0.18777777777777774,7.328099999904623],[0.12218749999999995,0.20259259259259255,7.343200000286103],[0.1326041666666666,0.2596296296296297,7.366500000000002],[0.1326041666666666,0.2596296296296297,7.375900000095356],[0.11614583333333334,0.2844444444444445,7.392599999904633],[0.11177083333333329,0.2946296296296297,7.409499999999994],[0.10479166666666657,0.28462962962962973,7.425800000190733],[0.08822916666666672,0.24962962962962953,7.4465],[0.06072916666666662,0.20574074074074078,7.461500000000001],[0.0626041666666667,0.2222222222222222,7.477700000286092],[0.00947916666666669,0.21296296296296297,7.492900000095361],[0.002395833333333286,0.23555555555555563,7.511700000286098],[0.005104166666666643,0.2081481481481481,7.525800000190728],[0.005104166666666643,0.2081481481481481,7.542599999904624],[-0.001979166666666643,0.14166666666666666,7.559200000286097],[-0.027291666666666714,0.11481481481481481,7.575900000095359],[-0.04822916666666662,0.10999999999999996,7.592500000000001],[-0.04874999999999995,0.08425925925925926,7.609200000286094],[-0.04770833333333328,0.09055555555555551,7.625900000095356],[-0.043333333333333356,0.07814814814814823,7.642499999999998],[-0.06885416666666669,0.042407407407407366,7.663099999904631],[-0.03937499999999995,0.032407407407407406,7.679200000286102],[-0.04572916666666664,-0.03518518518518519,7.694000000000003],[-0.06166666666666672,-0.020740740740740823,7.711500000000001],[-0.04510416666666662,-0.002777777777777778,7.725900000095365],[-0.04510416666666662,-0.002777777777777778,7.742599999904627],[-0.010312499999999976,-0.02444444444444453,7.759300000190734],[-0.001979166666666643,-0.052037037037037076,7.7787000002860935],[0.016458333333333287,-0.041111111111111195,7.797599999904634],[0.016458333333333287,-0.041111111111111195,7.811900000095363],[0.034895833333333334,-0.0301851851851851,7.825800000190725],[-0.002395833333333286,0.010925925925925884,7.842500000000001],[0.026145833333333358,0.052407407407407326,7.862499999999997],[0.011249999999999953,0.10500000000000008,7.875900000095356],[-0.005520833333333286,0.1911111111111112,7.892499999999998],[-0.019895833333333356,0.18907407407407412,7.909200000286091],[-0.04791666666666667,0.2124074074074075,7.925800000190733],[-0.07010416666666662,0.25314814814814823,7.9424999999999955],[-0.07260416666666672,0.25759259259259265,7.962099999904623],[-0.11645833333333329,0.29666666666666675,7.976300000190733],[-0.15072916666666672,0.3168518518518519,7.992599999904627],[-0.1508333333333333,0.302962962962963,8.009099999904635],[-0.2061458333333333,0.2675925925925926,8.025800000190728],[-0.23093750000000005,0.21370370370370367,8.042599999904624],[-0.2561458333333333,0.18611111111111112,8.060700000286104],[-0.2898958333333333,0.2222222222222222,8.075800000190725],[-0.32145833333333335,0.21500000000000005,8.092500000000001],[-0.3601041666666667,0.2014814814814814,8.109200000286094],[-0.41677083333333337,0.20703703703703696,8.126499999999993],[-0.4517708333333334,0.16722222222222213,8.142499999999998],[-0.4921875,0.13518518518518519,8.16240000009536],[-0.4921875,0.13518518518518519,8.175900000095368],[-0.5125,0.12185185185185177,8.19259999990463],[-0.5125,0.12185185185185177,8.209200000286103],[-0.5191666666666667,0.14944444444444452,8.22580000019073],[-0.5191666666666667,0.14944444444444452,8.242499999999993],[-0.5238541666666666,0.15999999999999995,8.2592000002861],[-0.5238541666666666,0.15999999999999995,8.275900000095362],[-0.5294791666666667,0.127962962962963,8.292599999904624],[-0.5294791666666667,0.127962962962963,8.309099999904632],[-0.5336458333333333,0.09722222222222222,8.325999999999993],[-0.5559375000000001,0.10907407407407403,8.348400000095367],[-0.5559375000000001,0.10907407407407403,8.360099999904634],[-0.5613541666666666,0.11092592592592589,8.375800000190736],[-0.5584375,0.12851851851851848,8.392499999999998],[-0.5413541666666667,0.12296296296296293,8.409200000286091],[-0.5284375,0.12851851851851848,8.426000000000002],[-0.4791666666666667,0.1557407407407408,8.442499999999995],[-0.4791666666666667,0.1557407407407408,8.459300000190737],[-0.4454166666666667,0.10425925925925918,8.475900000095365],[-0.40958333333333335,0.09611111111111106,8.493300000190729],[-0.37302083333333336,0.09611111111111106,8.5092000002861],[-0.33166666666666667,0.10555555555555556,8.525800000190728],[-0.2856250000000001,0.0837037037037038,8.54249999999999],[-0.2515625,0.06425925925925935,8.562099999904632],[-0.21749999999999994,0.0448148148148149,8.57590000009536],[-0.2007291666666667,0.02629629629629638,8.594499999999996],[-0.18395833333333336,0.007777777777777862,8.612300000190729],[-0.18395833333333336,0.007777777777777862,8.62599999999999],[-0.17156250000000003,-0.011296296296296339,8.642700000286098],[-0.1546875,0.027777777777777776,8.674700000286094],[-0.1546875,0.027777777777777776,8.68240000009537],[-0.13895833333333332,0.014814814814814815,8.692700000286095],[-0.11656249999999997,-0.003888888888888931,8.709400000095357],[-0.09447916666666671,-0.04092592592592597,8.726599999904622],[-0.09447916666666671,-0.04092592592592597,8.747099999904634],[-0.05333333333333338,-0.05814814814814811,8.759500000000003],[-0.007500000000000047,-0.03777777777777774,8.777999999999992],[-0.007500000000000047,-0.03777777777777774,8.796999999999997],[0.025520833333333333,-0.05499999999999998,8.809400000095366],[0.07645833333333343,-0.05740740740740741,8.826400000095362],[0.10729166666666666,-0.06518518518518517,8.8427000002861],[0.12854166666666675,-0.06388888888888888,8.86490000009536],[0.14572916666666677,-0.09648148148148153,8.879599999904627],[0.16354166666666667,-0.08499999999999996,8.894999999999996],[0.17531249999999995,-0.05962962962962961,8.911200000286101],[0.1756249999999999,-0.01444444444444436,8.92940000009537],[0.15510416666666677,-0.019999999999999917,8.945400000095361],[0.11677083333333324,-0.08074074074074078,8.962599999904626],[0.09114583333333333,-0.10537037037037032,8.979],[0.06531250000000005,-0.08425925925925926,8.993900000095365],[0.059583333333333384,-0.057777777777777754,9.011599999904632],[0.04052083333333331,-0.04870370370370362,9.028999999999996],[0.024583333333333356,-0.030000000000000086,9.042700000286104],[0.024583333333333356,-0.030000000000000086,9.059800000190734],[0.018020833333333285,-0.022222222222222223,9.075999999999993],[0.015208333333333357,-0.052037037037037076,9.094999999999999],[0.044270833333333336,-0.10722222222222218,9.109300000190728],[0.07989583333333337,-0.13185185185185183,9.127800000190732],[0.13833333333333328,-0.11777777777777781,9.142499999999998],[0.2103125000000001,-0.1272222222222222,9.162200000286091],[0.24895833333333334,-0.15,9.1787000002861],[0.2869791666666667,-0.17462962962962966,9.192499999999995],[0.2868750000000001,-0.18851851851851853,9.209200000286103],[0.3007291666666667,-0.18740740740740738,9.227599999904626],[0.3134375000000001,-0.18944444444444447,9.242499999999993],[0.3493750000000001,-0.17240740740740745,9.2622000002861],[0.3421875,-0.14000000000000004,9.278300000190725],[0.35958333333333337,-0.08499999999999996,9.292700000286104],[0.3636458333333332,-0.05462962962962963,9.314400000095361],[0.31666666666666665,-0.00851851851851856,9.329999999999998],[0.27197916666666655,0.01796296296296305,9.347499999999997],[0.23364583333333327,0.03370370370370379,9.364200000286104],[0.23364583333333327,0.03370370370370379,9.375900000095356],[0.2334374999999999,0.038703703703703664,9.392599999904633],[0.21385416666666662,0.021851851851851768,9.409800000190728],[0.19541666666666657,0.008148148148148106,9.425800000190733],[0.1631249999999999,0.0001851851851852273,9.444000000000003],[0.15354166666666677,-0.017592592592592594,9.461599999904635],[0.121875,-0.030555555555555555,9.477400000095358],[0.121875,-0.030555555555555555,9.496900000095366],[0.09020833333333324,-0.04351851851851852,9.514499999999998],[0.09020833333333324,-0.04351851851851852,9.527800000190737],[0.096875,-0.05851851851851856,9.54249999999999],[0.11489583333333328,-0.07000000000000002,9.561300000190727],[0.1421875,-0.08629629629629634,9.575800000190725],[0.1694791666666667,-0.10259259259259255,9.592400000095367],[0.19208333333333344,-0.08666666666666668,9.609099999904629],[0.19208333333333344,-0.08666666666666668,9.625900000095356],[0.21458333333333332,-0.0705555555555556,9.642599999904633],[0.22854166666666675,-0.1022222222222222,9.659200000286091],[0.2397916666666667,-0.13203703703703706,9.675800000190733],[0.22625000000000003,-0.16648148148148145,9.692499999999995],[0.2127083333333334,-0.20092592592592592,9.709099999904623],[0.2171875,-0.202962962962963,9.725900000095365],[0.2267708333333334,-0.21388888888888888,9.747],[0.2267708333333334,-0.21388888888888888,9.759400000095368],[0.21604166666666677,-0.22259259259259256,9.775800000190728],[0.21604166666666677,-0.22259259259259256,9.792599999904624],[0.20572916666666666,-0.2309259259259259,9.809200000286097],[0.19010416666666666,-0.2403703703703704,9.82590000009536],[0.16958333333333328,-0.24518518518518514,9.844499999999996],[0.15854166666666672,-0.20833333333333334,9.862499999999997],[0.16979166666666667,-0.1690740740740741,9.877400000095363],[0.19854166666666656,-0.1522222222222222,9.892499999999998],[0.2125,-0.15203703703703708,9.909099999904626],[0.20770833333333344,-0.17296296296296293,9.925700000286099],[0.2131249999999999,-0.17240740740740745,9.942499999999995],[0.22385416666666677,-0.1566666666666667,9.961400000095367],[0.2171875,-0.16648148148148145,9.97580000019073],[0.21885416666666657,-0.19870370370370372,9.992499999999993],[0.22229166666666675,-0.22240740740740744,10.0092000002861],[0.21166666666666673,-0.22722222222222221,10.025800000190728],[0.19416666666666677,-0.23962962962962958,10.04249999999999],[0.16416666666666657,-0.2331481481481481,10.062099999904632],[0.14895833333333333,-0.20999999999999996,10.078000000000003],[0.1375,-0.16870370370370374,10.092500000000001],[0.11177083333333329,-0.15203703703703708,10.109200000286094],[0.07687499999999996,-0.15796296296296297,10.125700000286102],[0.058958333333333356,-0.13870370370370366,10.142400000095364],[0.05447916666666662,-0.1359259259259259,10.164000000000001],[0.05447916666666662,-0.1359259259259259,10.175800000190733],[0.05677083333333333,-0.14500000000000002,10.192499999999995],[0.03802083333333333,-0.13037037037037033,10.215700000286091],[0.03802083333333333,-0.13037037037037033,10.22580000019073],[0.035625000000000046,-0.12148148148148152,10.242599999904627],[0.035625000000000046,-0.12148148148148152,10.2592000002861],[0.03260416666666662,-0.12185185185185188,10.275800000190728],[0.027395833333333286,-0.1412962962962963,10.297099999904631],[0.027395833333333286,-0.1412962962962963,10.309200000286097],[0.024062500000000025,-0.16407407407407412,10.325800000190725],[0.024062500000000025,-0.16407407407407412,10.342500000000001],[0.042499999999999954,-0.17407407407407408,10.362599999904631]]","[0.0003000001907338401,0.059900000095368,0.06590000009536823,0.07609999990462768,0.09259999990463541,0.1093000001907285,0.13020000028609502,0.14259999990463257,0.15940000009535993,0.176099999904622,0.19270000028609502,0.21399999999999864,0.23130000019072838,0.24270000028609218,0.2593000001907342,0.275900000095362,0.29259999990462404,0.31270000028609957,0.3259999999999934,0.3427000002861007,0.36249999999999716,0.37859999990462256,0.39349999999998886,0.40930000019072565,0.42600000000000193,0.442700000286095,0.4632000002860934,0.47920000028609877,0.4949000000953703,0.5094000000953685,0.5259999999999962,0.5432000002860917,0.5600999999046223,0.5785999999046254,0.5958000001907351,0.6099999999999994,0.6329999999999956,0.6430000000000007,0.6594999999999942,0.676099999904622,0.6964000000953661,0.713400000095362,0.7288000001907307,0.7477000002861018,0.7597000002861023,0.7782000002860912,0.7953000001907355,0.8137000002861043,0.8295999999046302,0.8455000000000013,0.8662000002860992,0.8759999999999906,0.8928000001907321,0.9094000000953599,0.9320000000000022,0.9508000001907249,0.9594000000953571,0.9760999999046334,0.9953000001907242,1.0094000000953685,1.0260999999046305,1.0428000001907378,1.0643000001907268,1.0794000000953616,1.0952000002860984,1.1105999999046219,1.128300000190734,1.1427000002860979,1.1654999999999944,1.1759000000953677,1.1925999999046297,1.2114000000953666,1.226300000190733,1.2432000002860946,1.2629000000953567,1.2759999999999962,1.2927000002861035,1.3110999999046271,1.3295999999046302,1.3467000002860914,1.3614999999999924,1.3759000000953563,1.3925999999046326,1.4127000002860939,1.427200000286092,1.442700000286095,1.4599000000953595,1.4759000000953648,1.4925999999046269,1.5093000001907342,1.525900000095362,1.542599999904624,1.5630000000000024,1.5768000001907296,1.5927000002861007,1.6092000002860942,1.6285000000000025,1.6434999999999889,1.6623000001907258,1.6759000000953677,1.6954999999999956,1.709300000190737,1.7259000000953648,1.7425999999046269,1.7620000000000005,1.775900000095362,1.7927000002861035,1.8093000001907313,1.8259000000953591,1.8427000002861007,1.8595999999046313,1.8759999999999906,1.8924999999999983,1.9092000002860914,1.9259000000953677,1.9425999999046297,1.9615999999046352,1.9759000000953648,1.9925999999046269,2.0092000002861,2.0259999999999962,2.042599999904624,2.0593000001907313,2.0759999999999934,2.0925999999046354,2.1092000002860942,2.1259999999999906,2.1425999999046326,2.1650999999046263,2.1759000000953677,2.192700000286095,2.209300000190737,2.225900000095365,2.242700000286092,2.2594000000953685,2.2759999999999962,2.2927000002861035,2.3145999999046296,2.3259999999999934,2.3427000002861007,2.3594000000953628,2.3795999999046273,2.396400000095369,2.4114000000953695,2.4289000000953678,2.4518000001907296,2.4605999999046304,2.476300000190733,2.494400000095368,2.513300000190725,2.5302000002861007,2.5427000002861035,2.563599999904625,2.575900000095359,2.6038000001907307,2.610500000000002,2.6259000000953563,2.6425999999046326,2.6644000000953696,2.680200000286092,2.6944000000953565,2.709800000190725,2.7292000002860988,2.742700000286092,2.7594000000953685,2.7845999999046285,2.7959999999999923,2.809200000286097,2.8279000000953687,2.8425999999046354,2.8593000001907285,2.8759999999999906,2.8982000002860957,2.913400000095365,2.9259000000953677,2.942700000286095,2.959300000190737,2.975900000095365,2.992599999904627,3.0092000002861,3.025900000095362,3.042800000190738,3.0607000002861042,3.075900000095359,3.0925999999046354,3.1092000002860942,3.1259000000953563,3.1425999999046326,3.161200000286101,3.1759000000953677,3.1925999999046297,3.2092000002861027,3.225999999999999,3.242599999904627,3.2624000000953686,3.275900000095362,3.2924999999999898,3.3094000000953656,3.325900000095359,3.342500000000001,3.362099999904629,3.3759000000953563,3.3925999999046326,3.4093000001907257,3.4259000000953677,3.4425999999046297,3.4609999999999985,3.475900000095365,3.492599999904627,3.5092000002861,3.525900000095362,3.542599999904624,3.562099999904632,3.577300000190732,3.592500000000001,3.6093000001907285,3.6259000000953563,3.6425999999046326,3.6622000002860915,3.676000000000002,3.6940999999046227,3.7120999999046234,3.7275999999046263,3.7428000001907265,3.7594000000953685,3.7759999999999962,3.7927000002861035,3.8109000000953586,3.825900000095359,3.8425999999046354,3.8612000002861038,3.8759000000953563,3.892700000286098,3.9093000001907257,3.926000000000002,3.9433000001907317,3.9624999999999915,3.9777000002860916,3.993300000190729,4.0092000002861,4.026200000286096,4.042599999904624,4.062400000095366,4.076700000286095,4.092599999904635,4.109200000286094,4.128,4.142599999904633,4.163099999904631,4.180499999999995,4.19259999990463,4.209300000190737,4.225900000095365,4.242599999904627,4.2594000000953685,4.275900000095362,4.292599999904624,4.309300000190731,4.325999999999993,4.342599999904635,4.3593000001907285,4.375900000095356,4.392599999904633,4.409200000286091,4.4277000002860945,4.442800000190729,4.4624999999999915,4.478599999904631,4.496400000095363,4.5092000002861,4.525800000190728,4.5427000002861035,4.5627000002861,4.575800000190725,4.595500000000001,4.609200000286094,4.625900000095356,4.642700000286098,4.659499999999994,4.675900000095368,4.69259999990463,4.709200000286103,4.725900000095365,4.742599999904627,4.759300000190734,4.778499999999994,4.792900000095358,4.809200000286097,4.826099999904628,4.842599999904635,4.862200000286094,4.875900000095356,4.893900000095357,4.909300000190726,4.925900000095368,4.9424999999999955,4.962099999904623,4.975999999999999,4.992599999904627,5.009300000190734,5.025900000095362,5.04249999999999,5.061900000095363,5.075900000095359,5.092500000000001,5.109200000286094,5.125900000095356,5.142599999904633,5.162300000190726,5.175900000095368,5.1924999999999955,5.209700000286105,5.225900000095365,5.242599999904627,5.262099999904635,5.275999999999996,5.2927000002861035,5.311700000286095,5.3264000000953615,5.342900000095369,5.363400000095368,5.379099999904625,5.3932000002861,5.409200000286091,5.425900000095368,5.442900000095364,5.463099999904628,5.479300000190733,5.494500000000002,5.5094000000953685,5.528200000286091,5.545099999904622,5.56