inst1_resp.keys,inst1_resp.rt,calibrationMouse.x,calibrationMouse.y,calibrationMouse.leftButton,calibrationMouse.midButton,calibrationMouse.rightButton,calibrationClick.x,calibrationClick.y,calibrationClick.leftButton,calibrationClick.midButton,calibrationClick.rightButton,trialsc.thisRepN,trialsc.thisTrialN,trialsc.thisN,trialsc.thisIndex,trialsc.ran,calibration_x,calibration_y,participant,session,date,expName,psychopyVersion,OS,frameRate,calibrationClick.clicked_name,ScreenRes_pixels,mouse_2.x,mouse_2.y,mouse_2.leftButton,mouse_2.midButton,mouse_2.rightButton,mouse_2.time,mouse_2.clicked_name,Camera_pixels,mouse.x,mouse.y,mouse.leftButton,mouse.midButton,mouse.rightButton,mouse.time,mouse.clicked_name,Choice,Trial,TrialDuration,MOUSE_GAZE,ET_GAZE,ET_GAZE_x_T,time,unixTime,ET_GAZE_NF,Loc_Bus_label,Loc_Metro_label,Loc_RH_label,Loc_Cost_label,Loc_Travel_label,Loc_Comfort_label,Loc_Bus_cost,Loc_Metro_cost,Loc_RH_cost,Loc_Bus_travel,Loc_Metro_travel,Loc_RH_travel,Loc_Bus_comfort,Loc_Metro_comfort,Loc_RH_comfort,trials.thisRepN,trials.thisTrialN,trials.thisN,trials.thisIndex,trials.ran,Block,Device,RH_cost,RH_travel_time,RH_Comfort,metro_cost,metro_travel_time,metro_Comfort,Bus_cost,Bus_travel_time,Bus_Comfort
space,1.612,-0.172916667,0.661111111,1,0,0,0.083333333,-0.103703704,0,0,0,0,0,0,15,1,0.33,-0.33,46,001,2024-11-26_10h23.05.441,Attention_exp_legacy,2023.1.0,Win32,59.88023952,,,,,,,,,,,,,,,,,,,,,,,,,,,,,,,,,,,,,,,,,,,,,,,,,,,,,,,,,
,,,,,,,0.675,0.674074074,1,0,0,0,1,1,19,1,0.67,0.67,46,001,2024-11-26_10h23.05.441,Attention_exp_legacy,2023.1.0,Win32,59.88023952,calibration_square,,,,,,,,,,,,,,,,,,,,,,,,,,,,,,,,,,,,,,,,,,,,,,,,,,,,,,,,
,,,,,,,0.326041667,0.674074074,1,0,0,0,2,2,18,1,0.33,0.67,46,001,2024-11-26_10h23.05.441,Attention_exp_legacy,2023.1.0,Win32,59.88023952,calibration_square,,,,,,,,,,,,,,,,,,,,,,,,,,,,,,,,,,,,,,,,,,,,,,,,,,,,,,,,
,,,,,,,0.329166667,-0.657407407,1,0,0,0,3,3,14,1,0.33,-0.67,46,001,2024-11-26_10h23.05.441,Attention_exp_legacy,2023.1.0,Win32,59.88023952,,,,,,,,,,,,,,,,,,,,,,,,,,,,,,,,,,,,,,,,,,,,,,,,,,,,,,,,,
,,,,,,,-0.670833333,-0.335185185,1,0,0,0,4,4,1,1,-0.67,-0.33,46,001,2024-11-26_10h23.05.441,Attention_exp_legacy,2023.1.0,Win32,59.88023952,calibration_square,,,,,,,,,,,,,,,,,,,,,,,,,,,,,,,,,,,,,,,,,,,,,,,,,,,,,,,,
,,,,,,,0.001041667,0.677777778,1,0,0,0,5,5,13,1,0,0.67,46,001,2024-11-26_10h23.05.441,Attention_exp_legacy,2023.1.0,Win32,59.88023952,calibration_square,,,,,,,,,,,,,,,,,,,,,,,,,,,,,,,,,,,,,,,,,,,,,,,,,,,,,,,,
,,,,,,,-0.342708333,-0.005555556,1,0,0,0,6,6,6,1,-0.33,0,46,001,2024-11-26_10h23.05.441,Attention_exp_legacy,2023.1.0,Win32,59.88023952,,,,,,,,,,,,,,,,,,,,,,,,,,,,,,,,,,,,,,,,,,,,,,,,,,,,,,,,,
,,,,,,,0,-0.661111111,1,0,0,0,7,7,9,1,0,-0.67,46,001,2024-11-26_10h23.05.441,Attention_exp_legacy,2023.1.0,Win32,59.88023952,calibration_square,,,,,,,,,,,,,,,,,,,,,,,,,,,,,,,,,,,,,,,,,,,,,,,,,,,,,,,,
,,,,,,,-0.004166667,-0.327777778,1,0,0,0,8,8,10,1,0,-0.33,46,001,2024-11-26_10h23.05.441,Attention_exp_legacy,2023.1.0,Win32,59.88023952,calibration_square,,,,,,,,,,,,,,,,,,,,,,,,,,,,,,,,,,,,,,,,,,,,,,,,,,,,,,,,
,,,,,,,0.672916667,-0.668518519,1,0,0,0,9,9,20,1,0.67,-0.67,46,001,2024-11-26_10h23.05.441,Attention_exp_legacy,2023.1.0,Win32,59.88023952,calibration_square,,,,,,,,,,,,,,,,,,,,,,,,,,,,,,,,,,,,,,,,,,,,,,,,,,,,,,,,
,,,,,,,-0.664583333,-0.003703704,1,0,0,0,10,10,2,1,-0.67,0,46,001,2024-11-26_10h23.05.441,Attention_exp_legacy,2023.1.0,Win32,59.88023952,calibration_square,,,,,,,,,,,,,,,,,,,,,,,,,,,,,,,,,,,,,,,,,,,,,,,,,,,,,,,,
,,,,,,,-0.332291667,-0.668518519,1,0,0,0,11,11,4,1,-0.33,-0.67,46,001,2024-11-26_10h23.05.441,Attention_exp_legacy,2023.1.0,Win32,59.88023952,calibration_square,,,,,,,,,,,,,,,,,,,,,,,,,,,,,,,,,,,,,,,,,,,,,,,,,,,,,,,,
,,,,,,,0.315625,0.344444444,1,0,0,0,12,12,17,1,0.33,0.33,46,001,2024-11-26_10h23.05.441,Attention_exp_legacy,2023.1.0,Win32,59.88023952,,,,,,,,,,,,,,,,,,,,,,,,,,,,,,,,,,,,,,,,,,,,,,,,,,,,,,,,,
,,,,,,,0.333333333,-0.003703704,1,0,0,0,13,13,16,1,0.33,0,46,001,2024-11-26_10h23.05.441,Attention_exp_legacy,2023.1.0,Win32,59.88023952,calibration_square,,,,,,,,,,,,,,,,,,,,,,,,,,,,,,,,,,,,,,,,,,,,,,,,,,,,,,,,
,,,,,,,-0.665625,-0.666666667,1,0,0,0,14,14,0,1,-0.67,-0.67,46,001,2024-11-26_10h23.05.441,Attention_exp_legacy,2023.1.0,Win32,59.88023952,calibration_square,,,,,,,,,,,,,,,,,,,,,,,,,,,,,,,,,,,,,,,,,,,,,,,,,,,,,,,,
,,,,,,,-0.001041667,0.32037037,1,0,0,0,15,15,12,1,0,0.33,46,001,2024-11-26_10h23.05.441,Attention_exp_legacy,2023.1.0,Win32,59.88023952,calibration_square,,,,,,,,,,,,,,,,,,,,,,,,,,,,,,,,,,,,,,,,,,,,,,,,,,,,,,,,
,,,,,,,-0.340625,0.337037037,1,0,0,0,16,16,7,1,-0.33,0.33,46,001,2024-11-26_10h23.05.441,Attention_exp_legacy,2023.1.0,Win32,59.88023952,,,,,,,,,,,,,,,,,,,,,,,,,,,,,,,,,,,,,,,,,,,,,,,,,,,,,,,,,
,,,,,,,-0.675,0.344444444,1,0,0,0,17,17,3,1,-0.67,0.33,46,001,2024-11-26_10h23.05.441,Attention_exp_legacy,2023.1.0,Win32,59.88023952,,,,,,,,,,,,,,,,,,,,,,,,,,,,,,,,,,,,,,,,,,,,,,,,,,,,,,,,,
,,,,,,,-0.0125,0.001851852,1,0,0,0,18,18,11,1,0,0,46,001,2024-11-26_10h23.05.441,Attention_exp_legacy,2023.1.0,Win32,59.88023952,,,,,,,,,,,,,,,,,,,,,,,,,,,,,,,,,,,,,,,,,,,,,,,,,,,,,,,,,
,,,,,,,-0.3375,0.662962963,1,0,0,0,19,19,8,1,-0.33,0.67,46,001,2024-11-26_10h23.05.441,Attention_exp_legacy,2023.1.0,Win32,59.88023952,calibration_square,,,,,,,,,,,,,,,,,,,,,,,,,,,,,,,,,,,,,,,,,,,,,,,,,,,,,,,,
,,,,,,,-0.335416667,-0.322222222,1,0,0,0,20,20,5,1,-0.33,-0.33,46,001,2024-11-26_10h23.05.441,Attention_exp_legacy,2023.1.0,Win32,59.88023952,calibration_square,,,,,,,,,,,,,,,,,,,,,,,,,,,,,,,,,,,,,,,,,,,,,,,,,,,,,,,,
,,,,,,,,,,,,,,,,,,,46,001,2024-11-26_10h23.05.441,Attention_exp_legacy,2023.1.0,Win32,59.88023952,,"[1920,1080]",[-0.059375],[-0.4703703703703704],[1],[0],[0],[0.9635000000000034],"[""StartButton""]","[640,480]",[0.371875],[0.3574074074074074],[1],[0],[0],[4.225899999998511],"[""RH_label""]",RH_label,1,5.2565,"[[-0.19479166666666667,0.15],[-0.19479166666666667,0.15],[-0.19479166666666667,0.15],[-0.19479166666666667,0.15],[-0.19479166666666667,0.15],[-0.19479166666666667,0.15],[-0.19479166666666667,0.15],[-0.19479166666666667,0.15],[-0.19479166666666667,0.15],[-0.19479166666666667,0.15],[-0.19479166666666667,0.15],[-0.19479166666666667,0.15],[-0.19479166666666667,0.15],[-0.19479166666666667,0.15],[-0.19479166666666667,0.15],[-0.19479166666666667,0.15],[-0.19479166666666667,0.15],[-0.19479166666666667,0.15],[-0.19479166666666667,0.15],[-0.19479166666666667,0.15],[-0.19479166666666667,0.15],[-0.19479166666666667,0.15],[-0.19479166666666667,0.15],[-0.19479166666666667,0.15],[-0.19479166666666667,0.15],[-0.19479166666666667,0.15],[-0.19479166666666667,0.15],[-0.19479166666666667,0.15],[-0.19479166666666667,0.15],[-0.19479166666666667,0.15],[-0.19479166666666667,0.15],[-0.19479166666666667,0.15],[-0.19479166666666667,0.15],[-0.19479166666666667,0.15],[-0.19479166666666667,0.15],[-0.19479166666666667,0.15],[-0.19479166666666667,0.15],[-0.19479166666666667,0.15],[-0.19479166666666667,0.15],[-0.19479166666666667,0.15],[-0.19479166666666667,0.15],[-0.19479166666666667,0.15],[-0.19479166666666667,0.15],[-0.19479166666666667,0.15],[-0.19479166666666667,0.15],[-0.19479166666666667,0.15],[-0.19479166666666667,0.15],[-0.19479166666666667,0.15],[-0.19479166666666667,0.15],[-0.19479166666666667,0.15],[-0.19479166666666667,0.15],[-0.19479166666666667,0.15],[-0.19479166666666667,0.15],[-0.19479166666666667,0.15],[-0.19479166666666667,0.15],[-0.19479166666666667,0.15],[-0.19479166666666667,0.15],[-0.19479166666666667,0.15],[-0.19479166666666667,0.15],[-0.19479166666666667,0.15],[-0.19479166666666667,0.15],[-0.19479166666666667,0.15],[-0.19479166666666667,0.15],[-0.19479166666666667,0.15],[-0.19479166666666667,0.15],[-0.19479166666666667,0.15],[-0.19479166666666667,0.15],[-0.19479166666666667,0.15],[-0.19479166666666667,0.15],[-0.19479166666666667,0.15],[-0.19479166666666667,0.15],[-0.19479166666666667,0.15],[-0.19479166666666667,0.15],[-0.19479166666666667,0.15],[-0.19479166666666667,0.15],[-0.19479166666666667,0.15],[-0.19479166666666667,0.15],[-0.19479166666666667,0.15],[-0.19479166666666667,0.15],[-0.19479166666666667,0.15],[-0.19479166666666667,0.15],[-0.19479166666666667,0.15],[-0.19479166666666667,0.15],[-0.19479166666666667,0.15],[-0.19479166666666667,0.15],[-0.19479166666666667,0.15],[-0.19479166666666667,0.15],[-0.19479166666666667,0.15],[-0.19479166666666667,0.15],[-0.19479166666666667,0.15],[-0.19479166666666667,0.15],[-0.19479166666666667,0.15],[-0.19479166666666667,0.15],[-0.19479166666666667,0.15],[-0.19479166666666667,0.15],[-0.19479166666666667,0.15],[-0.19479166666666667,0.15],[-0.19479166666666667,0.15],[-0.19479166666666667,0.15],[-0.19479166666666667,0.15],[-0.19479166666666667,0.15],[-0.19479166666666667,0.15],[-0.19479166666666667,0.15],[-0.19479166666666667,0.15],[-0.19479166666666667,0.15],[-0.19479166666666667,0.15],[-0.19479166666666667,0.15],[-0.19479166666666667,0.15],[-0.19479166666666667,0.15],[-0.19479166666666667,0.15],[-0.19479166666666667,0.15],[-0.19479166666666667,0.15],[-0.19479166666666667,0.15],[-0.19479166666666667,0.15],[-0.19479166666666667,0.15],[-0.19479166666666667,0.15],[-0.19479166666666667,0.15],[-0.19479166666666667,0.15],[-0.19479166666666667,0.15],[-0.19479166666666667,0.15],[-0.19479166666666667,0.15],[-0.19479166666666667,0.15],[-0.19479166666666667,0.15],[-0.19479166666666667,0.15],[-0.19479166666666667,0.15],[-0.19479166666666667,0.15],[-0.19479166666666667,0.15],[-0.19479166666666667,0.15],[-0.19479166666666667,0.15],[-0.19479166666666667,0.15],[-0.19479166666666667,0.15],[-0.19479166666666667,0.15],[-0.19479166666666667,0.15],[-0.19479166666666667,0.15],[-0.19479166666666667,0.15],[-0.19479166666666667,0.15],[-0.19479166666666667,0.15],[-0.19479166666666667,0.15],[-0.19479166666666667,0.15],[-0.19479166666666667,0.15],[-0.19479166666666667,0.15],[-0.19479166666666667,0.15],[-0.19479166666666667,0.15],[-0.19479166666666667,0.15],[-0.19479166666666667,0.15],[-0.19479166666666667,0.15],[-0.19479166666666667,0.15],[-0.19479166666666667,0.15],[-0.19479166666666667,0.15],[-0.19479166666666667,0.15],[-0.19479166666666667,0.15],[-0.19479166666666667,0.15],[-0.19479166666666667,0.15],[-0.19479166666666667,0.15],[-0.19479166666666667,0.15],[-0.19479166666666667,0.15],[-0.19479166666666667,0.15],[-0.19479166666666667,0.15],[-0.19479166666666667,0.15],[-0.19479166666666667,0.15],[-0.19479166666666667,0.15],[-0.19479166666666667,0.15],[-0.19479166666666667,0.15],[-0.19479166666666667,0.15],[-0.19479166666666667,0.15],[-0.19479166666666667,0.15],[-0.19479166666666667,0.15],[-0.19479166666666667,0.15],[-0.19479166666666667,0.15],[-0.19479166666666667,0.15],[-0.19479166666666667,0.15],[-0.19479166666666667,0.15],[-0.19479166666666667,0.15],[-0.19479166666666667,0.15],[-0.19479166666666667,0.15],[-0.19479166666666667,0.15],[-0.19479166666666667,0.15],[-0.19479166666666667,0.15],[-0.19479166666666667,0.15],[-0.19479166666666667,0.15],[-0.19479166666666667,0.15],[-0.19479166666666667,0.15],[-0.19479166666666667,0.15],[-0.19479166666666667,0.15],[-0.19479166666666667,0.15],[-0.19479166666666667,0.15],[-0.19479166666666667,0.15],[-0.19479166666666667,0.15],[-0.19479166666666667,0.15],[-0.19479166666666667,0.15],[-0.19479166666666667,0.15],[-0.19479166666666667,0.15],[-0.19479166666666667,0.15],[-0.19479166666666667,0.15],[-0.19479166666666667,0.15],[-0.19479166666666667,0.15],[-0.19479166666666667,0.15],[-0.19479166666666667,0.15],[-0.19479166666666667,0.15],[-0.19479166666666667,0.15],[-0.196875,0.15],[-0.196875,0.15],[-0.196875,0.15],[-0.19791666666666666,0.15],[-0.19791666666666666,0.15],[-0.19895833333333332,0.15],[-0.20104166666666667,0.15],[-0.20208333333333334,0.15],[-0.203125,0.15],[-0.20520833333333333,0.15],[-0.20729166666666668,0.15],[-0.21041666666666667,0.15],[-0.21458333333333332,0.15],[-0.21770833333333334,0.15],[-0.221875,0.15],[-0.22395833333333334,0.15],[-0.228125,0.15185185185185185],[-0.22916666666666666,0.15185185185185185],[-0.23020833333333332,0.1537037037037037],[-0.23020833333333332,0.1574074074074074],[-0.22604166666666667,0.1648148148148148],[-0.20520833333333333,0.1814814814814815],[-0.15520833333333334,0.2],[-0.03333333333333333,0.22592592592592592],[0.040625,0.24814814814814815],[0.11145833333333334,0.26481481481481484],[0.16458333333333333,0.2722222222222222],[0.215625,0.2722222222222222],[0.253125,0.2722222222222222],[0.278125,0.2722222222222222],[0.29583333333333334,0.2722222222222222],[0.3020833333333333,0.2722222222222222],[0.30520833333333336,0.2722222222222222],[0.30625,0.2722222222222222],[0.30625,0.2722222222222222],[0.30625,0.2722222222222222],[0.30625,0.2722222222222222],[0.30833333333333335,0.2759259259259259],[0.309375,0.2777777777777778],[0.31875,0.29074074074074074],[0.3333333333333333,0.30925925925925923],[0.34791666666666665,0.3296296296296296],[0.36041666666666666,0.34444444444444444],[0.36875,0.35185185185185186],[0.371875,0.3574074074074074],[0.371875,0.3574074074074074],[0.371875,0.3574074074074074],[0.371875,0.3574074074074074],[0.371875,0.3574074074074074],[0.371875,0.3574074074074074],[0.371875,0.3574074074074074],[0.371875,0.3574074074074074],[0.371875,0.3574074074074074],[0.371875,0.3574074074074074],[0.371875,0.3574074074074074],[0.371875,0.3574074074074074],[0.371875,0.3574074074074074],[0.371875,0.3574074074074074],[0.371875,0.3574074074074074],[0.371875,0.3574074074074074],[0.371875,0.3574074074074074],[0.371875,0.3574074074074074],[0.371875,0.3574074074074074],[0.371875,0.3574074074074074],[0.371875,0.3574074074074074],[0.371875,0.3574074074074074],[0.371875,0.3574074074074074],[0.371875,0.3574074074074074],[0.371875,0.3574074074074074],[0.371875,0.3574074074074074],[0.371875,0.3574074074074074],[0.371875,0.3574074074074074],[0.371875,0.3574074074074074],[0.371875,0.3574074074074074],[0.371875,0.3574074074074074],[0.371875,0.3574074074074074],[0.371875,0.3574074074074074],[0.371875,0.3574074074074074],[0.371875,0.3574074074074074],[0.371875,0.3574074074074074],[0.371875,0.3574074074074074],[0.371875,0.3574074074074074],[0.371875,0.3574074074074074],[0.371875,0.3574074074074074],[0.371875,0.3574074074074074],[0.371875,0.3574074074074074],[0.371875,0.3574074074074074],[0.371875,0.3574074074074074],[0.37083333333333335,0.3574074074074074],[0.37083333333333335,0.3574074074074074],[0.3697916666666667,0.3574074074074074],[0.3697916666666667,0.3574074074074074],[0.3697916666666667,0.3574074074074074],[0.3697916666666667,0.3574074074074074],[0.3697916666666667,0.3574074074074074],[0.3697916666666667,0.3574074074074074],[0.3697916666666667,0.3574074074074074],[0.3697916666666667,0.3574074074074074],[0.36875,0.3574074074074074],[0.36770833333333336,0.3574074074074074],[0.36770833333333336,0.3574074074074074],[0.36770833333333336,0.3574074074074074],[0.36770833333333336,0.3574074074074074],[0.36666666666666664,0.3574074074074074],[0.36666666666666664,0.3574074074074074],[0.36666666666666664,0.3574074074074074],[0.365625,0.3592592592592593],[0.365625,0.3592592592592593],[0.365625,0.3592592592592593],[0.365625,0.3592592592592593],[0.365625,0.3592592592592593],[0.365625,0.3592592592592593],[0.365625,0.3592592592592593],[0.365625,0.3592592592592593]]","[[0.21427083333333338,-0.3785185185185185],[0.21427083333333338,-0.3785185185185185],[0.22927083333333323,-0.34870370370370374],[0.22843749999999996,-0.32333333333333336],[0.22760416666666666,-0.29796296296296293],[0.2243750000000001,-0.2638888888888889],[0.23125,-0.2192592592592592],[0.23947916666666677,-0.2146296296296296],[0.2540625000000001,-0.21962962962962967],[0.24187500000000003,-0.19907407407407407],[0.25593750000000004,-0.21703703703703703],[0.2759375000000001,-0.24462962962962967],[0.2726041666666667,-0.2512962962962963],[0.2833333333333333,-0.2668518518518519],[0.29406249999999995,-0.2824074074074074],[0.30020833333333335,-0.3116666666666667],[0.3063541666666666,-0.34092592592592597],[0.3007291666666667,-0.31925925925925924],[0.29927083333333326,-0.2890740740740741],[0.30145833333333344,-0.2492592592592593],[0.28916666666666657,-0.1766666666666666],[0.29104166666666675,-0.14462962962962966],[0.2861458333333334,-0.13759259259259263],[0.28760416666666655,-0.1374074074074074],[0.2890625,-0.13722222222222227],[0.2890625,-0.13722222222222227],[0.28177083333333336,-0.13259259259259262],[0.26979166666666665,-0.10111111111111115],[0.26458333333333334,-0.10129629629629627],[0.25104166666666666,-0.10537037037037032],[0.2569791666666667,-0.1411111111111111],[0.25114583333333323,-0.17111111111111107],[0.2381249999999999,-0.18185185185185182],[0.22510416666666658,-0.1925925925925926],[0.2037499999999999,-0.20092592592592592],[0.18697916666666667,-0.21703703703703703],[0.18697916666666667,-0.21703703703703703],[0.17552083333333332,-0.22962962962962963],[0.17760416666666667,-0.25],[0.1703125,-0.2566666666666667],[0.17135416666666667,-0.2594444444444445],[0.16708333333333342,-0.23851851851851855],[0.16281249999999994,-0.2175925925925926],[0.15968749999999995,-0.1935185185185185],[0.15656249999999997,-0.16944444444444445],[0.1694791666666667,-0.1690740740740741],[0.17781250000000004,-0.1609259259259259],[0.1834374999999999,-0.09722222222222222],[0.19645833333333323,-0.0544444444444444],[0.2196875000000001,0.010925925925925884],[0.23156249999999995,0.11666666666666667],[0.24270833333333333,0.23962962962962958],[0.2727083333333333,0.3588888888888888],[0.2775000000000001,0.515],[0.28229166666666666,0.6711111111111111],[0.2869791666666667,0.8533333333333333],[0.33177083333333335,0.9716666666666668],[0.33177083333333335,0.9716666666666668],[0.33875000000000005,1.061851851851852],[0.35218749999999993,1.1353703703703701],[0.36479166666666674,1.1725925925925926],[0.36479166666666674,1.1725925925925926],[0.37562499999999993,1.1225925925925926],[0.3921875,1.0122222222222221],[0.3921875,1.0122222222222221],[0.3898958333333333,0.9055555555555556],[0.3958333333333333,0.7859259259259259],[0.39208333333333345,0.6738888888888889],[0.3896874999999999,0.5601851851851852],[0.35625,0.5103703703703704],[0.35604166666666665,0.4388888888888889],[0.32687499999999997,0.3853703703703704],[0.2977083333333333,0.33185185185185195],[0.2849999999999999,0.34333333333333327],[0.2752083333333334,0.37888888888888894],[0.27395833333333336,0.38722222222222225],[0.27395833333333336,0.38722222222222225],[0.28156249999999994,0.38981481481481484],[0.2991666666666667,0.3316666666666667],[0.3315624999999999,0.25999999999999995],[0.3623958333333334,0.19666666666666674],[0.3623958333333334,0.19666666666666674],[0.3932291666666667,0.13333333333333333],[0.4256249999999999,0.07814814814814823],[0.4327083333333334,0.022222222222222223],[0.4327083333333334,0.022222222222222223],[0.43385416666666665,-0.04018518518518527],[0.43552083333333325,-0.10425925925925927],[0.43552083333333325,-0.10425925925925927],[0.42864583333333334,-0.1411111111111111],[0.42937500000000006,-0.17185185185185187],[0.4348958333333333,-0.1581481481481481],[0.4176041666666668,-0.14018518518518516],[0.39302083333333326,-0.1272222222222222],[0.36843750000000003,-0.11425925925925924],[0.34489583333333323,-0.11166666666666669],[0.34489583333333323,-0.11166666666666669],[0.3466666666666666,-0.10833333333333334],[0.3454166666666666,-0.10981481481481484],[0.35520833333333335,-0.1257407407407407],[0.3650000000000001,-0.14166666666666666],[0.3650000000000001,-0.14166666666666666],[0.36708333333333343,-0.1557407407407408],[0.3640625,-0.16111111111111112],[0.3648958333333333,-0.15333333333333335],[0.3655208333333334,-0.14888888888888885],[0.3633333333333333,-0.14666666666666664],[0.36656250000000007,-0.14222222222222225],[0.37395833333333334,-0.13518518518518519],[0.3859375,-0.147037037037037],[0.3837500000000001,-0.14740740740740746],[0.3837500000000001,-0.14740740740740746],[0.3862499999999999,-0.14611111111111108],[0.37260416666666674,-0.15685185185185183],[0.3655208333333334,-0.1638888888888889],[0.35395833333333326,-0.19185185185185188],[0.3459374999999999,-0.20999999999999996],[0.33010416666666675,-0.23537037037037042],[0.33010416666666675,-0.23537037037037042],[0.3125,-0.2601851851851852],[0.2991666666666667,-0.27240740740740743],[0.2991666666666667,-0.27240740740740743],[0.28072916666666664,-0.2640740740740741],[0.26322916666666674,-0.24222222222222226],[0.26322916666666674,-0.24222222222222226],[0.246875,-0.25203703703703706],[0.246875,-0.25203703703703706],[0.23697916666666666,-0.21777777777777782],[0.21833333333333324,-0.16574074074074074],[0.20833333333333334,-0.09666666666666665],[0.19791666666666666,-0.03314814814814811],[0.19791666666666666,-0.03314814814814811],[0.19812500000000005,0.03981481481481482],[0.2015625,0.09166666666666666],[0.19656250000000006,0.12833333333333324],[0.18562500000000004,0.15537037037037033],[0.18562500000000004,0.15537037037037033],[0.17374999999999996,0.16888888888888898],[0.14489583333333325,0.21814814814814806],[0.11854166666666661,0.21592592592592597],[0.1125,0.1814814814814815],[0.1125,0.1814814814814815],[0.10031249999999996,0.1479629629629629],[0.08156249999999995,0.11407407407407412],[0.06281249999999995,0.0801851851851851],[0.034895833333333334,0.06222222222222226],[-0.005729166666666666,0.06074074074074066],[-0.007500000000000047,0.060370370370370414],[-0.00927083333333331,0.059999999999999956],[-0.01572916666666669,0.06537037037037029],[-0.014895833333333285,0.08222222222222218],[-0.014895833333333285,0.08222222222222218],[-0.03218749999999997,0.10981481481481473],[-0.03895833333333331,0.08611111111111111],[-0.04874999999999995,0.05462962962962963],[-0.06906249999999996,0.03777777777777774],[-0.08343750000000003,0.026111111111111154],[-0.08062499999999997,0.00592592592592601],[-0.1045833333333333,-0.014259259259259343],[-0.12749999999999997,-0.026851851851851852],[-0.1345833333333334,-0.05092592592592592],[-0.1345833333333334,-0.05092592592592592],[-0.14739583333333334,-0.07481481481481478],[-0.1632291666666667,-0.10481481481481486],[-0.1632291666666667,-0.10481481481481486],[-0.18343750000000003,-0.08444444444444449],[-0.18947916666666664,-0.05537037037037033],[-0.1889583333333333,-0.04592592592592584],[-0.18843749999999998,-0.036481481481481566],[-0.19520833333333332,-0.03314814814814811],[-0.19864583333333338,-0.02111111111111107],[-0.19802083333333337,-0.04722222222222222],[-0.19739583333333333,-0.07333333333333338],[-0.20270833333333335,-0.0955555555555556],[-0.19958333333333336,-0.10592592592592591],[-0.20187499999999994,-0.122037037037037],[-0.18697916666666667,-0.12074074074074072],[-0.16739583333333338,-0.12000000000000002],[-0.16739583333333338,-0.12000000000000002],[-0.14291666666666672,-0.12962962962962962],[-0.11989583333333335,-0.1307407407407408],[-0.11989583333333335,-0.1307407407407408],[-0.10020833333333339,-0.14055555555555552],[-0.10864583333333329,-0.14370370370370375],[-0.09322916666666667,-0.1227777777777778],[-0.07937500000000004,-0.11592592592592597],[-0.04718749999999995,-0.09592592592592594],[-0.013020833333333334,-0.07481481481481478],[-0.0067708333333333336,-0.06518518518518517],[-0.005520833333333286,-0.062407407407407384],[0.003854166666666714,-0.05259259259259255],[0.02041666666666669,-0.09055555555555551],[0.033958333333333354,-0.10481481481481486],[0.08041666666666672,-0.06777777777777783],[0.09375,-0.08407407407407404],[0.13854166666666667,-0.0940740740740741],[0.13854166666666667,-0.0940740740740741],[0.14343750000000005,-0.11500000000000005],[0.15333333333333338,-0.1235185185185185],[0.16802083333333329,-0.12759259259259256],[0.19104166666666675,-0.12907407407407406],[0.1765625,-0.14611111111111108],[0.15666666666666676,-0.127962962962963],[0.146875,-0.14351851851851852],[0.15583333333333324,-0.09759259259259258],[0.15583333333333324,-0.09759259259259258],[0.09812500000000005,-0.05481481481481486],[0.04229166666666669,-0.022222222222222223],[0.0026041666666666665,0.002407407407407323],[0.0026041666666666665,0.002407407407407323],[-0.007291666666666667,0.04148148148148144],[-0.03760416666666669,0.08351851851851856],[-0.10239583333333328,0.062407407407407495],[-0.12145833333333336,0.09129629629629621],[-0.13802083333333334,0.12240740740740745],[-0.1592708333333333,0.14611111111111108],[-0.2140625,0.07703703703703708],[-0.19281250000000003,0.03592592592592588],[-0.19166666666666668,0.008703703703703788],[-0.16364583333333335,-0.0016666666666666245],[-0.16197916666666667,-0.028518518518518478],[-0.16197916666666667,-0.028518518518518478],[-0.16989583333333336,-0.09759259259259258],[-0.13312499999999997,-0.05944444444444449],[-0.1388541666666666,-0.10277777777777777],[-0.1388541666666666,-0.10277777777777777],[-0.09833333333333331,-0.11537037037037039],[-0.06020833333333329,-0.11055555555555553],[-0.03104166666666662,-0.0883333333333333],[-0.005104166666666643,-0.11370370370370367],[0.00010416666666669035,-0.14148148148148143],[-0.00614583333333331,-0.18425925925925926],[-0.01739583333333338,-0.23277777777777775],[0.04593750000000003,-0.22555555555555556],[0.06156250000000003,-0.26240740740740737],[0.10864583333333329,-0.2551851851851852],[0.10864583333333329,-0.2551851851851852],[0.10958333333333338,-0.27148148148148155],[0.10958333333333338,-0.27148148148148155],[0.10499999999999995,-0.31851851851851853],[0.1397916666666667,-0.3442592592592592],[0.16479166666666673,-0.3235185185185185],[0.2165625000000001,-0.30925925925925923],[0.24177083333333324,-0.3101851851851852],[0.2573958333333332,-0.3127777777777777],[0.24208333333333343,-0.32462962962962966],[0.26322916666666674,-0.3290740740740741],[0.26624999999999993,-0.33555555555555555],[0.27666666666666656,-0.3492592592592593],[0.2964583333333332,-0.3466666666666666],[0.28718750000000004,-0.37648148148148153],[0.2734375,-0.39888888888888885],[0.2693749999999999,-0.372037037037037],[0.26833333333333326,-0.37092592592592594],[0.27020833333333344,-0.3557407407407408],[0.2608333333333334,-0.365925925925926],[0.2608333333333334,-0.365925925925926],[0.2673958333333334,-0.3801851851851852],[0.26416666666666655,-0.3514814814814815],[0.25104166666666666,-0.33537037037037043],[0.2359375,-0.2911111111111111],[0.22458333333333325,-0.26722222222222225],[0.22947916666666662,-0.23925925925925923],[0.2328125,-0.257962962962963],[0.24510416666666662,-0.2366666666666667],[0.24510416666666662,-0.2366666666666667],[0.26624999999999993,-0.22870370370370371],[0.2700000000000001,-0.21629629629629632],[0.2601041666666667,-0.19648148148148153],[0.28885416666666663,-0.20388888888888893],[0.30979166666666674,-0.20685185185185184],[0.3390625,-0.21537037037037038],[0.3485416666666666,-0.22407407407407406],[0.36770833333333336,-0.2403703703703704],[0.36437499999999995,-0.20833333333333334],[0.3577083333333334,-0.18074074074074079],[0.3589583333333332,-0.1581481481481481],[0.3642708333333334,-0.1366666666666667],[0.3729166666666667,-0.127962962962963],[0.3375,-0.13722222222222227],[0.32447916666666665,-0.13111111111111112],[0.32447916666666665,-0.13111111111111112],[0.27458333333333323,-0.13296296296296298],[0.23322916666666677,-0.09944444444444442],[0.1678124999999999,-0.07666666666666662],[0.13552083333333323,-0.1161111111111111],[0.10572916666666667,-0.15203703703703708],[0.050937499999999976,-0.21222222222222226],[0.005312500000000024,-0.2727777777777778],[0.005312500000000024,-0.2727777777777778],[-0.015208333333333357,-0.29000000000000004],[-0.017604166666666643,-0.3005555555555556],[-0.017604166666666643,-0.3005555555555556],[-0.03218749999999997,-0.3183333333333333],[-0.016875000000000046,-0.3244444444444444],[0.00947916666666669,-0.3477777777777778],[0.05260416666666667,-0.3544444444444444],[0.05260416666666667,-0.3544444444444444],[0.08239583333333324,-0.3562962962962963],[0.09302083333333329,-0.30648148148148147],[0.13177083333333334,-0.247037037037037],[0.13562500000000005,-0.15481481481481485],[0.12791666666666662,-0.11592592592592597],[0.12572916666666673,-0.07759259259259255],[0.12572916666666673,-0.07759259259259255],[0.14656250000000004,-0.08314814814814811],[0.15458333333333343,-0.07851851851851847],[0.12614583333333323,-0.06462962962962959],[0.1212500000000001,-0.028703703703703703],[0.1212500000000001,-0.028703703703703703],[0.1336458333333333,-0.01314814814814819],[0.1336458333333333,-0.01314814814814819],[0.15354166666666677,-0.029259259259259176],[0.15656249999999997,-0.04611111111111107]]","[[0.21427083333333338,-0.3785185185185185,0.00029999999701857405],[0.21427083333333338,-0.3785185185185185,0.05299999999999727],[0.22927083333333323,-0.34870370370370374,0.06929999999702119],[0.22843749999999996,-0.32333333333333336,0.08599999999999852],[0.22760416666666666,-0.29796296296296293,0.10489999999850852],[0.2243750000000001,-0.2638888888888889,0.11950000000000216],[0.23125,-0.2192592592592592,0.13700000000000045],[0.23947916666666677,-0.2146296296296296,0.15329999999701727],[0.2540625000000001,-0.21962962962962967,0.1692999999970226],[0.24187500000000003,-0.19907407407407407,0.1881999999955326],[0.25593750000000004,-0.21703703703703703,0.20410000000148898],[0.2759375000000001,-0.24462962962962967,0.21929999999701977],[0.2726041666666667,-0.2512962962962963,0.2359999999999971],[0.2833333333333333,-0.2668518518518519,0.25269999999552795],[0.29406249999999995,-0.2824074074074074,0.2716999999955263],[0.30020833333333335,-0.3116666666666667,0.285899999998513],[0.3063541666666666,-0.34092592592592597,0.30610000000149284],[0.3007291666666667,-0.31925925925925924,0.32150000000000034],[0.29927083333333326,-0.2890740740740741,0.34079999999701727],[0.30145833333333344,-0.2492592592592593,0.35529999999702255],[0.28916666666666657,-0.1766666666666666,0.36929999999701835],[0.29104166666666675,-0.14462962962962966,0.3860000000000028],[0.2861458333333334,-0.13759259259259263,0.4026999999955265],[0.28760416666666655,-0.1374074074074074,0.41939999999851096],[0.2890625,-0.13722222222222227,0.4398999999985094],[0.2890625,-0.13722222222222227,0.4526999999955308],[0.28177083333333336,-0.13259259259259262,0.4693999999985081],[0.26979166666666665,-0.10111111111111115,0.4859999999999971],[0.26458333333333334,-0.10129629629629627,0.502699999995528],[0.25104166666666666,-0.10537037037037032,0.5216000000014915],[0.2569791666666667,-0.1411111111111111,0.53779999999702],[0.25114583333333323,-0.17111111111111107,0.5541999999955323],[0.2381249999999999,-0.18185185185185182,0.5692999999970212],[0.22510416666666658,-0.1925925925925926,0.5859999999999985],[0.2037499999999999,-0.20092592592592592,0.6060000000000016],[0.18697916666666667,-0.21703703703703703,0.6192999999970183],[0.18697916666666667,-0.21703703703703703,0.6361000000014911],[0.17552083333333332,-0.22962962962962963,0.6526999999955265],[0.17760416666666667,-0.25,0.6692999999970226],[0.1703125,-0.2566666666666667,0.6883999999985093],[0.17135416666666667,-0.2594444444444445,0.7028999999985075],[0.16708333333333342,-0.23851851851851855,0.7192999999970198],[0.16281249999999994,-0.2175925925925926,0.7359999999999971],[0.15968749999999995,-0.1935185185185185,0.7565000000000026],[0.15656249999999997,-0.16944444444444445,0.7712999999970194],[0.1694791666666667,-0.1690740740740741,0.7860000000000014],[0.17781250000000004,-0.1609259259259259,0.8026000000014903],[0.1834374999999999,-0.09722222222222222,0.8192999999970212],[0.19645833333333323,-0.0544444444444444,0.8361000000014869],[0.2196875000000001,0.010925925925925884,0.8553999999985109],[0.23156249999999995,0.11666666666666667,0.8693999999985067],[0.24270833333333333,0.23962962962962958,0.8860000000000028],[0.2727083333333333,0.3588888888888888,0.9026000000014918],[0.2775000000000001,0.515,0.9192999999970226],[0.28229166666666666,0.6711111111111111,0.9396000000014908],[0.2869791666666667,0.8533333333333333,0.953000000000003],[0.33177083333333335,0.9716666666666668,0.9724999999999966],[0.33177083333333335,0.9716666666666668,0.9861999999955273],[0.33875000000000005,1.061851851851852,1.002699999995528],[0.35218749999999993,1.1353703703703701,1.022299999997017],[0.36479166666666674,1.1725925925925926,1.0368999999985107],[0.36479166666666674,1.1725925925925926,1.0526999999955322],[0.37562499999999993,1.1225925925925926,1.069499999999998],[0.3921875,1.0122222222222221,1.0859999999999985],[0.3921875,1.0122222222222221,1.1026999999955294],[0.3898958333333333,0.9055555555555556,1.1192999999970183],[0.3958333333333333,0.7859259259259259,1.1402999999970191],[0.39208333333333345,0.6738888888888889,1.1548999999985128],[0.3896874999999999,0.5601851851851852,1.1692999999970226],[0.35625,0.5103703703703704,1.188299999997021],[0.35604166666666665,0.4388888888888889,1.2026999999955308],[0.32687499999999997,0.3853703703703704,1.2193999999985081],[0.2977083333333333,0.33185185185185195,1.235999999999997],[0.2849999999999999,0.34333333333333327,1.256600000001491],[0.2752083333333334,0.37888888888888894,1.2725000000000009],[0.27395833333333336,0.38722222222222225,1.28629999999702],[0.27395833333333336,0.38722222222222225,1.3026000000014903],[0.28156249999999994,0.38981481481481484,1.3193999999985095],[0.2991666666666667,0.3316666666666667,1.3359999999999985],[0.3315624999999999,0.25999999999999995,1.3557999999970178],[0.3623958333333334,0.19666666666666674,1.3706000000014882],[0.3623958333333334,0.19666666666666674,1.3858999999985073],[0.3932291666666667,0.13333333333333333,1.4026999999955265],[0.4256249999999999,0.07814814814814823,1.4191999999955272],[0.4327083333333334,0.022222222222222223,1.439799999997021],[0.4327083333333334,0.022222222222222223,1.452600000001489],[0.43385416666666665,-0.04018518518518527,1.4692999999970198],[0.43552083333333325,-0.10425925925925927,1.4861000000014926],[0.43552083333333325,-0.10425925925925927,1.5026000000014932],[0.42864583333333334,-0.1411111111111111,1.519299999997017],[0.42937500000000006,-0.17185185185185187,1.5361999999955316],[0.4348958333333333,-0.1581481481481481,1.554000000000002],[0.4176041666666668,-0.14018518518518516,1.5692999999970212],[0.39302083333333326,-0.1272222222222222,1.5858999999985102],[0.36843750000000003,-0.11425925925925924,1.6052999999970226],[0.34489583333333323,-0.11166666666666669,1.6208999999985068],[0.34489583333333323,-0.11166666666666669,1.6360000000000028],[0.3466666666666666,-0.10833333333333334,1.652799999997022],[0.3454166666666666,-0.10981481481481484,1.6692999999970226],[0.35520833333333335,-0.1257407407407407,1.688299999997021],[0.3650000000000001,-0.14166666666666666,1.7031000000014913],[0.3650000000000001,-0.14166666666666666,1.7192999999970198],[0.36708333333333343,-0.1557407407407408,1.735999999999997],[0.3640625,-0.16111111111111112,1.7526000000014932],[0.3648958333333333,-0.15333333333333335,1.7725000000000009],[0.3655208333333334,-0.14888888888888885,1.7861000000014897],[0.3633333333333333,-0.14666666666666664,1.8026000000014903],[0.36656250000000007,-0.14222222222222225,1.8191999999955328],[0.37395833333333334,-0.13518518518518519,1.8399999999999963],[0.3859375,-0.147037037037037,1.8556000000014876],[0.3837500000000001,-0.14740740740740746,1.8710000000000022],[0.3837500000000001,-0.14740740740740746,1.8860000000000028],[0.3862499999999999,-0.14611111111111108,1.9026999999955265],[0.37260416666666674,-0.15685185185185183,1.9191999999955272],[0.3655208333333334,-0.1638888888888889,1.939799999997021],[0.35395833333333326,-0.19185185185185188,1.9561999999955262],[0.3459374999999999,-0.20999999999999996,1.971899999998513],[0.33010416666666675,-0.23537037037037042,1.990799999997023],[0.33010416666666675,-0.23537037037037042,2.002699999995528],[0.3125,-0.2601851851851852,2.0195000000000007],[0.2991666666666667,-0.27240740740740743,2.0360000000000014],[0.2991666666666667,-0.27240740740740743,2.0526000000014903],[0.28072916666666664,-0.2640740740740741,2.069299999997021],[0.26322916666666674,-0.24222222222222226,2.091399999998508],[0.26322916666666674,-0.24222222222222226,2.1026999999955294],[0.246875,-0.25203703703703706,2.1192999999970183],[0.246875,-0.25203703703703706,2.136000000000003],[0.23697916666666666,-0.21777777777777782,2.1526999999955265],[0.21833333333333324,-0.16574074074074074,2.1692999999970226],[0.20833333333333334,-0.09666666666666665,2.188600000001493],[0.19791666666666666,-0.03314814814814811,2.202699999995531],[0.19791666666666666,-0.03314814814814811,2.2191999999955314],[0.19812500000000005,0.03981481481481482,2.2361999999955273],[0.2015625,0.09166666666666666,2.2531999999955303],[0.19656250000000006,0.12833333333333324,2.272699999995531],[0.18562500000000004,0.15537037037037033,2.2861999999955316],[0.18562500000000004,0.15537037037037033,2.3026000000014903],[0.17374999999999996,0.16888888888888898,2.3193999999985095],[0.14489583333333325,0.21814814814814806,2.336699999995531],[0.11854166666666661,0.21592592592592597,2.3560000000000016],[0.1125,0.1814814814814815,2.3716999999955277],[0.1125,0.1814814814814815,2.386000000000003],[0.10031249999999996,0.1479629629629629,2.4026000000014918],[0.08156249999999995,0.11407407407407412,2.419199999995527],[0.06281249999999995,0.0801851851851851,2.4396999999955327],[0.034895833333333334,0.06222222222222226,2.4562999999970216],[-0.005729166666666666,0.06074074074074066,2.47079999999702],[-0.007500000000000047,0.060370370370370414,2.4858999999985087],[-0.00927083333333331,0.059999999999999956,2.502699999995528],[-0.01572916666666669,0.06537037037037029,2.5213999999985077],[-0.014895833333333285,0.08222222222222218,2.536699999995527],[-0.014895833333333285,0.08222222222222218,2.5526000000014903],[-0.03218749999999997,0.10981481481481473,2.569299999997021],[-0.03895833333333331,0.08611111111111111,2.5859999999999985],[-0.04874999999999995,0.05462962962962963,2.606199999995532],[-0.06906249999999996,0.03777777777777774,2.622],[-0.08343750000000003,0.026111111111111154,2.6406000000014913],[-0.08062499999999997,0.00592592592592601,2.6558999999985105],[-0.1045833333333333,-0.014259259259259343,2.674299999997018],[-0.12749999999999997,-0.026851851851851852,2.689],[-0.1345833333333334,-0.05092592592592592,2.703199999995526],[-0.1345833333333334,-0.05092592592592592,2.7192999999970198],[-0.14739583333333334,-0.07481481481481478,2.735999999999997],[-0.1632291666666667,-0.10481481481481486,2.756799999997021],[-0.1632291666666667,-0.10481481481481486,2.774399999998508],[-0.18343750000000003,-0.08444444444444449,2.7883999999985107],[-0.18947916666666664,-0.05537037037037033,2.8026000000014903],[-0.1889583333333333,-0.04592592592592584,2.819199999995533],[-0.18843749999999998,-0.036481481481481566,2.8359999999999985],[-0.19520833333333332,-0.03314814814814811,2.854699999995532],[-0.19864583333333338,-0.02111111111111107,2.86919999999553],[-0.19802083333333337,-0.04722222222222222,2.8886999999955307],[-0.19739583333333333,-0.07333333333333338,2.9026999999955265],[-0.20270833333333335,-0.0955555555555556,2.9192999999970226],[-0.19958333333333336,-0.10592592592592591,2.9395000000000024],[-0.20187499999999994,-0.122037037037037,2.955299999997017],[-0.18697916666666667,-0.12074074074074072,2.9692999999970198],[-0.16739583333333338,-0.12000000000000002,2.9891999999955274],[-0.16739583333333338,-0.12000000000000002,3.002699999995528],[-0.14291666666666672,-0.12962962962962962,3.019299999997017],[-0.11989583333333335,-0.1307407407407408,3.0360000000000014],[-0.11989583333333335,-0.1307407407407408,3.0526000000014903],[-0.10020833333333339,-0.14055555555555552,3.0696000000014934],[-0.10864583333333329,-0.14370370370370375,3.0859999999999985],[-0.09322916666666667,-0.1227777777777778,3.1056999999955295],[-0.07937500000000004,-0.11592592592592597,3.1196000000014905],[-0.04718749999999995,-0.09592592592592594,3.1397999999970168],[-0.013020833333333334,-0.07481481481481478,3.155399999998508],[-0.0067708333333333336,-0.06518518518518517,3.169399999998511],[-0.005520833333333286,-0.062407407407407384,3.1881000000014907],[0.003854166666666714,-0.05259259259259255,3.2025000000000006],[0.02041666666666669,-0.09055555555555551,3.2192999999970198],[0.033958333333333354,-0.10481481481481486,3.2361999999955273],[0.08041666666666672,-0.06777777777777783,3.252699999995528],[0.09375,-0.08407407407407404,3.2708999999985124],[0.13854166666666667,-0.0940740740740741,3.2860000000000014],[0.13854166666666667,-0.0940740740740741,3.3026000000014903],[0.14343750000000005,-0.11500000000000005,3.319199999995533],[0.15333333333333338,-0.1235185185185185,3.336699999995531],[0.16802083333333329,-0.12759259259259256,3.3552999999970226],[0.19104166666666675,-0.12907407407407406,3.3711999999955324],[0.1765625,-0.14611111111111108,3.3858999999985073],[0.15666666666666676,-0.127962962962963,3.4026000000014918],[0.146875,-0.14351851851851852,3.419399999998511],[0.15583333333333324,-0.09759259259259258,3.4398999999985094],[0.15583333333333324,-0.09759259259259258,3.4551999999955285],[0.09812500000000005,-0.05481481481481486,3.4694999999999965],[0.04229166666666669,-0.022222222222222223,3.4861000000014926],[0.0026041666666666665,0.002407407407407323,3.508499999999998],[0.0026041666666666665,0.002407407407407323,3.5193999999985124],[-0.007291666666666667,0.04148148148148144,3.53629999999702],[-0.03760416666666669,0.08351851851851856,3.556600000001488],[-0.10239583333333328,0.062407407407407495,3.572100000001491],[-0.12145833333333336,0.09129629629629621,3.5896000000014894],[-0.13802083333333334,0.12240740740740745,3.6051000000014923],[-0.1592708333333333,0.14611111111111108,3.6211000000014906],[-0.2140625,0.07703703703703708,3.6403999999985075],[-0.19281250000000003,0.03592592592592588,3.655000000000001],[-0.19166666666666668,0.008703703703703788,3.674500000000002],[-0.16364583333333335,-0.0016666666666666245,3.6883999999985093],[-0.16197916666666667,-0.028518518518518478,3.704100000001489],[-0.16197916666666667,-0.028518518518518478,3.7224999999999966],[-0.16989583333333336,-0.09759259259259258,3.736399999998511],[-0.13312499999999997,-0.05944444444444449,3.7527999999970163],[-0.1388541666666666,-0.10277777777777777,3.773299999997022],[-0.1388541666666666,-0.10277777777777777,3.7860000000000014],[-0.09833333333333331,-0.11537037037037039,3.8027999999970206],[-0.06020833333333329,-0.11055555555555553,3.8193999999985095],[-0.03104166666666662,-0.0883333333333333,3.8408999999985127],[-0.005104166666666643,-0.11370370370370367,3.855899999998506],[0.00010416666666669035,-0.14148148148148143,3.8708999999985068],[-0.00614583333333331,-0.18425925925925926,3.886100000001491],[-0.01739583333333338,-0.23277777777777775,3.905600000001492],[0.04593750000000003,-0.22555555555555556,3.9236000000014926],[0.06156250000000003,-0.26240740740740737,3.9395000000000024],[0.10864583333333329,-0.2551851851851852,3.9540000000000006],[0.10864583333333329,-0.2551851851851852,3.9692999999970198],[0.10958333333333338,-0.27148148148148155,3.9893999999985112],[0.10958333333333338,-0.27148148148148155,4.002899999998512],[0.10499999999999995,-0.31851851851851853,4.019399999998512],[0.1397916666666667,-0.3442592592592592,4.03610000000149],[0.16479166666666673,-0.3235185185185185,4.054600000001493],[0.2165625000000001,-0.30925925925925923,4.07089999999851],[0.24177083333333324,-0.3101851851851852,4.086100000001487],[0.2573958333333332,-0.3127777777777777,4.108199999995527],[0.24208333333333343,-0.32462962962962966,4.121799999997016],[0.26322916666666674,-0.3290740740740741,4.140100000001489],[0.26624999999999993,-0.33555555555555555,4.155600000001492],[0.27666666666666656,-0.3492592592592593,4.17310000000149],[0.2964583333333332,-0.3466666666666666,4.189600000001491],[0.28718750000000004,-0.37648148148148153,4.204999999999998],[0.2734375,-0.39888888888888885,4.22079999999702],[0.2693749999999999,-0.372037037037037,4.237899999998511],[0.26833333333333326,-0.37092592592592594,4.258299999997021],[0.27020833333333344,-0.3557407407407408,4.272799999997019],[0.2608333333333334,-0.365925925925926,4.28629999999702],[0.2608333333333334,-0.365925925925926,4.302699999995532],[0.2673958333333334,-0.3801851851851852,4.319299999997021],[0.26416666666666655,-0.3514814814814815,4.33589999999851],[0.25104166666666666,-0.33537037037037043,4.355899999998506],[0.2359375,-0.2911111111111111,4.369399999998507],[0.22458333333333325,-0.26722222222222225,4.38939999999851],[0.22947916666666662,-0.23925925925925923,4.403899999998508],[0.2328125,-0.257962962962963,4.419299999997023],[0.24510416666666662,-0.2366666666666667,4.439799999997021],[0.24510416666666662,-0.2366666666666667,4.452600000001489],[0.26624999999999993,-0.22870370370370371,4.469399999998508],[0.2700000000000001,-0.21629629629629632,4.486299999997023],[0.2601041666666667,-0.19648148148148153,4.502499999999998],[0.28885416666666663,-0.20388888888888893,4.521500000000003],[0.30979166666666674,-0.20685185185185184,4.537399999998513],[0.3390625,-0.21537037037037038,4.556100000001493],[0.3485416666666666,-0.22407407407407406,4.570799999997021],[0.36770833333333336,-0.2403703703703704,4.5859999999999985],[0.36437499999999995,-0.20833333333333334,4.605600000001488],[0.3577083333333334,-0.18074074074074079,4.619500000000002],[0.3589583333333332,-0.1581481481481481,4.636000000000003],[0.3642708333333334,-0.1366666666666667,4.65289999999851],[0.3729166666666667,-0.127962962962963,4.6696999999955295],[0.3375,-0.13722222222222227,4.688399999998509],[0.32447916666666665,-0.13111111111111112,4.7028999999985075],[0.32447916666666665,-0.13111111111111112,4.719199999995531],[0.27458333333333323,-0.13296296296296298,4.735999999999997],[0.23322916666666677,-0.09944444444444442,4.752600000001493],[0.1678124999999999,-0.07666666666666662,4.7719999999999985],[0.13552083333333323,-0.1161111111111111,4.785899999998513],[0.10572916666666667,-0.15203703703703708,4.802500000000002],[0.050937499999999976,-0.21222222222222226,4.819299999997021],[0.005312500000000024,-0.2727777777777778,4.841799999997022],[0.005312500000000024,-0.2727777777777778,4.852699999995529],[-0.015208333333333357,-0.29000000000000004,4.869399999998507],[-0.017604166666666643,-0.3005555555555556,4.885899999998507],[-0.017604166666666643,-0.3005555555555556,4.902499999999996],[-0.03218749999999997,-0.3183333333333333,4.919199999995527],[-0.016875000000000046,-0.3244444444444444,4.939699999995533],[0.00947916666666669,-0.3477777777777778,4.954999999999998],[0.05260416666666667,-0.3544444444444444,4.972399999998508],[0.05260416666666667,-0.3544444444444444,4.985999999999997],[0.08239583333333324,-0.3562962962962963,5.007799999997019],[0.09302083333333329,-0.30648148148148147,5.022899999998508],[0.13177083333333334,-0.247037037037037,5.040199999995529],[0.13562500000000005,-0.15481481481481485,5.0556000000014905],[0.12791666666666662,-0.11592592592592597,5.072100000001491],[0.12572916666666673,-0.07759259259259255,5.093199999995527],[0.12572916666666673,-0.07759259259259255,5.102499999999999],[0.14656250000000004,-0.08314814814814811,5.119299999997018],[0.15458333333333343,-0.07851851851851847,5.140299999997019],[0.12614583333333323,-0.06462962962962959,5.155499999999996],[0.1212500000000001,-0.028703703703703703,5.175199999995527],[0.1212500000000001,-0.028703703703703703,5.185899999998512],[0.1336458333333333,-0.01314814814814819,5.202500000000001],[0.1336458333333333,-0.01314814814814819,5.219199999995531],[0.15354166666666677,-0.029259259259259176,5.235999999999997],[0.15656249999999997,-0.04611111111111107,5.256500000000003]]","[0.00029999999701857405,0.05299999999999727,0.06929999999702119,0.08599999999999852,0.10489999999850852,0.11950000000000216,0.13700000000000045,0.15329999999701727,0.1692999999970226,0.1881999999955326,0.20410000000148898,0.21929999999701977,0.2359999999999971,0.25269999999552795,0.2716999999955263,0.285899999998513,0.30610000000149284,0.32150000000000034,0.34079999999701727,0.35529999999702255,0.36929999999701835,0.3860000000000028,0.4026999999955265,0.41939999999851096,0.4398999999985094,0.4526999999955308,0.4693999999985081,0.4859999999999971,0.502699999995528,0.5216000000014915,0.53779999999702,0.5541999999955323,0.5692999999970212,0.5859999999999985,0.6060000000000016,0.6192999999970183,0.6361000000014911,0.6526999999955265,0.6692999999970226,0.6883999999985093,0.7028999999985075,0.7192999999970198,0.7359999999999971,0.7565000000000026,0.7712999999970194,0.7860000000000014,0.8026000000014903,0.8192999999970212,0.8361000000014869,0.8553999999985109,0.8693999999985067,0.8860000000000028,0.9026000000014918,0.9192999999970226,0.9396000000014908,0.953000000000003,0.9724999999999966,0.9861999999955273,1.002699999995528,1.022299999997017,1.0368999999985107,1.0526999999955322,1.069499999999998,1.0859999999999985,1.1026999999955294,1.1192999999970183,1.1402999999970191,1.1548999999985128,1.1692999999970226,1.188299999997021,1.2026999999955308,1.2193999999985081,1.235999999999997,1.256600000001491,1.2725000000000009,1.28629999999702,1.3026000000014903,1.3193999999985095,1.3359999999999985,1.3557999999970178,1.3706000000014882,1.3858999999985073,1.4026999999955265,1.4191999999955272,1.439799999997021,1.452600000001489,1.4692999999970198,1.4861000000014926,1.5026000000014932,1.519299999997017,1.5361999999955316,1.554000000000002,1.5692999999970212,1.5858999999985102,1.6052999999970226,1.6208999999985068,1.6360000000000028,1.652799999997022,1.6692999999970226,1.688299999997021,1.7031000000014913,1.7192999999970198,1.735999999999997,1.7526000000014932,1.7725000000000009,1.7861000000014897,1.8026000000014903,1.8191999999955328,1.8399999999999963,1.8556000000014876,1.8710000000000022,1.8860000000000028,1.9026999999955265,1.9191999999955272,1.939799999997021,1.9561999999955262,1.971899999998513,1.990799999997023,2.002699999995528,2.0195000000000007,2.0360000000000014,2.0526000000014903,2.069299999997021,2.091399999998508,2.1026999999955294,2.1192999999970183,2.136000000000003,2.1526999999955265,2.1692999999970226,2.188600000001493,2.202699999995531,2.2191999999955314,2.2361999999955273,2.2531999999955303,2.272699999995531,2.2861999999955316,2.3026000000014903,2.3193999999985095,2.336699999995531,2.3560000000000016,2.3716999999955277,2.386000000000003,2.4026000000014918,2.419199999995527,2.4396999999955327,2.4562999999970216,2.47079999999702,2.4858999999985087,2.502699999995528,2.5213999999985077,2.536699999995527,2.5526000000014903,2.569299999997021,2.5859999999999985,2.606199999995532,2.622,2.6406000000014913,2.6558999999985105,2.674299999997018,2.689,2.703199999995526,2.7192999999970198,2.735999999999997,2.756799999997021,2.774399999998508,2.7883999999985107,2.8026000000014903,2.819199999995533,2.8359999999999985,2.854699999995532,2.86919999999553,2.8886999999955307,2.9026999999955265,2.9192999999970226,2.9395000000000024,2.955299999997017,2.9692999999970198,2.9891999999955274,3.002699999995528,3.019299999997017,3.0360000000000014,3.0526000000014903,3.0696000000014934,3.0859999999999985,3.1056999999955295,3.1196000000014905,3.1397999999970168,3.155399999998508,3.169399999998511,3.1881000000014907,3.2025000000000006,3.2192999999970198,3.2361999999955273,3.252699999995528,3.2708999999985124,3.2860000000000014,3.3026000000014903,3.319199999995533,3.336699999995531,3.3552999999970226,3.3711999999955324,3.3858999999985073,3.4026000000014918,3.419399999998511,3.4398999999985094,3.4551999999955285,3.4694999999999965,3.4861000000014926,3.508499999999998,3.5193999999985124,3.53629999999702,3.556600000001488,3.572100000001491,3.5896000000014894,3.6051000000014923,3.6211000000014906,3.6403999999985075,3.655000000000001,3.674500000000002,3.6883999999985093,3.704100000001489,3.7224999999999966,3.736399999998511,3.7527999999970163,3.773299999997022,3.7860000000000014,3.8027999999970206,3.8193999999985095,3.8408999999985127,3.855899999998506,3.8708999999985068,3.886100000001491,3.905600000001492,3.9236000000014926,3.9395000000000024,3.9540000000000006,3.9692999999970198,3.9893999999985112,4.002899999998512,4.019399999998512,4.03610000000149,4.054600000001493,4.07089999999851,4.086100000001487,4.108199999995527,4.121799999997016,4.140100000001489,4.155600000001492,4.17310000000149,4.189600000001491,4.204999999999998,4.22079999999702,4.237899999998511,4.258299999997021,4.272799999997019,4.28629999999702,4.302699999995532,4.319299999997021,4.33589999999851,4.355899999998506,4.369399999998507,4.38939999999851,4.403899999998508,4.419299999997023,4.439799999997021,4.452600000001489,4.469399999998508,4.486299999997023,4.502499999999998,4.521500000000003,4.537399999998513,4.556100000001493,4.570799999997021,4.5859999999999985,4.605600000001488,4.619500000000002,4.636000000000003,4.65289999999851,4.6696999999955295,4.688399999998509,4.7028999999985075,4.719199999995531,4.735999999999997,4.752600000001493,4.7719999999999985,4.785899999998513,4.802500000000002,4.819299999997021,4.841799999997022,4.852699999995529,4.869399999998507,4.885899999998507,4.902499999999996,4.919199999995527,4.939699999995533,4.954999999999998,4.972399999998508,4.985999999999997,5.007799999997019,5.022899999998508,5.040199999995529,5.0556000000014905,5.072100000001491,5.093199999995527,5.102499999999999,5.119299999997018,5.140299999997019,5.155499999999996,5.175199999995527,5.185899999998512,5.202500000000001,5.219199999995531,5.235999999999997,5.256500000000003]","[1732587830817,1732587830858,1732587830875,1732587830891,1732587830910,1732587830925,1732587830942,1732587830959,1732587830975,1732587830993,1732587831009,1732587831025,1732587831041,1732587831058,1732587831077,1732587831091,1732587831111,1732587831127,1732587831146,1732587831161,1732587831175,1732587831191,1732587831208,1732587831225,1732587831245,1732587831258,1732587831275,1732587831291,1732587831308,1732587831327,1732587831343,1732587831359,1732587831375,1732587831391,1732587831411,1732587831425,1732587831441,1732587831458,1732587831475,1732587831494,1732587831508,1732587831525,1732587831541,1732587831562,1732587831577,1732587831591,1732587831608,1732587831625,1732587831641,1732587831661,1732587831675,1732587831691,1732587831708,1732587831725,1732587831745,1732587831758,1732587831778,1732587831791,1732587831808,1732587831828,1732587831842,1732587831858,1732587831875,1732587831891,1732587831908,1732587831925,1732587831945,1732587831960,1732587831975,1732587831993,1732587832008,1732587832025,1732587832041,1732587832062,1732587832078,1732587832092,1732587832108,1732587832125,1732587832141,1732587832161,1732587832176,1732587832191,1732587832208,1732587832224,1732587832245,1732587832258,1732587832275,1732587832291,1732587832308,1732587832325,1732587832341,1732587832359,1732587832375,1732587832391,1732587832411,1732587832426,1732587832441,1732587832458,1732587832475,1732587832494,1732587832508,1732587832525,1732587832541,1732587832558,1732587832578,1732587832591,1732587832608,1732587832624,1732587832645,1732587832661,1732587832676,1732587832691,1732587832708,1732587832724,1732587832745,1732587832761,1732587832777,1732587832796,1732587832808,1732587832825,1732587832841,1732587832858,1732587832875,1732587832897,1732587832908,1732587832925,1732587832941,1732587832958,1732587832975,1732587832994,1732587833008,1732587833024,1732587833041,1732587833058,1732587833078,1732587833091,1732587833108,1732587833125,1732587833142,1732587833161,1732587833177,1732587833191,1732587833208,1732587833224,1732587833245,1732587833262,1732587833276,1732587833291,1732587833308,1732587833327,1732587833342,1732587833358,1732587833375,1732587833391,1732587833411,1732587833427,1732587833446,1732587833461,1732587833480,1732587833494,1732587833508,1732587833525,1732587833541,1732587833562,1732587833580,1732587833594,1732587833608,1732587833624,1732587833641,1732587833660,1732587833675,1732587833694,1732587833708,1732587833725,1732587833745,1732587833761,1732587833775,1732587833794,1732587833808,1732587833824,1732587833841,1732587833858,1732587833875,1732587833891,1732587833911,1732587833925,1732587833945,1732587833961,1732587833975,1732587833993,1732587834008,1732587834025,1732587834041,1732587834058,1732587834076,1732587834091,1732587834108,1732587834125,1732587834142,1732587834161,1732587834176,1732587834191,1732587834208,1732587834225,1732587834245,1732587834260,1732587834275,1732587834291,1732587834314,1732587834325,1732587834342,1732587834362,1732587834377,1732587834395,1732587834410,1732587834426,1732587834446,1732587834460,1732587834480,1732587834494,1732587834509,1732587834528,1732587834542,1732587834558,1732587834579,1732587834591,1732587834608,1732587834625,1732587834646,1732587834661,1732587834676,1732587834691,1732587834711,1732587834729,1732587834745,1732587834759,1732587834775,1732587834795,1732587834808,1732587834825,1732587834841,1732587834860,1732587834876,1732587834891,1732587834913,1732587834927,1732587834945,1732587834961,1732587834978,1732587834995,1732587835010,1732587835026,1732587835043,1732587835064,1732587835078,1732587835092,1732587835108,1732587835124,1732587835141,1732587835161,1732587835175,1732587835195,1732587835209,1732587835224,1732587835245,1732587835258,1732587835275,1732587835292,1732587835308,1732587835327,1732587835343,1732587835361,1732587835376,1732587835391,1732587835411,1732587835425,1732587835441,1732587835458,1732587835475,1732587835494,1732587835508,1732587835524,1732587835541,1732587835558,1732587835577,1732587835591,1732587835608,1732587835625,1732587835647,1732587835658,1732587835675,1732587835691,1732587835708,1732587835724,1732587835745,1732587835760,1732587835778,1732587835791,1732587835813,1732587835828,1732587835845,1732587835861,1732587835877,1732587835898,1732587835908,1732587835924,1732587835946,1732587835961,1732587835980,1732587835991,1732587836008,1732587836024,1732587836041,1732587836062]","[[1165.7,335.6],[1165.7,335.6],[1180.1,351.7],[1179.3,365.4],[1178.5,379.1],[1175.4,397.5],[1182,421.6],[1189.9,424.1],[1203.9,421.4],[1192.2,432.5],[1205.7,422.8],[1224.9,407.9],[1221.7,404.3],[1232,395.9],[1242.3,387.5],[1248.2,371.7],[1254.1,355.9],[1248.7,367.6],[1247.3,383.9],[1249.4,405.4],[1237.6,444.6],[1239.4,461.9],[1234.7,465.7],[1236.1,465.8],[1237.5,465.9],[1237.5,465.9],[1230.5,468.4],[1219,485.4],[1214,485.3],[1201,483.1],[1206.7,463.8],[1201.1,447.6],[1188.6,441.8],[1176.1,436],[1155.6,431.5],[1139.5,422.8],[1139.5,422.8],[1128.5,416],[1130.5,405],[1123.5,401.4],[1124.5,399.9],[1120.4,411.2],[1116.3,422.5],[1113.3,435.5],[1110.3,448.5],[1122.7,448.7],[1130.7,453.1],[1136.1,487.5],[1148.6,510.6],[1170.9,545.9],[1182.3,603],[1193,669.4],[1221.8,733.8],[1226.4,818.1],[1231,902.4],[1235.5,1000.8],[1278.5,1064.7],[1278.5,1064.7],[1285.2,1113.4],[1298.1,1153.1],[1310.2,1173.2],[1310.2,1173.2],[1320.6,1146.2],[1336.5,1086.6],[1336.5,1086.6],[1334.3,1029],[1340,964.4],[1336.4,903.9],[1334.1,842.5],[1302,815.6],[1301.8,777],[1273.8,748.1],[1245.8,719.2],[1233.6,725.4],[1224.2,744.6],[1223,749.1],[1223,749.1],[1230.3,750.5],[1247.2,719.1],[1278.3,680.4],[1307.9,646.2],[1307.9,646.2],[1337.5,612],[1368.6,582.2],[1375.4,552],[1375.4,552],[1376.5,518.3],[1378.1,483.7],[1378.1,483.7],[1371.5,463.8],[1372.2,447.2],[1377.5,454.6],[1360.9,464.3],[1337.3,471.3],[1313.7,478.3],[1291.1,479.7],[1291.1,479.7],[1292.8,481.5],[1291.6,480.7],[1301,472.1],[1310.4,463.5],[1310.4,463.5],[1312.4,455.9],[1309.5,453],[1310.3,457.2],[1310.9,459.6],[1308.8,460.8],[1311.9,463.2],[1319,467],[1330.5,460.6],[1328.4,460.4],[1328.4,460.4],[1330.8,461.1],[1317.7,455.3],[1310.9,451.5],[1299.8,436.4],[1292.1,426.6],[1276.9,412.9],[1276.9,412.9],[1260,399.5],[1247.2,392.9],[1247.2,392.9],[1229.5,397.4],[1212.7,409.2],[1212.7,409.2],[1197,403.9],[1197,403.9],[1187.5,422.4],[1169.6,450.5],[1160,487.8],[1150,522.1],[1150,522.1],[1150.2,561.5],[1153.5,589.5],[1148.7,609.3],[1138.2,623.9],[1138.2,623.9],[1126.8,631.2],[1099.1,657.8],[1073.8,656.6],[1068,638],[1068,638],[1056.3,619.9],[1038.3,601.6],[1020.3,583.3],[993.5,573.6],[954.5,572.8],[952.8,572.6],[951.1,572.4],[944.9,575.3],[945.7,584.4],[945.7,584.4],[929.1,599.3],[922.6,586.5],[913.2,569.5],[893.7,560.4],[879.9,554.1],[882.6,543.2],[859.6,532.3],[837.6,525.5],[830.8,512.5],[830.8,512.5],[818.5,499.6],[803.3,483.4],[803.3,483.4],[783.9,494.4],[778.1,510.1],[778.6,515.2],[779.1,520.3],[772.6,522.1],[769.3,528.6],[769.9,514.5],[770.5,500.4],[765.4,488.4],[768.4,482.8],[766.2,474.1],[780.5,474.8],[799.3,475.2],[799.3,475.2],[822.8,470],[844.9,469.4],[844.9,469.4],[863.8,464.1],[855.7,462.4],[870.5,473.7],[883.8,477.4],[914.7,488.2],[947.5,499.6],[953.5,504.8],[954.7,506.3],[963.7,511.6],[979.6,491.1],[992.6,483.4],[1037.2,503.4],[1050,494.6],[1093,489.2],[1093,489.2],[1097.7,477.9],[1107.2,473.3],[1121.3,471.1],[1143.4,470.3],[1129.5,461.1],[1110.4,470.9],[1101,462.5],[1109.6,487.3],[1109.6,487.3],[1054.2,510.4],[1000.6,528],[962.5,541.3],[962.5,541.3],[953,562.4],[923.9,585.1],[861.7,573.7],[843.4,589.3],[827.5,606.1],[807.1,618.9],[754.5,581.6],[774.9,559.4],[776,544.7],[802.9,539.1],[804.5,524.6],[804.5,524.6],[796.9,487.3],[832.2,507.9],[826.7,484.5],[826.7,484.5],[865.6,477.7],[902.2,480.3],[930.2,492.3],[955.1,478.6],[960.1,463.6],[954.1,440.5],[943.3,414.3],[1004.1,418.2],[1019.1,398.3],[1064.3,402.2],[1064.3,402.2],[1065.2,393.4],[1065.2,393.4],[1060.8,368],[1094.2,354.1],[1118.2,365.3],[1167.9,373],[1192.1,372.5],[1207.1,371.1],[1192.4,364.7],[1212.7,362.3],[1215.6,358.8],[1225.6,351.4],[1244.6,352.8],[1235.7,336.7],[1222.5,324.6],[1218.6,339.1],[1217.6,339.7],[1219.4,347.9],[1210.4,342.4],[1210.4,342.4],[1216.7,334.7],[1213.6,350.2],[1201,358.9],[1186.5,382.8],[1175.6,395.7],[1180.3,410.8],[1183.5,400.7],[1195.3,412.2],[1195.3,412.2],[1215.6,416.5],[1219.2,423.2],[1209.7,433.9],[1237.3,429.9],[1257.4,428.3],[1285.5,423.7],[1294.6,419],[1313,410.2],[1309.8,427.5],[1303.4,442.4],[1304.6,454.6],[1309.7,466.2],[1318,470.9],[1284,465.9],[1271.5,469.2],[1271.5,469.2],[1223.6,468.2],[1183.9,486.3],[1121.1,498.6],[1090.1,477.3],[1061.5,457.9],[1008.9,425.4],[965.1,392.7],[965.1,392.7],[945.4,383.4],[943.1,377.7],[943.1,377.7],[929.1,368.1],[943.8,364.8],[969.1,352.2],[1010.5,348.6],[1010.5,348.6],[1039.1,347.6],[1049.3,374.5],[1086.5,406.6],[1090.2,456.4],[1082.8,477.4],[1080.7,498.1],[1080.7,498.1],[1100.7,495.1],[1108.4,497.6],[1081.1,505.1],[1076.4,524.5],[1076.4,524.5],[1088.3,532.9],[1088.3,532.9],[1107.4,524.2],[1110.3,515.1]]","[-0.132282,0.39684600000000003]","[0.132282,0.39684600000000003]","[0.39684600000000003,0.39684600000000003]","[-0.39684600000000003,0.132282]","[-0.39684600000000003,-0.132282]","[-0.39684600000000003,-0.39684600000000003]","[-0.132282,0.132282]","[0.132282,0.132282]","[0.39684600000000003,0.132282]","[-0.132282,-0.132282]","[0.132282,-0.132282]","[0.39684600000000003,-0.132282]","[-0.132282,-0.39684600000000003]","[0.132282,-0.39684600000000003]","[0.39684600000000003,-0.39684600000000003]",0,0,0,0,1,4,Tablet,25,20,8,1,60,4,1,60,3
