inst1_resp.keys,inst1_resp.rt,calibrationMouse.x,calibrationMouse.y,calibrationMouse.leftButton,calibrationMouse.midButton,calibrationMouse.rightButton,calibrationClick.x,calibrationClick.y,calibrationClick.leftButton,calibrationClick.midButton,calibrationClick.rightButton,trialsc.thisRepN,trialsc.thisTrialN,trialsc.thisN,trialsc.thisIndex,trialsc.ran,calibration_x,calibration_y,participant,session,date,expName,psychopyVersion,OS,frameRate,calibrationClick.clicked_name,ScreenRes_pixels,Camera_pixels,mouse_2.x,mouse_2.y,mouse_2.leftButton,mouse_2.midButton,mouse_2.rightButton,mouse_2.time,mouse_2.clicked_name,mouse.x,mouse.y,mouse.leftButton,mouse.midButton,mouse.rightButton,mouse.time,mouse.clicked_name,Choice,Trial,TrialDuration,MOUSE_GAZE,ET_GAZE,ET_GAZE_x_T,time,unixTime,ET_GAZE_NF,Loc_Bus_label,Loc_Metro_label,Loc_RH_label,Loc_Cost_label,Loc_Travel_label,Loc_Comfort_label,Loc_Bus_cost,Loc_Metro_cost,Loc_RH_cost,Loc_Bus_travel,Loc_Metro_travel,Loc_RH_travel,Loc_Bus_comfort,Loc_Metro_comfort,Loc_RH_comfort,trials.thisRepN,trials.thisTrialN,trials.thisN,trials.thisIndex,trials.ran,Block,Device,RH_cost,RH_travel_time,RH_Comfort,metro_cost,metro_travel_time,metro_Comfort,Bus_cost,Bus_travel_time,Bus_Comfort
space,2.1994,0.559375,0.112962963,1,0,0,0.328125,0.003703704,0,0,0,0,0,0,16,1,0.33,0,43,001,2024-11-21_14h09.31.980,Attention_exp_legacy,2023.1.0,Win32,59.17159763,,,,,,,,,,,,,,,,,,,,,,,,,,,,,,,,,,,,,,,,,,,,,,,,,,,,,,,,,
,,,,,,,-0.666666667,-0.011111111,1,0,0,0,1,1,2,1,-0.67,0,43,001,2024-11-21_14h09.31.980,Attention_exp_legacy,2023.1.0,Win32,59.17159763,,,,,,,,,,,,,,,,,,,,,,,,,,,,,,,,,,,,,,,,,,,,,,,,,,,,,,,,,
,,,,,,,0.001041667,0.338888889,1,0,0,0,2,2,12,1,0,0.33,43,001,2024-11-21_14h09.31.980,Attention_exp_legacy,2023.1.0,Win32,59.17159763,calibration_square,,,,,,,,,,,,,,,,,,,,,,,,,,,,,,,,,,,,,,,,,,,,,,,,,,,,,,,,
,,,,,,,-0.004166667,0.677777778,1,0,0,0,3,3,13,1,0,0.67,43,001,2024-11-21_14h09.31.980,Attention_exp_legacy,2023.1.0,Win32,59.17159763,calibration_square,,,,,,,,,,,,,,,,,,,,,,,,,,,,,,,,,,,,,,,,,,,,,,,,,,,,,,,,
,,,,,,,-0.340625,0.666666667,1,0,0,0,4,4,8,1,-0.33,0.67,43,001,2024-11-21_14h09.31.980,Attention_exp_legacy,2023.1.0,Win32,59.17159763,,,,,,,,,,,,,,,,,,,,,,,,,,,,,,,,,,,,,,,,,,,,,,,,,,,,,,,,,
,,,,,,,0.329166667,0.672222222,1,0,0,0,5,5,18,1,0.33,0.67,43,001,2024-11-21_14h09.31.980,Attention_exp_legacy,2023.1.0,Win32,59.17159763,calibration_square,,,,,,,,,,,,,,,,,,,,,,,,,,,,,,,,,,,,,,,,,,,,,,,,,,,,,,,,
,,,,,,,-0.008333333,-0.32962963,1,0,0,0,6,6,10,1,0,-0.33,43,001,2024-11-21_14h09.31.980,Attention_exp_legacy,2023.1.0,Win32,59.17159763,calibration_square,,,,,,,,,,,,,,,,,,,,,,,,,,,,,,,,,,,,,,,,,,,,,,,,,,,,,,,,
,,,,,,,-0.329166667,0.324074074,1,0,0,0,7,7,7,1,-0.33,0.33,43,001,2024-11-21_14h09.31.980,Attention_exp_legacy,2023.1.0,Win32,59.17159763,calibration_square,,,,,,,,,,,,,,,,,,,,,,,,,,,,,,,,,,,,,,,,,,,,,,,,,,,,,,,,
,,,,,,,0.001041667,-0.674074074,1,0,0,0,8,8,9,1,0,-0.67,43,001,2024-11-21_14h09.31.980,Attention_exp_legacy,2023.1.0,Win32,59.17159763,calibration_square,,,,,,,,,,,,,,,,,,,,,,,,,,,,,,,,,,,,,,,,,,,,,,,,,,,,,,,,
,,,,,,,0.671875,0.677777778,1,0,0,0,9,9,19,1,0.67,0.67,43,001,2024-11-21_14h09.31.980,Attention_exp_legacy,2023.1.0,Win32,59.17159763,calibration_square,,,,,,,,,,,,,,,,,,,,,,,,,,,,,,,,,,,,,,,,,,,,,,,,,,,,,,,,
,,,,,,,-0.328125,-0.674074074,1,0,0,0,10,10,4,1,-0.33,-0.67,43,001,2024-11-21_14h09.31.980,Attention_exp_legacy,2023.1.0,Win32,59.17159763,calibration_square,,,,,,,,,,,,,,,,,,,,,,,,,,,,,,,,,,,,,,,,,,,,,,,,,,,,,,,,
,,,,,,,-0.003125,0.011111111,1,0,0,0,11,11,11,1,0,0,43,001,2024-11-21_14h09.31.980,Attention_exp_legacy,2023.1.0,Win32,59.17159763,,,,,,,,,,,,,,,,,,,,,,,,,,,,,,,,,,,,,,,,,,,,,,,,,,,,,,,,,
,,,,,,,-0.333333333,-0.32037037,1,0,0,0,12,12,5,1,-0.33,-0.33,43,001,2024-11-21_14h09.31.980,Attention_exp_legacy,2023.1.0,Win32,59.17159763,calibration_square,,,,,,,,,,,,,,,,,,,,,,,,,,,,,,,,,,,,,,,,,,,,,,,,,,,,,,,,
,,,,,,,-0.327083333,0.011111111,1,0,0,0,13,13,6,1,-0.33,0,43,001,2024-11-21_14h09.31.980,Attention_exp_legacy,2023.1.0,Win32,59.17159763,,,,,,,,,,,,,,,,,,,,,,,,,,,,,,,,,,,,,,,,,,,,,,,,,,,,,,,,,
,,,,,,,-0.673958333,0.324074074,1,0,0,0,14,14,3,1,-0.67,0.33,43,001,2024-11-21_14h09.31.980,Attention_exp_legacy,2023.1.0,Win32,59.17159763,calibration_square,,,,,,,,,,,,,,,,,,,,,,,,,,,,,,,,,,,,,,,,,,,,,,,,,,,,,,,,
,,,,,,,0.667708333,-0.666666667,1,0,0,0,15,15,20,1,0.67,-0.67,43,001,2024-11-21_14h09.31.980,Attention_exp_legacy,2023.1.0,Win32,59.17159763,calibration_square,,,,,,,,,,,,,,,,,,,,,,,,,,,,,,,,,,,,,,,,,,,,,,,,,,,,,,,,
,,,,,,,0.329166667,0.333333333,1,0,0,0,16,16,17,1,0.33,0.33,43,001,2024-11-21_14h09.31.980,Attention_exp_legacy,2023.1.0,Win32,59.17159763,calibration_square,,,,,,,,,,,,,,,,,,,,,,,,,,,,,,,,,,,,,,,,,,,,,,,,,,,,,,,,
,,,,,,,0.328125,-0.666666667,1,0,0,0,17,17,14,1,0.33,-0.67,43,001,2024-11-21_14h09.31.980,Attention_exp_legacy,2023.1.0,Win32,59.17159763,calibration_square,,,,,,,,,,,,,,,,,,,,,,,,,,,,,,,,,,,,,,,,,,,,,,,,,,,,,,,,
,,,,,,,-0.66875,-0.333333333,1,0,0,0,18,18,1,1,-0.67,-0.33,43,001,2024-11-21_14h09.31.980,Attention_exp_legacy,2023.1.0,Win32,59.17159763,calibration_square,,,,,,,,,,,,,,,,,,,,,,,,,,,,,,,,,,,,,,,,,,,,,,,,,,,,,,,,
,,,,,,,-0.669791667,-0.672222222,1,0,0,0,19,19,0,1,-0.67,-0.67,43,001,2024-11-21_14h09.31.980,Attention_exp_legacy,2023.1.0,Win32,59.17159763,calibration_square,,,,,,,,,,,,,,,,,,,,,,,,,,,,,,,,,,,,,,,,,,,,,,,,,,,,,,,,
,,,,,,,0.334375,-0.322222222,1,0,0,0,20,20,15,1,0.33,-0.33,43,001,2024-11-21_14h09.31.980,Attention_exp_legacy,2023.1.0,Win32,59.17159763,calibration_square,,,,,,,,,,,,,,,,,,,,,,,,,,,,,,,,,,,,,,,,,,,,,,,,,,,,,,,,
,,,,,,,,,,,,,,,,,,,43,001,2024-11-21_14h09.31.980,Attention_exp_legacy,2023.1.0,Win32,59.17159763,,"[1920,1080]","[640,480]",[0.06354166666666666],[-0.48333333333333334],[1],[0],[0],[1.1622999997139019],"[""StartButton""]",[0.5645833333333333],[0.6166666666666667],[1],[0],[0],[6.080900000095369],"[""RH_label""]",RH_label,1,7.0921,"[[0.50625,0.26666666666666666],[0.5416666666666666,0.2814814814814815],[0.5427083333333333,0.2814814814814815],[0.54375,0.2833333333333333],[0.54375,0.2833333333333333],[0.54375,0.2833333333333333],[0.54375,0.2833333333333333],[0.54375,0.2833333333333333],[0.54375,0.2833333333333333],[0.54375,0.2833333333333333],[0.54375,0.2833333333333333],[0.54375,0.2833333333333333],[0.54375,0.2833333333333333],[0.54375,0.2833333333333333],[0.54375,0.2833333333333333],[0.54375,0.2833333333333333],[0.54375,0.2833333333333333],[0.54375,0.2833333333333333],[0.54375,0.2833333333333333],[0.54375,0.2833333333333333],[0.54375,0.2833333333333333],[0.54375,0.2833333333333333],[0.54375,0.2833333333333333],[0.54375,0.2833333333333333],[0.54375,0.2833333333333333],[0.54375,0.2833333333333333],[0.54375,0.2833333333333333],[0.54375,0.2833333333333333],[0.54375,0.2833333333333333],[0.54375,0.2833333333333333],[0.54375,0.2833333333333333],[0.54375,0.2833333333333333],[0.54375,0.2833333333333333],[0.54375,0.2833333333333333],[0.54375,0.2833333333333333],[0.5427083333333333,0.2833333333333333],[0.5427083333333333,0.2833333333333333],[0.540625,0.2796296296296296],[0.5375,0.2796296296296296],[0.5364583333333334,0.2759259259259259],[0.5364583333333334,0.2759259259259259],[0.5364583333333334,0.2759259259259259],[0.5364583333333334,0.2759259259259259],[0.5364583333333334,0.2759259259259259],[0.5354166666666667,0.2759259259259259],[0.5354166666666667,0.2759259259259259],[0.5354166666666667,0.2759259259259259],[0.5354166666666667,0.2759259259259259],[0.5354166666666667,0.2759259259259259],[0.5354166666666667,0.2759259259259259],[0.5354166666666667,0.2759259259259259],[0.5354166666666667,0.2759259259259259],[0.5354166666666667,0.2759259259259259],[0.5354166666666667,0.2759259259259259],[0.5354166666666667,0.2759259259259259],[0.5354166666666667,0.2759259259259259],[0.5354166666666667,0.2759259259259259],[0.5354166666666667,0.2759259259259259],[0.5354166666666667,0.2759259259259259],[0.5354166666666667,0.2759259259259259],[0.5354166666666667,0.2759259259259259],[0.5354166666666667,0.2759259259259259],[0.5354166666666667,0.2759259259259259],[0.5354166666666667,0.2759259259259259],[0.5354166666666667,0.2759259259259259],[0.5354166666666667,0.2759259259259259],[0.5333333333333333,0.2740740740740741],[0.5291666666666667,0.2740740740740741],[0.5260416666666666,0.2722222222222222],[0.5208333333333334,0.26851851851851855],[0.5145833333333333,0.26296296296296295],[0.509375,0.25925925925925924],[0.5020833333333333,0.2537037037037037],[0.496875,0.25],[0.490625,0.24259259259259258],[0.48854166666666665,0.2388888888888889],[0.4791666666666667,0.23148148148148148],[0.4739583333333333,0.22592592592592592],[0.46770833333333334,0.22407407407407406],[0.4625,0.21851851851851853],[0.459375,0.21666666666666667],[0.45416666666666666,0.21296296296296297],[0.4510416666666667,0.2111111111111111],[0.44479166666666664,0.20555555555555555],[0.4375,0.2037037037037037],[0.42916666666666664,0.2],[0.42291666666666666,0.1962962962962963],[0.41875,0.19444444444444445],[0.41354166666666664,0.19074074074074074],[0.41041666666666665,0.19074074074074074],[0.409375,0.18888888888888888],[0.4083333333333333,0.18888888888888888],[0.4083333333333333,0.18888888888888888],[0.4083333333333333,0.18888888888888888],[0.4083333333333333,0.18888888888888888],[0.4083333333333333,0.18888888888888888],[0.4083333333333333,0.18888888888888888],[0.4083333333333333,0.18888888888888888],[0.4083333333333333,0.18888888888888888],[0.4083333333333333,0.18888888888888888],[0.40729166666666666,0.18888888888888888],[0.40625,0.18888888888888888],[0.4041666666666667,0.18703703703703703],[0.40208333333333335,0.18518518518518517],[0.4010416666666667,0.18518518518518517],[0.39895833333333336,0.18333333333333332],[0.39791666666666664,0.18333333333333332],[0.3958333333333333,0.18333333333333332],[0.3958333333333333,0.18333333333333332],[0.39479166666666665,0.18333333333333332],[0.39375,0.18333333333333332],[0.39375,0.18333333333333332],[0.3927083333333333,0.18333333333333332],[0.3927083333333333,0.18333333333333332],[0.3927083333333333,0.18333333333333332],[0.3927083333333333,0.18333333333333332],[0.3927083333333333,0.18333333333333332],[0.3927083333333333,0.18333333333333332],[0.3927083333333333,0.18333333333333332],[0.3927083333333333,0.18333333333333332],[0.3927083333333333,0.18333333333333332],[0.3927083333333333,0.18333333333333332],[0.3927083333333333,0.18333333333333332],[0.3927083333333333,0.18333333333333332],[0.3927083333333333,0.18333333333333332],[0.3927083333333333,0.18333333333333332],[0.3927083333333333,0.18333333333333332],[0.3927083333333333,0.18333333333333332],[0.3927083333333333,0.18333333333333332],[0.3927083333333333,0.18333333333333332],[0.39166666666666666,0.1814814814814815],[0.390625,0.17962962962962964],[0.38958333333333334,0.17962962962962964],[0.3885416666666667,0.17777777777777778],[0.3875,0.17777777777777778],[0.3875,0.17777777777777778],[0.3875,0.17777777777777778],[0.3875,0.17777777777777778],[0.38645833333333335,0.17777777777777778],[0.3854166666666667,0.17592592592592593],[0.3854166666666667,0.17592592592592593],[0.384375,0.17592592592592593],[0.384375,0.17592592592592593],[0.384375,0.17592592592592593],[0.384375,0.17592592592592593],[0.38333333333333336,0.17407407407407408],[0.38333333333333336,0.17407407407407408],[0.38333333333333336,0.17407407407407408],[0.38333333333333336,0.17407407407407408],[0.38333333333333336,0.17407407407407408],[0.38333333333333336,0.17407407407407408],[0.38229166666666664,0.17222222222222222],[0.38229166666666664,0.17222222222222222],[0.38229166666666664,0.17222222222222222],[0.38229166666666664,0.17222222222222222],[0.38229166666666664,0.17222222222222222],[0.38229166666666664,0.17222222222222222],[0.38229166666666664,0.17222222222222222],[0.38229166666666664,0.17222222222222222],[0.38229166666666664,0.17222222222222222],[0.38229166666666664,0.17222222222222222],[0.38229166666666664,0.17222222222222222],[0.38229166666666664,0.17222222222222222],[0.38229166666666664,0.17222222222222222],[0.38229166666666664,0.17222222222222222],[0.38229166666666664,0.17222222222222222],[0.38229166666666664,0.17222222222222222],[0.38229166666666664,0.17222222222222222],[0.38229166666666664,0.17222222222222222],[0.38229166666666664,0.17222222222222222],[0.38229166666666664,0.17222222222222222],[0.38229166666666664,0.17222222222222222],[0.38229166666666664,0.17222222222222222],[0.38229166666666664,0.17222222222222222],[0.38229166666666664,0.17222222222222222],[0.38229166666666664,0.17222222222222222],[0.38229166666666664,0.17222222222222222],[0.38229166666666664,0.17222222222222222],[0.38125,0.17222222222222222],[0.38125,0.17222222222222222],[0.37916666666666665,0.17222222222222222],[0.3770833333333333,0.17222222222222222],[0.37604166666666666,0.17222222222222222],[0.37395833333333334,0.17037037037037037],[0.3697916666666667,0.1685185185185185],[0.36041666666666666,0.1648148148148148],[0.33958333333333335,0.1648148148148148],[0.29270833333333335,0.1648148148148148],[0.275,0.1648148148148148],[0.24375,0.1648148148148148],[0.20104166666666667,0.1648148148148148],[0.15208333333333332,0.1648148148148148],[0.09791666666666667,0.16666666666666666],[0.027083333333333334,0.18703703703703703],[-0.014583333333333334,0.20555555555555555],[-0.04895833333333333,0.22592592592592592],[-0.06354166666666666,0.23333333333333334],[-0.084375,0.2462962962962963],[-0.090625,0.2518518518518518],[-0.09166666666666666,0.2537037037037037],[-0.09479166666666666,0.2574074074074074],[-0.09583333333333334,0.2611111111111111],[-0.096875,0.26296296296296295],[-0.096875,0.26296296296296295],[-0.096875,0.26296296296296295],[-0.096875,0.26481481481481484],[-0.096875,0.26481481481481484],[-0.096875,0.26481481481481484],[-0.096875,0.26481481481481484],[-0.096875,0.26481481481481484],[-0.096875,0.26481481481481484],[-0.096875,0.26481481481481484],[-0.096875,0.26481481481481484],[-0.096875,0.26481481481481484],[-0.096875,0.26481481481481484],[-0.096875,0.26481481481481484],[-0.096875,0.26481481481481484],[-0.096875,0.26481481481481484],[-0.096875,0.26481481481481484],[-0.096875,0.26481481481481484],[-0.096875,0.26481481481481484],[-0.096875,0.26481481481481484],[-0.096875,0.26481481481481484],[-0.096875,0.26481481481481484],[-0.096875,0.26481481481481484],[-0.096875,0.26481481481481484],[-0.096875,0.26481481481481484],[-0.096875,0.26481481481481484],[-0.096875,0.26481481481481484],[-0.096875,0.26481481481481484],[-0.096875,0.26481481481481484],[-0.096875,0.26481481481481484],[-0.10729166666666666,0.2740740740740741],[-0.12708333333333333,0.2851851851851852],[-0.14375,0.30185185185185187],[-0.15729166666666666,0.31666666666666665],[-0.1625,0.32222222222222224],[-0.16354166666666667,0.32592592592592595],[-0.16458333333333333,0.3277777777777778],[-0.16458333333333333,0.3314814814814815],[-0.16458333333333333,0.3333333333333333],[-0.16458333333333333,0.3388888888888889],[-0.16458333333333333,0.3425925925925926],[-0.16354166666666667,0.34629629629629627],[-0.1625,0.34629629629629627],[-0.1625,0.34629629629629627],[-0.1625,0.34814814814814815],[-0.1625,0.34814814814814815],[-0.16145833333333334,0.34814814814814815],[-0.16041666666666668,0.35],[-0.159375,0.35],[-0.15729166666666666,0.35185185185185186],[-0.15520833333333334,0.35185185185185186],[-0.153125,0.3537037037037037],[-0.14791666666666667,0.3537037037037037],[-0.14479166666666668,0.3537037037037037],[-0.140625,0.3537037037037037],[-0.1375,0.3537037037037037],[-0.13645833333333332,0.3537037037037037],[-0.13333333333333333,0.3574074074074074],[-0.13229166666666667,0.3574074074074074],[-0.13125,0.3574074074074074],[-0.13125,0.3574074074074074],[-0.13125,0.3574074074074074],[-0.13125,0.3574074074074074],[-0.13125,0.3574074074074074],[-0.13125,0.3574074074074074],[-0.13125,0.3574074074074074],[-0.13125,0.3574074074074074],[-0.13125,0.3574074074074074],[-0.13125,0.3574074074074074],[-0.13125,0.3574074074074074],[-0.13125,0.3574074074074074],[-0.13125,0.3574074074074074],[-0.13125,0.3574074074074074],[-0.13125,0.3574074074074074],[-0.13125,0.3574074074074074],[-0.13125,0.3574074074074074],[-0.13125,0.3574074074074074],[-0.13125,0.3574074074074074],[-0.13125,0.3574074074074074],[-0.13125,0.3574074074074074],[-0.13125,0.3574074074074074],[-0.13125,0.3574074074074074],[-0.13125,0.3574074074074074],[-0.13125,0.3574074074074074],[-0.13125,0.3574074074074074],[-0.13125,0.3574074074074074],[-0.13125,0.3574074074074074],[-0.13125,0.3574074074074074],[-0.13125,0.3574074074074074],[-0.13125,0.3574074074074074],[-0.13125,0.3574074074074074],[-0.13125,0.3574074074074074],[-0.13125,0.3574074074074074],[-0.13125,0.3574074074074074],[-0.13125,0.3574074074074074],[-0.13125,0.3574074074074074],[-0.13125,0.3574074074074074],[-0.13125,0.3574074074074074],[-0.11979166666666667,0.3574074074074074],[-0.096875,0.3592592592592593],[-0.06145833333333333,0.3685185185185185],[0.004166666666666667,0.38333333333333336],[0.09479166666666666,0.4074074074074074],[0.21979166666666666,0.43333333333333335],[0.29375,0.45185185185185184],[0.3614583333333333,0.4685185185185185],[0.40520833333333334,0.48333333333333334],[0.43020833333333336,0.4962962962962963],[0.44479166666666664,0.5037037037037037],[0.4510416666666667,0.5074074074074074],[0.453125,0.5092592592592593],[0.45416666666666666,0.5092592592592593],[0.45416666666666666,0.5092592592592593],[0.45416666666666666,0.5092592592592593],[0.45416666666666666,0.5092592592592593],[0.45416666666666666,0.5092592592592593],[0.45625,0.5111111111111111],[0.45729166666666665,0.5111111111111111],[0.45729166666666665,0.5111111111111111],[0.45729166666666665,0.5111111111111111],[0.45729166666666665,0.5111111111111111],[0.45729166666666665,0.5111111111111111],[0.45729166666666665,0.5111111111111111],[0.45729166666666665,0.5111111111111111],[0.45729166666666665,0.5111111111111111],[0.45729166666666665,0.5111111111111111],[0.45729166666666665,0.5111111111111111],[0.45729166666666665,0.5111111111111111],[0.45729166666666665,0.5111111111111111],[0.45729166666666665,0.5111111111111111],[0.45729166666666665,0.5111111111111111],[0.45729166666666665,0.5111111111111111],[0.45729166666666665,0.5111111111111111],[0.4583333333333333,0.5111111111111111],[0.46979166666666666,0.5166666666666667],[0.4864583333333333,0.5203703703703704],[0.509375,0.5333333333333333],[0.53125,0.5462962962962963],[0.54375,0.5611111111111111],[0.5479166666666667,0.5685185185185185],[0.5489583333333333,0.5740740740740741],[0.5489583333333333,0.5814814814814815],[0.5489583333333333,0.5851851851851851],[0.5489583333333333,0.5888888888888889],[0.5489583333333333,0.5925925925925926],[0.5489583333333333,0.5981481481481481],[0.546875,0.6074074074074074],[0.546875,0.6148148148148148],[0.546875,0.6203703703703703],[0.546875,0.6203703703703703],[0.546875,0.6203703703703703],[0.546875,0.6203703703703703],[0.546875,0.6203703703703703],[0.546875,0.6203703703703703],[0.546875,0.6222222222222222],[0.55625,0.6185185185185185],[0.5625,0.6166666666666667],[0.5635416666666667,0.6166666666666667],[0.5645833333333333,0.6166666666666667],[0.5645833333333333,0.6166666666666667],[0.5645833333333333,0.6166666666666667],[0.5645833333333333,0.6166666666666667],[0.5645833333333333,0.6166666666666667],[0.5645833333333333,0.6166666666666667],[0.5645833333333333,0.6166666666666667],[0.5645833333333333,0.6166666666666667],[0.5645833333333333,0.6166666666666667],[0.5645833333333333,0.6166666666666667],[0.5645833333333333,0.6166666666666667],[0.5645833333333333,0.6166666666666667],[0.5645833333333333,0.6166666666666667],[0.5645833333333333,0.6166666666666667],[0.5645833333333333,0.6166666666666667],[0.5645833333333333,0.6166666666666667],[0.5645833333333333,0.6166666666666667],[0.5645833333333333,0.6166666666666667],[0.5645833333333333,0.6166666666666667],[0.5645833333333333,0.6166666666666667],[0.5645833333333333,0.6166666666666667],[0.5645833333333333,0.6166666666666667],[0.5645833333333333,0.6166666666666667],[0.5729166666666666,0.6166666666666667],[0.5864583333333333,0.6148148148148148],[0.6145833333333334,0.6111111111111112],[0.625,0.6074074074074074],[0.64375,0.6037037037037037],[0.6604166666666667,0.6],[0.6875,0.5981481481481481],[0.7041666666666667,0.5981481481481481],[0.715625,0.5962962962962963],[0.7239583333333334,0.5962962962962963],[0.7302083333333333,0.5962962962962963],[0.7322916666666667,0.5962962962962963],[0.7333333333333333,0.5962962962962963],[0.7333333333333333,0.5962962962962963],[0.7333333333333333,0.5962962962962963],[0.7333333333333333,0.5962962962962963],[0.7333333333333333,0.5962962962962963],[0.7333333333333333,0.5962962962962963],[0.7333333333333333,0.5962962962962963],[0.7333333333333333,0.5962962962962963],[0.7333333333333333,0.5962962962962963],[0.7333333333333333,0.5962962962962963],[0.7333333333333333,0.5962962962962963],[0.7333333333333333,0.5962962962962963],[0.7333333333333333,0.5962962962962963],[0.7333333333333333,0.5962962962962963],[0.7333333333333333,0.5962962962962963],[0.7333333333333333,0.5962962962962963],[0.7333333333333333,0.5962962962962963],[0.7333333333333333,0.5962962962962963],[0.7333333333333333,0.5962962962962963],[0.7333333333333333,0.5962962962962963],[0.7333333333333333,0.5962962962962963],[0.7333333333333333,0.5962962962962963],[0.7333333333333333,0.5962962962962963],[0.7333333333333333,0.5962962962962963],[0.7333333333333333,0.5962962962962963],[0.7333333333333333,0.5962962962962963],[0.7333333333333333,0.5962962962962963],[0.7333333333333333,0.5962962962962963],[0.7333333333333333,0.5962962962962963],[0.7333333333333333,0.5962962962962963]]","[[0.16218750000000004,0.0705555555555556],[0.16218750000000004,0.0705555555555556],[0.1319791666666667,0.014814814814814815],[0.1319791666666667,0.014814814814814815],[0.1428124999999999,-0.030740740740740784],[0.16802083333333329,-0.08611111111111111],[0.20145833333333343,-0.1307407407407408],[0.18718750000000003,-0.1764814814814815],[0.1640625,-0.21777777777777782],[0.1759375000000001,-0.26129629629629636],[0.1865624999999999,-0.33111111111111113],[0.17312500000000006,-0.3396296296296296],[0.17312500000000006,-0.3396296296296296],[0.1404166666666666,-0.3461111111111111],[0.14885416666666676,-0.3296296296296296],[0.14885416666666676,-0.3296296296296296],[0.12479166666666662,-0.31055555555555553],[0.12479166666666662,-0.31055555555555553],[0.08770833333333337,-0.2825925925925926],[0.03739583333333331,-0.26185185185185184],[0.027708333333333356,-0.23296296296296298],[0.050416666666666644,-0.2146296296296296],[0.03812500000000003,-0.1940740740740741],[0.009375,-0.17740740740740743],[0.010520833333333358,-0.1690740740740741],[-0.044270833333333336,-0.17888888888888893],[-0.09468749999999998,-0.18759259259259262],[-0.09468749999999998,-0.18759259259259262],[-0.11458333333333333,-0.19907407407407407],[-0.16364583333333335,-0.18981481481481483],[-0.16364583333333335,-0.18981481481481483],[-0.19541666666666668,-0.2],[-0.23531249999999998,-0.16574074074074074],[-0.23531249999999998,-0.16574074074074074],[-0.3198958333333334,-0.12092592592592595],[-0.3198958333333334,-0.12092592592592595],[-0.3086458333333333,-0.13499999999999995],[-0.3086458333333333,-0.13499999999999995],[-0.2469791666666667,-0.15055555555555558],[-0.2469791666666667,-0.15055555555555558],[-0.26625000000000004,-0.14574074074074073],[-0.26625000000000004,-0.14574074074074073],[-0.22843749999999996,-0.15111111111111114],[-0.22843749999999996,-0.15111111111111114],[-0.19427083333333334,-0.1411111111111111],[-0.125,-0.147037037037037],[-0.125,-0.147037037037037],[-0.03239583333333336,-0.16592592592592598],[0.041562499999999974,-0.15851851851851856],[0.17937500000000003,-0.21944444444444444],[0.3349999999999999,-0.28833333333333333],[0.3256249999999999,-0.2933333333333333],[0.28020833333333334,-0.27259259259259255],[0.3337500000000001,-0.2740740740740741],[0.37302083333333325,-0.23537037037037042],[0.42937500000000006,-0.23481481481481484],[0.4226041666666667,-0.21537037037037038],[0.4101041666666667,-0.21592592592592597],[0.4102083333333333,-0.20759259259259263],[0.36843750000000003,-0.18111111111111114],[0.3246875000000001,-0.1507407407407407],[0.3554166666666667,-0.1257407407407407],[0.3853125000000001,-0.127962962962963],[0.36833333333333323,-0.102962962962963],[0.4271874999999999,-0.09981481481481477],[0.4722916666666668,-0.0772222222222222],[0.4884375000000001,-0.09592592592592594],[0.47666666666666657,-0.0772222222222222],[0.4913541666666667,-0.06500000000000004],[0.4990624999999999,-0.04888888888888885],[0.5213541666666667,-0.04425925925925922],[0.5211458333333333,-0.04259259259259259],[0.5234375,-0.032037037037036954],[0.5269791666666668,-0.04981481481481477],[0.4868750000000001,-0.07999999999999997],[0.4868750000000001,-0.07999999999999997],[0.4183333333333332,-0.14870370370370373],[0.4110416666666666,-0.14240740740740737],[0.4361458333333334,-0.14944444444444444],[0.4352083333333333,-0.1948148148148148],[0.4352083333333333,-0.1948148148148148],[0.4412499999999999,-0.202962962962963],[0.4222916666666668,-0.222037037037037],[0.4122916666666666,-0.23555555555555555],[0.4127083333333334,-0.24685185185185188],[0.4258333333333333,-0.26481481481481484],[0.39906249999999993,-0.24759259259259256],[0.3984375,-0.18351851851851855],[0.37395833333333334,-0.1814814814814815],[0.37395833333333334,-0.1814814814814815],[0.37531249999999994,-0.2044444444444444],[0.35812499999999997,-0.16518518518518516],[0.35812499999999997,-0.16518518518518516],[0.3420833333333334,-0.1766666666666666],[0.3541666666666667,-0.16722222222222224],[0.3741666666666667,-0.19129629629629633],[0.3835416666666667,-0.2014814814814815],[0.3881249999999999,-0.20981481481481484],[0.41354166666666664,-0.2309259259259259],[0.40572916666666664,-0.23203703703703707],[0.3927083333333333,-0.21722222222222223],[0.38270833333333343,-0.2366666666666667],[0.3928124999999999,-0.28203703703703703],[0.3928124999999999,-0.28203703703703703],[0.38552083333333326,-0.3005555555555556],[0.35427083333333326,-0.2607407407407408],[0.35427083333333326,-0.2607407407407408],[0.2916666666666667,-0.2535185185185185],[0.27854166666666674,-0.2368518518518518],[0.27854166666666674,-0.2368518518518518],[0.27104166666666674,-0.20611111111111113],[0.27104166666666674,-0.20611111111111113],[0.2695833333333333,-0.18759259259259262],[0.30364583333333334,-0.19740740740740745],[0.3414583333333333,-0.19648148148148153],[0.3702083333333334,-0.15111111111111114],[0.3919791666666666,-0.07925925925925928],[0.40770833333333345,-0.03185185185185194],[0.4422916666666666,-0.05962962962962961],[0.46635416666666674,-0.0257407407407407],[0.46197916666666666,-0.006666666666666709],[0.4634375000000001,-0.026111111111111154],[0.46541666666666665,-0.037037037037037035],[0.41687500000000005,-0.04425925925925922],[0.3645833333333333,-0.06222222222222226],[0.33135416666666656,-0.09574074074074072],[0.3051041666666668,-0.1557407407407408],[0.30281250000000004,-0.17907407407407405],[0.29322916666666665,-0.1844444444444445],[0.3245833333333332,-0.20111111111111116],[0.3351041666666667,-0.22851851851851848],[0.35999999999999993,-0.2207407407407407],[0.37833333333333335,-0.20925925925925926],[0.44718749999999996,-0.2014814814814815],[0.5085416666666667,-0.2],[0.5159374999999999,-0.18074074074074079],[0.5096875,-0.13574074074074077],[0.4879166666666668,-0.11444444444444446],[0.44291666666666674,-0.09888888888888885],[0.4154166666666666,-0.11129629629629634],[0.41875,-0.12851851851851848],[0.39822916666666663,-0.15907407407407403],[0.39822916666666663,-0.15907407407407403],[0.39822916666666663,-0.15907407407407403],[0.36958333333333326,-0.167037037037037],[0.3419791666666666,-0.172037037037037],[0.3419791666666666,-0.172037037037037],[0.32302083333333326,-0.17962962962962964],[0.3628124999999999,-0.18722222222222226],[0.41906249999999995,-0.2111111111111111],[0.41906249999999995,-0.2111111111111111],[0.47531249999999997,-0.23499999999999996],[0.47531249999999997,-0.23499999999999996],[0.47593750000000007,-0.23259259259259263],[0.5157291666666666,-0.2096296296296296],[0.5109375,-0.20055555555555557],[0.5109375,-0.20055555555555557],[0.5211458333333333,-0.1992592592592593],[0.5478125000000001,-0.20611111111111113],[0.5478125000000001,-0.20611111111111113],[0.5541666666666667,-0.21092592592592588],[0.5670833333333334,-0.2103703703703704],[0.5248958333333335,-0.22148148148148153],[0.49666666666666665,-0.22388888888888886],[0.49666666666666665,-0.22388888888888886],[0.4680208333333333,-0.22833333333333336],[0.4680208333333333,-0.22833333333333336],[0.5440625,-0.25259259259259254],[0.5412499999999999,-0.27444444444444444],[0.5276041666666667,-0.27629629629629626],[0.5276041666666667,-0.27629629629629626],[0.4861458333333334,-0.25685185185185183],[0.4487499999999999,-0.2566666666666667],[0.43479166666666674,-0.2564814814814815],[0.4131249999999999,-0.25277777777777777],[0.3798958333333334,-0.24222222222222226],[0.3298958333333334,-0.24981481481481477],[0.2696875000000001,-0.2603703703703704],[0.18364583333333329,-0.27166666666666667],[0.19302083333333328,-0.22870370370370371],[0.22312500000000005,-0.1955555555555556],[0.27229166666666677,-0.17111111111111107],[0.2837500000000001,-0.17185185185185187],[0.2894791666666668,-0.1698148148148148],[0.2894791666666668,-0.1698148148148148],[0.29666666666666663,-0.17314814814814813],[0.31270833333333337,-0.15555555555555556],[0.32052083333333337,-0.14537037037037037],[0.32052083333333337,-0.14537037037037037],[0.3389583333333334,-0.1301851851851852],[0.38125,-0.12314814814814815],[0.38125,-0.12314814814814815],[0.3546875,-0.15129629629629626],[0.32312500000000005,-0.17703703703703708],[0.2877083333333334,-0.21129629629629634],[0.25322916666666656,-0.20277777777777778],[0.25322916666666656,-0.20277777777777778],[0.24427083333333333,-0.18648148148148147],[0.23781249999999995,-0.18277777777777776],[0.23708333333333323,-0.18481481481481485],[0.23093750000000005,-0.19574074074074072],[0.22010416666666663,-0.18277777777777776],[0.1853125000000001,-0.15685185185185183],[0.15343749999999995,-0.18777777777777774],[0.1304166666666667,-0.2125925925925926],[0.10739583333333323,-0.23740740740740737],[0.0984375,-0.24240740740740738],[0.08031249999999991,-0.27740740740740744],[0.058229166666666644,-0.29444444444444445],[0.058229166666666644,-0.29444444444444445],[0.03781249999999995,-0.29907407407407405],[0.03781249999999995,-0.29907407407407405],[0.025312499999999953,-0.2825925925925926],[0.017916666666666713,-0.3014814814814815],[0.017916666666666713,-0.3014814814814815],[0.010625000000000048,-0.32518518518518524],[0.03916666666666669,-0.2853703703703704],[0.013854166666666619,-0.25148148148148153],[0.013854166666666619,-0.25148148148148153],[-0.011458333333333333,-0.2175925925925926],[-0.009791666666666643,-0.21425925925925923],[-0.035416666666666666,-0.17981481481481484],[-0.06104166666666669,-0.14537037037037037],[-0.06104166666666669,-0.14537037037037037],[-0.07718750000000002,-0.12740740740740744],[-0.05625,-0.13111111111111112],[-0.03572916666666662,-0.12333333333333338],[0.013750000000000047,-0.12851851851851848],[0.021354166666666667,-0.14092592592592595],[0.0828125,-0.14740740740740746],[0.08270833333333343,-0.1557407407407408],[0.08270833333333343,-0.1557407407407408],[0.0806250000000001,-0.15703703703703706],[0.09937500000000009,-0.17962962962962964],[0.09937500000000009,-0.17962962962962964],[0.11812500000000009,-0.2022222222222222],[0.1553124999999999,-0.22481481481481477],[0.1553124999999999,-0.22481481481481477],[0.15458333333333343,-0.27685185185185185],[0.15458333333333343,-0.27685185185185185],[0.1390625,-0.3098148148148148],[0.1390625,-0.3098148148148148],[0.11322916666666671,-0.327962962962963],[0.11322916666666671,-0.327962962962963],[0.06333333333333328,-0.32888888888888895],[0.06333333333333328,-0.32888888888888895],[0.014687500000000023,-0.28722222222222227],[0.014687500000000023,-0.28722222222222227],[0.020624999999999952,-0.28407407407407403],[-0.034166666666666616,-0.27388888888888885],[-0.09729166666666664,-0.259074074074074],[-0.1498958333333333,-0.2733333333333334],[-0.2179166666666667,-0.2922222222222222],[-0.27937500000000004,-0.26481481481481484],[-0.29656250000000006,-0.2542592592592593],[-0.35531250000000003,-0.23407407407407405],[-0.3642708333333334,-0.25407407407407406],[-0.37447916666666664,-0.31666666666666665],[-0.41208333333333336,-0.3101851851851852],[-0.3958333333333333,-0.32592592592592595],[-0.37958333333333333,-0.3416666666666667],[-0.3763541666666666,-0.3690740740740741],[-0.3515625,-0.3801851851851852],[-0.3419791666666666,-0.3883333333333333],[-0.3415625,-0.40907407407407403],[-0.3345833333333334,-0.41740740740740734],[-0.3572916666666667,-0.4033333333333334],[-0.3522916666666667,-0.36814814814814817],[-0.3522916666666667,-0.36814814814814817],[-0.3129166666666666,-0.3616666666666667],[-0.3129166666666666,-0.3616666666666667],[-0.24791666666666667,-0.37296296296296294],[-0.24791666666666667,-0.37296296296296294],[-0.19114583333333332,-0.3705555555555556],[-0.16572916666666668,-0.3190740740740741],[-0.15989583333333332,-0.27092592592592596],[-0.15989583333333332,-0.27092592592592596],[-0.1388541666666666,-0.2257407407407407],[-0.11552083333333331,-0.20203703703703707],[-0.07583333333333328,-0.2022222222222222],[-0.059895833333333336,-0.16925925925925922],[-0.06854166666666663,-0.16444444444444448],[-0.07864583333333333,-0.16500000000000004],[-0.12072916666666664,-0.13629629629629633],[-0.1580208333333334,-0.10666666666666672],[-0.13677083333333329,-0.10092592592592593],[-0.11749999999999995,-0.1081481481481481],[-0.1,-0.122037037037037],[-0.08729166666666661,-0.10833333333333334],[-0.09437500000000003,-0.08907407407407411],[-0.07374999999999995,-0.10240740740740743],[-0.06510416666666667,-0.10259259259259255],[-0.05499999999999995,-0.09740740740740746],[-0.04239583333333338,-0.0809259259259259],[-0.02635416666666662,-0.07907407407407405],[-0.02635416666666662,-0.07907407407407405],[-0.05302083333333331,-0.06722222222222224],[-0.06375000000000004,-0.05499999999999998],[-0.07270833333333329,-0.03611111111111111],[-0.10281250000000004,0.004074074074074159],[-0.07427083333333329,0.014814814814814815],[-0.11656249999999997,0.025],[-0.11656249999999997,0.025],[-0.11041666666666666,-0.011481481481481566],[-0.12333333333333331,-0.027222222222222307],[-0.11322916666666671,-0.09203703703703701],[-0.10718749999999998,-0.14425925925925923],[-0.11260416666666669,-0.1816666666666667],[-0.11864583333333331,-0.17851851851851847],[-0.09281250000000002,-0.22851851851851848],[-0.06364583333333336,-0.29555555555555557],[-0.09322916666666667,-0.3103703703703704],[-0.051979166666666646,-0.32462962962962966],[-0.03739583333333331,-0.35648148148148145],[-0.0037500000000000237,-0.40907407407407403],[0.005729166666666666,-0.42111111111111105],[0.019270833333333334,-0.4457407407407407],[0.07010416666666662,-0.4940740740740741],[0.09333333333333324,-0.5716666666666667],[0.07249999999999991,-0.5633333333333334],[0.05166666666666669,-0.5549999999999999],[0.03145833333333338,-0.5698148148148148],[0.011249999999999953,-0.5846296296296296],[-0.016354166666666715,-0.5283333333333333],[-0.043958333333333384,-0.472037037037037],[-0.07437499999999998,-0.42388888888888887],[-0.08385416666666666,-0.38870370370370366],[-0.10114583333333335,-0.33907407407407414],[-0.10114583333333335,-0.33907407407407414],[-0.07437499999999998,-0.3111111111111111],[-0.07437499999999998,-0.3111111111111111],[-0.04750000000000002,-0.297037037037037],[-0.03125,-0.32037037037037036],[0.01875,-0.355],[0.0626041666666667,-0.34981481481481475],[0.1296875,-0.38629629629629636],[0.19406249999999994,-0.41759259259259257],[0.2529166666666666,-0.4594444444444445],[0.2908333333333334,-0.4883333333333333],[0.3150000000000001,-0.5064814814814815],[0.30916666666666665,-0.5533333333333333],[0.3654166666666666,-0.6053703703703703],[0.36739583333333337,-0.587037037037037],[0.3890625,-0.5605555555555556],[0.43083333333333323,-0.6048148148148148],[0.43083333333333323,-0.6048148148148148],[0.38083333333333325,-0.5855555555555555],[0.3818749999999999,-0.5707407407407408],[0.35260416666666666,-0.5724074074074075],[0.36687500000000006,-0.5714814814814815],[0.36697916666666663,-0.575925925925926],[0.3728125000000001,-0.5512962962962963],[0.3792708333333332,-0.5357407407407407],[0.4506249999999999,-0.5531481481481482],[0.45302083333333343,-0.5562962962962963],[0.4414583333333333,-0.5285185185185185],[0.504375,-0.5238888888888888],[0.4860416666666666,-0.5168518518518519],[0.5035416666666668,-0.48277777777777775],[0.5035416666666668,-0.48277777777777775],[0.5136458333333332,-0.4885185185185185],[0.5397916666666667,-0.5051851851851852],[0.5400000000000001,-0.49962962962962965],[0.5351041666666667,-0.522037037037037],[0.5302083333333333,-0.5444444444444444],[0.5622916666666666,-0.5662962962962963],[0.5943749999999999,-0.5881481481481482],[0.621875,-0.6094444444444445],[0.621875,-0.6094444444444445],[0.6798958333333334,-0.6179629629629629],[0.7542708333333332,-0.6335185185185186],[0.7654166666666666,-0.6246296296296296],[0.7884375000000001,-0.6101851851851852],[0.7884375000000001,-0.6101851851851852],[0.7852083333333333,-0.5575925925925926],[0.7364583333333333,-0.4816666666666667],[0.7238541666666668,-0.4401851851851852],[0.7119791666666667,-0.40796296296296297],[0.7001041666666665,-0.3757407407407407],[0.6559375000000001,-0.3394444444444445],[0.6141666666666665,-0.3190740740740741],[0.5486458333333334,-0.29388888888888887],[0.5486458333333334,-0.29388888888888887],[0.5102083333333333,-0.2559259259259259],[0.48947916666666674,-0.23055555555555557],[0.5140625,-0.28055555555555556],[0.5386458333333333,-0.33055555555555555],[0.5386458333333333,-0.33055555555555555],[0.5344791666666666,-0.3485185185185185],[0.5166666666666667,-0.3616666666666667],[0.5166666666666667,-0.3616666666666667],[0.5151041666666667,-0.3875925925925926],[0.5151041666666667,-0.3875925925925926],[0.5322916666666667,-0.40777777777777774],[0.5730208333333332,-0.47092592592592597],[0.5730208333333332,-0.47092592592592597],[0.6380208333333334,-0.5479629629629629],[0.7030208333333334,-0.625],[0.6983333333333335,-0.6392592592592592],[0.7068749999999999,-0.6509259259259259],[0.7068749999999999,-0.6509259259259259],[0.7154166666666666,-0.6625925925925926],[0.6960416666666667,-0.6466666666666666],[0.6875,-0.6361111111111111],[0.6627083333333333,-0.6127777777777778],[0.6627083333333333,-0.6127777777777778],[0.658125,-0.6224074074074074],[0.658125,-0.6224074074074074],[0.6243750000000001,-0.6035185185185185],[0.6102083333333332,-0.5929629629629629],[0.5835416666666667,-0.5824074074074074],[0.5835416666666667,-0.5824074074074074],[0.5923958333333333,-0.6003703703703703],[0.5965625,-0.6018518518518519],[0.6007291666666668,-0.6033333333333334],[0.63625,-0.6487037037037037],[0.63625,-0.6487037037037037],[0.6723958333333333,-0.695925925925926],[0.6870833333333333,-0.7312962962962962],[0.7019791666666667,-0.7770370370370371],[0.7214583333333332,-0.8074074074074075],[0.7044791666666667,-0.8133333333333334],[0.6722916666666667,-0.7837037037037037],[0.6565624999999999,-0.7757407407407407],[0.6238541666666667,-0.7701851851851852]]","[[0.16218750000000004,0.0705555555555556,0.0003000001907338401],[0.16218750000000004,0.0705555555555556,0.059499999999999886],[0.1319791666666667,0.014814814814814815,0.06480000019072918],[0.1319791666666667,0.014814814814814815,0.07269999980925945],[0.1428124999999999,-0.030740740740740784,0.08909999990463291],[0.16802083333333329,-0.08611111111111111,0.10990000009536516],[0.20145833333333343,-0.1307407407407408,0.12549999999999528],[0.18718750000000003,-0.1764814814814815,0.13980000019073202],[0.1640625,-0.21777777777777782,0.15959999990462848],[0.1759375000000001,-0.26129629629629636,0.17630000019073577],[0.1865624999999999,-0.33111111111111113,0.19330000019073168],[0.17312500000000006,-0.3396296296296296,0.2105999999046304],[0.17312500000000006,-0.3396296296296296,0.2224999999999966],[0.1404166666666666,-0.3461111111111111,0.23990000009536772],[0.14885416666666676,-0.3296296296296296,0.26149999999999807],[0.14885416666666676,-0.3296296296296296,0.27330000019073],[0.12479166666666662,-0.31055555555555553,0.28909999990462865],[0.12479166666666662,-0.31055555555555553,0.30569999980926355],[0.08770833333333337,-0.2825925925925926,0.322499999999998],[0.03739583333333331,-0.26185185185185184,0.3404000000953644],[0.027708333333333356,-0.23296296296296298,0.3559000000953674],[0.050416666666666644,-0.2146296296296296,0.3723000001907337],[0.03812500000000003,-0.1940740740740741,0.3894000000953639],[0.009375,-0.17740740740740743,0.40659999990462836],[0.010520833333333358,-0.1690740740740741,0.42240000009536516],[-0.044270833333333336,-0.17888888888888893,0.442300000190734],[-0.09468749999999998,-0.18759259259259262,0.45880000019073464],[-0.09468749999999998,-0.18759259259259262,0.4724999999999966],[-0.11458333333333333,-0.19907407407407407,0.4889999999999972],[-0.16364583333333335,-0.18981481481481483,0.5105999999046276],[-0.16364583333333335,-0.18981481481481483,0.522599999904628],[-0.19541666666666668,-0.2,0.5393000001907353],[-0.23531249999999998,-0.16574074074074074,0.5624000000953657],[-0.23531249999999998,-0.16574074074074074,0.5724000000953637],[-0.3198958333333334,-0.12092592592592595,0.5890999999046329],[-0.3198958333333334,-0.12092592592592595,0.6114000000953652],[-0.3086458333333333,-0.13499999999999995,0.622400000095368],[-0.3086458333333333,-0.13499999999999995,0.6391999998092643],[-0.2469791666666667,-0.15055555555555558,0.6616999998092652],[-0.2469791666666667,-0.15055555555555558,0.6724999999999994],[-0.26625000000000004,-0.14574074074074073,0.6891999998092615],[-0.26625000000000004,-0.14574074074074073,0.7105999999046304],[-0.22843749999999996,-0.15111111111111114,0.7224999999999966],[-0.22843749999999996,-0.15111111111111114,0.7390999999046315],[-0.19427083333333334,-0.1411111111111111,0.7608000001907342],[-0.125,-0.147037037037037,0.7770999999046282],[-0.125,-0.147037037037037,0.7890999999046286],[-0.03239583333333336,-0.16592592592592598,0.8058000001907359],[0.041562499999999974,-0.15851851851851856,0.8223000001907295],[0.17937500000000003,-0.21944444444444444,0.8414000000953621],[0.3349999999999999,-0.28833333333333333,0.8556999998092607],[0.3256249999999999,-0.2933333333333333,0.8724999999999952],[0.28020833333333334,-0.27259259259259255,0.8889999999999958],[0.3337500000000001,-0.2740740740740741,0.9058000001907303],[0.37302083333333325,-0.23537037037037042,0.9223000001907309],[0.42937500000000006,-0.23481481481481484,0.9390999999046272],[0.4226041666666667,-0.21537037037037038,0.9559000000953617],[0.4101041666666667,-0.21592592592592597,0.9756999998092653],[0.4102083333333333,-0.20759259259259263,0.9920999999046316],[0.36843750000000003,-0.18111111111111114,1.0079000000953684],[0.3246875000000001,-0.1507407407407407,1.0224000000953666],[0.3554166666666667,-0.1257407407407407,1.0389999999999944],[0.3853125000000001,-0.127962962962963,1.0563000001907312],[0.36833333333333323,-0.102962962962963,1.0745000000000005],[0.4271874999999999,-0.09981481481481477,1.0899999999999963],[0.4722916666666668,-0.0772222222222222,1.105800000190733],[0.4884375000000001,-0.09592592592592594,1.1251999998092614],[0.47666666666666657,-0.0772222222222222,1.1391999998092643],[0.4913541666666667,-0.06500000000000004,1.156099999904633],[0.4990624999999999,-0.04888888888888885,1.1725999999046337],[0.5213541666666667,-0.04425925925925922,1.1918000001907316],[0.5211458333333333,-0.04259259259259259,1.2079000000953641],[0.5234375,-0.032037037037036954,1.2224000000953623],[0.5269791666666668,-0.04981481481481477,1.2420999999046316],[0.4868750000000001,-0.07999999999999997,1.2579999999999956],[0.4868750000000001,-0.07999999999999997,1.2728000001907347],[0.4183333333333332,-0.14870370370370373,1.2893000001907353],[0.4110416666666666,-0.14240740740740737,1.308800000190736],[0.4361458333333334,-0.14944444444444444,1.3226999998092595],[0.4352083333333333,-0.1948148148148148,1.33919999980926],[0.4352083333333333,-0.1948148148148148,1.3559000000953674],[0.4412499999999999,-0.202962962962963,1.3753000001907338],[0.4222916666666668,-0.222037037037037,1.3918000001907345],[0.4122916666666666,-0.23555555555555555,1.4085999999046308],[0.4127083333333334,-0.24685185185185188,1.4254999999999995],[0.4258333333333333,-0.26481481481481484,1.4394000000953682],[0.39906249999999993,-0.24759259259259256,1.4560999999046302],[0.3984375,-0.18351851851851855,1.4724999999999966],[0.37395833333333334,-0.1814814814814815,1.4915999999046292],[0.37395833333333334,-0.1814814814814815,1.505900000095366],[0.37531249999999994,-0.2044444444444444,1.5228000001907347],[0.35812499999999997,-0.16518518518518516,1.5455999999046313],[0.35812499999999997,-0.16518518518518516,1.557300000190736],[0.3420833333333334,-0.1766666666666666,1.5724000000953637],[0.3541666666666667,-0.16722222222222224,1.589500000000001],[0.3741666666666667,-0.19129629629629633,1.605800000190733],[0.3835416666666667,-0.2014814814814815,1.6258000001907291],[0.3881249999999999,-0.20981481481481484,1.6420999999046302],[0.41354166666666664,-0.2309259259259259,1.657900000095367],[0.40572916666666664,-0.23203703703703707,1.6733000001907357],[0.3927083333333333,-0.21722222222222223,1.693400000095366],[0.38270833333333343,-0.2366666666666667,1.7105999999046304],[0.3928124999999999,-0.28203703703703703,1.725999999999999],[0.3928124999999999,-0.28203703703703703,1.7394000000953653],[0.38552083333333326,-0.3005555555555556,1.7598000001907295],[0.35427083333333326,-0.2607407407407408,1.7794000000953645],[0.35427083333333326,-0.2607407407407408,1.789199999809263],[0.2916666666666667,-0.2535185185185185,1.8105999999046318],[0.27854166666666674,-0.2368518518518518,1.8279000000953616],[0.27854166666666674,-0.2368518518518518,1.8393000001907325],[0.27104166666666674,-0.20611111111111113,1.8610999999046314],[0.27104166666666674,-0.20611111111111113,1.872400000095368],[0.2695833333333333,-0.18759259259259262,1.8895999999046325],[0.30364583333333334,-0.19740740740740745,1.9081999998092627],[0.3414583333333333,-0.19648148148148153,1.9233000001907357],[0.3702083333333334,-0.15111111111111114,1.9431999998092593],[0.3919791666666666,-0.07925925925925928,1.9595999999046327],[0.40770833333333345,-0.03185185185185194,1.9748000001907329],[0.4422916666666666,-0.05962962962962961,1.9898000001907334],[0.46635416666666674,-0.0257407407407407,2.0056999998092593],[0.46197916666666666,-0.006666666666666709,2.0223000001907323],[0.4634375000000001,-0.026111111111111154,2.0389999999999944],[0.46541666666666665,-0.037037037037037035,2.0555999999046293],[0.41687500000000005,-0.04425925925925922,2.072499999999998],[0.3645833333333333,-0.06222222222222226,2.0899999999999963],[0.33135416666666656,-0.09574074074074072,2.106099999904629],[0.3051041666666668,-0.1557407407407408,2.122499999999995],[0.30281250000000004,-0.17907407407407405,2.1411999998092597],[0.29322916666666665,-0.1844444444444445,2.1555999999046307],[0.3245833333333332,-0.20111111111111116,2.1724999999999994],[0.3351041666666667,-0.22851851851851848,2.19409999990463],[0.35999999999999993,-0.2207407407407407,2.20969999980926],[0.37833333333333335,-0.20925925925925926,2.224800000190733],[0.44718749999999996,-0.2014814814814815,2.239699999809261],[0.5085416666666667,-0.2,2.258499999999998],[0.5159374999999999,-0.18074074074074079,2.2723000001907323],[0.5096875,-0.13574074074074077,2.289199999809263],[0.4879166666666668,-0.11444444444444446,2.3056999998092635],[0.44291666666666674,-0.09888888888888885,2.3256999998092596],[0.4154166666666666,-0.11129629629629634,2.341000000000001],[0.41875,-0.12851851851851848,2.3559000000953674],[0.39822916666666663,-0.15907407407407403,2.378699999809264],[0.39822916666666663,-0.15907407407407403,2.388999999999996],[0.39822916666666663,-0.15907407407407403,2.406900000095362],[0.36958333333333326,-0.167037037037037,2.422300000190731],[0.3419791666666666,-0.172037037037037,2.4454000000953684],[0.3419791666666666,-0.172037037037037,2.455699999809262],[0.32302083333333326,-0.17962962962962964,2.472599999904631],[0.3628124999999999,-0.18722222222222226,2.491900000095363],[0.41906249999999995,-0.2111111111111111,2.5101999998092595],[0.41906249999999995,-0.2111111111111111,2.5224000000953666],[0.47531249999999997,-0.23499999999999996,2.5441999998092655],[0.47531249999999997,-0.23499999999999996,2.5556999998092635],[0.47593750000000007,-0.23259259259259263,2.572499999999998],[0.5157291666666666,-0.2096296296296296,2.5933000001907303],[0.5109375,-0.20055555555555557,2.6115999999046338],[0.5109375,-0.20055555555555557,2.622400000095368],[0.5211458333333333,-0.1992592592592593,2.63909999990463],[0.5478125000000001,-0.20611111111111113,2.660900000095367],[0.5478125000000001,-0.20611111111111113,2.6724999999999994],[0.5541666666666667,-0.21092592592592588,2.689300000190734],[0.5670833333333334,-0.2103703703703704,2.708599999904628],[0.5248958333333335,-0.22148148148148153,2.726300000190733],[0.49666666666666665,-0.22388888888888886,2.7449999999999974],[0.49666666666666665,-0.22388888888888886,2.7558000001907317],[0.4680208333333333,-0.22833333333333336,2.7724000000953666],[0.4680208333333333,-0.22833333333333336,2.789599999904631],[0.5440625,-0.25259259259259254,2.805800000190736],[0.5412499999999999,-0.27444444444444444,2.8255999999046324],[0.5276041666666667,-0.27629629629629626,2.8419999999999987],[0.5276041666666667,-0.27629629629629626,2.859099999904629],[0.4861458333333334,-0.25685185185185183,2.872400000095368],[0.4487499999999999,-0.2566666666666667,2.8911999998092597],[0.43479166666666674,-0.2564814814814815,2.906099999904633],[0.4131249999999999,-0.25277777777777777,2.9224999999999994],[0.3798958333333334,-0.24222222222222226,2.941499999999998],[0.3298958333333334,-0.24981481481481477,2.9561999998092645],[0.2696875000000001,-0.2603703703703704,2.9749999999999943],[0.18364583333333329,-0.27166666666666667,2.993400000095363],[0.19302083333333328,-0.22870370370370371,3.00809999990463],[0.22312500000000005,-0.1955555555555556,3.02330000019073],[0.27229166666666677,-0.17111111111111107,3.0393000001907353],[0.2837500000000001,-0.17185185185185187,3.0586999998092637],[0.2894791666666668,-0.1698148148148148,3.0753000001907296],[0.2894791666666668,-0.1698148148148148,3.08919999980926],[0.29666666666666663,-0.17314814814814813,3.1059000000953674],[0.31270833333333337,-0.15555555555555556,3.127900000095366],[0.32052083333333337,-0.14537037037037037,3.1473000001907323],[0.32052083333333337,-0.14537037037037037,3.156099999904633],[0.3389583333333334,-0.1301851851851852,3.1724999999999994],[0.38125,-0.12314814814814815,3.1954999999999956],[0.38125,-0.12314814814814815,3.2058000001907345],[0.3546875,-0.15129629629629626,3.222599999904631],[0.32312500000000005,-0.17703703703703708,3.242699999809261],[0.2877083333333334,-0.21129629629629634,3.260400000095366],[0.25322916666666656,-0.20277777777777778,3.277000000000001],[0.25322916666666656,-0.20277777777777778,3.289199999809263],[0.24427083333333333,-0.18648148148148147,3.305900000095363],[0.23781249999999995,-0.18277777777777776,3.3255999999046324],[0.23708333333333323,-0.18481481481481485,3.3419000000953645],[0.23093750000000005,-0.19574074074074072,3.356099999904629],[0.22010416666666663,-0.18277777777777776,3.3725999999046294],[0.1853125000000001,-0.15685185185185183,3.3923000001907297],[0.15343749999999995,-0.18777777777777774,3.4084999999999965],[0.1304166666666667,-0.2125925925925926,3.4231999998092633],[0.10739583333333323,-0.23740740740740737,3.4436999998092617],[0.0984375,-0.24240740740740738,3.45969999980926],[0.08031249999999991,-0.27740740740740744,3.4761999998092605],[0.058229166666666644,-0.29444444444444445,3.4931999998092635],[0.058229166666666644,-0.29444444444444445,3.505599999904632],[0.03781249999999995,-0.29907407407407405,3.522599999904628],[0.03781249999999995,-0.29907407407407405,3.5389999999999944],[0.025312499999999953,-0.2825925925925926,3.555800000190736],[0.017916666666666713,-0.3014814814814815,3.5783000001907297],[0.017916666666666713,-0.3014814814814815,3.58919999980926],[0.010625000000000048,-0.32518518518518524,3.606099999904629],[0.03916666666666669,-0.2853703703703704,3.625],[0.013854166666666619,-0.25148148148148153,3.642400000095364],[0.013854166666666619,-0.25148148148148153,3.655699999809265],[-0.011458333333333333,-0.2175925925925926,3.6724999999999994],[-0.009791666666666643,-0.21425925925925923,3.691900000095366],[-0.035416666666666666,-0.17981481481481484,3.7090999999046304],[-0.06104166666666669,-0.14537037037037037,3.725900000095365],[-0.06104166666666669,-0.14537037037037037,3.738999999999997],[-0.07718750000000002,-0.12740740740740744,3.755599999904632],[-0.05625,-0.13111111111111112,3.777000000000001],[-0.03572916666666662,-0.12333333333333338,3.793699999809263],[0.013750000000000047,-0.12851851851851848,3.8100999999046294],[0.021354166666666667,-0.14092592592592595,3.8263000001907344],[0.0828125,-0.14740740740740746,3.8429999999999964],[0.08270833333333343,-0.1557407407407408,3.8623000001907357],[0.08270833333333343,-0.1557407407407408,3.8721999998092613],[0.0806250000000001,-0.15703703703703706,3.8933000001907345],[0.09937500000000009,-0.17962962962962964,3.9099999999999966],[0.09937500000000009,-0.17962962962962964,3.9225999999046337],[0.11812500000000009,-0.2022222222222222,3.9391999998092615],[0.1553124999999999,-0.22481481481481477,3.963400000095362],[0.1553124999999999,-0.22481481481481477,3.972599999904631],[0.15458333333333343,-0.27685185185185185,3.992900000095368],[0.15458333333333343,-0.27685185185185185,4.005800000190732],[0.1390625,-0.3098148148148148,4.02819999980926],[0.1390625,-0.3098148148148148,4.039199999809263],[0.11322916666666671,-0.327962962962963,4.055800000190736],[0.11322916666666671,-0.327962962962963,4.081800000190732],[0.06333333333333328,-0.32888888888888895,4.101800000190735],[0.06333333333333328,-0.32888888888888895,4.111400000095365],[0.014687500000000023,-0.28722222222222227,4.1325],[0.014687500000000023,-0.28722222222222227,4.139499999999998],[0.020624999999999952,-0.28407407407407403,4.15580000019073],[-0.034166666666666616,-0.27388888888888885,4.174499999999995],[-0.09729166666666664,-0.259074074074074,4.192],[-0.1498958333333333,-0.2733333333333334,4.20759999990463],[-0.2179166666666667,-0.2922222222222222,4.222499999999997],[-0.27937500000000004,-0.26481481481481484,4.238999999999997],[-0.29656250000000006,-0.2542592592592593,4.258400000095364],[-0.35531250000000003,-0.23407407407407405,4.272699999809262],[-0.3642708333333334,-0.25407407407407406,4.289300000190735],[-0.37447916666666664,-0.31666666666666665,4.305900000095363],[-0.41208333333333336,-0.3101851851851852,4.325199999809264],[-0.3958333333333333,-0.32592592592592595,4.339900000095362],[-0.37958333333333333,-0.3416666666666667,4.3559999999999945],[-0.3763541666666666,-0.3690740740740741,4.372499999999995],[-0.3515625,-0.3801851851851852,4.388900000095369],[-0.3419791666666666,-0.3883333333333333,4.4059000000953645],[-0.3415625,-0.40907407407407403,4.422300000190731],[-0.3345833333333334,-0.41740740740740734,4.439099999904627],[-0.3572916666666667,-0.4033333333333334,4.455500000000001],[-0.3522916666666667,-0.36814814814814817,4.472400000095362],[-0.3522916666666667,-0.36814814814814817,4.488999999999997],[-0.3129166666666666,-0.3616666666666667,4.505800000190732],[-0.3129166666666666,-0.3616666666666667,4.522300000190732],[-0.24791666666666667,-0.37296296296296294,4.539300000190735],[-0.24791666666666667,-0.37296296296296294,4.5556999998092635],[-0.19114583333333332,-0.3705555555555556,4.572400000095364],[-0.16572916666666668,-0.3190740740740741,4.588900000095364],[-0.15989583333333332,-0.27092592592592596,4.606099999904629],[-0.15989583333333332,-0.27092592592592596,4.622300000190734],[-0.1388541666666666,-0.2257407407407407,4.639199999809264],[-0.11552083333333331,-0.20203703703703707,4.6559000000953645],[-0.07583333333333328,-0.2022222222222222,4.675400000095365],[-0.059895833333333336,-0.16925925925925922,4.692],[-0.06854166666666663,-0.16444444444444448,4.707699999809265],[-0.07864583333333333,-0.16500000000000004,4.722499999999997],[-0.12072916666666664,-0.13629629629629633,4.7395],[-0.1580208333333334,-0.10666666666666672,4.755900000095366],[-0.13677083333333329,-0.10092592592592593,4.772300000190732],[-0.11749999999999995,-0.1081481481481481,4.789099999904629],[-0.1,-0.122037037037037,4.805800000190736],[-0.08729166666666661,-0.10833333333333334,4.822400000095364],[-0.09437500000000003,-0.08907407407407411,4.839099999904633],[-0.07374999999999995,-0.10240740740740743,4.855699999809261],[-0.06510416666666667,-0.10259259259259255,4.873099999904632],[-0.05499999999999995,-0.09740740740740746,4.888999999999996],[-0.04239583333333338,-0.0809259259259259,4.90580000019073],[-0.02635416666666662,-0.07907407407407405,4.922300000190731],[-0.02635416666666662,-0.07907407407407405,4.939099999904627],[-0.05302083333333331,-0.06722222222222224,4.955599999904628],[-0.06375000000000004,-0.05499999999999998,4.974199999809265],[-0.07270833333333329,-0.03611111111111111,4.989300000190731],[-0.10281250000000004,0.004074074074074159,5.005699999809259],[-0.07427083333333329,0.014814814814814815,5.02480000019073],[-0.11656249999999997,0.025,5.039199999809263],[-0.11656249999999997,0.025,5.055900000095363],[-0.11041666666666666,-0.011481481481481566,5.072599999904632],[-0.12333333333333331,-0.027222222222222307,5.0911999998092625],[-0.11322916666666671,-0.09203703703703701,5.105900000095367],[-0.10718749999999998,-0.14425925925925923,5.122599999904629],[-0.11260416666666669,-0.1816666666666667,5.139199999809264],[-0.11864583333333331,-0.17851851851851847,5.158699999809265],[-0.09281250000000002,-0.22851851851851848,5.174599999904629],[-0.06364583333333336,-0.29555555555555557,5.1899000000953635],[-0.09322916666666667,-0.3103703703703704,5.205900000095362],[-0.051979166666666646,-0.32462962962962966,5.224800000190733],[-0.03739583333333331,-0.35648148148148145,5.2390999999046315],[-0.0037500000000000237,-0.40907407407407403,5.255599999904632],[0.005729166666666666,-0.42111111111111105,5.274300000190735],[0.019270833333333334,-0.4457407407407407,5.288999999999994],[0.07010416666666662,-0.4940740740740741,5.305800000190736],[0.09333333333333324,-0.5716666666666667,5.327900000095362],[0.07249999999999991,-0.5633333333333334,5.342400000095367],[0.05166666666666669,-0.5549999999999999,5.3555999999046335],[0.03145833333333338,-0.5698148148148148,5.372400000095368],[0.011249999999999953,-0.5846296296296296,5.388999999999996],[-0.016354166666666715,-0.5283333333333333,5.405699999809265],[-0.043958333333333384,-0.472037037037037,5.422300000190731],[-0.07437499999999998,-0.42388888888888887,5.438900000095366],[-0.08385416666666666,-0.38870370370370366,5.455699999809262],[-0.10114583333333335,-0.33907407407407414,5.472300000190735],[-0.10114583333333335,-0.33907407407407414,5.489300000190731],[-0.07437499999999998,-0.3111111111111111,5.505599999904632],[-0.07437499999999998,-0.3111111111111111,5.522400000095367],[-0.04750000000000002,-0.297037037037037,5.539099999904629],[-0.03125,-0.32037037037037036,5.555800000190736],[0.01875,-0.355,5.572400000095364],[0.0626041666666667,-0.34981481481481475,5.588900000095364],[0.1296875,-0.38629629629629636,5.607900000095363],[0.19406249999999994,-0.41759259259259257,5.622499999999995],[0.2529166666666666,-0.4594444444444445,5.639499999999998],[0.2908333333333334,-0.4883333333333333,5.659300000190733],[0.3150000000000001,-0.5064814814814815,5.675699999809261],[0.30916666666666665,-0.5533333333333333,5.6939999999999955],[0.3654166666666666,-0.6053703703703703,5.71119999980926],[0.36739583333333337,-0.587037037037037,5.726400000095367],[0.3890625,-0.5605555555555556,5.741199999809261],[0.43083333333333323,-0.6048148148148148,5.761800000190732],[0.43083333333333323,-0.6048148148148148,5.772500000000001],[0.38083333333333325,-0.5855555555555555,5.789099999904629],[0.3818749999999999,-0.5707407407407408,5.805800000190736],[0.35260416666666666,-0.5724074074074075,5.825900000095366],[0.36687500000000006,-0.5714814814814815,5.8419000000953645],[0.36697916666666663,-0.575925925925926,5.858099999904631],[0.3728125000000001,-0.5512962962962963,5.872499999999995],[0.3792708333333332,-0.5357407407407407,5.888999999999996],[0.4506249999999999,-0.5531481481481482,5.905499999999996],[0.45302083333333343,-0.5562962962962963,5.922400000095365],[0.4414583333333333,-0.5285185185185185,5.938900000095366],[0.504375,-0.5238888888888888,5.958999999999996],[0.4860416666666666,-0.5168518518518519,5.975099999904629],[0.5035416666666668,-0.48277777777777775,5.9916999998092635],[0.5035416666666668,-0.48277777777777775,6.009699999809264],[0.5136458333333332,-0.4885185185185185,6.022500000000001],[0.5397916666666667,-0.5051851851851852,6.038999999999994],[0.5400000000000001,-0.49962962962962965,6.055599999904629],[0.5351041666666667,-0.522037037037037,6.072400000095364],[0.5302083333333333,-0.5444444444444444,6.090199999809265],[0.5622916666666666,-0.5662962962962963,6.108999999999995],[0.5943749999999999,-0.5881481481481482,6.125800000190729],[0.621875,-0.6094444444444445,6.141500000000001],[0.621875,-0.6094444444444445,6.155599999904631],[0.6798958333333334,-0.6179629629629629,6.172400000095365],[0.7542708333333332,-0.6335185185185186,6.1891999998092615],[0.7654166666666666,-0.6246296296296296,6.208900000095362],[0.7884375000000001,-0.6101851851851852,6.229599999904629],[0.7884375000000001,-0.6101851851851852,6.238900000095363],[0.7852083333333333,-0.5575925925925926,6.255800000190732],[0.7364583333333333,-0.4816666666666667,6.274699999809265],[0.7238541666666668,-0.4401851851851852,6.291099999904631],[0.7119791666666667,-0.40796296296296297,6.307800000190731],[0.7001041666666665,-0.3757407407407407,6.326400000095369],[0.6559375000000001,-0.3394444444444445,6.342900000095362],[0.6141666666666665,-0.3190740740740741,6.360599999904629],[0.5486458333333334,-0.29388888888888887,6.376599999904627],[0.5486458333333334,-0.29388888888888887,6.388999999999996],[0.5102083333333333,-0.2559259259259259,6.409099999904633],[0.48947916666666674,-0.23055555555555557,6.424999999999997],[0.5140625,-0.28055555555555556,6.4414000000953635],[0.5386458333333333,-0.33055555555555555,6.460400000095362],[0.5386458333333333,-0.33055555555555555,6.472699999809265],[0.5344791666666666,-0.3485185185185185,6.489300000190731],[0.5166666666666667,-0.3616666666666667,6.510699999809262],[0.5166666666666667,-0.3616666666666667,6.522599999904628],[0.5151041666666667,-0.3875925925925926,6.5394000000953625],[0.5151041666666667,-0.3875925925925926,6.555800000190736],[0.5322916666666667,-0.40777777777777774,6.576099999904628],[0.5730208333333332,-0.47092592592592597,6.592900000095362],[0.5730208333333332,-0.47092592592592597,6.605800000190733],[0.6380208333333334,-0.5479629629629629,6.622300000190727],[0.7030208333333334,-0.625,6.642400000095371],[0.6983333333333335,-0.6392592592592592,6.660199999809258],[0.7068749999999999,-0.6509259259259259,6.677300000190733],[0.7068749999999999,-0.6509259259259259,6.689099999904634],[0.7154166666666666,-0.6625925925925926,6.705599999904628],[0.6960416666666667,-0.6466666666666666,6.722900000095372],[0.6875,-0.6361111111111111,6.741999999999997],[0.6627083333333333,-0.6127777777777778,6.7616999998092595],[0.6627083333333333,-0.6127777777777778,6.772300000190732],[0.658125,-0.6224074074074074,6.790699999809256],[0.658125,-0.6224074074074074,6.811400000095368],[0.6243750000000001,-0.6035185185185185,6.822400000095364],[0.6102083333333332,-0.5929629629629629,6.844000000000001],[0.5835416666666667,-0.5824074074074074,6.860599999904629],[0.5835416666666667,-0.5824074074074074,6.872499999999995],[0.5923958333333333,-0.6003703703703703,6.889000000000003],[0.5965625,-0.6018518518518519,6.910999999999994],[0.6007291666666668,-0.6033333333333334,6.927500000000002],[0.63625,-0.6487037037037037,6.9458000001907365],[0.63625,-0.6487037037037037,6.955599999904628],[0.6723958333333333,-0.695925925925926,6.972400000095369],[0.6870833333333333,-0.7312962962962962,6.993000000000002],[0.7019791666666667,-0.7770370370370371,7.010099999904632],[0.7214583333333332,-0.8074074074074075,7.025199999809267],[0.7044791666666667,-0.8133333333333334,7.039699999809265],[0.6722916666666667,-0.7837037037037037,7.056300000190738],[0.6565624999999999,-0.7757407407407407,7.072400000095364],[0.6238541666666667,-0.7701851851851852,7.092099999904626]]","[0.0003000001907338401,0.059499999999999886,0.06480000019072918,0.07269999980925945,0.08909999990463291,0.10990000009536516,0.12549999999999528,0.13980000019073202,0.15959999990462848,0.17630000019073577,0.19330000019073168,0.2105999999046304,0.2224999999999966,0.23990000009536772,0.26149999999999807,0.27330000019073,0.28909999990462865,0.30569999980926355,0.322499999999998,0.3404000000953644,0.3559000000953674,0.3723000001907337,0.3894000000953639,0.40659999990462836,0.42240000009536516,0.442300000190734,0.45880000019073464,0.4724999999999966,0.4889999999999972,0.5105999999046276,0.522599999904628,0.5393000001907353,0.5624000000953657,0.5724000000953637,0.5890999999046329,0.6114000000953652,0.622400000095368,0.6391999998092643,0.6616999998092652,0.6724999999999994,0.6891999998092615,0.7105999999046304,0.7224999999999966,0.7390999999046315,0.7608000001907342,0.7770999999046282,0.7890999999046286,0.8058000001907359,0.8223000001907295,0.8414000000953621,0.8556999998092607,0.8724999999999952,0.8889999999999958,0.9058000001907303,0.9223000001907309,0.9390999999046272,0.9559000000953617,0.9756999998092653,0.9920999999046316,1.0079000000953684,1.0224000000953666,1.0389999999999944,1.0563000001907312,1.0745000000000005,1.0899999999999963,1.105800000190733,1.1251999998092614,1.1391999998092643,1.156099999904633,1.1725999999046337,1.1918000001907316,1.2079000000953641,1.2224000000953623,1.2420999999046316,1.2579999999999956,1.2728000001907347,1.2893000001907353,1.308800000190736,1.3226999998092595,1.33919999980926,1.3559000000953674,1.3753000001907338,1.3918000001907345,1.4085999999046308,1.4254999999999995,1.4394000000953682,1.4560999999046302,1.4724999999999966,1.4915999999046292,1.505900000095366,1.5228000001907347,1.5455999999046313,1.557300000190736,1.5724000000953637,1.589500000000001,1.605800000190733,1.6258000001907291,1.6420999999046302,1.657900000095367,1.6733000001907357,1.693400000095366,1.7105999999046304,1.725999999999999,1.7394000000953653,1.7598000001907295,1.7794000000953645,1.789199999809263,1.8105999999046318,1.8279000000953616,1.8393000001907325,1.8610999999046314,1.872400000095368,1.8895999999046325,1.9081999998092627,1.9233000001907357,1.9431999998092593,1.9595999999046327,1.9748000001907329,1.9898000001907334,2.0056999998092593,2.0223000001907323,2.0389999999999944,2.0555999999046293,2.072499999999998,2.0899999999999963,2.106099999904629,2.122499999999995,2.1411999998092597,2.1555999999046307,2.1724999999999994,2.19409999990463,2.20969999980926,2.224800000190733,2.239699999809261,2.258499999999998,2.2723000001907323,2.289199999809263,2.3056999998092635,2.3256999998092596,2.341000000000001,2.3559000000953674,2.378699999809264,2.388999999999996,2.406900000095362,2.422300000190731,2.4454000000953684,2.455699999809262,2.472599999904631,2.491900000095363,2.5101999998092595,2.5224000000953666,2.5441999998092655,2.5556999998092635,2.572499999999998,2.5933000001907303,2.6115999999046338,2.622400000095368,2.63909999990463,2.660900000095367,2.6724999999999994,2.689300000190734,2.708599999904628,2.726300000190733,2.7449999999999974,2.7558000001907317,2.7724000000953666,2.789599999904631,2.805800000190736,2.8255999999046324,2.8419999999999987,2.859099999904629,2.872400000095368,2.8911999998092597,2.906099999904633,2.9224999999999994,2.941499999999998,2.9561999998092645,2.9749999999999943,2.993400000095363,3.00809999990463,3.02330000019073,3.0393000001907353,3.0586999998092637,3.0753000001907296,3.08919999980926,3.1059000000953674,3.127900000095366,3.1473000001907323,3.156099999904633,3.1724999999999994,3.1954999999999956,3.2058000001907345,3.222599999904631,3.242699999809261,3.260400000095366,3.277000000000001,3.289199999809263,3.305900000095363,3.3255999999046324,3.3419000000953645,3.356099999904629,3.3725999999046294,3.3923000001907297,3.4084999999999965,3.4231999998092633,3.4436999998092617,3.45969999980926,3.4761999998092605,3.4931999998092635,3.505599999904632,3.522599999904628,3.5389999999999944,3.555800000190736,3.5783000001907297,3.58919999980926,3.606099999904629,3.625,3.642400000095364,3.655699999809265,3.6724999999999994,3.691900000095366,3.7090999999046304,3.725900000095365,3.738999999999997,3.755599999904632,3.777000000000001,3.793699999809263,3.8100999999046294,3.8263000001907344,3.8429999999999964,3.8623000001907357,3.8721999998092613,3.8933000001907345,3.9099999999999966,3.9225999999046337,3.9391999998092615,3.963400000095362,3.972599999904631,3.992900000095368,4.005800000190732,4.02819999980926,4.039199999809263,4.055800000190736,4.081800000190732,4.101800000190735,4.111400000095365,4.1325,4.139499999999998,4.15580000019073,4.174499999999995,4.192,4.20759999990463,4.222499999999997,4.238999999999997,4.258400000095364,4.272699999809262,4.289300000190735,4.305900000095363,4.325199999809264,4.339900000095362,4.3559999999999945,4.372499999999995,4.388900000095369,4.4059000000953645,4.422300000190731,4.439099999904627,4.455500000000001,4.472400000095362,4.488999999999997,4.505800000190732,4.522300000190732,4.539300000190735,4.5556999998092635,4.572400000095364,4.588900000095364,4.606099999904629,4.622300000190734,4.639199999809264,4.6559000000953645,4.675400000095365,4.692,4.707699999809265,4.722499999999997,4.7395,4.755900000095366,4.772300000190732,4.789099999904629,4.805800000190736,4.822400000095364,4.839099999904633,4.855699999809261,4.873099999904632,4.888999999999996,4.90580000019073,4.922300000190731,4.939099999904627,4.955599999904628,4.974199999809265,4.989300000190731,5.005699999809259,5.02480000019073,5.039199999809263,5.055900000095363,5.072599999904632,5.0911999998092625,5.105900000095367,5.122599999904629,5.139199999809264,5.158699999809265,5.174599999904629,5.1899000000953635,5.205900000095362,5.224800000190733,5.2390999999046315,5.255599999904632,5.274300000190735,5.288999999999994,5.305800000190736,5.327900000095362,5.342400000095367,5.3555999999046335,5.372400000095368,5.388999999999996,5.405699999809265,5.422300000190731,5.438900000095366,5.455699999809262,5.472300000190735,5.489300000190731,5.505599999904632,5.522400000095367,5.539099999904629,5.555800000190736,5.572400000095364,5.588900000095364,5.607900000095363,5.622499999999995,5.639499999999998,5.659300000190733,5.675699999809261,5.6939999999999955,5.71119999980926,5.726400000095367,5.741199999809261,5.761800000190732,5.772500000000001,5.789099999904629,5.805800000190736,5.825900000095366,5.8419000000953645,5.858099999904631,5.872499999999995,5.888999999999996,5.905499999999996,5.922400000095365,5.938900000095366,5.958999999999996,5.975099999904629,5.9916999998092635,6.009699999809264,6.022500000000001,6.038999999999994,6.055599999904629,6.072400000095364,6.090199999809265,6.108999999999995,6.125800000190729,6.141500000000001,6.155599999904631,6.172400000095365,6.1891999998092615,6.208900000095362,6.229599999904629,6.238900000095363,6.255800000190732,6.274699999809265,6.291099999904631,6.307800000190731,6.326400000095369,6.342900000095362,6.360599999904629,6.376599999904627,6.388999999999996,6.409099999904633,6.424999999999997,6.4414000000953635,6.460400000095362,6.472699999809265,6.489300000190731,6.510699999809262,6.522599999904628,6.5394000000953625,6.555800000190736,6.576099999904628,6.592900000095362,6.605800000190733,6.622300000190727,6.642400000095371,6.660199999809258,6.677300000190733,6.689099999904634,6.705599999904628,6.722900000095372,6.741999999999997,6.7616999998092595,6.772300000190732,6.790699999809256,6.811400000095368,6.822400000095364,6.844000000000001,6.860599999904629,6.872499999999995,6.889000000000003,6.910999999999994,6.927500000000002,6.9458000001907365,6.955599999904628,6.972400000095369,6.993000000000002,7.010099999904632,7.025199999809267,7.039699999809265,7.056300000190738,7.072400000095364,7.092099999904626]","[1732169419699,1732169419749,1732169419754,1732169419762,1732169419779,1732169419799,1732169419815,1732169419829,1732169419849,1732169419866,1732169419883,1732169419900,1732169419912,1732169419930,1732169419951,1732169419963,1732169419979,1732169419995,1732169420012,1732169420030,1732169420045,1732169420062,1732169420079,1732169420096,1732169420112,1732169420132,1732169420148,1732169420162,1732169420179,1732169420200,1732169420212,1732169420229,1732169420252,1732169420262,1732169420279,1732169420301,1732169420312,1732169420329,1732169420351,1732169420362,1732169420379,1732169420400,1732169420412,1732169420429,1732169420450,1732169420467,1732169420479,1732169420495,1732169420512,1732169420531,1732169420545,1732169420562,1732169420579,1732169420595,1732169420612,1732169420629,1732169420645,1732169420665,1732169420682,1732169420697,1732169420712,1732169420729,1732169420746,1732169420764,1732169420780,1732169420795,1732169420815,1732169420829,1732169420846,1732169420862,1732169420881,1732169420897,1732169420912,1732169420932,1732169420948,1732169420962,1732169420979,1732169420998,1732169421012,1732169421029,1732169421045,1732169421065,1732169421081,1732169421098,1732169421115,1732169421129,1732169421146,1732169421162,1732169421181,1732169421195,1732169421212,1732169421235,1732169421247,1732169421262,1732169421279,1732169421295,1732169421315,1732169421332,1732169421347,1732169421363,1732169421383,1732169421400,1732169421416,1732169421429,1732169421449,1732169421469,1732169421479,1732169421500,1732169421517,1732169421529,1732169421551,1732169421562,1732169421579,1732169421598,1732169421613,1732169421633,1732169421649,1732169421664,1732169421679,1732169421695,1732169421712,1732169421729,1732169421745,1732169421762,1732169421780,1732169421796,1732169421812,1732169421831,1732169421845,1732169421862,1732169421884,1732169421899,1732169421914,1732169421929,1732169421948,1732169421962,1732169421979,1732169421995,1732169422015,1732169422031,1732169422045,1732169422068,1732169422079,1732169422096,1732169422112,1732169422135,1732169422145,1732169422162,1732169422181,1732169422200,1732169422212,1732169422234,1732169422245,1732169422262,1732169422283,1732169422301,1732169422312,1732169422329,1732169422351,1732169422362,1732169422379,1732169422398,1732169422416,1732169422435,1732169422445,1732169422462,1732169422479,1732169422495,1732169422515,1732169422532,1732169422549,1732169422562,1732169422581,1732169422596,1732169422612,1732169422631,1732169422646,1732169422665,1732169422683,1732169422698,1732169422713,1732169422729,1732169422748,1732169422765,1732169422779,1732169422795,1732169422818,1732169422837,1732169422846,1732169422862,1732169422885,1732169422895,1732169422912,1732169422932,1732169422950,1732169422967,1732169422979,1732169422995,1732169423015,1732169423032,1732169423046,1732169423062,1732169423082,1732169423098,1732169423113,1732169423133,1732169423149,1732169423166,1732169423183,1732169423195,1732169423212,1732169423229,1732169423245,1732169423268,1732169423279,1732169423296,1732169423315,1732169423332,1732169423345,1732169423362,1732169423381,1732169423399,1732169423415,1732169423429,1732169423445,1732169423467,1732169423483,1732169423500,1732169423516,1732169423533,1732169423552,1732169423562,1732169423583,1732169423600,1732169423612,1732169423629,1732169423653,1732169423662,1732169423682,1732169423695,1732169423718,1732169423729,1732169423745,1732169423771,1732169423791,1732169423801,1732169423822,1732169423829,1732169423845,1732169423864,1732169423882,1732169423897,1732169423912,1732169423929,1732169423948,1732169423962,1732169423979,1732169423996,1732169424015,1732169424029,1732169424046,1732169424062,1732169424079,1732169424095,1732169424112,1732169424129,1732169424145,1732169424162,1732169424179,1732169424195,1732169424212,1732169424229,1732169424245,1732169424262,1732169424279,1732169424296,1732169424312,1732169424329,1732169424345,1732169424365,1732169424382,1732169424397,1732169424412,1732169424429,1732169424446,1732169424462,1732169424479,1732169424495,1732169424512,1732169424529,1732169424545,1732169424563,1732169424579,1732169424595,1732169424612,1732169424629,1732169424645,1732169424664,1732169424679,1732169424695,1732169424714,1732169424729,1732169424746,1732169424762,1732169424781,1732169424796,1732169424812,1732169424829,1732169424848,1732169424864,1732169424880,1732169424895,1732169424914,1732169424929,1732169424945,1732169424964,1732169424979,1732169424995,1732169425017,1732169425032,1732169425045,1732169425062,1732169425079,1732169425095,1732169425112,1732169425129,1732169425145,1732169425162,1732169425179,1732169425195,1732169425212,1732169425229,1732169425245,1732169425262,1732169425279,1732169425298,1732169425312,1732169425329,1732169425349,1732169425365,1732169425384,1732169425401,1732169425416,1732169425431,1732169425451,1732169425462,1732169425479,1732169425495,1732169425515,1732169425532,1732169425548,1732169425562,1732169425579,1732169425595,1732169425612,1732169425628,1732169425649,1732169425665,1732169425681,1732169425699,1732169425712,1732169425729,1732169425745,1732169425762,1732169425780,1732169425799,1732169425815,1732169425831,1732169425845,1732169425862,1732169425879,1732169425899,1732169425919,1732169425928,1732169425945,1732169425964,1732169425981,1732169425997,1732169426016,1732169426033,1732169426050,1732169426066,1732169426079,1732169426099,1732169426115,1732169426131,1732169426150,1732169426162,1732169426179,1732169426200,1732169426212,1732169426229,1732169426245,1732169426266,1732169426282,1732169426295,1732169426312,1732169426332,1732169426350,1732169426367,1732169426379,1732169426395,1732169426413,1732169426432,1732169426451,1732169426462,1732169426480,1732169426501,1732169426512,1732169426534,1732169426550,1732169426562,1732169426579,1732169426601,1732169426617,1732169426635,1732169426645,1732169426662,1732169426683,1732169426700,1732169426715,1732169426729,1732169426746,1732169426762,1732169426782]","[[1115.7,578.1],[1115.7,578.1],[1086.7,548],[1086.7,548],[1097.1,523.4],[1121.3,493.5],[1153.4,469.4],[1139.7,444.7],[1117.5,422.4],[1128.9,398.9],[1139.1,361.2],[1126.2,356.6],[1126.2,356.6],[1094.8,353.1],[1102.9,362],[1102.9,362],[1079.8,372.3],[1079.8,372.3],[1044.2,387.4],[995.9,398.6],[986.6,414.2],[1008.4,424.1],[996.6,435.2],[969,444.2],[970.1,448.7],[917.5,443.4],[869.1,438.7],[869.1,438.7],[850,432.5],[802.9,437.5],[802.9,437.5],[772.4,432],[734.1,450.5],[734.1,450.5],[652.9,474.7],[652.9,474.7],[663.7,467.1],[663.7,467.1],[722.9,458.7],[722.9,458.7],[704.4,461.3],[704.4,461.3],[740.7,458.4],[740.7,458.4],[773.5,463.8],[840,460.6],[840,460.6],[928.9,450.4],[999.9,454.4],[1132.2,421.5],[1281.6,384.3],[1272.6,381.6],[1229,392.8],[1280.4,392],[1318.1,412.9],[1372.2,413.2],[1365.7,423.7],[1353.7,423.4],[1353.8,427.9],[1313.7,442.2],[1271.7,458.6],[1301.2,472.1],[1329.9,470.9],[1313.6,484.4],[1370.1,486.1],[1413.4,498.3],[1428.9,488.2],[1417.6,498.3],[1431.7,504.9],[1439.1,513.6],[1460.5,516.1],[1460.3,517],[1462.5,522.7],[1465.9,513.1],[1427.4,496.8],[1427.4,496.8],[1361.6,459.7],[1354.6,463.1],[1378.7,459.3],[1377.8,434.8],[1377.8,434.8],[1383.6,430.4],[1365.4,420.1],[1355.8,412.8],[1356.2,406.7],[1368.8,397],[1343.1,406.3],[1342.5,440.9],[1319,442],[1319,442],[1320.3,429.6],[1303.8,450.8],[1303.8,450.8],[1288.4,444.6],[1300,449.7],[1319.2,436.7],[1328.2,431.2],[1332.6,426.7],[1357,415.3],[1349.5,414.7],[1337,422.7],[1327.4,412.2],[1337.1,387.7],[1337.1,387.7],[1330.1,377.7],[1300.1,399.2],[1300.1,399.2],[1240,403.1],[1227.4,412.1],[1227.4,412.1],[1220.2,428.7],[1220.2,428.7],[1218.8,438.7],[1251.5,433.4],[1287.8,433.9],[1315.4,458.4],[1336.3,497.2],[1351.4,522.8],[1384.6,507.8],[1407.7,526.1],[1403.5,536.4],[1404.9,525.9],[1406.8,520],[1360.2,516.1],[1310,506.4],[1278.1,488.3],[1252.9,455.9],[1250.7,443.3],[1241.5,440.4],[1271.6,431.4],[1281.7,416.6],[1305.6,420.8],[1323.2,427],[1389.3,431.2],[1448.2,432],[1455.3,442.4],[1449.3,466.7],[1428.4,478.2],[1385.2,486.6],[1358.8,479.9],[1362,470.6],[1342.3,454.1],[1342.3,454.1],[1342.3,454.1],[1314.8,449.8],[1288.3,447.1],[1288.3,447.1],[1270.1,443],[1308.3,438.9],[1362.3,426],[1362.3,426],[1416.3,413.1],[1416.3,413.1],[1416.9,414.4],[1455.1,426.8],[1450.5,431.7],[1450.5,431.7],[1460.3,432.4],[1485.9,428.7],[1485.9,428.7],[1492,426.1],[1504.4,426.4],[1463.9,420.4],[1436.8,419.1],[1436.8,419.1],[1409.3,416.7],[1409.3,416.7],[1482.3,403.6],[1479.6,391.8],[1466.5,390.8],[1466.5,390.8],[1426.7,401.3],[1390.8,401.4],[1377.4,401.5],[1356.6,403.5],[1324.7,409.2],[1276.7,405.1],[1218.9,399.4],[1136.3,393.3],[1145.3,416.5],[1174.2,434.4],[1221.4,447.6],[1232.4,447.2],[1237.9,448.3],[1237.9,448.3],[1244.8,446.5],[1260.2,456],[1267.7,461.5],[1267.7,461.5],[1285.4,469.7],[1326,473.5],[1326,473.5],[1300.5,458.3],[1270.2,444.4],[1236.2,425.9],[1203.1,430.5],[1203.1,430.5],[1194.5,439.3],[1188.3,441.3],[1187.6,440.2],[1181.7,434.3],[1171.3,441.3],[1137.9,455.3],[1107.3,438.6],[1085.2,425.2],[1063.1,411.8],[1054.5,409.1],[1037.1,390.2],[1015.9,381],[1015.9,381],[996.3,378.5],[996.3,378.5],[984.3,387.4],[977.2,377.2],[977.2,377.2],[970.2,364.4],[997.6,385.9],[973.3,404.2],[973.3,404.2],[949,422.5],[950.6,424.3],[926,442.9],[901.4,461.5],[901.4,461.5],[885.9,471.2],[906,469.2],[925.7,473.4],[973.2,470.6],[980.5,463.9],[1039.5,460.4],[1039.4,455.9],[1039.4,455.9],[1037.4,455.2],[1055.4,443],[1055.4,443],[1073.4,430.8],[1109.1,418.6],[1109.1,418.6],[1108.4,390.5],[1108.4,390.5],[1093.5,372.7],[1093.5,372.7],[1068.7,362.9],[1068.7,362.9],[1020.8,362.4],[1020.8,362.4],[974.1,384.9],[974.1,384.9],[979.8,386.6],[927.2,392.1],[866.6,400.1],[816.1,392.4],[750.8,382.2],[691.8,397],[675.3,402.7],[618.9,413.6],[610.3,402.8],[600.5,369],[564.4,372.5],[580,364],[595.6,355.5],[598.7,340.7],[622.5,334.7],[631.7,330.3],[632.1,319.1],[638.8,314.6],[617,322.2],[621.8,341.2],[621.8,341.2],[659.6,344.7],[659.6,344.7],[722,338.6],[722,338.6],[776.5,339.9],[800.9,367.7],[806.5,393.7],[806.5,393.7],[826.7,418.1],[849.1,430.9],[887.2,430.8],[902.5,448.6],[894.2,451.2],[884.5,450.9],[844.1,466.4],[808.3,482.4],[828.7,485.5],[847.2,481.6],[864,474.1],[876.2,481.5],[869.4,491.9],[889.2,484.7],[897.5,484.6],[907.2,487.4],[919.3,496.3],[934.7,497.3],[934.7,497.3],[909.1,503.7],[898.8,510.3],[890.2,520.5],[861.3,542.2],[888.7,548],[848.1,553.5],[848.1,553.5],[854,533.8],[841.6,525.3],[851.3,490.3],[857.1,462.1],[851.9,441.9],[846.1,443.6],[870.9,416.6],[898.9,380.4],[870.5,372.4],[910.1,364.7],[924.1,347.5],[956.4,319.1],[965.5,312.6],[978.5,299.3],[1027.3,273.2],[1049.6,231.3],[1029.6,235.8],[1009.6,240.3],[990.2,232.3],[970.8,224.3],[944.3,254.7],[917.8,285.1],[888.6,311.1],[879.5,330.1],[862.9,356.9],[862.9,356.9],[888.6,372],[888.6,372],[914.4,379.6],[930,367],[978,348.3],[1020.1,351.1],[1084.5,331.4],[1146.3,314.5],[1202.8,291.9],[1239.2,276.3],[1262.4,266.5],[1256.8,241.2],[1310.8,213.1],[1312.7,223],[1333.5,237.3],[1373.6,213.4],[1373.6,213.4],[1325.6,223.8],[1326.6,231.8],[1298.5,230.9],[1312.2,231.4],[1312.3,229],[1317.9,242.3],[1324.1,250.7],[1392.6,241.3],[1394.9,239.6],[1383.8,254.6],[1444.2,257.1],[1426.6,260.9],[1443.4,279.3],[1443.4,279.3],[1453.1,276.2],[1478.2,267.2],[1478.4,270.2],[1473.7,258.1],[1469,246],[1499.8,234.2],[1530.6,222.4],[1557,210.9],[1557,210.9],[1612.7,206.3],[1684.1,197.9],[1694.8,202.7],[1716.9,210.5],[1716.9,210.5],[1713.8,238.9],[1667,279.9],[1654.9,302.3],[1643.5,319.7],[1632.1,337.1],[1589.7,356.7],[1549.6,367.7],[1486.7,381.3],[1486.7,381.3],[1449.8,401.8],[1429.9,415.5],[1453.5,388.5],[1477.1,361.5],[1477.1,361.5],[1473.1,351.8],[1456,344.7],[1456,344.7],[1454.5,330.7],[1454.5,330.7],[1471,319.8],[1510.1,285.7],[1510.1,285.7],[1572.5,244.1],[1634.9,202.5],[1630.4,194.8],[1638.6,188.5],[1638.6,188.5],[1646.8,182.2],[1628.2,190.8],[1620,196.5],[1596.2,209.1],[1596.2,209.1],[1591.8,203.9],[1591.8,203.9],[1559.4,214.1],[1545.8,219.8],[1520.2,225.5],[1520.2,225.5],[1528.7,215.8],[1532.7,215],[1536.7,214.2],[1570.8,189.7],[1570.8,189.7],[1605.5,164.2],[1619.6,145.1],[1633.9,120.4],[1652.6,104],[1636.3,100.8],[1605.4,116.8],[1590.3,121.1],[1558.9,124.1]]","[-0.2,0.6000000000000001]","[0.2,0.6000000000000001]","[0.6000000000000001,0.6000000000000001]","[-0.6000000000000001,-0.2]","[-0.6000000000000001,0.2]","[-0.6000000000000001,-0.6000000000000001]","[-0.2,-0.2]","[0.2,-0.2]","[0.6000000000000001,-0.2]","[-0.2,0.2]","[0.2,0.2]","[0.6000000000000001,0.2]","[-0.2,-0.6000000000000001]","[0.2,-0.6000000000000001]","[0.6000000000000001,-0.6000000000000001]",0,0,0,0,1,1,Monitor,20,20,7,2,70,4,2,70,4
