inst1_resp.keys,inst1_resp.rt,calibrationMouse.x,calibrationMouse.y,calibrationMouse.leftButton,calibrationMouse.midButton,calibrationMouse.rightButton,calibrationClick.x,calibrationClick.y,calibrationClick.leftButton,calibrationClick.midButton,calibrationClick.rightButton,calibrationClick.clicked_name,trialsc.thisRepN,trialsc.thisTrialN,trialsc.thisN,trialsc.thisIndex,trialsc.ran,calibration_x,calibration_y,participant,session,date,expName,psychopyVersion,OS,frameRate,ScreenRes_pixels,Camera_pixels,mouse_2.x,mouse_2.y,mouse_2.leftButton,mouse_2.midButton,mouse_2.rightButton,mouse_2.time,mouse_2.clicked_name,mouse.x,mouse.y,mouse.leftButton,mouse.midButton,mouse.rightButton,mouse.time,mouse.clicked_name,Choice,Trial,TrialDuration,MOUSE_GAZE,ET_GAZE,ET_GAZE_x_T,time,unixTime,ET_GAZE_NF,Loc_Bus_label,Loc_Metro_label,Loc_RH_label,Loc_Cost_label,Loc_Travel_label,Loc_Comfort_label,Loc_Bus_cost,Loc_Metro_cost,Loc_RH_cost,Loc_Bus_travel,Loc_Metro_travel,Loc_RH_travel,Loc_Bus_comfort,Loc_Metro_comfort,Loc_RH_comfort,trials.thisRepN,trials.thisTrialN,trials.thisN,trials.thisIndex,trials.ran,Block,Device,RH_cost,RH_travel_time,RH_Comfort,metro_cost,metro_travel_time,metro_Comfort,Bus_cost,Bus_travel_time,Bus_Comfort
space,2.1508,-0.090625,-0.290740741,1,0,0,0.332291667,0.007407407,1,0,0,calibration_square,0,0,0,16,1,0.33,0,28,001,2024-11-21_11h51.54.746,Attention_exp_legacy,2023.1.0,Win32,59.88023952,,,,,,,,,,,,,,,,,,,,,,,,,,,,,,,,,,,,,,,,,,,,,,,,,,,,,,,,
,,,,,,,-0.677083333,-0.32962963,1,0,0,calibration_square,0,1,1,1,1,-0.67,-0.33,28,001,2024-11-21_11h51.54.746,Attention_exp_legacy,2023.1.0,Win32,59.88023952,,,,,,,,,,,,,,,,,,,,,,,,,,,,,,,,,,,,,,,,,,,,,,,,,,,,,,,,
,,,,,,,0.326041667,0.331481481,1,0,0,calibration_square,0,2,2,17,1,0.33,0.33,28,001,2024-11-21_11h51.54.746,Attention_exp_legacy,2023.1.0,Win32,59.88023952,,,,,,,,,,,,,,,,,,,,,,,,,,,,,,,,,,,,,,,,,,,,,,,,,,,,,,,,
,,,,,,,-0.333333333,0.316666667,1,0,0,,0,3,3,7,1,-0.33,0.33,28,001,2024-11-21_11h51.54.746,Attention_exp_legacy,2023.1.0,Win32,59.88023952,,,,,,,,,,,,,,,,,,,,,,,,,,,,,,,,,,,,,,,,,,,,,,,,,,,,,,,,
,,,,,,,-0.334375,-0.344444444,1,0,0,,0,4,4,5,1,-0.33,-0.33,28,001,2024-11-21_11h51.54.746,Attention_exp_legacy,2023.1.0,Win32,59.88023952,,,,,,,,,,,,,,,,,,,,,,,,,,,,,,,,,,,,,,,,,,,,,,,,,,,,,,,,
,,,,,,,-0.007291667,0.016666667,1,0,0,,0,5,5,11,1,0,0,28,001,2024-11-21_11h51.54.746,Attention_exp_legacy,2023.1.0,Win32,59.88023952,,,,,,,,,,,,,,,,,,,,,,,,,,,,,,,,,,,,,,,,,,,,,,,,,,,,,,,,
,,,,,,,-0.670833333,0.333333333,1,0,0,calibration_square,0,6,6,3,1,-0.67,0.33,28,001,2024-11-21_11h51.54.746,Attention_exp_legacy,2023.1.0,Win32,59.88023952,,,,,,,,,,,,,,,,,,,,,,,,,,,,,,,,,,,,,,,,,,,,,,,,,,,,,,,,
,,,,,,,0.009375,-0.32962963,1,0,0,calibration_square,0,7,7,10,1,0,-0.33,28,001,2024-11-21_11h51.54.746,Attention_exp_legacy,2023.1.0,Win32,59.88023952,,,,,,,,,,,,,,,,,,,,,,,,,,,,,,,,,,,,,,,,,,,,,,,,,,,,,,,,
,,,,,,,0.673958333,0.668518519,1,0,0,calibration_square,0,8,8,19,1,0.67,0.67,28,001,2024-11-21_11h51.54.746,Attention_exp_legacy,2023.1.0,Win32,59.88023952,,,,,,,,,,,,,,,,,,,,,,,,,,,,,,,,,,,,,,,,,,,,,,,,,,,,,,,,
,,,,,,,-0.008333333,0.331481481,1,0,0,calibration_square,0,9,9,12,1,0,0.33,28,001,2024-11-21_11h51.54.746,Attention_exp_legacy,2023.1.0,Win32,59.88023952,,,,,,,,,,,,,,,,,,,,,,,,,,,,,,,,,,,,,,,,,,,,,,,,,,,,,,,,
,,,,,,,-0.333333333,0.003703704,1,0,0,calibration_square,0,10,10,6,1,-0.33,0,28,001,2024-11-21_11h51.54.746,Attention_exp_legacy,2023.1.0,Win32,59.88023952,,,,,,,,,,,,,,,,,,,,,,,,,,,,,,,,,,,,,,,,,,,,,,,,,,,,,,,,
,,,,,,,0.327083333,0.662962963,1,0,0,calibration_square,0,11,11,18,1,0.33,0.67,28,001,2024-11-21_11h51.54.746,Attention_exp_legacy,2023.1.0,Win32,59.88023952,,,,,,,,,,,,,,,,,,,,,,,,,,,,,,,,,,,,,,,,,,,,,,,,,,,,,,,,
,,,,,,,0.66875,-0.666666667,1,0,0,calibration_square,0,12,12,20,1,0.67,-0.67,28,001,2024-11-21_11h51.54.746,Attention_exp_legacy,2023.1.0,Win32,59.88023952,,,,,,,,,,,,,,,,,,,,,,,,,,,,,,,,,,,,,,,,,,,,,,,,,,,,,,,,
,,,,,,,-0.330208333,-0.67962963,1,0,0,calibration_square,0,13,13,4,1,-0.33,-0.67,28,001,2024-11-21_11h51.54.746,Attention_exp_legacy,2023.1.0,Win32,59.88023952,,,,,,,,,,,,,,,,,,,,,,,,,,,,,,,,,,,,,,,,,,,,,,,,,,,,,,,,
,,,,,,,0.333333333,-0.674074074,1,0,0,calibration_square,0,14,14,14,1,0.33,-0.67,28,001,2024-11-21_11h51.54.746,Attention_exp_legacy,2023.1.0,Win32,59.88023952,,,,,,,,,,,,,,,,,,,,,,,,,,,,,,,,,,,,,,,,,,,,,,,,,,,,,,,,
,,,,,,,-0.004166667,0.683333333,1,0,0,,0,15,15,13,1,0,0.67,28,001,2024-11-21_11h51.54.746,Attention_exp_legacy,2023.1.0,Win32,59.88023952,,,,,,,,,,,,,,,,,,,,,,,,,,,,,,,,,,,,,,,,,,,,,,,,,,,,,,,,
,,,,,,,-0.669791667,0.009259259,1,0,0,calibration_square,0,16,16,2,1,-0.67,0,28,001,2024-11-21_11h51.54.746,Attention_exp_legacy,2023.1.0,Win32,59.88023952,,,,,,,,,,,,,,,,,,,,,,,,,,,,,,,,,,,,,,,,,,,,,,,,,,,,,,,,
,,,,,,,0.327083333,-0.331481481,1,0,0,calibration_square,0,17,17,15,1,0.33,-0.33,28,001,2024-11-21_11h51.54.746,Attention_exp_legacy,2023.1.0,Win32,59.88023952,,,,,,,,,,,,,,,,,,,,,,,,,,,,,,,,,,,,,,,,,,,,,,,,,,,,,,,,
,,,,,,,-0.335416667,0.687037037,1,0,0,,0,18,18,8,1,-0.33,0.67,28,001,2024-11-21_11h51.54.746,Attention_exp_legacy,2023.1.0,Win32,59.88023952,,,,,,,,,,,,,,,,,,,,,,,,,,,,,,,,,,,,,,,,,,,,,,,,,,,,,,,,
,,,,,,,-0.670833333,-0.67037037,1,0,0,calibration_square,0,19,19,0,1,-0.67,-0.67,28,001,2024-11-21_11h51.54.746,Attention_exp_legacy,2023.1.0,Win32,59.88023952,,,,,,,,,,,,,,,,,,,,,,,,,,,,,,,,,,,,,,,,,,,,,,,,,,,,,,,,
,,,,,,,-0.004166667,-0.675925926,1,0,0,calibration_square,0,20,20,9,1,0,-0.67,28,001,2024-11-21_11h51.54.746,Attention_exp_legacy,2023.1.0,Win32,59.88023952,,,,,,,,,,,,,,,,,,,,,,,,,,,,,,,,,,,,,,,,,,,,,,,,,,,,,,,,
,,,,,,,,,,,,,,,,,,,,28,001,2024-11-21_11h51.54.746,Attention_exp_legacy,2023.1.0,Win32,59.88023952,"[1920,1080]","[640,480]",[-0.003125],[-0.48333333333333334],[1],[0],[0],[4.996500000000005],"[""StartButton""]",[0.16458333333333333],[0.45555555555555555],[1],[0],[0],[6.117200000286097],"[""Metro_label""]",Metro_label,1,7.1331,"[[0.18020833333333333,0.15925925925925927],[0.18020833333333333,0.15925925925925927],[0.18020833333333333,0.15925925925925927],[0.18020833333333333,0.15925925925925927],[0.18020833333333333,0.15925925925925927],[0.18020833333333333,0.15925925925925927],[0.18020833333333333,0.15925925925925927],[0.18020833333333333,0.15925925925925927],[0.18020833333333333,0.15925925925925927],[0.18020833333333333,0.15925925925925927],[0.18020833333333333,0.15925925925925927],[0.18020833333333333,0.15925925925925927],[0.18020833333333333,0.15925925925925927],[0.18020833333333333,0.15925925925925927],[0.18020833333333333,0.15925925925925927],[0.18020833333333333,0.15925925925925927],[0.18020833333333333,0.15925925925925927],[0.18020833333333333,0.15925925925925927],[0.18020833333333333,0.15925925925925927],[0.18020833333333333,0.15925925925925927],[0.18020833333333333,0.15925925925925927],[0.18020833333333333,0.15925925925925927],[0.18020833333333333,0.15925925925925927],[0.18020833333333333,0.15925925925925927],[0.18020833333333333,0.15925925925925927],[0.18020833333333333,0.15925925925925927],[0.18020833333333333,0.15925925925925927],[0.18020833333333333,0.15925925925925927],[0.18020833333333333,0.15925925925925927],[0.18020833333333333,0.15925925925925927],[0.18020833333333333,0.15925925925925927],[0.18020833333333333,0.15925925925925927],[0.18020833333333333,0.15925925925925927],[0.18020833333333333,0.15925925925925927],[0.18020833333333333,0.15925925925925927],[0.18020833333333333,0.15925925925925927],[0.18020833333333333,0.15925925925925927],[0.18020833333333333,0.15925925925925927],[0.18020833333333333,0.15925925925925927],[0.18020833333333333,0.15925925925925927],[0.18020833333333333,0.15925925925925927],[0.18020833333333333,0.15925925925925927],[0.18020833333333333,0.15925925925925927],[0.18020833333333333,0.15925925925925927],[0.18020833333333333,0.15925925925925927],[0.18020833333333333,0.15925925925925927],[0.18020833333333333,0.15925925925925927],[0.18020833333333333,0.15925925925925927],[0.18020833333333333,0.15925925925925927],[0.18020833333333333,0.15925925925925927],[0.18020833333333333,0.15925925925925927],[0.18020833333333333,0.15925925925925927],[0.18020833333333333,0.15925925925925927],[0.18020833333333333,0.15925925925925927],[0.18020833333333333,0.15925925925925927],[0.18020833333333333,0.15925925925925927],[0.18020833333333333,0.15925925925925927],[0.18020833333333333,0.15925925925925927],[0.18020833333333333,0.15925925925925927],[0.18020833333333333,0.15925925925925927],[0.18020833333333333,0.15925925925925927],[0.18020833333333333,0.15925925925925927],[0.18020833333333333,0.15925925925925927],[0.18020833333333333,0.15925925925925927],[0.18020833333333333,0.15925925925925927],[0.18020833333333333,0.15925925925925927],[0.18020833333333333,0.15925925925925927],[0.18020833333333333,0.15925925925925927],[0.18020833333333333,0.15925925925925927],[0.18020833333333333,0.15925925925925927],[0.18020833333333333,0.15925925925925927],[0.18020833333333333,0.15925925925925927],[0.18020833333333333,0.15925925925925927],[0.18020833333333333,0.15925925925925927],[0.18020833333333333,0.15925925925925927],[0.18020833333333333,0.15925925925925927],[0.18020833333333333,0.15925925925925927],[0.18020833333333333,0.15925925925925927],[0.18020833333333333,0.15925925925925927],[0.18020833333333333,0.15925925925925927],[0.18020833333333333,0.15925925925925927],[0.18020833333333333,0.15925925925925927],[0.18020833333333333,0.15925925925925927],[0.18020833333333333,0.15925925925925927],[0.18020833333333333,0.15925925925925927],[0.18020833333333333,0.15925925925925927],[0.18020833333333333,0.15925925925925927],[0.18020833333333333,0.15925925925925927],[0.18020833333333333,0.15925925925925927],[0.18020833333333333,0.15925925925925927],[0.18020833333333333,0.15925925925925927],[0.18020833333333333,0.15925925925925927],[0.18020833333333333,0.15925925925925927],[0.18020833333333333,0.15925925925925927],[0.18020833333333333,0.15925925925925927],[0.18020833333333333,0.15925925925925927],[0.18020833333333333,0.15925925925925927],[0.18020833333333333,0.15925925925925927],[0.18020833333333333,0.15925925925925927],[0.18020833333333333,0.15925925925925927],[0.18020833333333333,0.15925925925925927],[0.18020833333333333,0.15925925925925927],[0.18020833333333333,0.15925925925925927],[0.18020833333333333,0.15925925925925927],[0.18020833333333333,0.15925925925925927],[0.18020833333333333,0.15925925925925927],[0.18020833333333333,0.15925925925925927],[0.18020833333333333,0.15925925925925927],[0.18020833333333333,0.15925925925925927],[0.18020833333333333,0.15925925925925927],[0.18020833333333333,0.15925925925925927],[0.18020833333333333,0.15925925925925927],[0.18020833333333333,0.15925925925925927],[0.18020833333333333,0.15925925925925927],[0.18020833333333333,0.15925925925925927],[0.18020833333333333,0.15925925925925927],[0.18020833333333333,0.15925925925925927],[0.18020833333333333,0.15925925925925927],[0.18020833333333333,0.15925925925925927],[0.18020833333333333,0.15925925925925927],[0.18020833333333333,0.15925925925925927],[0.18020833333333333,0.15925925925925927],[0.18020833333333333,0.15925925925925927],[0.18020833333333333,0.15925925925925927],[0.18020833333333333,0.15925925925925927],[0.18020833333333333,0.15925925925925927],[0.18020833333333333,0.15925925925925927],[0.18020833333333333,0.15925925925925927],[0.18020833333333333,0.15925925925925927],[0.18020833333333333,0.15925925925925927],[0.18020833333333333,0.15925925925925927],[0.18020833333333333,0.15925925925925927],[0.18020833333333333,0.15925925925925927],[0.18020833333333333,0.15925925925925927],[0.18020833333333333,0.15925925925925927],[0.18020833333333333,0.15925925925925927],[0.18020833333333333,0.15925925925925927],[0.18020833333333333,0.15925925925925927],[0.18020833333333333,0.15925925925925927],[0.18020833333333333,0.15925925925925927],[0.18020833333333333,0.15925925925925927],[0.18020833333333333,0.15925925925925927],[0.18020833333333333,0.15925925925925927],[0.18020833333333333,0.15925925925925927],[0.18020833333333333,0.15925925925925927],[0.18020833333333333,0.15925925925925927],[0.18020833333333333,0.15925925925925927],[0.18020833333333333,0.15925925925925927],[0.18020833333333333,0.15925925925925927],[0.18020833333333333,0.15925925925925927],[0.18020833333333333,0.15925925925925927],[0.18020833333333333,0.15925925925925927],[0.18020833333333333,0.15925925925925927],[0.18020833333333333,0.15925925925925927],[0.18020833333333333,0.15925925925925927],[0.18020833333333333,0.15925925925925927],[0.18020833333333333,0.15925925925925927],[0.18020833333333333,0.15925925925925927],[0.18020833333333333,0.15925925925925927],[0.18020833333333333,0.15925925925925927],[0.18020833333333333,0.15925925925925927],[0.18020833333333333,0.15925925925925927],[0.18020833333333333,0.15925925925925927],[0.18020833333333333,0.15925925925925927],[0.18020833333333333,0.15925925925925927],[0.18020833333333333,0.15925925925925927],[0.18020833333333333,0.15925925925925927],[0.18020833333333333,0.15925925925925927],[0.18020833333333333,0.15925925925925927],[0.18020833333333333,0.15925925925925927],[0.18020833333333333,0.15925925925925927],[0.18020833333333333,0.15925925925925927],[0.18020833333333333,0.15925925925925927],[0.18020833333333333,0.15925925925925927],[0.18020833333333333,0.15925925925925927],[0.18020833333333333,0.15925925925925927],[0.18020833333333333,0.15925925925925927],[0.18020833333333333,0.15925925925925927],[0.18020833333333333,0.15925925925925927],[0.18020833333333333,0.15925925925925927],[0.18020833333333333,0.15925925925925927],[0.18020833333333333,0.15925925925925927],[0.18020833333333333,0.15925925925925927],[0.18020833333333333,0.15925925925925927],[0.18020833333333333,0.15925925925925927],[0.18020833333333333,0.15925925925925927],[0.18020833333333333,0.15925925925925927],[0.18020833333333333,0.15925925925925927],[0.18020833333333333,0.15925925925925927],[0.18020833333333333,0.15925925925925927],[0.18020833333333333,0.15925925925925927],[0.18020833333333333,0.15925925925925927],[0.18020833333333333,0.15925925925925927],[0.18020833333333333,0.15925925925925927],[0.18020833333333333,0.15925925925925927],[0.18020833333333333,0.15925925925925927],[0.18020833333333333,0.15925925925925927],[0.18020833333333333,0.15925925925925927],[0.18020833333333333,0.15925925925925927],[0.18020833333333333,0.15925925925925927],[0.18020833333333333,0.15925925925925927],[0.18020833333333333,0.15925925925925927],[0.18020833333333333,0.15925925925925927],[0.18020833333333333,0.15925925925925927],[0.18020833333333333,0.15925925925925927],[0.18020833333333333,0.15925925925925927],[0.18020833333333333,0.15925925925925927],[0.18020833333333333,0.15925925925925927],[0.18020833333333333,0.15925925925925927],[0.18020833333333333,0.15925925925925927],[0.18020833333333333,0.15925925925925927],[0.18020833333333333,0.15925925925925927],[0.18020833333333333,0.15925925925925927],[0.18020833333333333,0.15925925925925927],[0.18020833333333333,0.15925925925925927],[0.18020833333333333,0.15925925925925927],[0.18020833333333333,0.15925925925925927],[0.18020833333333333,0.15925925925925927],[0.18020833333333333,0.15925925925925927],[0.18020833333333333,0.15925925925925927],[0.18020833333333333,0.15925925925925927],[0.18020833333333333,0.15925925925925927],[0.18020833333333333,0.15925925925925927],[0.18020833333333333,0.15925925925925927],[0.18020833333333333,0.15925925925925927],[0.18020833333333333,0.15925925925925927],[0.18020833333333333,0.15925925925925927],[0.18020833333333333,0.15925925925925927],[0.18020833333333333,0.15925925925925927],[0.18020833333333333,0.15925925925925927],[0.18020833333333333,0.15925925925925927],[0.18020833333333333,0.15925925925925927],[0.18020833333333333,0.15925925925925927],[0.18020833333333333,0.15925925925925927],[0.18020833333333333,0.15925925925925927],[0.18020833333333333,0.15925925925925927],[0.18020833333333333,0.15925925925925927],[0.18020833333333333,0.15925925925925927],[0.18020833333333333,0.15925925925925927],[0.18020833333333333,0.15925925925925927],[0.18020833333333333,0.15925925925925927],[0.18020833333333333,0.15925925925925927],[0.18020833333333333,0.15925925925925927],[0.18020833333333333,0.15925925925925927],[0.18020833333333333,0.15925925925925927],[0.18020833333333333,0.15925925925925927],[0.18020833333333333,0.15925925925925927],[0.18020833333333333,0.15925925925925927],[0.18020833333333333,0.15925925925925927],[0.18020833333333333,0.15925925925925927],[0.18020833333333333,0.15925925925925927],[0.18020833333333333,0.15925925925925927],[0.18020833333333333,0.15925925925925927],[0.18020833333333333,0.15925925925925927],[0.18020833333333333,0.15925925925925927],[0.18020833333333333,0.15925925925925927],[0.18020833333333333,0.15925925925925927],[0.18020833333333333,0.15925925925925927],[0.18020833333333333,0.15925925925925927],[0.18020833333333333,0.15925925925925927],[0.18020833333333333,0.15925925925925927],[0.18020833333333333,0.15925925925925927],[0.18020833333333333,0.15925925925925927],[0.18020833333333333,0.15925925925925927],[0.18020833333333333,0.15925925925925927],[0.18020833333333333,0.15925925925925927],[0.18020833333333333,0.15925925925925927],[0.18020833333333333,0.15925925925925927],[0.18020833333333333,0.15925925925925927],[0.18020833333333333,0.15925925925925927],[0.18020833333333333,0.15925925925925927],[0.18020833333333333,0.15925925925925927],[0.18020833333333333,0.15925925925925927],[0.18020833333333333,0.15925925925925927],[0.18020833333333333,0.15925925925925927],[0.18020833333333333,0.15925925925925927],[0.18020833333333333,0.15925925925925927],[0.18020833333333333,0.15925925925925927],[0.18020833333333333,0.15925925925925927],[0.18020833333333333,0.15925925925925927],[0.18020833333333333,0.15925925925925927],[0.18020833333333333,0.15925925925925927],[0.18020833333333333,0.15925925925925927],[0.18020833333333333,0.15925925925925927],[0.18020833333333333,0.15925925925925927],[0.18020833333333333,0.15925925925925927],[0.18020833333333333,0.15925925925925927],[0.18020833333333333,0.15925925925925927],[0.18020833333333333,0.15925925925925927],[0.18020833333333333,0.15925925925925927],[0.18020833333333333,0.15925925925925927],[0.18020833333333333,0.15925925925925927],[0.18020833333333333,0.15925925925925927],[0.18020833333333333,0.15925925925925927],[0.18020833333333333,0.15925925925925927],[0.18020833333333333,0.15925925925925927],[0.18020833333333333,0.15925925925925927],[0.18020833333333333,0.15925925925925927],[0.18020833333333333,0.15925925925925927],[0.18020833333333333,0.15925925925925927],[0.18020833333333333,0.15925925925925927],[0.18020833333333333,0.15925925925925927],[0.18020833333333333,0.15925925925925927],[0.18020833333333333,0.15925925925925927],[0.18020833333333333,0.15925925925925927],[0.18020833333333333,0.15925925925925927],[0.18020833333333333,0.15925925925925927],[0.18020833333333333,0.15925925925925927],[0.18020833333333333,0.15925925925925927],[0.18020833333333333,0.15925925925925927],[0.18020833333333333,0.15925925925925927],[0.18020833333333333,0.15925925925925927],[0.18020833333333333,0.15925925925925927],[0.18020833333333333,0.15925925925925927],[0.18020833333333333,0.15925925925925927],[0.18020833333333333,0.15925925925925927],[0.18020833333333333,0.15925925925925927],[0.18020833333333333,0.15925925925925927],[0.18020833333333333,0.15925925925925927],[0.18020833333333333,0.15925925925925927],[0.18020833333333333,0.15925925925925927],[0.18020833333333333,0.15925925925925927],[0.18020833333333333,0.15925925925925927],[0.18020833333333333,0.15925925925925927],[0.18020833333333333,0.15925925925925927],[0.18020833333333333,0.15925925925925927],[0.18020833333333333,0.15925925925925927],[0.18020833333333333,0.15925925925925927],[0.18020833333333333,0.15925925925925927],[0.18020833333333333,0.15925925925925927],[0.18020833333333333,0.15925925925925927],[0.18020833333333333,0.15925925925925927],[0.18020833333333333,0.15925925925925927],[0.18020833333333333,0.15925925925925927],[0.18020833333333333,0.15925925925925927],[0.18020833333333333,0.15925925925925927],[0.18020833333333333,0.15925925925925927],[0.18020833333333333,0.15925925925925927],[0.18125,0.15925925925925927],[0.18125,0.15925925925925927],[0.18125,0.15925925925925927],[0.18125,0.1648148148148148],[0.18125,0.20555555555555555],[0.18125,0.2462962962962963],[0.18229166666666666,0.2851851851851852],[0.1875,0.32592592592592595],[0.19270833333333334,0.3592592592592593],[0.196875,0.3888888888888889],[0.2,0.4222222222222222],[0.20625,0.45185185185185184],[0.20729166666666668,0.4666666666666667],[0.20729166666666668,0.4740740740740741],[0.20729166666666668,0.4759259259259259],[0.20729166666666668,0.4759259259259259],[0.20729166666666668,0.4759259259259259],[0.20729166666666668,0.4759259259259259],[0.20729166666666668,0.4759259259259259],[0.20520833333333333,0.4759259259259259],[0.19895833333333332,0.4759259259259259],[0.19270833333333334,0.4740740740740741],[0.18854166666666666,0.4722222222222222],[0.18333333333333332,0.4685185185185185],[0.17708333333333334,0.4648148148148148],[0.16979166666666667,0.46111111111111114],[0.16666666666666666,0.45740740740740743],[0.165625,0.45740740740740743],[0.16458333333333333,0.45555555555555555],[0.16458333333333333,0.45555555555555555],[0.16458333333333333,0.45555555555555555],[0.16458333333333333,0.45555555555555555],[0.16458333333333333,0.45555555555555555],[0.16458333333333333,0.45555555555555555],[0.16458333333333333,0.45555555555555555],[0.16458333333333333,0.45555555555555555],[0.16458333333333333,0.45555555555555555],[0.16458333333333333,0.45555555555555555],[0.16458333333333333,0.45555555555555555],[0.16458333333333333,0.45555555555555555],[0.16458333333333333,0.45555555555555555],[0.16458333333333333,0.45555555555555555],[0.16458333333333333,0.45555555555555555],[0.16458333333333333,0.45555555555555555],[0.16458333333333333,0.45555555555555555],[0.16458333333333333,0.45555555555555555],[0.16458333333333333,0.45555555555555555],[0.16458333333333333,0.45555555555555555],[0.16458333333333333,0.45555555555555555],[0.16458333333333333,0.45555555555555555],[0.16458333333333333,0.45555555555555555],[0.16458333333333333,0.45555555555555555],[0.16458333333333333,0.45555555555555555],[0.16458333333333333,0.45555555555555555],[0.16458333333333333,0.45555555555555555],[0.16458333333333333,0.45555555555555555],[0.16458333333333333,0.45555555555555555],[0.16458333333333333,0.45555555555555555],[0.16145833333333334,0.4537037037037037],[0.15833333333333333,0.45],[0.15729166666666666,0.44814814814814813],[0.15625,0.4444444444444444],[0.15416666666666667,0.4425925925925926],[0.15416666666666667,0.4425925925925926],[0.15416666666666667,0.4425925925925926],[0.15416666666666667,0.4425925925925926],[0.15416666666666667,0.4425925925925926],[0.15416666666666667,0.4425925925925926],[0.15416666666666667,0.4425925925925926],[0.15416666666666667,0.4425925925925926],[0.15416666666666667,0.4425925925925926],[0.15416666666666667,0.4425925925925926],[0.15416666666666667,0.4425925925925926],[0.15416666666666667,0.4425925925925926],[0.15416666666666667,0.4425925925925926],[0.15416666666666667,0.4425925925925926],[0.15208333333333332,0.4388888888888889],[0.15104166666666666,0.43703703703703706],[0.14791666666666667,0.4351851851851852],[0.14791666666666667,0.43333333333333335],[0.146875,0.43148148148148147],[0.146875,0.42962962962962964],[0.14479166666666668,0.42592592592592593],[0.14479166666666668,0.42592592592592593],[0.14375,0.42407407407407405],[0.14270833333333333,0.42407407407407405],[0.14270833333333333,0.4222222222222222],[0.14270833333333333,0.4222222222222222],[0.14166666666666666,0.4222222222222222]]","[[0.1476041666666667,0.0668518518518519],[0.1476041666666667,0.0668518518518519],[0.1334374999999999,0.1037037037037037],[0.1334374999999999,0.1037037037037037],[0.05666666666666664,0.1014814814814814],[0.08833333333333329,0.10462962962962963],[0.0821875000000001,0.11296296296296296],[0.035312499999999976,0.14240740740740737],[-0.0265625,0.14296296296296304],[-0.013854166666666619,0.13425925925925927],[-0.01604166666666664,0.12222222222222222],[0.0626041666666667,0.11055555555555564],[0.059895833333333336,0.09981481481481477],[0.06322916666666671,0.054259259259259174],[0.05572916666666667,0.011481481481481566],[0.02958333333333331,-0.03981481481481482],[0.04208333333333331,-0.10092592592592593],[0.04895833333333333,-0.17851851851851847],[0.0765625,-0.2205555555555556],[0.1234375,-0.22962962962962963],[0.1234375,-0.22962962962962963],[0.12708333333333333,-0.2462962962962963],[0.12708333333333333,-0.2462962962962963],[0.11697916666666662,-0.2644444444444445],[0.11697916666666662,-0.2644444444444445],[0.15635416666666657,-0.2916666666666667],[0.1970833333333334,-0.2794444444444444],[0.2181250000000001,-0.2801851851851852],[0.29416666666666674,-0.26185185185185184],[0.3421875,-0.24722222222222223],[0.3714583333333332,-0.20185185185185187],[0.4359375,-0.18185185185185182],[0.41124999999999995,-0.17111111111111107],[0.4313541666666666,-0.13722222222222227],[0.4415625000000001,-0.1242592592592593],[0.46864583333333343,-0.09203703703703701],[0.4701041666666666,-0.10611111111111113],[0.5071875000000001,-0.08592592592592588],[0.48770833333333335,-0.10407407407407405],[0.4794791666666666,-0.11685185185185189],[0.47541666666666677,-0.127962962962963],[0.4304166666666667,-0.12037037037037036],[0.3976041666666667,-0.15185185185185185],[0.4322916666666667,-0.17222222222222222],[0.3720833333333334,-0.19981481481481478],[0.3481250000000001,-0.21574074074074073],[0.30656249999999996,-0.23537037037037042],[0.30656249999999996,-0.23537037037037042],[0.3163541666666667,-0.2985185185185185],[0.3163541666666667,-0.2985185185185185],[0.28114583333333343,-0.33425925925925926],[0.25125000000000003,-0.36944444444444446],[0.25125000000000003,-0.36944444444444446],[0.1779166666666666,-0.3998148148148148],[0.18114583333333342,-0.4318518518518518],[0.14104166666666676,-0.4607407407407408],[0.13666666666666671,-0.4644444444444445],[0.07593750000000009,-0.45870370370370367],[0.08833333333333329,-0.4498148148148148],[0.03739583333333331,-0.43574074074074076],[-0.007500000000000047,-0.3824074074074074],[-0.06875,-0.3685185185185185],[-0.06875,-0.3685185185185185],[-0.12927083333333336,-0.32703703703703707],[-0.14187500000000006,-0.32759259259259255],[-0.14187500000000006,-0.32759259259259255],[-0.22770833333333335,-0.3133333333333333],[-0.2295833333333333,-0.3146296296296296],[-0.2991666666666667,-0.3266666666666666],[-0.2289583333333333,-0.35185185185185186],[-0.29885416666666664,-0.37],[-0.29885416666666664,-0.37],[-0.2760416666666667,-0.34740740740740744],[-0.26937500000000003,-0.30537037037037035],[-0.28250000000000003,-0.2548148148148149],[-0.23104166666666662,-0.2418518518518519],[-0.18583333333333332,-0.20425925925925928],[-0.14177083333333335,-0.18277777777777776],[-0.09291666666666672,-0.11500000000000005],[-0.09291666666666672,-0.11500000000000005],[-0.06385416666666661,-0.08518518518518518],[-0.06385416666666661,-0.08518518518518518],[-0.043437500000000046,-0.01518518518518527],[0.007187499999999976,0.032777777777777864],[-0.0026041666666666665,0.05537037037037033],[-0.0026041666666666665,0.05537037037037033],[-0.009062500000000048,0.04870370370370362],[0.027083333333333334,0.04425925925925922],[0.03927083333333338,0.072037037037037],[0.034166666666666616,0.06537037037037029],[0.06156250000000003,0.09055555555555551],[0.05010416666666669,0.09833333333333337],[0.09302083333333329,0.14444444444444443],[0.09302083333333329,0.14444444444444443],[0.07552083333333333,0.1307407407407408],[0.07552083333333333,0.1307407407407408],[0.08427083333333343,0.13796296296296295],[0.14187500000000006,0.12388888888888884],[0.14197916666666663,0.1014814814814814],[0.20458333333333342,0.11592592592592597],[0.21416666666666656,0.12129629629629629],[0.22927083333333323,0.11277777777777774],[0.2439583333333334,0.12759259259259256],[0.26114583333333335,0.11074074074074065],[0.2517708333333334,0.08592592592592588],[0.22458333333333325,0.10185185185185185],[0.23781249999999995,0.09314814814814806],[0.19322916666666667,0.09870370370370361],[0.19322916666666667,0.09870370370370361],[0.2283333333333334,0.0948148148148149],[0.20906250000000004,0.07740740740740733],[0.23572916666666663,0.06962962962962967],[0.2491666666666667,0.07703703703703708],[0.2621875000000001,0.05555555555555555],[0.28270833333333345,0.057962962962962876],[0.28854166666666664,0.06111111111111111],[0.3017708333333334,0.048333333333333374],[0.3082291666666668,0.06481481481481481],[0.3082291666666668,0.06481481481481481],[0.34572916666666675,0.06925925925925921],[0.37614583333333323,0.0868518518518518],[0.3715625000000001,0.10648148148148148],[0.3273958333333333,0.08888888888888889],[0.3273958333333333,0.08888888888888889],[0.3797916666666666,0.1088888888888888],[0.3797916666666666,0.1088888888888888],[0.36708333333333343,0.11962962962962967],[0.36708333333333343,0.11962962962962967],[0.40031249999999996,0.11500000000000005],[0.40031249999999996,0.11500000000000005],[0.4196875000000001,0.11185185185185181],[0.4196875000000001,0.11185185185185181],[0.47020833333333345,0.12074074074074083],[0.47020833333333345,0.12074074074074083],[0.49458333333333326,0.09518518518518514],[0.5336458333333333,0.09592592592592585],[0.5134375000000001,0.07185185185185176],[0.5576041666666666,0.051111111111111156],[0.6063541666666665,0.04814814814814815],[0.5994791666666667,0.03148148148148148],[0.5994791666666667,0.03148148148148148],[0.6261458333333333,-0.007592592592592635],[0.6310416666666666,-0.01907407407407399],[0.6161458333333333,-0.05796296296296299],[0.6192708333333333,-0.08962962962962959],[0.6192708333333333,-0.08962962962962959],[0.5692708333333333,-0.11333333333333331],[0.5886458333333332,-0.12981481481481486],[0.5832291666666668,-0.12999999999999998],[0.5877083333333334,-0.14000000000000004],[0.6066666666666668,-0.1542592592592593],[0.6191666666666668,-0.16370370370370366],[0.6035416666666668,-0.17240740740740745],[0.6005208333333333,-0.16888888888888887],[0.5902083333333332,-0.16944444444444445],[0.6040625000000001,-0.16500000000000004],[0.6238541666666667,-0.15555555555555556],[0.5888541666666666,-0.18314814814814812],[0.5939583333333334,-0.19870370370370372],[0.5477083333333332,-0.24074074074074073],[0.5426041666666668,-0.2572222222222222],[0.5392708333333334,-0.26537037037037037],[0.5212500000000001,-0.25166666666666665],[0.5215625,-0.2614814814814815],[0.5122916666666666,-0.2418518518518519],[0.4857291666666666,-0.22537037037037036],[0.4857291666666666,-0.22537037037037036],[0.4658333333333334,-0.21722222222222223],[0.4736458333333334,-0.18722222222222226],[0.40906250000000005,-0.1742592592592593],[0.3859375,-0.125],[0.35208333333333336,-0.11148148148148146],[0.3168750000000001,-0.10999999999999996],[0.32218749999999996,-0.1227777777777778],[0.3220833333333334,-0.10037037037037035],[0.3220833333333334,-0.10037037037037035],[0.34364583333333343,-0.09611111111111106],[0.34249999999999997,-0.10796296296296298],[0.36208333333333326,-0.12518518518518523],[0.3763541666666666,-0.1403703703703704],[0.47145833333333326,-0.15055555555555558],[0.5665625000000001,-0.16074074074074077],[0.6070833333333333,-0.15240740740740744],[0.6536458333333334,-0.14518518518518514],[0.7102083333333333,-0.11555555555555551],[0.7302083333333333,-0.12888888888888894],[0.7314583333333334,-0.12888888888888894],[0.7314583333333334,-0.12888888888888894],[0.7554166666666667,-0.11277777777777774],[0.7547916666666665,-0.10388888888888893],[0.7541666666666667,-0.09500000000000001],[0.7109375,-0.06518518518518517],[0.6677083333333333,-0.03537037037037041],[0.605,-0.03722222222222227],[0.605,-0.03722222222222227],[0.5392708333333334,-0.05425925925925928],[0.4883333333333333,-0.0653703703703704],[0.45593750000000005,-0.052037037037037076],[0.4423958333333334,-0.07777777777777778],[0.4423958333333334,-0.07777777777777778],[0.4296875,-0.08777777777777773],[0.4296875,-0.08777777777777773],[0.3885416666666667,-0.08611111111111111],[0.3706249999999999,-0.09370370370370375],[0.37489583333333343,-0.12666666666666662],[0.3811458333333334,-0.14722222222222223],[0.35906250000000006,-0.16407407407407412],[0.37041666666666656,-0.14296296296296293],[0.30531249999999993,-0.18666666666666668],[0.27156250000000004,-0.2131481481481482],[0.20083333333333328,-0.22444444444444442],[0.12927083333333325,-0.25148148148148153],[0.09083333333333338,-0.272037037037037],[0.029166666666666667,-0.2833333333333333],[-0.04020833333333336,-0.28703703703703703],[-0.11197916666666667,-0.30888888888888894],[-0.13083333333333336,-0.31074074074074076],[-0.12625000000000006,-0.3616666666666667],[-0.12625000000000006,-0.3616666666666667],[-0.07000000000000005,-0.3761111111111112],[-0.07000000000000005,-0.3761111111111112],[-0.04645833333333336,-0.39888888888888885],[-0.0005208333333333333,-0.41333333333333333],[0.013854166666666619,-0.4324074074074074],[0.04812500000000005,-0.4474074074074075],[0.08239583333333324,-0.4624074074074074],[0.12854166666666675,-0.45925925925925926],[0.17510416666666656,-0.45037037037037037],[0.2131249999999999,-0.44111111111111106],[0.19729166666666675,-0.40555555555555556],[0.16416666666666657,-0.3803703703703703],[0.1337500000000001,-0.37092592592592594],[0.15354166666666677,-0.35722222222222216],[0.18239583333333323,-0.33296296296296296],[0.1709374999999999,-0.30888888888888894],[0.19083333333333338,-0.28296296296296297],[0.17843749999999994,-0.27518518518518525],[0.19604166666666673,-0.27148148148148155],[0.22218749999999995,-0.2681481481481482],[0.20281250000000003,-0.26351851851851854],[0.20281250000000003,-0.26351851851851854],[0.22197916666666656,-0.24685185185185188],[0.22197916666666656,-0.24685185185185188],[0.21510416666666668,-0.19148148148148145],[0.12552083333333333,-0.15499999999999997],[0.12645833333333342,-0.10425925925925927],[0.16052083333333325,-0.06425925925925924],[0.16052083333333325,-0.06425925925925924],[0.12041666666666657,-0.03333333333333333],[0.14197916666666663,0.017407407407407365],[0.10760416666666663,0.06185185185185181],[0.051250000000000046,0.11185185185185181],[0.051874999999999956,0.12981481481481486],[0.051874999999999956,0.12981481481481486],[0.035625000000000046,0.13703703703703704],[0.035625000000000046,0.13703703703703704],[0.07895833333333328,0.1381481481481482],[0.07895833333333328,0.1381481481481482],[0.140625,0.14314814814814805],[0.16614583333333333,0.14148148148148143],[0.16614583333333333,0.14148148148148143],[0.1877083333333334,0.1388888888888889],[0.1877083333333334,0.1388888888888889],[0.23572916666666663,0.130925925925926],[0.23572916666666663,0.130925925925926],[0.23958333333333334,0.11037037037037041],[0.23958333333333334,0.11037037037037041],[0.2741666666666667,0.0948148148148149],[0.36687500000000006,0.09518518518518514],[0.38125,0.1124074074074075],[0.3867708333333333,0.12537037037037047],[0.3498958333333334,0.10722222222222218],[0.38645833333333335,0.07111111111111107],[0.36437499999999995,0.07277777777777769],[0.38822916666666674,0.05462962962962963],[0.42843749999999997,0.049074074074074076],[0.45208333333333334,0.04203703703703712],[0.4709374999999999,0.040370370370370286],[0.4276041666666667,0.023333333333333376],[0.4493750000000001,0.015555555555555513],[0.4339583333333332,0.02444444444444453],[0.4339583333333332,0.02444444444444453],[0.41854166666666665,0.03333333333333333],[0.38229166666666664,0.07518518518518523],[0.38229166666666664,0.07518518518518523],[0.3559375000000001,0.07148148148148152],[0.3523958333333333,0.11203703703703703],[0.2912499999999999,0.1346296296296297],[0.31145833333333334,0.15703703703703695],[0.2708333333333333,0.15],[0.3064583333333334,0.16592592592592598],[0.3,0.19870370370370363],[0.38125,0.20537037037037034],[0.4508333333333333,0.22314814814814815],[0.5078125,0.2361111111111111],[0.5165625000000001,0.24592592592592585],[0.4805208333333333,0.2485185185185186],[0.43697916666666664,0.26666666666666666],[0.43697916666666664,0.26666666666666666],[0.3932291666666667,0.25703703703703695],[0.39072916666666657,0.26851851851851855],[0.359375,0.25925925925925924],[0.359375,0.25925925925925924],[0.3607291666666666,0.22759259259259254],[0.3459374999999999,0.23351851851851857],[0.30437500000000006,0.2162962962962962],[0.25968749999999996,0.20907407407407402],[0.25968749999999996,0.20907407407407402],[0.22260416666666671,0.18092592592592602],[0.15010416666666657,0.14611111111111108],[0.12614583333333323,0.10037037037037046],[0.12729166666666672,0.09814814814814815],[0.11041666666666666,0.08111111111111102],[0.13875000000000004,0.06518518518518526],[0.09385416666666657,0.05759259259259263],[0.09385416666666657,0.05759259259259263],[0.08260416666666662,0.049074074074074076],[0.08260416666666662,0.049074074074074076],[0.03854166666666667,0.05092592592592592],[0.03854166666666667,0.05092592592592592],[0.002708333333333357,0.03814814814814819],[0.002708333333333357,0.03814814814814819],[0.011770833333333286,0.012777777777777735],[0.011770833333333286,0.012777777777777735],[0.01885416666666669,-0.0011111111111111532],[0.01885416666666669,-0.0011111111111111532],[0.11854166666666661,-0.002407407407407323],[0.12843749999999995,-0.044444444444444446],[0.12406249999999991,-0.05425925925925928],[0.053125,-0.0735185185185185],[0.11749999999999995,-0.0955555555555556],[0.07989583333333337,-0.1264814814814815],[0.16291666666666677,-0.15499999999999997],[0.13760416666666658,-0.18499999999999997],[0.21677083333333325,-0.17518518518518522],[0.2241666666666667,-0.2192592592592592],[0.23093750000000005,-0.24685185185185188],[0.26375000000000004,-0.2331481481481481],[0.27583333333333326,-0.24666666666666665],[0.31583333333333335,-0.2309259259259259],[0.2872916666666666,-0.21648148148148144],[0.31354166666666666,-0.2205555555555556],[0.2756249999999999,-0.20981481481481484],[0.32958333333333345,-0.19018518518518515],[0.24406249999999996,-0.20203703703703707],[0.24406249999999996,-0.20203703703703707],[0.27614583333333326,-0.17388888888888884],[0.22229166666666675,-0.13629629629629633],[0.17604166666666668,-0.14314814814814816],[0.1865624999999999,-0.15407407407407406],[0.20583333333333323,-0.19814814814814816],[0.2228125000000001,-0.23555555555555555],[0.2146874999999999,-0.24648148148148152],[0.22135416666666666,-0.2729629629629629],[0.19760416666666672,-0.3101851851851852],[0.19760416666666672,-0.3101851851851852],[0.22145833333333323,-0.3248148148148148],[0.2397916666666667,-0.3218518518518519],[0.23833333333333329,-0.36796296296296294],[0.22270833333333329,-0.35703703703703704],[0.22312500000000005,-0.3264814814814815],[0.22312500000000005,-0.3264814814814815],[0.18166666666666675,-0.30944444444444447],[0.1638541666666666,-0.2757407407407407],[0.09447916666666671,-0.24685185185185188],[0.09447916666666671,-0.24685185185185188],[0.08302083333333338,-0.2601851851851852],[0.13322916666666676,-0.23777777777777773],[0.17229166666666676,-0.21518518518518517],[0.16833333333333325,-0.2205555555555556],[0.19656250000000006,-0.20537037037037034],[0.19656250000000006,-0.20537037037037034],[0.18958333333333333,-0.24407407407407408],[0.21385416666666662,-0.2833333333333333],[0.21385416666666662,-0.2833333333333333],[0.23760416666666656,-0.2929629629629629],[0.23510416666666673,-0.29388888888888887],[0.29666666666666663,-0.3229629629629629],[0.30364583333333334,-0.3125925925925926],[0.27937500000000004,-0.3272222222222222],[0.27937500000000004,-0.3272222222222222],[0.2741666666666667,-0.33555555555555555],[0.2755208333333333,-0.3394444444444445],[0.2755208333333333,-0.3394444444444445],[0.2540625000000001,-0.34685185185185186],[0.2540625000000001,-0.34685185185185186],[0.26677083333333323,-0.3351851851851852],[0.26677083333333323,-0.3351851851851852],[0.22468750000000004,-0.3024074074074074],[0.16145833333333334,-0.2898148148148148],[0.15427083333333325,-0.2803703703703703],[0.11229166666666662,-0.259074074074074],[0.0740624999999999,-0.2366666666666667],[0.03583333333333331,-0.21425925925925923],[0.03572916666666662,-0.20259259259259255],[0.04572916666666664,-0.17759259259259255],[0.042499999999999954,-0.18740740740740738],[0.042812500000000024,-0.19962962962962966],[0.05687500000000002,-0.23055555555555557],[0.11510416666666666,-0.25999999999999995],[0.10229166666666671,-0.2825925925925926],[0.14031250000000003,-0.29981481481481476],[0.18114583333333342,-0.34629629629629627],[0.22197916666666656,-0.39277777777777784],[0.20979166666666677,-0.39962962962962967],[0.16104166666666658,-0.442037037037037],[0.14645833333333325,-0.4427777777777778],[0.10979166666666676,-0.4346296296296296],[0.09739583333333333,-0.4353703703703704],[0.09739583333333333,-0.4353703703703704],[0.04020833333333336,-0.40314814814814814],[0.03760416666666669,-0.41888888888888887],[0.01395833333333331,-0.42166666666666663],[-0.022395833333333334,-0.37481481481481477],[-0.05010416666666669,-0.37111111111111106],[-0.052291666666666715,-0.3757407407407407],[-0.04718749999999995,-0.34944444444444445],[-0.03937499999999995,-0.33296296296296296],[-0.026250000000000048,-0.3374074074074074],[-0.030520833333333285,-0.3357407407407408],[-0.013229166666666714,-0.3464814814814815],[0.058124999999999954,-0.34574074074074074],[0.0703125,-0.3574074074074074],[0.10177083333333338,-0.38796296296296295],[0.10177083333333338,-0.38796296296296295],[0.13052083333333328,-0.38555555555555554],[0.1546875,-0.3883333333333333]]","[[0.1476041666666667,0.0668518518518519,0.0003000001907338401],[0.1476041666666667,0.0668518518518519,0.05140000009536294],[0.1334374999999999,0.1037037037037037,0.06520000028609729],[0.1334374999999999,0.1037037037037037,0.08209999990462791],[0.05666666666666664,0.1014814814814814,0.09730000019072804],[0.08833333333333329,0.10462962962962963,0.11290000009536527],[0.0821875000000001,0.11296296296296296,0.13040000009536357],[0.035312499999999976,0.14240740740740737,0.14749999999999375],[-0.0265625,0.14296296296296304,0.16320000028609627],[-0.013854166666666619,0.13425925925925927,0.1774000000953606],[-0.01604166666666664,0.12222222222222222,0.19380000019073407],[0.0626041666666667,0.11055555555555564,0.2105999999046304],[0.059895833333333336,0.09981481481481477,0.22720000028609633],[0.06322916666666671,0.054259259259259174,0.2439000000953655],[0.05572916666666667,0.011481481481481566,0.2604999999999933],[0.02958333333333331,-0.03981481481481482,0.2772000002861006],[0.04208333333333331,-0.10092592592592593,0.2938000001907284],[0.04895833333333333,-0.17851851851851847,0.31049999999999756],[0.0765625,-0.2205555555555556,0.32749999999999346],[0.1234375,-0.22962962962962963,0.3464999999999989],[0.1234375,-0.22962962962962963,0.360599999904629],[0.12708333333333333,-0.2462962962962963,0.3773000001907292],[0.12708333333333333,-0.2462962962962963,0.39399999999999835],[0.11697916666666662,-0.2644444444444445,0.410499999999999],[0.11697916666666662,-0.2644444444444445,0.42720000028609917],[0.15635416666666657,-0.2916666666666667,0.44390000009536124],[0.1970833333333334,-0.2794444444444444,0.46040000009536186],[0.2181250000000001,-0.2801851851851852,0.4772000002860963],[0.29416666666666674,-0.26185185185185184,0.4938000001907312],[0.3421875,-0.24722222222222223,0.5104999999999933],[0.3714583333333332,-0.20185185185185187,0.5298000001907326],[0.4359375,-0.18185185185185182,0.5448000001907332],[0.41124999999999995,-0.17111111111111107,0.5604000000953633],[0.4313541666666666,-0.13722222222222227,0.5772000002860977],[0.4415625000000001,-0.1242592592592593,0.5959999999999965],[0.46864583333333343,-0.09203703703703701,0.6104999999999947],[0.4701041666666666,-0.10611111111111113,0.6270999999046296],[0.5071875000000001,-0.08592592592592588,0.6459999999999937],[0.48770833333333335,-0.10407407407407405,0.660499999999999],[0.4794791666666666,-0.11685185185185189,0.6772000002860992],[0.47541666666666677,-0.127962962962963,0.6948000001907317],[0.4304166666666667,-0.12037037037037036,0.7104999999999961],[0.3976041666666667,-0.15185185185185185,0.727099999904631],[0.4322916666666667,-0.17222222222222222,0.7469000000953656],[0.3720833333333334,-0.19981481481481478,0.7628000001907296],[0.3481250000000001,-0.21574074074074073,0.7770999999046282],[0.30656249999999996,-0.23537037037037042,0.7950999999046289],[0.30656249999999996,-0.23537037037037042,0.8140999999046272],[0.3163541666666667,-0.2985185185185185,0.8272000002860977],[0.3163541666666667,-0.2985185185185185,0.8439000000953669],[0.28114583333333343,-0.33425925925925926,0.860599999904629],[0.25125000000000003,-0.36944444444444446,0.878300000190734],[0.25125000000000003,-0.36944444444444446,0.8938000001907298],[0.1779166666666666,-0.3998148148148148,0.9105999999046261],[0.18114583333333342,-0.4318518518518518,0.9315999999046269],[0.14104166666666676,-0.4607407407407408,0.9487000002860952],[0.13666666666666671,-0.4644444444444445,0.9643000001907325],[0.07593750000000009,-0.45870370370370367,0.9779999999999944],[0.08833333333333329,-0.4498148148148148,0.9980999999046318],[0.03739583333333331,-0.43574074074074076,1.0109000000953614],[-0.007500000000000047,-0.3824074074074074,1.0270999999046282],[-0.06875,-0.3685185185185185,1.0487000002860967],[-0.06875,-0.3685185185185185,1.0604000000953633],[-0.12927083333333336,-0.32703703703703707,1.0772000002860977],[-0.14187500000000006,-0.32759259259259255,1.093900000095367],[-0.14187500000000006,-0.32759259259259255,1.1104000000953604],[-0.22770833333333335,-0.3133333333333333,1.127200000286102],[-0.2295833333333333,-0.3146296296296296,1.1478000001907347],[-0.2991666666666667,-0.3266666666666666,1.1643000001907282],[-0.2289583333333333,-0.35185185185185186,1.179700000286097],[-0.29885416666666664,-0.37,1.1953000001907341],[-0.29885416666666664,-0.37,1.2122000002860958],[-0.2760416666666667,-0.34740740740740744,1.2272000002860963],[-0.26937500000000003,-0.30537037037037035,1.246300000190729],[-0.28250000000000003,-0.2548148148148149,1.2614000000953638],[-0.23104166666666662,-0.2418518518518519,1.2800999999046283],[-0.18583333333333332,-0.20425925925925928,1.2950999999046289],[-0.14177083333333335,-0.18277777777777776,1.313599999904632],[-0.09291666666666672,-0.11500000000000005,1.3308000001907345],[-0.09291666666666672,-0.11500000000000005,1.343999999999994],[-0.06385416666666661,-0.08518518518518518,1.360599999904629],[-0.06385416666666661,-0.08518518518518518,1.3773000001907292],[-0.043437500000000046,-0.01518518518518527,1.393900000095364],[0.007187499999999976,0.032777777777777864,1.4107000002860985],[-0.0026041666666666665,0.05537037037037033,1.4278000001907287],[-0.0026041666666666665,0.05537037037037033,1.443800000190734],[-0.009062500000000048,0.04870370370370362,1.4604999999999961],[0.027083333333333334,0.04425925925925922,1.4794999999999945],[0.03927083333333338,0.072037037037037,1.496700000286097],[0.034166666666666616,0.06537037037037029,1.511499999999998],[0.06156250000000003,0.09055555555555551,1.5300999999046283],[0.05010416666666669,0.09833333333333337,1.5478000001907333],[0.09302083333333329,0.14444444444444443,1.5640999999046272],[0.09302083333333329,0.14444444444444443,1.5770999999046325],[0.07552083333333333,0.1307407407407408,1.593900000095367],[0.07552083333333333,0.1307407407407408,1.6150999999046292],[0.08427083333333343,0.13796296296296295,1.6270999999046296],[0.14187500000000006,0.12388888888888884,1.6449000000953617],[0.14197916666666663,0.1014814814814814,1.661200000286101],[0.20458333333333342,0.11592592592592597,1.6800999999046269],[0.21416666666666656,0.12129629629629629,1.6963000001907318],[0.22927083333333323,0.11277777777777774,1.7132000002861005],[0.2439583333333334,0.12759259259259256,1.7324000000953674],[0.26114583333333335,0.11074074074074065,1.7488000001907338],[0.2517708333333334,0.08592592592592588,1.7652000002861001],[0.22458333333333325,0.10185185185185185,1.7819999999999965],[0.23781249999999995,0.09314814814814806,1.7978000001907333],[0.19322916666666667,0.09870370370370361,1.8184999999999931],[0.19322916666666667,0.09870370370370361,1.8270999999046325],[0.2283333333333334,0.0948148148148149,1.8438000001907326],[0.20906250000000004,0.07740740740740733,1.8614999999999995],[0.23572916666666663,0.06962962962962967,1.8799000000953612],[0.2491666666666667,0.07703703703703708,1.8962000002861004],[0.2621875000000001,0.05555555555555555,1.9129999999999967],[0.28270833333333345,0.057962962962962876,1.9282000002860968],[0.28854166666666664,0.06111111111111111,1.9482000002861],[0.3017708333333334,0.048333333333333374,1.9649999999999963],[0.3082291666666668,0.06481481481481481,1.9814000000953627],[0.3082291666666668,0.06481481481481481,1.9938000001907312],[0.34572916666666675,0.06925925925925921,2.010400000095366],[0.37614583333333323,0.0868518518518518,2.0272000002861006],[0.3715625000000001,0.10648148148148148,2.0482000002861014],[0.3273958333333333,0.08888888888888889,2.0653000001907316],[0.3273958333333333,0.08888888888888889,2.0772000002860977],[0.3797916666666666,0.1088888888888888,2.0938000001907326],[0.3797916666666666,0.1088888888888888,2.1104000000953604],[0.36708333333333343,0.11962962962962967,2.127200000286102],[0.36708333333333343,0.11962962962962967,2.144999999999996],[0.40031249999999996,0.11500000000000005,2.160800000190733],[0.40031249999999996,0.11500000000000005,2.177200000286099],[0.4196875000000001,0.11185185185185181,2.193800000190734],[0.4196875000000001,0.11185185185185181,2.210499999999996],[0.47020833333333345,0.12074074074074083,2.2272000002860963],[0.47020833333333345,0.12074074074074083,2.2445999999046293],[0.49458333333333326,0.09518518518518514,2.2604999999999933],[0.5336458333333333,0.09592592592592585,2.2820999999046307],[0.5134375000000001,0.07185185185185176,2.2982000002861014],[0.5576041666666666,0.051111111111111156,2.313599999904632],[0.6063541666666665,0.04814814814814815,2.329099999904628],[0.5994791666666667,0.03148148148148148,2.3479000000953647],[0.5994791666666667,0.03148148148148148,2.3604999999999947],[0.6261458333333333,-0.007592592592592635,2.377200000286102],[0.6310416666666666,-0.01907407407407399,2.397999999999996],[0.6161458333333333,-0.05796296296296299,2.4147000002860963],[0.6192708333333333,-0.08962962962962959,2.4309999999999974],[0.6192708333333333,-0.08962962962962959,2.443800000190734],[0.5692708333333333,-0.11333333333333331,2.460499999999996],[0.5886458333333332,-0.12981481481481486,2.4773000001907306],[0.5832291666666668,-0.12999999999999998,2.4939000000953655],[0.5877083333333334,-0.14000000000000004,2.5104999999999933],[0.6066666666666668,-0.1542592592592593,2.527700000286096],[0.6191666666666668,-0.16370370370370366,2.545900000095365],[0.6035416666666668,-0.17240740740740745,2.5604000000953633],[0.6005208333333333,-0.16888888888888887,2.577300000190732],[0.5902083333333332,-0.16944444444444445,2.5949000000953646],[0.6040625000000001,-0.16500000000000004,2.6110999999046314],[0.6238541666666667,-0.15555555555555556,2.6269999999999953],[0.5888541666666666,-0.18314814814814812,2.644200000286098],[0.5939583333333334,-0.19870370370370372,2.660499999999999],[0.5477083333333332,-0.24074074074074073,2.677499999999995],[0.5426041666666668,-0.2572222222222222,2.694499999999998],[0.5392708333333334,-0.26537037037037037,2.710400000095362],[0.5212500000000001,-0.25166666666666665,2.7277000002860987],[0.5215625,-0.2614814814814815,2.7450999999046317],[0.5122916666666666,-0.2418518518518519,2.7609000000953614],[0.4857291666666666,-0.22537037037037036,2.778099999904626],[0.4857291666666666,-0.22537037037037036,2.7952000002861013],[0.4658333333333334,-0.21722222222222223,2.8104000000953633],[0.4736458333333334,-0.18722222222222226,2.8279000000953616],[0.40906250000000005,-0.1742592592592593,2.844700000286096],[0.3859375,-0.125,2.8607000002861014],[0.35208333333333336,-0.11148148148148146,2.8770999999046296],[0.3168750000000001,-0.10999999999999996,2.8948000001907346],[0.32218749999999996,-0.1227777777777778,2.910800000190733],[0.3220833333333334,-0.10037037037037035,2.927499999999995],[0.3220833333333334,-0.10037037037037035,2.9439999999999955],[0.34364583333333343,-0.09611111111111106,2.9605999999046304],[0.34249999999999997,-0.10796296296296298,2.980400000095365],[0.36208333333333326,-0.12518518518518523,2.9969000000953656],[0.3763541666666666,-0.1403703703703704,3.0104999999999933],[0.47145833333333326,-0.15055555555555558,3.027099999904628],[0.5665625000000001,-0.16074074074074077,3.0442000002860965],[0.6070833333333333,-0.15240740740740744,3.062800000190734],[0.6536458333333334,-0.14518518518518514,3.0774999999999935],[0.7102083333333333,-0.11555555555555551,3.093900000095367],[0.7302083333333333,-0.12888888888888894,3.1104000000953604],[0.7314583333333334,-0.12888888888888894,3.127999999999993],[0.7314583333333334,-0.12888888888888894,3.143900000095364],[0.7554166666666667,-0.11277777777777774,3.160499999999999],[0.7547916666666665,-0.10388888888888893,3.1769999999999996],[0.7541666666666667,-0.09500000000000001,3.1947000002860975],[0.7109375,-0.06518518518518517,3.210400000095362],[0.6677083333333333,-0.03537037037037041,3.2314000000953627],[0.605,-0.03722222222222227,3.2635999999046277],[0.605,-0.03722222222222227,3.269999999999996],[0.5392708333333334,-0.05425925925925928,3.2824000000953646],[0.4883333333333333,-0.0653703703703704,3.298900000095365],[0.45593750000000005,-0.052037037037037076,3.313999999999993],[0.4423958333333334,-0.07777777777777778,3.330300000190732],[0.4423958333333334,-0.07777777777777778,3.3440999999046284],[0.4296875,-0.08777777777777773,3.360599999904629],[0.4296875,-0.08777777777777773,3.377200000286102],[0.3885416666666667,-0.08611111111111111,3.393900000095364],[0.3706249999999999,-0.09370370370370375,3.4139999999999944],[0.37489583333333343,-0.12666666666666662,3.429099999904629],[0.3811458333333334,-0.14722222222222223,3.4447000002860975],[0.35906250000000006,-0.16407407407407412,3.4605999999046304],[0.37041666666666656,-0.14296296296296293,3.477099999904631],[0.30531249999999993,-0.18666666666666668,3.496300000190729],[0.27156250000000004,-0.2131481481481482,3.511400000095364],[0.20083333333333328,-0.22444444444444442,3.5279999999999987],[0.12927083333333325,-0.25148148148148153,3.5475999999046266],[0.09083333333333338,-0.272037037037037,3.563300000190729],[0.029166666666666667,-0.2833333333333333,3.5794000000953616],[-0.04020833333333336,-0.28703703703703703,3.5937000002860984],[-0.11197916666666667,-0.30888888888888894,3.6104000000953604],[-0.13083333333333336,-0.31074074074074076,3.627200000286102],[-0.12625000000000006,-0.3616666666666667,3.6459999999999937],[-0.12625000000000006,-0.3616666666666667,3.6604000000953647],[-0.07000000000000005,-0.3761111111111112,3.6770999999046268],[-0.07000000000000005,-0.3761111111111112,3.694499999999998],[-0.04645833333333336,-0.39888888888888885,3.710499999999996],[-0.0005208333333333333,-0.41333333333333333,3.7303000001907307],[0.013854166666666619,-0.4324074074074074,3.7450999999046317],[0.04812500000000005,-0.4474074074074075,3.7627000002860953],[0.08239583333333324,-0.4624074074074074,3.780400000095362],[0.12854166666666675,-0.45925925925925926,3.7967000002861013],[0.17510416666666656,-0.45037037037037037,3.8109000000953657],[0.2131249999999999,-0.44111111111111106,3.829900000095364],[0.19729166666666675,-0.40555555555555556,3.846999999999994],[0.16416666666666657,-0.3803703703703703,3.8633000001907334],[0.1337500000000001,-0.37092592592592594,3.877300000190729],[0.15354166666666677,-0.35722222222222216,3.89380000019073],[0.18239583333333323,-0.33296296296296296,3.9104000000953647],[0.1709374999999999,-0.30888888888888894,3.9270999999046268],[0.19083333333333338,-0.28296296296296297,3.9482000002861],[0.17843749999999994,-0.27518518518518525,3.9650999999046306],[0.19604166666666673,-0.27148148148148155,3.9809999999999945],[0.22218749999999995,-0.2681481481481482,3.994900000095363],[0.20281250000000003,-0.26351851851851854,4.011400000095364],[0.20281250000000003,-0.26351851851851854,4.036300000190728],[0.22197916666666656,-0.24685185185185188,4.0535],[0.22197916666666656,-0.24685185185185188,4.060700000286097],[0.21510416666666668,-0.19148148148148145,4.0770999999046325],[0.12552083333333333,-0.15499999999999997,4.093800000190733],[0.12645833333333342,-0.10425925925925927,4.11040000009536],[0.16052083333333325,-0.06425925925925924,4.128099999904627],[0.16052083333333325,-0.06425925925925924,4.1444000000953665],[0.12041666666666657,-0.03333333333333333,4.160400000095365],[0.14197916666666663,0.017407407407407365,4.177099999904627],[0.10760416666666663,0.06185185185185181,4.194400000095364],[0.051250000000000046,0.11185185185185181,4.210499999999996],[0.051874999999999956,0.12981481481481486,4.227099999904631],[0.051874999999999956,0.12981481481481486,4.2439000000953655],[0.035625000000000046,0.13703703703703704,4.260499999999993],[0.035625000000000046,0.13703703703703704,4.277099999904628],[0.07895833333333328,0.1381481481481482,4.293900000095363],[0.07895833333333328,0.1381481481481482,4.3104999999999976],[0.140625,0.14314814814814805,4.327200000286098],[0.16614583333333333,0.14148148148148143,4.348300000190733],[0.16614583333333333,0.14148148148148143,4.36040000009536],[0.1877083333333334,0.1388888888888889,4.377200000286102],[0.1877083333333334,0.1388888888888889,4.393900000095364],[0.23572916666666663,0.130925925925926,4.410400000095365],[0.23572916666666663,0.130925925925926,4.427099999904627],[0.23958333333333334,0.11037037037037041,4.443900000095361],[0.23958333333333334,0.11037037037037041,4.460400000095362],[0.2741666666666667,0.0948148148148149,4.477099999904631],[0.36687500000000006,0.09518518518518514,4.493800000190731],[0.38125,0.1124074074074075,4.514800000190732],[0.3867708333333333,0.12537037037037047,4.530999999999999],[0.3498958333333334,0.10722222222222218,4.547499999999999],[0.38645833333333335,0.07111111111111107,4.564499999999995],[0.36437499999999995,0.07277777777777769,4.580999999999996],[0.38822916666666674,0.05462962962962963,4.5967000002860985],[0.42843749999999997,0.049074074074074076,4.611200000286097],[0.45208333333333334,0.04203703703703712,4.630900000095366],[0.4709374999999999,0.040370370370370286,4.648200000286096],[0.4276041666666667,0.023333333333333376,4.664800000190731],[0.4493750000000001,0.015555555555555513,4.6814000000953655],[0.4339583333333332,0.02444444444444453,4.697900000095366],[0.4339583333333332,0.02444444444444453,4.710499999999996],[0.41854166666666665,0.03333333333333333,4.727300000190731],[0.38229166666666664,0.07518518518518523,4.747900000095363],[0.38229166666666664,0.07518518518518523,4.760400000095366],[0.3559375000000001,0.07148148148148152,4.777099999904628],[0.3523958333333333,0.11203703703703703,4.793900000095363],[0.2912499999999999,0.1346296296296297,4.810400000095363],[0.31145833333333334,0.15703703703703695,4.8270999999046325],[0.2708333333333333,0.15,4.844599999904631],[0.3064583333333334,0.16592592592592598,4.86040000009536],[0.3,0.19870370370370363,4.87709999990463],[0.38125,0.20537037037037034,4.8937000002860955],[0.4508333333333333,0.22314814814814815,4.910599999904626],[0.5078125,0.2361111111111111,4.9315],[0.5165625000000001,0.24592592592592585,4.948400000095361],[0.4805208333333333,0.2485185185185186,4.966099999904628],[0.43697916666666664,0.26666666666666666,4.990499999999997],[0.43697916666666664,0.26666666666666666,5.000800000190729],[0.3932291666666667,0.25703703703703695,5.0113000001907295],[0.39072916666666657,0.26851851851851855,5.027700000286096],[0.359375,0.25925925925925924,5.043800000190728],[0.359375,0.25925925925925924,5.0604999999999976],[0.3607291666666666,0.22759259259259254,5.0770999999046325],[0.3459374999999999,0.23351851851851857,5.093999999999994],[0.30437500000000006,0.2162962962962962,5.11040000009536],[0.25968749999999996,0.20907407407407402,5.127200000286102],[0.25968749999999996,0.20907407407407402,5.143900000095364],[0.22260416666666671,0.18092592592592602,5.160499999999999],[0.15010416666666657,0.14611111111111108,5.177900000095363],[0.12614583333333323,0.10037037037037046,5.197400000095364],[0.12729166666666672,0.09814814814814815,5.210400000095362],[0.11041666666666666,0.08111111111111102,5.226999999999997],[0.13875000000000004,0.06518518518518526,5.246599999904632],[0.09385416666666657,0.05759259259259263,5.263300000190732],[0.09385416666666657,0.05759259259259263,5.277099999904628],[0.08260416666666662,0.049074074074074076,5.293800000190728],[0.08260416666666662,0.049074074074074076,5.310400000095363],[0.03854166666666667,0.05092592592592592,5.326999999999998],[0.03854166666666667,0.05092592592592592,5.34480000019073],[0.002708333333333357,0.03814814814814819,5.36040000009536],[0.002708333333333357,0.03814814814814819,5.379200000286097],[0.011770833333333286,0.012777777777777735,5.3940999999046255],[0.011770833333333286,0.012777777777777735,5.411999999999999],[0.01885416666666669,-0.0011111111111111532,5.427099999904627],[0.01885416666666669,-0.0011111111111111532,5.443800000190734],[0.11854166666666661,-0.002407407407407323,5.460499999999996],[0.12843749999999995,-0.044444444444444446,5.479200000286099],[0.12406249999999991,-0.05425925925925928,5.493700000286097],[0.053125,-0.0735185185185185,5.510400000095366],[0.11749999999999995,-0.0955555555555556,5.528999999999996],[0.07989583333333337,-0.1264814814814815,5.545900000095365],[0.16291666666666677,-0.15499999999999997,5.560700000286097],[0.13760416666666658,-0.18499999999999997,5.576999999999998],[0.21677083333333325,-0.17518518518518522,5.593700000286098],[0.2241666666666667,-0.2192592592592592,5.610499999999995],[0.23093750000000005,-0.24685185185185188,5.62709999990463],[0.26375000000000004,-0.2331481481481481,5.64380000019073],[0.27583333333333326,-0.24666666666666665,5.663400000095365],[0.31583333333333335,-0.2309259259259259,5.677400000095361],[0.2872916666666666,-0.21648148148148144,5.6937000002861],[0.31354166666666666,-0.2205555555555556,5.714499999999994],[0.2756249999999999,-0.20981481481481484,5.730300000190731],[0.32958333333333345,-0.19018518518518515,5.746800000190731],[0.24406249999999996,-0.20203703703703707,5.768099999904628],[0.24406249999999996,-0.20203703703703707,5.777200000286101],[0.27614583333333326,-0.17388888888888884,5.7942000002860965],[0.22229166666666675,-0.13629629629629633,5.810700000286097],[0.17604166666666668,-0.14314814814814816,5.830599999904628],[0.1865624999999999,-0.15407407407407406,5.846800000190733],[0.20583333333333323,-0.19814814814814816,5.864200000286104],[0.2228125000000001,-0.23555555555555555,5.882400000095359],[0.2146874999999999,-0.24648148148148152,5.897800000190728],[0.22135416666666666,-0.2729629629629629,5.913400000095365],[0.19760416666666672,-0.3101851851851852,5.9280999999046315],[0.19760416666666672,-0.3101851851851852,5.943900000095368],[0.22145833333333323,-0.3248148148148148,5.960499999999996],[0.2397916666666667,-0.3218518518518519,5.980499999999992],[0.23833333333333329,-0.36796296296296294,5.995200000286104],[0.22270833333333329,-0.35703703703703704,6.012800000190737],[0.22312500000000005,-0.3264814814814815,6.027300000190735],[0.22312500000000005,-0.3264814814814815,6.04849999999999],[0.18166666666666675,-0.30944444444444447,6.060700000286104],[0.1638541666666666,-0.2757407407407407,6.081300000190737],[0.09447916666666671,-0.24685185185185188,6.1008000001907305],[0.09447916666666671,-0.24685185185185188,6.110599999904636],[0.08302083333333338,-0.2601851851851852,6.12709999990463],[0.13322916666666676,-0.23777777777777773,6.147200000286105],[0.17229166666666676,-0.21518518518518517,6.165200000286106],[0.16833333333333325,-0.2205555555555556,6.180999999999997],[0.19656250000000006,-0.20537037037037034,6.205500000000001],[0.19656250000000006,-0.20537037037037034,6.212200000286103],[0.18958333333333333,-0.24407407407407408,6.227099999904624],[0.21385416666666662,-0.2833333333333333,6.249400000095363],[0.21385416666666662,-0.2833333333333333,6.260400000095359],[0.23760416666666656,-0.2929629629629629,6.277000000000001],[0.23510416666666673,-0.29388888888888887,6.293700000286094],[0.29666666666666663,-0.3229629629629629,6.31040000009537],[0.30364583333333334,-0.3125925925925926,6.326999999999998],[0.27937500000000004,-0.3272222222222222,6.349200000286103],[0.27937500000000004,-0.3272222222222222,6.361999999999995],[0.2741666666666667,-0.33555555555555555,6.37709999990463],[0.2755208333333333,-0.3394444444444445,6.3992000002861005],[0.2755208333333333,-0.3394444444444445,6.410400000095365],[0.2540625000000001,-0.34685185185185186,6.4269999999999925],[0.2540625000000001,-0.34685185185185186,6.443800000190734],[0.26677083333333323,-0.3351851851851852,6.460400000095362],[0.26677083333333323,-0.3351851851851852,6.477099999904624],[0.22468750000000004,-0.3024074074074074,6.493700000286097],[0.16145833333333334,-0.2898148148148148,6.510499999999993],[0.15427083333333325,-0.2803703703703703,6.530200000286101],[0.11229166666666662,-0.259074074074074,6.5468000001907285],[0.0740624999999999,-0.2366666666666667,6.563599999904625],[0.03583333333333331,-0.21425925925925923,6.5782000002861025],[0.03572916666666662,-0.20259259259259255,6.596599999904626],[0.04572916666666664,-0.17759259259259255,6.6104000000953675],[0.042499999999999954,-0.18740740740740738,6.63009999990463],[0.042812500000000024,-0.19962962962962966,6.64809999990463],[0.05687500000000002,-0.23055555555555557,6.663700000286099],[0.11510416666666666,-0.25999999999999995,6.681300000190731],[0.10229166666666671,-0.2825925925925926,6.697200000286102],[0.14031250000000003,-0.29981481481481476,6.71080000019073],[0.18114583333333342,-0.34629629629629627,6.729500000000002],[0.22197916666666656,-0.39277777777777784,6.747300000190734],[0.20979166666666677,-0.39962962962962967,6.761400000095364],[0.16104166666666658,-0.442037037037037,6.777000000000001],[0.14645833333333325,-0.4427777777777778,6.793700000286094],[0.10979166666666676,-0.4346296296296296,6.81040000009537],[0.09739583333333333,-0.4353703703703704,6.826999999999998],[0.09739583333333333,-0.4353703703703704,6.843999999999994],[0.04020833333333336,-0.40314814814814814,6.860500000000002],[0.03760416666666669,-0.41888888888888887,6.876999999999995],[0.01395833333333331,-0.42166666666666663,6.893700000286103],[-0.022395833333333334,-0.37481481481481477,6.910400000095365],[-0.05010416666666669,-0.37111111111111106,6.930499999999995],[-0.052291666666666715,-0.3757407407407407,6.948099999904628],[-0.04718749999999995,-0.34944444444444445,6.964200000286098],[-0.03937499999999995,-0.33296296296296296,6.982400000095367],[-0.026250000000000048,-0.3374074074074074,6.9972000002860995],[-0.030520833333333285,-0.3357407407407408,7.013099999904625],[-0.013229166666666714,-0.3464814814814815,7.0294000000953645],[0.058124999999999954,-0.34574074074074074,7.044099999904631],[0.0703125,-0.3574074074074074,7.0660000000000025],[0.10177083333333338,-0.38796296296296295,7.101599999904636],[0.10177083333333338,-0.38796296296296295,7.108300000190738],[0.13052083333333328,-0.38555555555555554,7.115099999904629],[0.1546875,-0.3883333333333333,7.13309999990463]]","[0.0003000001907338401,0.05140000009536294,0.06520000028609729,0.08209999990462791,0.09730000019072804,0.11290000009536527,0.13040000009536357,0.14749999999999375,0.16320000028609627,0.1774000000953606,0.19380000019073407,0.2105999999046304,0.22720000028609633,0.2439000000953655,0.2604999999999933,0.2772000002861006,0.2938000001907284,0.31049999999999756,0.32749999999999346,0.3464999999999989,0.360599999904629,0.3773000001907292,0.39399999999999835,0.410499999999999,0.42720000028609917,0.44390000009536124,0.46040000009536186,0.4772000002860963,0.4938000001907312,0.5104999999999933,0.5298000001907326,0.5448000001907332,0.5604000000953633,0.5772000002860977,0.5959999999999965,0.6104999999999947,0.6270999999046296,0.6459999999999937,0.660499999999999,0.6772000002860992,0.6948000001907317,0.7104999999999961,0.727099999904631,0.7469000000953656,0.7628000001907296,0.7770999999046282,0.7950999999046289,0.8140999999046272,0.8272000002860977,0.8439000000953669,0.860599999904629,0.878300000190734,0.8938000001907298,0.9105999999046261,0.9315999999046269,0.9487000002860952,0.9643000001907325,0.9779999999999944,0.9980999999046318,1.0109000000953614,1.0270999999046282,1.0487000002860967,1.0604000000953633,1.0772000002860977,1.093900000095367,1.1104000000953604,1.127200000286102,1.1478000001907347,1.1643000001907282,1.179700000286097,1.1953000001907341,1.2122000002860958,1.2272000002860963,1.246300000190729,1.2614000000953638,1.2800999999046283,1.2950999999046289,1.313599999904632,1.3308000001907345,1.343999999999994,1.360599999904629,1.3773000001907292,1.393900000095364,1.4107000002860985,1.4278000001907287,1.443800000190734,1.4604999999999961,1.4794999999999945,1.496700000286097,1.511499999999998,1.5300999999046283,1.5478000001907333,1.5640999999046272,1.5770999999046325,1.593900000095367,1.6150999999046292,1.6270999999046296,1.6449000000953617,1.661200000286101,1.6800999999046269,1.6963000001907318,1.7132000002861005,1.7324000000953674,1.7488000001907338,1.7652000002861001,1.7819999999999965,1.7978000001907333,1.8184999999999931,1.8270999999046325,1.8438000001907326,1.8614999999999995,1.8799000000953612,1.8962000002861004,1.9129999999999967,1.9282000002860968,1.9482000002861,1.9649999999999963,1.9814000000953627,1.9938000001907312,2.010400000095366,2.0272000002861006,2.0482000002861014,2.0653000001907316,2.0772000002860977,2.0938000001907326,2.1104000000953604,2.127200000286102,2.144999999999996,2.160800000190733,2.177200000286099,2.193800000190734,2.210499999999996,2.2272000002860963,2.2445999999046293,2.2604999999999933,2.2820999999046307,2.2982000002861014,2.313599999904632,2.329099999904628,2.3479000000953647,2.3604999999999947,2.377200000286102,2.397999999999996,2.4147000002860963,2.4309999999999974,2.443800000190734,2.460499999999996,2.4773000001907306,2.4939000000953655,2.5104999999999933,2.527700000286096,2.545900000095365,2.5604000000953633,2.577300000190732,2.5949000000953646,2.6110999999046314,2.6269999999999953,2.644200000286098,2.660499999999999,2.677499999999995,2.694499999999998,2.710400000095362,2.7277000002860987,2.7450999999046317,2.7609000000953614,2.778099999904626,2.7952000002861013,2.8104000000953633,2.8279000000953616,2.844700000286096,2.8607000002861014,2.8770999999046296,2.8948000001907346,2.910800000190733,2.927499999999995,2.9439999999999955,2.9605999999046304,2.980400000095365,2.9969000000953656,3.0104999999999933,3.027099999904628,3.0442000002860965,3.062800000190734,3.0774999999999935,3.093900000095367,3.1104000000953604,3.127999999999993,3.143900000095364,3.160499999999999,3.1769999999999996,3.1947000002860975,3.210400000095362,3.2314000000953627,3.2635999999046277,3.269999999999996,3.2824000000953646,3.298900000095365,3.313999999999993,3.330300000190732,3.3440999999046284,3.360599999904629,3.377200000286102,3.393900000095364,3.4139999999999944,3.429099999904629,3.4447000002860975,3.4605999999046304,3.477099999904631,3.496300000190729,3.511400000095364,3.5279999999999987,3.5475999999046266,3.563300000190729,3.5794000000953616,3.5937000002860984,3.6104000000953604,3.627200000286102,3.6459999999999937,3.6604000000953647,3.6770999999046268,3.694499999999998,3.710499999999996,3.7303000001907307,3.7450999999046317,3.7627000002860953,3.780400000095362,3.7967000002861013,3.8109000000953657,3.829900000095364,3.846999999999994,3.8633000001907334,3.877300000190729,3.89380000019073,3.9104000000953647,3.9270999999046268,3.9482000002861,3.9650999999046306,3.9809999999999945,3.994900000095363,4.011400000095364,4.036300000190728,4.0535,4.060700000286097,4.0770999999046325,4.093800000190733,4.11040000009536,4.128099999904627,4.1444000000953665,4.160400000095365,4.177099999904627,4.194400000095364,4.210499999999996,4.227099999904631,4.2439000000953655,4.260499999999993,4.277099999904628,4.293900000095363,4.3104999999999976,4.327200000286098,4.348300000190733,4.36040000009536,4.377200000286102,4.393900000095364,4.410400000095365,4.427099999904627,4.443900000095361,4.460400000095362,4.477099999904631,4.493800000190731,4.514800000190732,4.530999999999999,4.547499999999999,4.564499999999995,4.580999999999996,4.5967000002860985,4.611200000286097,4.630900000095366,4.648200000286096,4.664800000190731,4.6814000000953655,4.697900000095366,4.710499999999996,4.727300000190731,4.747900000095363,4.760400000095366,4.777099999904628,4.793900000095363,4.810400000095363,4.8270999999046325,4.844599999904631,4.86040000009536,4.87709999990463,4.8937000002860955,4.910599999904626,4.9315,4.948400000095361,4.966099999904628,4.990499999999997,5.000800000190729,5.0113000001907295,5.027700000286096,5.043800000190728,5.0604999999999976,5.0770999999046325,5.093999999999994,5.11040000009536,5.127200000286102,5.143900000095364,5.160499999999999,5.177900000095363,5.197400000095364,5.210400000095362,5.226999999999997,5.246599999904632,5.263300000190732,5.277099999904628,5.293800000190728,5.310400000095363,5.326999999999998,5.34480000019073,5.36040000009536,5.379200000286097,5.3940999999046255,5.411999999999999,5.427099999904627,5.443800000190734,5.460499999999996,5.479200000286099,5.493700000286097,5.510400000095366,5.528999999999996,5.545900000095365,5.560700000286097,5.576999999999998,5.593700000286098,5.610499999999995,5.62709999990463,5.64380000019073,5.663400000095365,5.677400000095361,5.6937000002861,5.714499999999994,5.730300000190731,5.746800000190731,5.768099999904628,5.777200000286101,5.7942000002860965,5.810700000286097,5.830599999904628,5.846800000190733,5.864200000286104,5.882400000095359,5.897800000190728,5.913400000095365,5.9280999999046315,5.943900000095368,5.960499999999996,5.980499999999992,5.995200000286104,6.012800000190737,6.027300000190735,6.04849999999999,6.060700000286104,6.081300000190737,6.1008000001907305,6.110599999904636,6.12709999990463,6.147200000286105,6.165200000286106,6.180999999999997,6.205500000000001,6.212200000286103,6.227099999904624,6.249400000095363,6.260400000095359,6.277000000000001,6.293700000286094,6.31040000009537,6.326999999999998,6.349200000286103,6.361999999999995,6.37709999990463,6.3992000002861005,6.410400000095365,6.4269999999999925,6.443800000190734,6.460400000095362,6.477099999904624,6.493700000286097,6.510499999999993,6.530200000286101,6.5468000001907285,6.563599999904625,6.5782000002861025,6.596599999904626,6.6104000000953675,6.63009999990463,6.64809999990463,6.663700000286099,6.681300000190731,6.697200000286102,6.71080000019073,6.729500000000002,6.747300000190734,6.761400000095364,6.777000000000001,6.793700000286094,6.81040000009537,6.826999999999998,6.843999999999994,6.860500000000002,6.876999999999995,6.893700000286103,6.910400000095365,6.930499999999995,6.948099999904628,6.964200000286098,6.982400000095367,6.9972000002860995,7.013099999904625,7.0294000000953645,7.044099999904631,7.0660000000000025,7.101599999904636,7.108300000190738,7.115099999904629,7.13309999990463]","[1732161163146,1732161163187,1732161163201,1732161163218,1732161163233,1732161163248,1732161163266,1732161163283,1732161163299,1732161163313,1732161163329,1732161163346,1732161163363,1732161163379,1732161163396,1732161163413,1732161163429,1732161163446,1732161163463,1732161163482,1732161163496,1732161163513,1732161163530,1732161163546,1732161163563,1732161163579,1732161163596,1732161163613,1732161163629,1732161163646,1732161163665,1732161163680,1732161163696,1732161163713,1732161163731,1732161163746,1732161163763,1732161163781,1732161163796,1732161163813,1732161163830,1732161163846,1732161163863,1732161163882,1732161163898,1732161163913,1732161163931,1732161163950,1732161163963,1732161163979,1732161163996,1732161164014,1732161164029,1732161164046,1732161164067,1732161164084,1732161164100,1732161164113,1732161164134,1732161164146,1732161164163,1732161164184,1732161164196,1732161164213,1732161164229,1732161164246,1732161164263,1732161164283,1732161164300,1732161164315,1732161164331,1732161164348,1732161164363,1732161164382,1732161164397,1732161164416,1732161164431,1732161164449,1732161164466,1732161164480,1732161164496,1732161164513,1732161164529,1732161164546,1732161164563,1732161164579,1732161164596,1732161164615,1732161164632,1732161164647,1732161164666,1732161164683,1732161164700,1732161164713,1732161164729,1732161164751,1732161164763,1732161164780,1732161164797,1732161164816,1732161164832,1732161164849,1732161164868,1732161164884,1732161164901,1732161164917,1732161164933,1732161164954,1732161164963,1732161164979,1732161164997,1732161165015,1732161165032,1732161165048,1732161165064,1732161165084,1732161165100,1732161165117,1732161165129,1732161165146,1732161165163,1732161165184,1732161165201,1732161165213,1732161165229,1732161165246,1732161165263,1732161165280,1732161165296,1732161165313,1732161165329,1732161165346,1732161165363,1732161165380,1732161165396,1732161165417,1732161165434,1732161165449,1732161165465,1732161165483,1732161165496,1732161165513,1732161165533,1732161165550,1732161165566,1732161165579,1732161165596,1732161165613,1732161165629,1732161165646,1732161165663,1732161165681,1732161165696,1732161165713,1732161165730,1732161165747,1732161165763,1732161165780,1732161165796,1732161165813,1732161165830,1732161165846,1732161165863,1732161165881,1732161165896,1732161165914,1732161165931,1732161165946,1732161165963,1732161165980,1732161165996,1732161166013,1732161166030,1732161166046,1732161166063,1732161166080,1732161166096,1732161166116,1732161166132,1732161166146,1732161166163,1732161166180,1732161166198,1732161166213,1732161166229,1732161166246,1732161166263,1732161166279,1732161166296,1732161166313,1732161166330,1732161166346,1732161166367,1732161166399,1732161166405,1732161166418,1732161166434,1732161166449,1732161166466,1732161166480,1732161166496,1732161166513,1732161166529,1732161166549,1732161166565,1732161166580,1732161166596,1732161166613,1732161166632,1732161166647,1732161166663,1732161166683,1732161166699,1732161166715,1732161166729,1732161166746,1732161166763,1732161166781,1732161166796,1732161166813,1732161166830,1732161166846,1732161166866,1732161166881,1732161166898,1732161166916,1732161166932,1732161166946,1732161166965,1732161166983,1732161166999,1732161167013,1732161167029,1732161167046,1732161167063,1732161167084,1732161167101,1732161167116,1732161167130,1732161167147,1732161167172,1732161167189,1732161167196,1732161167213,1732161167229,1732161167246,1732161167264,1732161167280,1732161167296,1732161167313,1732161167330,1732161167346,1732161167363,1732161167379,1732161167396,1732161167413,1732161167429,1732161167446,1732161167463,1732161167484,1732161167496,1732161167513,1732161167529,1732161167546,1732161167563,1732161167579,1732161167596,1732161167613,1732161167629,1732161167650,1732161167666,1732161167683,1732161167700,1732161167717,1732161167732,1732161167747,1732161167766,1732161167784,1732161167800,1732161167817,1732161167833,1732161167846,1732161167863,1732161167883,1732161167896,1732161167913,1732161167929,1732161167946,1732161167963,1732161167980,1732161167996,1732161168013,1732161168029,1732161168046,1732161168067,1732161168084,1732161168102,1732161168126,1732161168136,1732161168147,1732161168163,1732161168179,1732161168196,1732161168213,1732161168229,1732161168246,1732161168263,1732161168279,1732161168296,1732161168313,1732161168333,1732161168346,1732161168363,1732161168382,1732161168399,1732161168413,1732161168429,1732161168446,1732161168463,1732161168480,1732161168496,1732161168515,1732161168530,1732161168547,1732161168563,1732161168579,1732161168596,1732161168615,1732161168629,1732161168646,1732161168665,1732161168681,1732161168696,1732161168713,1732161168729,1732161168746,1732161168763,1732161168779,1732161168799,1732161168813,1732161168829,1732161168850,1732161168866,1732161168882,1732161168904,1732161168913,1732161168930,1732161168946,1732161168966,1732161168982,1732161169000,1732161169018,1732161169033,1732161169049,1732161169064,1732161169079,1732161169096,1732161169116,1732161169131,1732161169148,1732161169163,1732161169184,1732161169196,1732161169217,1732161169236,1732161169246,1732161169263,1732161169283,1732161169301,1732161169317,1732161169341,1732161169348,1732161169363,1732161169385,1732161169396,1732161169413,1732161169429,1732161169446,1732161169463,1732161169485,1732161169497,1732161169513,1732161169535,1732161169546,1732161169563,1732161169579,1732161169596,1732161169613,1732161169629,1732161169646,1732161169666,1732161169682,1732161169699,1732161169714,1732161169732,1732161169746,1732161169766,1732161169784,1732161169799,1732161169817,1732161169833,1732161169846,1732161169865,1732161169883,1732161169897,1732161169912,1732161169929,1732161169946,1732161169962,1732161169979,1732161169996,1732161170012,1732161170029,1732161170046,1732161170066,1732161170084,1732161170100,1732161170118,1732161170133,1732161170149,1732161170165,1732161170180,1732161170201,1732161170237,1732161170244,1732161170251,1732161170269]","[[1101.7,576.1],[1101.7,576.1],[1088.1,596],[1088.1,596],[1014.4,594.8],[1044.8,596.5],[1038.9,601],[993.9,616.9],[934.5,617.2],[946.7,612.5],[944.6,606],[1020.1,599.7],[1017.5,593.9],[1020.7,569.3],[1013.5,546.2],[988.4,518.5],[1000.4,485.5],[1007,443.6],[1033.5,420.9],[1078.5,416],[1078.5,416],[1082,407],[1082,407],[1072.3,397.2],[1072.3,397.2],[1110.1,382.5],[1149.2,389.1],[1169.4,388.7],[1242.4,398.6],[1288.5,406.5],[1316.6,431],[1378.5,441.8],[1354.8,447.6],[1374.1,465.9],[1383.9,472.9],[1409.9,490.3],[1411.3,482.7],[1446.9,493.6],[1428.2,483.8],[1420.3,476.9],[1416.4,470.9],[1373.2,475],[1341.7,458],[1375,447],[1317.2,432.1],[1294.2,423.5],[1254.3,412.9],[1254.3,412.9],[1263.7,378.8],[1263.7,378.8],[1229.9,359.5],[1201.2,340.5],[1201.2,340.5],[1130.8,324.1],[1133.9,306.8],[1095.4,291.2],[1091.2,289.2],[1032.9,292.3],[1044.8,297.1],[995.9,304.7],[952.8,333.5],[894,341],[894,341],[835.9,363.4],[823.8,363.1],[823.8,363.1],[741.4,370.8],[739.6,370.1],[672.8,363.6],[740.2,350],[673.1,340.2],[673.1,340.2],[695,352.4],[701.4,375.1],[688.8,402.4],[738.2,409.4],[781.6,429.7],[823.9,441.3],[870.8,477.9],[870.8,477.9],[898.7,494],[898.7,494],[918.3,531.8],[966.9,557.7],[957.5,569.9],[957.5,569.9],[951.3,566.3],[986,563.9],[997.7,578.9],[992.8,575.3],[1019.1,588.9],[1008.1,593.1],[1049.3,618],[1049.3,618],[1032.5,610.6],[1032.5,610.6],[1040.9,614.5],[1096.2,606.9],[1096.3,594.8],[1156.4,602.6],[1165.6,605.5],[1180.1,600.9],[1194.2,608.9],[1210.7,599.8],[1201.7,586.4],[1175.6,595],[1188.3,590.3],[1145.5,593.3],[1145.5,593.3],[1179.2,591.2],[1160.7,581.8],[1186.3,577.6],[1199.2,581.6],[1211.7,570],[1231.4,571.3],[1237,573],[1249.7,566.1],[1255.9,575],[1255.9,575],[1291.9,577.4],[1321.1,586.9],[1316.7,597.5],[1274.3,588],[1274.3,588],[1324.6,598.8],[1324.6,598.8],[1312.4,604.6],[1312.4,604.6],[1344.3,602.1],[1344.3,602.1],[1362.9,600.4],[1362.9,600.4],[1411.4,605.2],[1411.4,605.2],[1434.8,591.4],[1472.3,591.8],[1452.9,578.8],[1495.3,567.6],[1542.1,566],[1535.5,557],[1535.5,557],[1561.1,535.9],[1565.8,529.7],[1551.5,508.7],[1554.5,491.6],[1554.5,491.6],[1506.5,478.8],[1525.1,469.9],[1519.9,469.8],[1524.2,464.4],[1542.4,456.7],[1554.4,451.6],[1539.4,446.9],[1536.5,448.8],[1526.6,448.5],[1539.9,450.9],[1558.9,456],[1525.3,441.1],[1530.2,432.7],[1485.8,410],[1480.9,401.1],[1477.7,396.7],[1460.4,404.1],[1460.7,398.8],[1451.8,409.4],[1426.3,418.3],[1426.3,418.3],[1407.2,422.7],[1414.7,438.9],[1352.7,445.9],[1330.5,472.5],[1298,479.8],[1264.2,480.6],[1269.3,473.7],[1269.2,485.8],[1269.2,485.8],[1289.9,488.1],[1288.8,481.7],[1307.6,472.4],[1321.3,464.2],[1412.6,458.7],[1503.9,453.2],[1542.8,457.7],[1587.5,461.6],[1641.8,477.6],[1661,470.4],[1662.2,470.4],[1662.2,470.4],[1685.2,479.1],[1684.6,483.9],[1684,488.7],[1642.5,504.8],[1601,520.9],[1540.8,519.9],[1540.8,519.9],[1477.7,510.7],[1428.8,504.7],[1397.7,511.9],[1384.7,498],[1384.7,498],[1372.5,492.6],[1372.5,492.6],[1333,493.5],[1315.8,489.4],[1319.9,471.6],[1325.9,460.5],[1304.7,451.4],[1315.6,462.8],[1253.1,439.2],[1220.7,424.9],[1152.8,418.8],[1084.1,404.2],[1047.2,393.1],[988,387],[921.4,385],[852.5,373.2],[834.4,372.2],[838.8,344.7],[838.8,344.7],[892.8,336.9],[892.8,336.9],[915.4,324.6],[959.5,316.8],[973.3,306.5],[1006.2,298.4],[1039.1,290.3],[1083.4,292],[1128.1,296.8],[1164.6,301.8],[1149.4,321],[1117.6,334.6],[1088.4,339.7],[1107.4,347.1],[1135.1,360.2],[1124.1,373.2],[1143.2,387.2],[1131.3,391.4],[1148.2,393.4],[1173.3,395.2],[1154.7,397.7],[1154.7,397.7],[1173.1,406.7],[1173.1,406.7],[1166.5,436.6],[1080.5,456.3],[1081.4,483.7],[1114.1,505.3],[1114.1,505.3],[1075.6,522],[1096.3,549.4],[1063.3,573.4],[1009.2,600.4],[1009.8,610.1],[1009.8,610.1],[994.2,614],[994.2,614],[1035.8,614.6],[1035.8,614.6],[1095,617.3],[1119.5,616.4],[1119.5,616.4],[1140.2,615],[1140.2,615],[1186.3,610.7],[1186.3,610.7],[1190,599.6],[1190,599.6],[1223.2,591.2],[1312.2,591.4],[1326,600.7],[1331.3,607.7],[1295.9,597.9],[1331,578.4],[1309.8,579.3],[1332.7,569.5],[1371.3,566.5],[1394,562.7],[1412.1,561.8],[1370.5,552.6],[1391.4,548.4],[1376.6,553.2],[1376.6,553.2],[1361.8,558],[1327,580.6],[1327,580.6],[1301.7,578.6],[1298.3,600.5],[1239.6,612.7],[1259,624.8],[1220,621],[1254.2,629.6],[1248,647.3],[1326,650.9],[1392.8,660.5],[1447.5,667.5],[1455.9,672.8],[1421.3,674.2],[1379.5,684],[1379.5,684],[1337.5,678.8],[1335.1,685],[1305,680],[1305,680],[1306.3,662.9],[1292.1,666.1],[1252.2,656.8],[1209.3,652.9],[1209.3,652.9],[1173.7,637.7],[1104.1,618.9],[1081.1,594.2],[1082.2,593],[1066,583.8],[1093.2,575.2],[1050.1,571.1],[1050.1,571.1],[1039.3,566.5],[1039.3,566.5],[997,567.5],[997,567.5],[962.6,560.6],[962.6,560.6],[971.3,546.9],[971.3,546.9],[978.1,539.4],[978.1,539.4],[1073.8,538.7],[1083.3,516],[1079.1,510.7],[1011,500.3],[1072.8,488.4],[1036.7,471.7],[1116.4,456.3],[1092.1,440.1],[1168.1,445.4],[1175.2,421.6],[1181.7,406.7],[1213.2,414.1],[1224.8,406.8],[1263.2,415.3],[1235.8,423.1],[1261,420.9],[1224.6,426.7],[1276.4,437.3],[1194.3,430.9],[1194.3,430.9],[1225.1,446.1],[1173.4,466.4],[1129,462.7],[1139.1,456.8],[1157.6,433],[1173.9,412.8],[1166.1,406.9],[1172.5,392.6],[1149.7,372.5],[1149.7,372.5],[1172.6,364.6],[1190.2,366.2],[1188.8,341.3],[1173.8,347.2],[1174.2,363.7],[1174.2,363.7],[1134.4,372.9],[1117.3,391.1],[1050.7,406.7],[1050.7,406.7],[1039.7,399.5],[1087.9,411.6],[1125.4,423.8],[1121.6,420.9],[1148.7,429.1],[1148.7,429.1],[1142,408.2],[1165.3,387],[1165.3,387],[1188.1,381.8],[1185.7,381.3],[1244.8,365.6],[1251.5,371.2],[1228.2,363.3],[1228.2,363.3],[1223.2,358.8],[1224.5,356.7],[1224.5,356.7],[1203.9,352.7],[1203.9,352.7],[1216.1,359],[1216.1,359],[1175.7,376.7],[1115,383.5],[1108.1,388.6],[1067.8,400.1],[1031.1,412.2],[994.4,424.3],[994.3,430.6],[1003.9,444.1],[1000.8,438.8],[1001.1,432.2],[1014.6,415.5],[1070.5,399.6],[1058.2,387.4],[1094.7,378.1],[1133.9,353],[1173.1,327.9],[1161.4,324.2],[1114.6,301.3],[1100.6,300.9],[1065.4,305.3],[1053.5,304.9],[1053.5,304.9],[998.6,322.3],[996.1,313.8],[973.4,312.3],[938.5,337.6],[911.9,339.6],[909.8,337.1],[914.7,351.3],[922.2,360.2],[934.8,357.8],[930.7,358.7],[947.3,352.9],[1015.8,353.3],[1027.5,347],[1057.7,330.5],[1057.7,330.5],[1085.3,331.8],[1108.5,330.3]]","[-0.142,0.42599999999999993]","[0.142,0.42599999999999993]","[0.42599999999999993,0.42599999999999993]","[-0.42599999999999993,0.142]","[-0.42599999999999993,-0.142]","[-0.42599999999999993,-0.42599999999999993]","[-0.142,0.142]","[0.142,0.142]","[0.42599999999999993,0.142]","[-0.142,-0.142]","[0.142,-0.142]","[0.42599999999999993,-0.142]","[-0.142,-0.42599999999999993]","[0.142,-0.42599999999999993]","[0.42599999999999993,-0.42599999999999993]",0,0,0,0,1,4,Laptop,25,20,8,1,60,4,1,60,3
