inst1_resp.keys,inst1_resp.rt,calibrationMouse.x,calibrationMouse.y,calibrationMouse.leftButton,calibrationMouse.midButton,calibrationMouse.rightButton,calibrationClick.x,calibrationClick.y,calibrationClick.leftButton,calibrationClick.midButton,calibrationClick.rightButton,calibrationClick.clicked_name,trialsc.thisRepN,trialsc.thisTrialN,trialsc.thisN,trialsc.thisIndex,trialsc.ran,calibration_x,calibration_y,participant,session,date,expName,psychopyVersion,OS,frameRate,ScreenRes_pixels,Camera_pixels,mouse_2.x,mouse_2.y,mouse_2.leftButton,mouse_2.midButton,mouse_2.rightButton,mouse_2.time,mouse_2.clicked_name,mouse.x,mouse.y,mouse.leftButton,mouse.midButton,mouse.rightButton,mouse.time,mouse.clicked_name,Choice,Trial,TrialDuration,MOUSE_GAZE,ET_GAZE,ET_GAZE_x_T,time,unixTime,ET_GAZE_NF,Loc_Bus_label,Loc_Metro_label,Loc_RH_label,Loc_Cost_label,Loc_Travel_label,Loc_Comfort_label,Loc_Bus_cost,Loc_Metro_cost,Loc_RH_cost,Loc_Bus_travel,Loc_Metro_travel,Loc_RH_travel,Loc_Bus_comfort,Loc_Metro_comfort,Loc_RH_comfort,trials.thisRepN,trials.thisTrialN,trials.thisN,trials.thisIndex,trials.ran,Block,Device,RH_cost,RH_travel_time,RH_Comfort,metro_cost,metro_travel_time,metro_Comfort,Bus_cost,Bus_travel_time,Bus_Comfort
space,4.0985,0.104166667,-0.033333333,1,0,0,0.332291667,0.335185185,1,0,0,calibration_square,0,0,0,17,1,0.33,0.33,03,001,2024-11-21_14h19.45.081,Attention_exp_legacy,2023.1.0,Win32,59.88023952,,,,,,,,,,,,,,,,,,,,,,,,,,,,,,,,,,,,,,,,,,,,,,,,,,,,,,,,
,,,,,,,-0.663541667,-0.325925926,1,0,0,calibration_square,0,1,1,1,1,-0.67,-0.33,03,001,2024-11-21_14h19.45.081,Attention_exp_legacy,2023.1.0,Win32,59.88023952,,,,,,,,,,,,,,,,,,,,,,,,,,,,,,,,,,,,,,,,,,,,,,,,,,,,,,,,
,,,,,,,-0.339583333,0.677777778,1,0,0,calibration_square,0,2,2,8,1,-0.33,0.67,03,001,2024-11-21_14h19.45.081,Attention_exp_legacy,2023.1.0,Win32,59.88023952,,,,,,,,,,,,,,,,,,,,,,,,,,,,,,,,,,,,,,,,,,,,,,,,,,,,,,,,
,,,,,,,-0.334375,0.003703704,1,0,0,calibration_square,0,3,3,6,1,-0.33,0,03,001,2024-11-21_14h19.45.081,Attention_exp_legacy,2023.1.0,Win32,59.88023952,,,,,,,,,,,,,,,,,,,,,,,,,,,,,,,,,,,,,,,,,,,,,,,,,,,,,,,,
,,,,,,,0.661458333,0.662962963,1,0,0,calibration_square,0,4,4,19,1,0.67,0.67,03,001,2024-11-21_14h19.45.081,Attention_exp_legacy,2023.1.0,Win32,59.88023952,,,,,,,,,,,,,,,,,,,,,,,,,,,,,,,,,,,,,,,,,,,,,,,,,,,,,,,,
,,,,,,,-0.33125,-0.664814815,1,0,0,calibration_square,0,5,5,4,1,-0.33,-0.67,03,001,2024-11-21_14h19.45.081,Attention_exp_legacy,2023.1.0,Win32,59.88023952,,,,,,,,,,,,,,,,,,,,,,,,,,,,,,,,,,,,,,,,,,,,,,,,,,,,,,,,
,,,,,,,-0.322916667,-0.335185185,1,0,0,calibration_square,0,6,6,5,1,-0.33,-0.33,03,001,2024-11-21_14h19.45.081,Attention_exp_legacy,2023.1.0,Win32,59.88023952,,,,,,,,,,,,,,,,,,,,,,,,,,,,,,,,,,,,,,,,,,,,,,,,,,,,,,,,
,,,,,,,0.002083333,0.661111111,1,0,0,calibration_square,0,7,7,13,1,0,0.67,03,001,2024-11-21_14h19.45.081,Attention_exp_legacy,2023.1.0,Win32,59.88023952,,,,,,,,,,,,,,,,,,,,,,,,,,,,,,,,,,,,,,,,,,,,,,,,,,,,,,,,
,,,,,,,0.329166667,0.007407407,1,0,0,calibration_square,0,8,8,16,1,0.33,0,03,001,2024-11-21_14h19.45.081,Attention_exp_legacy,2023.1.0,Win32,59.88023952,,,,,,,,,,,,,,,,,,,,,,,,,,,,,,,,,,,,,,,,,,,,,,,,,,,,,,,,
,,,,,,,-0.004166667,-0.333333333,1,0,0,calibration_square,0,9,9,10,1,0,-0.33,03,001,2024-11-21_14h19.45.081,Attention_exp_legacy,2023.1.0,Win32,59.88023952,,,,,,,,,,,,,,,,,,,,,,,,,,,,,,,,,,,,,,,,,,,,,,,,,,,,,,,,
,,,,,,,-0.671875,0,1,0,0,calibration_square,0,10,10,2,1,-0.67,0,03,001,2024-11-21_14h19.45.081,Attention_exp_legacy,2023.1.0,Win32,59.88023952,,,,,,,,,,,,,,,,,,,,,,,,,,,,,,,,,,,,,,,,,,,,,,,,,,,,,,,,
,,,,,,,0.322916667,0.67037037,1,0,0,calibration_square,0,11,11,18,1,0.33,0.67,03,001,2024-11-21_14h19.45.081,Attention_exp_legacy,2023.1.0,Win32,59.88023952,,,,,,,,,,,,,,,,,,,,,,,,,,,,,,,,,,,,,,,,,,,,,,,,,,,,,,,,
,,,,,,,-0.66875,-0.653703704,1,0,0,,0,12,12,0,1,-0.67,-0.67,03,001,2024-11-21_14h19.45.081,Attention_exp_legacy,2023.1.0,Win32,59.88023952,,,,,,,,,,,,,,,,,,,,,,,,,,,,,,,,,,,,,,,,,,,,,,,,,,,,,,,,
,,,,,,,0.334375,-0.333333333,1,0,0,calibration_square,0,13,13,15,1,0.33,-0.33,03,001,2024-11-21_14h19.45.081,Attention_exp_legacy,2023.1.0,Win32,59.88023952,,,,,,,,,,,,,,,,,,,,,,,,,,,,,,,,,,,,,,,,,,,,,,,,,,,,,,,,
,,,,,,,0.329166667,-0.664814815,1,0,0,calibration_square,0,14,14,14,1,0.33,-0.67,03,001,2024-11-21_14h19.45.081,Attention_exp_legacy,2023.1.0,Win32,59.88023952,,,,,,,,,,,,,,,,,,,,,,,,,,,,,,,,,,,,,,,,,,,,,,,,,,,,,,,,
,,,,,,,0.66875,-0.672222222,1,0,0,calibration_square,0,15,15,20,1,0.67,-0.67,03,001,2024-11-21_14h19.45.081,Attention_exp_legacy,2023.1.0,Win32,59.88023952,,,,,,,,,,,,,,,,,,,,,,,,,,,,,,,,,,,,,,,,,,,,,,,,,,,,,,,,
,,,,,,,-0.001041667,-0.67962963,1,0,0,calibration_square,0,16,16,9,1,0,-0.67,03,001,2024-11-21_14h19.45.081,Attention_exp_legacy,2023.1.0,Win32,59.88023952,,,,,,,,,,,,,,,,,,,,,,,,,,,,,,,,,,,,,,,,,,,,,,,,,,,,,,,,
,,,,,,,-0.670833333,0.32037037,1,0,0,calibration_square,0,17,17,3,1,-0.67,0.33,03,001,2024-11-21_14h19.45.081,Attention_exp_legacy,2023.1.0,Win32,59.88023952,,,,,,,,,,,,,,,,,,,,,,,,,,,,,,,,,,,,,,,,,,,,,,,,,,,,,,,,
,,,,,,,-0.336458333,0.331481481,1,0,0,calibration_square,0,18,18,7,1,-0.33,0.33,03,001,2024-11-21_14h19.45.081,Attention_exp_legacy,2023.1.0,Win32,59.88023952,,,,,,,,,,,,,,,,,,,,,,,,,,,,,,,,,,,,,,,,,,,,,,,,,,,,,,,,
,,,,,,,0,0.001851852,1,0,0,calibration_square,0,19,19,11,1,0,0,03,001,2024-11-21_14h19.45.081,Attention_exp_legacy,2023.1.0,Win32,59.88023952,,,,,,,,,,,,,,,,,,,,,,,,,,,,,,,,,,,,,,,,,,,,,,,,,,,,,,,,
,,,,,,,-0.007291667,0.318518519,1,0,0,,0,20,20,12,1,0,0.33,03,001,2024-11-21_14h19.45.081,Attention_exp_legacy,2023.1.0,Win32,59.88023952,,,,,,,,,,,,,,,,,,,,,,,,,,,,,,,,,,,,,,,,,,,,,,,,,,,,,,,,
,,,,,,,,,,,,,,,,,,,,03,001,2024-11-21_14h19.45.081,Attention_exp_legacy,2023.1.0,Win32,59.88023952,"[1920,1080]","[640,480]",[0.0010416666666666667],[-0.45740740740740743],[1],[0],[0],[1.083200000286098],"[""StartButton""]",[0.078125],[0.1925925925925926],[1],[0],[0],[5.413199999809265],"[""Metro_label""]",Metro_label,1,6.4391,"[[0.0010416666666666667,-0.4537037037037037],[0.0010416666666666667,-0.4537037037037037],[0.0010416666666666667,-0.4537037037037037],[0.0010416666666666667,-0.4537037037037037],[0.0010416666666666667,-0.4537037037037037],[0.0010416666666666667,-0.4537037037037037],[0.0010416666666666667,-0.4537037037037037],[0.0010416666666666667,-0.4537037037037037],[0.0010416666666666667,-0.4537037037037037],[0.0010416666666666667,-0.4537037037037037],[0.0010416666666666667,-0.4537037037037037],[0.0010416666666666667,-0.4537037037037037],[0.0010416666666666667,-0.4537037037037037],[0.0010416666666666667,-0.4537037037037037],[0.0010416666666666667,-0.4537037037037037],[0.0010416666666666667,-0.4537037037037037],[0.0010416666666666667,-0.4537037037037037],[0.0010416666666666667,-0.4537037037037037],[0.0010416666666666667,-0.4537037037037037],[0.0010416666666666667,-0.4537037037037037],[0.0010416666666666667,-0.4537037037037037],[0.0010416666666666667,-0.4537037037037037],[0.0010416666666666667,-0.4537037037037037],[0.0010416666666666667,-0.4537037037037037],[0.0010416666666666667,-0.4537037037037037],[0.0010416666666666667,-0.4537037037037037],[0.0010416666666666667,-0.4537037037037037],[0.0010416666666666667,-0.4537037037037037],[0.0010416666666666667,-0.4537037037037037],[0.0010416666666666667,-0.4537037037037037],[0.0010416666666666667,-0.4537037037037037],[0.0010416666666666667,-0.4537037037037037],[0.0010416666666666667,-0.4537037037037037],[0.0010416666666666667,-0.4537037037037037],[0.0010416666666666667,-0.4537037037037037],[0.0010416666666666667,-0.4537037037037037],[0.0010416666666666667,-0.4537037037037037],[0.0010416666666666667,-0.4537037037037037],[0.0010416666666666667,-0.4537037037037037],[0.0010416666666666667,-0.4537037037037037],[0.0010416666666666667,-0.4537037037037037],[0.0010416666666666667,-0.4537037037037037],[0.0010416666666666667,-0.4537037037037037],[0.0010416666666666667,-0.4537037037037037],[0.0010416666666666667,-0.4537037037037037],[0.0010416666666666667,-0.4537037037037037],[0.0010416666666666667,-0.4537037037037037],[0.0010416666666666667,-0.4537037037037037],[0.0010416666666666667,-0.4537037037037037],[0.0010416666666666667,-0.4537037037037037],[0.0010416666666666667,-0.4537037037037037],[0.0010416666666666667,-0.4537037037037037],[0.0010416666666666667,-0.4537037037037037],[0.0010416666666666667,-0.4537037037037037],[0.0010416666666666667,-0.4537037037037037],[0.0010416666666666667,-0.4537037037037037],[0.0010416666666666667,-0.4537037037037037],[0.0010416666666666667,-0.4537037037037037],[0.0010416666666666667,-0.4537037037037037],[0.0010416666666666667,-0.4537037037037037],[0.0010416666666666667,-0.4537037037037037],[0.0010416666666666667,-0.4537037037037037],[0.0010416666666666667,-0.4537037037037037],[0.0010416666666666667,-0.4537037037037037],[0.0010416666666666667,-0.4537037037037037],[0.0010416666666666667,-0.4537037037037037],[0.0010416666666666667,-0.4537037037037037],[0.0010416666666666667,-0.4537037037037037],[0.0010416666666666667,-0.4537037037037037],[0.0010416666666666667,-0.4537037037037037],[0.0010416666666666667,-0.4537037037037037],[0.0010416666666666667,-0.4537037037037037],[0.0010416666666666667,-0.4537037037037037],[0.0010416666666666667,-0.4537037037037037],[0.0010416666666666667,-0.4537037037037037],[0.0010416666666666667,-0.4537037037037037],[0.0010416666666666667,-0.4537037037037037],[0.0010416666666666667,-0.4537037037037037],[0.0010416666666666667,-0.4537037037037037],[0.0010416666666666667,-0.4537037037037037],[0.0010416666666666667,-0.4537037037037037],[0.0010416666666666667,-0.4537037037037037],[0.0010416666666666667,-0.4537037037037037],[0.0010416666666666667,-0.4537037037037037],[0.0010416666666666667,-0.4537037037037037],[0.0010416666666666667,-0.4537037037037037],[0.0010416666666666667,-0.4537037037037037],[0.0010416666666666667,-0.4537037037037037],[0.0010416666666666667,-0.4537037037037037],[0.0010416666666666667,-0.4537037037037037],[0.0010416666666666667,-0.4537037037037037],[0.0010416666666666667,-0.4537037037037037],[0.0010416666666666667,-0.4537037037037037],[0.0010416666666666667,-0.4537037037037037],[0.0010416666666666667,-0.4537037037037037],[0,-0.4462962962962963],[-0.0010416666666666667,-0.43703703703703706],[-0.0010416666666666667,-0.42407407407407405],[-0.0010416666666666667,-0.4074074074074074],[-0.0010416666666666667,-0.387037037037037],[-0.005208333333333333,-0.362962962962963],[-0.011458333333333333,-0.32407407407407407],[-0.017708333333333333,-0.29444444444444445],[-0.021875,-0.2796296296296296],[-0.025,-0.26296296296296295],[-0.03229166666666667,-0.2462962962962963],[-0.0375,-0.23333333333333334],[-0.051041666666666666,-0.2],[-0.05625,-0.18518518518518517],[-0.07604166666666666,-0.14629629629629629],[-0.09375,-0.10925925925925926],[-0.10520833333333333,-0.08703703703703704],[-0.11041666666666666,-0.07962962962962963],[-0.11458333333333333,-0.07592592592592592],[-0.12395833333333334,-0.06666666666666667],[-0.12916666666666668,-0.06111111111111111],[-0.13020833333333334,-0.06111111111111111],[-0.134375,-0.053703703703703705],[-0.13854166666666667,-0.046296296296296294],[-0.14270833333333333,-0.037037037037037035],[-0.14479166666666668,-0.03148148148148148],[-0.146875,-0.027777777777777776],[-0.146875,-0.027777777777777776],[-0.146875,-0.027777777777777776],[-0.146875,-0.027777777777777776],[-0.146875,-0.025925925925925925],[-0.14583333333333334,-0.022222222222222223],[-0.14583333333333334,-0.020370370370370372],[-0.14479166666666668,-0.014814814814814815],[-0.14479166666666668,-0.007407407407407408],[-0.14479166666666668,-0.003703703703703704],[-0.14479166666666668,0.003703703703703704],[-0.14479166666666668,0.009259259259259259],[-0.14583333333333334,0.016666666666666666],[-0.14583333333333334,0.020370370370370372],[-0.14583333333333334,0.024074074074074074],[-0.14479166666666668,0.027777777777777776],[-0.14270833333333333,0.03333333333333333],[-0.140625,0.03518518518518519],[-0.13958333333333334,0.037037037037037035],[-0.13958333333333334,0.037037037037037035],[-0.13958333333333334,0.037037037037037035],[-0.13958333333333334,0.037037037037037035],[-0.13958333333333334,0.037037037037037035],[-0.13958333333333334,0.037037037037037035],[-0.13958333333333334,0.037037037037037035],[-0.13958333333333334,0.037037037037037035],[-0.13958333333333334,0.037037037037037035],[-0.13958333333333334,0.037037037037037035],[-0.13958333333333334,0.037037037037037035],[-0.13958333333333334,0.037037037037037035],[-0.13958333333333334,0.037037037037037035],[-0.13958333333333334,0.037037037037037035],[-0.13958333333333334,0.037037037037037035],[-0.13958333333333334,0.037037037037037035],[-0.13958333333333334,0.037037037037037035],[-0.13958333333333334,0.037037037037037035],[-0.13958333333333334,0.037037037037037035],[-0.13958333333333334,0.037037037037037035],[-0.13958333333333334,0.037037037037037035],[-0.13958333333333334,0.037037037037037035],[-0.13958333333333334,0.037037037037037035],[-0.13958333333333334,0.037037037037037035],[-0.13958333333333334,0.037037037037037035],[-0.13958333333333334,0.037037037037037035],[-0.13958333333333334,0.037037037037037035],[-0.13958333333333334,0.037037037037037035],[-0.13958333333333334,0.037037037037037035],[-0.13958333333333334,0.037037037037037035],[-0.13958333333333334,0.037037037037037035],[-0.13645833333333332,0.03888888888888889],[-0.12916666666666668,0.04259259259259259],[-0.12604166666666666,0.044444444444444446],[-0.121875,0.046296296296296294],[-0.11458333333333333,0.05],[-0.11041666666666666,0.05],[-0.10416666666666667,0.05],[-0.10208333333333333,0.05],[-0.09791666666666667,0.05],[-0.09479166666666666,0.05],[-0.08854166666666667,0.05],[-0.08541666666666667,0.05],[-0.08229166666666667,0.05],[-0.07916666666666666,0.05],[-0.075,0.05185185185185185],[-0.071875,0.05185185185185185],[-0.07083333333333333,0.053703703703703705],[-0.06979166666666667,0.053703703703703705],[-0.06875,0.053703703703703705],[-0.06875,0.053703703703703705],[-0.06875,0.053703703703703705],[-0.06875,0.053703703703703705],[-0.06875,0.053703703703703705],[-0.06875,0.053703703703703705],[-0.06875,0.053703703703703705],[-0.06875,0.053703703703703705],[-0.06875,0.053703703703703705],[-0.06875,0.053703703703703705],[-0.06354166666666666,0.05555555555555555],[-0.040625,0.05555555555555555],[-0.0125,0.05555555555555555],[0.014583333333333334,0.05555555555555555],[0.021875,0.05555555555555555],[0.023958333333333335,0.05555555555555555],[0.023958333333333335,0.05555555555555555],[0.023958333333333335,0.05555555555555555],[0.023958333333333335,0.05555555555555555],[0.023958333333333335,0.05555555555555555],[0.023958333333333335,0.05555555555555555],[0.023958333333333335,0.05555555555555555],[0.023958333333333335,0.05555555555555555],[0.023958333333333335,0.05555555555555555],[0.023958333333333335,0.05555555555555555],[0.025,0.05555555555555555],[0.030208333333333334,0.05740740740740741],[0.035416666666666666,0.05925925925925926],[0.03958333333333333,0.05925925925925926],[0.040625,0.05925925925925926],[0.040625,0.05925925925925926],[0.040625,0.05925925925925926],[0.040625,0.05925925925925926],[0.040625,0.05925925925925926],[0.040625,0.05925925925925926],[0.040625,0.05925925925925926],[0.040625,0.05925925925925926],[0.040625,0.05925925925925926],[0.040625,0.05925925925925926],[0.040625,0.05925925925925926],[0.040625,0.05925925925925926],[0.040625,0.05925925925925926],[0.040625,0.05925925925925926],[0.040625,0.05925925925925926],[0.040625,0.05925925925925926],[0.040625,0.05925925925925926],[0.040625,0.05925925925925926],[0.040625,0.05925925925925926],[0.040625,0.05925925925925926],[0.040625,0.05925925925925926],[0.040625,0.05925925925925926],[0.040625,0.05925925925925926],[0.040625,0.05925925925925926],[0.040625,0.05925925925925926],[0.040625,0.05925925925925926],[0.040625,0.05925925925925926],[0.040625,0.05925925925925926],[0.040625,0.05925925925925926],[0.040625,0.05925925925925926],[0.040625,0.05925925925925926],[0.040625,0.05925925925925926],[0.042708333333333334,0.05740740740740741],[0.04479166666666667,0.05],[0.04791666666666667,0.04259259259259259],[0.052083333333333336,0.03333333333333333],[0.057291666666666664,0.025925925925925925],[0.058333333333333334,0.024074074074074074],[0.059375,0.024074074074074074],[0.0625,0.018518518518518517],[0.06458333333333334,0.011111111111111112],[0.06666666666666667,0.005555555555555556],[0.06666666666666667,-0.005555555555555556],[0.06666666666666667,-0.014814814814814815],[0.06666666666666667,-0.024074074074074074],[0.06666666666666667,-0.03148148148148148],[0.06666666666666667,-0.037037037037037035],[0.06666666666666667,-0.04259259259259259],[0.06666666666666667,-0.046296296296296294],[0.06666666666666667,-0.046296296296296294],[0.06666666666666667,-0.046296296296296294],[0.06666666666666667,-0.046296296296296294],[0.06666666666666667,-0.046296296296296294],[0.06666666666666667,-0.046296296296296294],[0.06666666666666667,-0.046296296296296294],[0.06666666666666667,-0.046296296296296294],[0.06666666666666667,-0.05925925925925926],[0.06666666666666667,-0.08148148148148149],[0.06666666666666667,-0.11296296296296296],[0.06666666666666667,-0.14814814814814814],[0.06354166666666666,-0.18333333333333332],[0.06145833333333333,-0.2074074074074074],[0.06041666666666667,-0.21666666666666667],[0.06041666666666667,-0.21666666666666667],[0.06041666666666667,-0.21666666666666667],[0.06041666666666667,-0.21666666666666667],[0.06041666666666667,-0.21666666666666667],[0.06041666666666667,-0.21481481481481482],[0.06041666666666667,-0.17407407407407408],[0.06145833333333333,-0.15],[0.06354166666666666,-0.13333333333333333],[0.06354166666666666,-0.11296296296296296],[0.065625,-0.08518518518518518],[0.06979166666666667,-0.05],[0.071875,-0.012962962962962963],[0.07291666666666667,0.014814814814814815],[0.07604166666666666,0.040740740740740744],[0.08125,0.06851851851851852],[0.08333333333333333,0.09074074074074075],[0.08645833333333333,0.11851851851851852],[0.0875,0.12962962962962962],[0.0875,0.13703703703703704],[0.0875,0.14629629629629629],[0.0875,0.15555555555555556],[0.0875,0.16111111111111112],[0.0875,0.16666666666666666],[0.0875,0.1685185185185185],[0.0875,0.17222222222222222],[0.0875,0.17592592592592593],[0.08541666666666667,0.18518518518518517],[0.08229166666666667,0.19074074074074074],[0.08229166666666667,0.1925925925925926],[0.08125,0.1925925925925926],[0.08125,0.1925925925925926],[0.08125,0.1925925925925926],[0.08125,0.1925925925925926],[0.08125,0.1925925925925926],[0.08125,0.1925925925925926],[0.08020833333333334,0.1925925925925926],[0.07916666666666666,0.1925925925925926],[0.078125,0.1925925925925926],[0.078125,0.1925925925925926],[0.078125,0.1925925925925926],[0.078125,0.1925925925925926],[0.078125,0.1925925925925926],[0.078125,0.1925925925925926],[0.078125,0.1925925925925926],[0.078125,0.1925925925925926],[0.078125,0.1925925925925926],[0.078125,0.1925925925925926],[0.078125,0.1925925925925926],[0.078125,0.1925925925925926],[0.078125,0.1925925925925926],[0.078125,0.1925925925925926],[0.078125,0.1925925925925926],[0.078125,0.1925925925925926],[0.078125,0.1925925925925926],[0.078125,0.1925925925925926],[0.078125,0.1925925925925926],[0.078125,0.1925925925925926],[0.078125,0.1925925925925926],[0.078125,0.1925925925925926],[0.078125,0.1925925925925926],[0.078125,0.1925925925925926],[0.078125,0.1925925925925926],[0.078125,0.1925925925925926],[0.078125,0.1925925925925926],[0.078125,0.1925925925925926],[0.078125,0.1925925925925926],[0.078125,0.1925925925925926],[0.078125,0.1925925925925926],[0.078125,0.1925925925925926],[0.078125,0.1925925925925926],[0.078125,0.1925925925925926],[0.078125,0.1925925925925926],[0.078125,0.1925925925925926],[0.078125,0.1925925925925926],[0.078125,0.1925925925925926],[0.078125,0.1925925925925926],[0.078125,0.1925925925925926],[0.078125,0.1925925925925926],[0.078125,0.1925925925925926],[0.078125,0.1925925925925926],[0.078125,0.1925925925925926],[0.078125,0.1925925925925926],[0.078125,0.1925925925925926],[0.078125,0.1925925925925926],[0.078125,0.1925925925925926],[0.078125,0.1925925925925926],[0.078125,0.1925925925925926],[0.078125,0.1925925925925926],[0.078125,0.1925925925925926],[0.078125,0.1925925925925926],[0.078125,0.1925925925925926],[0.078125,0.1925925925925926],[0.078125,0.1925925925925926],[0.078125,0.1925925925925926],[0.078125,0.1925925925925926],[0.078125,0.1925925925925926],[0.078125,0.1925925925925926],[0.078125,0.1925925925925926],[0.078125,0.1925925925925926],[0.078125,0.1925925925925926],[0.078125,0.1925925925925926],[0.078125,0.1925925925925926],[0.078125,0.1925925925925926],[0.078125,0.1925925925925926],[0.078125,0.1925925925925926]]","[[0.002812500000000047,0.036666666666666584],[0.002812500000000047,0.036666666666666584],[-0.015416666666666618,0.01055555555555564],[-0.015416666666666618,0.01055555555555564],[-0.03343750000000002,0.0294444444444444],[-0.03343750000000002,0.0294444444444444],[-0.06437499999999995,-0.014814814814814815],[-0.06437499999999995,-0.014814814814814815],[-0.10322916666666669,-0.009259259259259259],[-0.10322916666666669,-0.009259259259259259],[-0.12010416666666662,0.012222222222222264],[-0.12010416666666662,0.012222222222222264],[-0.13229166666666667,0.004629629629629629],[-0.15135416666666662,-0.05388888888888893],[-0.15291666666666662,-0.102962962962963],[-0.1554166666666667,-0.15796296296296297],[-0.12458333333333335,-0.1383333333333333],[-0.0953125,-0.1418518518518519],[-0.08677083333333328,-0.17999999999999997],[-0.08677083333333328,-0.17999999999999997],[-0.06958333333333329,-0.17537037037037034],[-0.06958333333333329,-0.17537037037037034],[-0.051874999999999956,-0.16740740740740737],[-0.0328125,-0.18907407407407412],[-0.010520833333333358,-0.21444444444444447],[-0.005208333333333333,-0.2190740740740741],[-0.007708333333333309,-0.23259259259259263],[-0.0012500000000000473,-0.23166666666666672],[-0.024687500000000046,-0.25703703703703706],[-0.0484375,-0.30037037037037034],[-0.04708333333333338,-0.32037037037037036],[-0.04510416666666662,-0.3333333333333333],[-0.04052083333333331,-0.3638888888888889],[-0.03843749999999998,-0.39648148148148155],[-0.036562500000000026,-0.3983333333333334],[-0.011354166666666643,-0.39518518518518514],[0.005416666666666714,-0.38333333333333336],[0.013229166666666714,-0.3859259259259259],[0.021145833333333287,-0.35851851851851857],[0.029375000000000047,-0.3131481481481482],[0.03354166666666671,-0.257962962962963],[0.03166666666666664,-0.2418518518518519],[0.007604166666666619,-0.2190740740740741],[-0.014479166666666644,-0.19296296296296295],[-0.049270833333333285,-0.14018518518518516],[-0.07156250000000004,-0.11055555555555553],[-0.10322916666666669,-0.09851851851851849],[-0.11895833333333337,-0.02907407407407416],[-0.13479166666666664,0.010370370370370412],[-0.14395833333333338,0.007592592592592635],[-0.15739583333333335,-0.02444444444444453],[-0.17770833333333336,0.0016666666666666245],[-0.1736458333333334,-0.0025925925925925505],[-0.19760416666666672,0.031111111111111027],[-0.21447916666666664,0.03185185185185194],[-0.24968750000000003,0.04981481481481477],[-0.2515625,0.09277777777777782],[-0.2515625,0.09277777777777782],[-0.26937500000000003,0.07833333333333325],[-0.2708333333333333,0.07555555555555547],[-0.3132291666666667,0.09685185185185177],[-0.35562499999999997,0.11814814814814806],[-0.3538541666666667,0.1287037037037037],[-0.3538541666666667,0.1287037037037037],[-0.35479166666666667,0.17481481481481478],[-0.36604166666666665,0.1874074074074075],[-0.3614583333333333,0.18574074074074065],[-0.3614583333333333,0.18574074074074065],[-0.33395833333333336,0.20314814814814824],[-0.33125,0.16629629629629622],[-0.32927083333333335,0.14574074074074084],[-0.3228125,0.11351851851851844],[-0.2916666666666667,0.12129629629629629],[-0.2678125,0.09962962962962954],[-0.2913541666666667,0.06333333333333342],[-0.2808333333333334,0.04944444444444453],[-0.2358333333333333,0.03092592592592601],[-0.20302083333333332,0.041666666666666664],[-0.19312499999999996,0.03333333333333333],[-0.16833333333333336,0.07314814814814814],[-0.16833333333333336,0.07314814814814814],[-0.13656250000000003,0.05759259259259263],[-0.12541666666666665,0.09166666666666666],[-0.11572916666666669,0.04222222222222214],[-0.08916666666666669,0.06370370370370367],[-0.04645833333333336,0.09148148148148144],[-0.0421875,0.12629629629629638],[-0.0359375,0.11148148148148157],[-0.0359375,0.11148148148148157],[-0.03458333333333338,0.13629629629629633],[-0.03812500000000003,0.12037037037037036],[-0.041666666666666664,0.10444444444444441],[-0.050833333333333286,0.11907407407407399],[-0.051874999999999956,0.10351851851851848],[-0.051874999999999956,0.10351851851851848],[-0.04833333333333331,0.11740740740740736],[-0.04833333333333331,0.11740740740740736],[-0.04864583333333338,0.14574074074074084],[-0.04864583333333338,0.14574074074074084],[-0.05281250000000005,0.18074074074074079],[-0.049270833333333285,0.15777777777777785],[-0.04739583333333333,0.17629629629629637],[-0.044375000000000026,0.15425925925925918],[-0.044375000000000026,0.15425925925925918],[-0.0375,0.14870370370370362],[-0.058333333333333334,0.17629629629629637],[-0.06614583333333333,0.19611111111111107],[-0.06614583333333333,0.19611111111111107],[-0.07885416666666671,0.18981481481481483],[-0.08510416666666672,0.21574074074074073],[-0.08927083333333338,0.21129629629629634],[-0.09135416666666671,0.18629629629629635],[-0.10041666666666664,0.19870370370370363],[-0.10083333333333329,0.21944444444444444],[-0.10479166666666669,0.2161111111111112],[-0.10291666666666661,0.2125925925925925],[-0.10291666666666661,0.2125925925925925],[-0.0733333333333333,0.17592592592592593],[-0.06177083333333329,0.18870370370370365],[-0.08177083333333333,0.18481481481481474],[-0.08177083333333333,0.18481481481481474],[-0.10177083333333338,0.18092592592592602],[-0.10177083333333338,0.18092592592592602],[-0.11906249999999995,0.17333333333333337],[-0.11906249999999995,0.17333333333333337],[-0.11645833333333329,0.17759259259259255],[-0.11645833333333329,0.17759259259259255],[-0.12052083333333338,0.15018518518518523],[-0.12052083333333338,0.15018518518518523],[-0.13385416666666666,0.1300000000000001],[-0.13385416666666666,0.1300000000000001],[-0.13666666666666671,0.14759259259259266],[-0.13666666666666671,0.14759259259259266],[-0.15531250000000002,0.16666666666666666],[-0.15531250000000002,0.16666666666666666],[-0.18624999999999994,0.23777777777777773],[-0.18624999999999994,0.23777777777777773],[-0.19364583333333332,0.22037037037037038],[-0.19364583333333332,0.22037037037037038],[-0.1532291666666667,0.20851851851851855],[-0.1532291666666667,0.20851851851851855],[-0.11447916666666665,0.19611111111111107],[-0.11447916666666665,0.19611111111111107],[-0.09270833333333334,0.16962962962962966],[-0.07583333333333328,0.13555555555555565],[-0.07552083333333333,0.11185185185185181],[-0.07489583333333331,0.08074074074074078],[-0.07739583333333329,0.00592592592592601],[-0.06885416666666669,-0.04592592592592584],[-0.030312500000000023,-0.11500000000000005],[-0.0109375,-0.1287037037037037],[-0.011249999999999953,-0.12462962962962965],[-0.02333333333333331,-0.11166666666666669],[-0.034895833333333334,-0.11740740740740736],[-0.03718750000000005,-0.11666666666666667],[-0.015312500000000047,-0.09277777777777782],[-0.019895833333333356,-0.08925925925925923],[-0.02822916666666669,-0.06981481481481479],[-0.00010416666666669035,-0.010185185185185186],[0.010312499999999976,0.014629629629629588],[0.005520833333333286,0.02296296296296292],[0.005520833333333286,0.02296296296296292],[0.014479166666666644,0.04296296296296305],[0.03708333333333336,0.05611111111111103],[0.04489583333333336,0.04259259259259259],[0.033958333333333354,0.05648148148148148],[0.025729166666666713,0.05962962962962971],[0.035520833333333356,0.07111111111111107],[0.04677083333333331,0.08462962962962971],[0.02177083333333331,0.06851851851851852],[0.02177083333333331,0.06851851851851852],[-0.009375,0.040740740740740744],[-0.011354166666666643,0.024629629629629547],[-0.034895833333333334,0.013888888888888888],[-0.06333333333333328,-0.011296296296296339],[-0.07104166666666671,0.0011111111111111532],[-0.06291666666666665,-0.0198148148148149],[-0.07260416666666672,-0.03222222222222218],[-0.0702083333333333,-0.044999999999999915],[-0.07489583333333331,-0.056851851851851834],[-0.0828125,-0.08370370370370368],[-0.0828125,-0.08370370370370368],[-0.078125,-0.08499999999999996],[-0.078125,-0.08499999999999996],[-0.08770833333333337,-0.08407407407407404],[-0.08770833333333337,-0.08407407407407404],[-0.08354166666666671,-0.10018518518518522],[-0.07458333333333336,-0.10444444444444441],[-0.07489583333333331,-0.11148148148148146],[-0.10916666666666662,-0.10185185185185185],[-0.13031250000000003,-0.10537037037037032],[-0.13114583333333332,-0.0933333333333333],[-0.12635416666666663,-0.08425925925925926],[-0.11604166666666664,-0.07851851851851847],[-0.11218750000000005,-0.08666666666666668],[-0.11218750000000005,-0.08666666666666668],[-0.0984375,-0.0883333333333333],[-0.10249999999999998,-0.08925925925925923],[-0.10249999999999998,-0.08925925925925923],[-0.10572916666666667,-0.08611111111111111],[-0.10572916666666667,-0.08611111111111111],[-0.09635416666666667,-0.06981481481481479],[-0.06687500000000005,-0.0794444444444444],[-0.03270833333333331,-0.08444444444444449],[-0.026979166666666644,-0.09722222222222222],[-0.02322916666666662,-0.11148148148148146],[-0.02374999999999995,-0.10499999999999998],[-0.024270833333333287,-0.09851851851851849],[-0.034166666666666616,-0.08518518518518518],[-0.03218749999999997,-0.07259259259259257],[-0.013333333333333286,-0.06796296296296295],[-0.01260416666666669,-0.08351851851851856],[-0.017604166666666643,-0.08074074074074078],[-0.017604166666666643,-0.08074074074074078],[-0.017604166666666643,-0.08074074074074078],[-0.014479166666666644,-0.07907407407407405],[0.010312499999999976,-0.05740740740740741],[0.006562499999999953,-0.019999999999999917],[0.016145833333333335,-0.01907407407407399],[0.02374999999999995,-0.004444444444444402],[0.019479166666666714,-0.005185185185185101],[0.03145833333333338,0.005370370370370328],[0.025625000000000023,0.02092592592592584],[0.03458333333333338,0.046296296296296294],[0.03999999999999997,0.04537037037037037],[0.030729166666666665,0.04148148148148144],[0.019583333333333286,0.04462962962962967],[0.03895833333333331,0.03351851851851856],[0.022708333333333285,0.02444444444444453],[0.008437500000000023,0.0016666666666666245],[0.010104166666666714,-0.000925925925925926],[-0.0032291666666666905,-0.01574074074074074],[-0.022916666666666665,-0.024074074074074074],[-0.042604166666666644,-0.032407407407407406],[-0.06020833333333329,-0.013518518518518435],[-0.07124999999999998,0.009444444444444486],[-0.08489583333333334,0.005740740740740783],[-0.1125,-0.000925925925925926],[-0.11604166666666664,0.013888888888888888],[-0.1436458333333333,0.03351851851851856],[-0.1436458333333333,0.03351851851851856],[-0.1710416666666667,0.032407407407407406],[-0.17177083333333332,0.06055555555555564],[-0.1701041666666666,0.05555555555555555],[-0.16843750000000005,0.05055555555555547],[-0.17281249999999998,0.04666666666666675],[-0.18229166666666666,0.03555555555555564],[-0.19937499999999997,0.03592592592592588],[-0.20375000000000001,0.028518518518518478],[-0.20812499999999995,0.02111111111111107],[-0.153125,0.028703703703703703],[-0.10260416666666666,0.04148148148148144],[-0.10260416666666666,0.04148148148148144],[-0.08854166666666667,0.013333333333333417],[-0.08854166666666667,0.013333333333333417],[-0.06124999999999995,0.014814814814814815],[-0.06124999999999995,0.014814814814814815],[-0.03781249999999995,0.011296296296296339],[-0.03781249999999995,0.011296296296296339],[-0.002916666666666619,0],[-0.002916666666666619,0],[0.042708333333333334,0.013888888888888888],[0.042708333333333334,0.013888888888888888],[0.08270833333333343,0.022037037037036994],[0.11572916666666658,0.027037037037037078],[0.14427083333333332,0.01648148148148144],[0.1375,-0.013888888888888888],[0.11322916666666671,-0.030555555555555555],[0.11322916666666671,-0.030555555555555555],[0.09343750000000005,-0.03944444444444436],[0.09343750000000005,-0.03944444444444436],[0.0775000000000001,-0.0455555555555556],[0.07072916666666676,-0.03314814814814811],[0.060000000000000026,-0.015000000000000043],[0.060000000000000026,-0.015000000000000043],[0.03270833333333331,-0.03944444444444436],[0.026041666666666668,-0.053148148148148125],[0.019895833333333356,-0.03592592592592588],[0.0018749999999999527,-0.04018518518518527],[-0.002916666666666619,-0.0198148148148149],[-0.002916666666666619,-0.0198148148148149],[0.0012500000000000473,-0.0022222222222223064],[0.036354166666666646,0.00851851851851856],[0.07239583333333334,0.010740740740740657],[0.0818749999999999,-0.0012962962962963806],[0.10510416666666676,-0.004259259259259175],[0.1349999999999999,0.0198148148148149],[0.14375,0.034074074074074034],[0.14375,0.034074074074074034],[0.1290625000000001,0.02370370370370362],[0.13708333333333325,0.03925925925925934],[0.13531250000000009,0.052407407407407326],[0.15374999999999991,0.041111111111111195],[0.1578125,0.05018518518518523],[0.1478125000000001,0.062037037037037036],[0.15906250000000005,0.07462962962962955],[0.14375,0.06018518518518518],[0.13270833333333343,0.04333333333333329],[0.12552083333333333,0.04888888888888885],[0.14229166666666657,0.03092592592592601],[0.1482291666666666,0.0257407407407407],[0.15072916666666672,-0.0016666666666666245],[0.12468750000000005,0.014074074074074116],[0.12468750000000005,0.014074074074074116],[0.10739583333333323,-0.01314814814814819],[0.09239583333333339,-0.049074074074074076],[0.09239583333333339,-0.049074074074074076],[0.0515625,-0.07962962962962963],[0.033958333333333354,-0.1051851851851852],[0.005312500000000024,-0.13629629629629633],[-0.0026041666666666665,-0.17314814814814813],[-0.010104166666666714,-0.17333333333333337],[-0.013125000000000024,-0.17518518518518522],[-0.010520833333333358,-0.19370370370370374],[0.008958333333333356,-0.2418518518518519],[0.022812499999999975,-0.225],[0.019895833333333356,-0.21888888888888886],[0.03291666666666669,-0.21129629629629634],[0.035520833333333356,-0.19074074074074074],[0.04916666666666671,-0.1646296296296296],[0.033958333333333354,-0.182962962962963],[0.025520833333333333,-0.20685185185185184],[0.020833333333333332,-0.22555555555555556],[0.010520833333333358,-0.22759259259259254],[-0.000833333333333286,-0.22740740740740742],[-0.02781250000000005,-0.257962962962963],[-0.044166666666666646,-0.2748148148148148],[-0.034895833333333334,-0.2898148148148148],[-0.035104166666666714,-0.30037037037037034],[-0.035312499999999976,-0.3109259259259259],[-0.030520833333333285,-0.29981481481481476],[-0.014583333333333334,-0.27999999999999997],[-0.003958333333333286,-0.2735185185185185],[0.002708333333333357,-0.2522222222222222],[0.010416666666666666,-0.2331481481481481],[0.030624999999999975,-0.22888888888888892],[0.0546875,-0.21888888888888886],[0.07677083333333339,-0.21333333333333332],[0.10833333333333334,-0.21222222222222226],[0.11114583333333337,-0.21333333333333332],[0.11270833333333338,-0.2064814814814815],[0.10697916666666671,-0.2198148148148148],[0.10281250000000004,-0.225],[0.10260416666666666,-0.24500000000000002],[0.10260416666666666,-0.24500000000000002],[0.09052083333333343,-0.24240740740740738],[0.09354166666666662,-0.2131481481481482],[0.09812500000000005,-0.19129629629629633],[0.07208333333333337,-0.18574074074074076],[0.04604166666666672,-0.1801851851851852],[0.03989583333333328,-0.15388888888888894],[0.03989583333333328,-0.15388888888888894],[0.04208333333333331,-0.13648148148148145],[0.04729166666666664,-0.10407407407407405],[0.0515625,-0.06814814814814817],[0.0546875,-0.03629629629629634],[0.0546875,-0.03629629629629634],[0.06854166666666663,-0.03166666666666671],[0.04885416666666664,-0.04129629629629621],[0.03447916666666669,-0.041666666666666664],[0.03697916666666667,-0.030000000000000086],[0.03843749999999998,-0.030000000000000086],[0.04041666666666662,-0.052037037037037076],[0.04041666666666662,-0.052037037037037076],[0.04614583333333329,-0.04759259259259268],[0.04614583333333329,-0.04759259259259268],[0.036458333333333336,-0.0507407407407407],[0.036458333333333336,-0.0507407407407407],[0.027083333333333334,-0.06703703703703702],[0.025520833333333333,-0.06888888888888887],[0.025520833333333333,-0.06888888888888887],[0.0010416666666666667,-0.09240740740740737],[0.0010416666666666667,-0.09240740740740737],[-0.00625,-0.10537037037037032],[-0.00625,-0.10537037037037032],[-0.00604166666666662,-0.08722222222222227],[-0.00604166666666662,-0.08722222222222227],[-0.01583333333333338,-0.11722222222222224],[-0.01583333333333338,-0.11722222222222224],[0.0013541666666666192,-0.1],[0.0013541666666666192,-0.1],[0.02000000000000005,-0.09296296296296294],[0.02052083333333338,-0.14222222222222225],[0.02052083333333338,-0.14222222222222225],[0.04697916666666669,-0.15722222222222218]]","[[0.002812500000000047,0.036666666666666584,0.00019999980926854732],[0.002812500000000047,0.036666666666666584,0.051400000095370046],[-0.015416666666666618,0.01055555555555564,0.0774000000953663],[-0.015416666666666618,0.01055555555555564,0.0877999997139014],[-0.03343750000000002,0.0294444444444444,0.11259999990463143],[-0.03343750000000002,0.0294444444444444,0.12459999990463189],[-0.06437499999999995,-0.014814814814814815,0.13919999980926434],[-0.06437499999999995,-0.014814814814814815,0.1559999999999988],[-0.10322916666666669,-0.009259259259259259,0.17249999999999943],[-0.10322916666666669,-0.009259259259259259,0.1891999998092686],[-0.12010416666666662,0.012222222222222264,0.2059000000953688],[-0.12010416666666662,0.012222222222222264,0.2225000000000037],[-0.13229166666666667,0.004629629629629629,0.23919999980926576],[-0.15135416666666662,-0.05388888888888893,0.25719999980926644],[-0.15291666666666662,-0.102962962962963,0.2752999997139014],[-0.1554166666666667,-0.15796296296296297,0.2905999999046358],[-0.12458333333333335,-0.1383333333333333,0.3075999999046317],[-0.0953125,-0.1418518518518519,0.3254999999999981],[-0.08677083333333328,-0.17999999999999997,0.34929999971389947],[-0.08677083333333328,-0.17999999999999997,0.36699999999999733],[-0.06958333333333329,-0.17537037037037034,0.382400000095366],[-0.06958333333333329,-0.17537037037037034,0.38909999990463007],[-0.051874999999999956,-0.16740740740740737,0.40579999971389924],[-0.0328125,-0.18907407407407412,0.42319999980926326],[-0.010520833333333358,-0.21444444444444447,0.43950000000000244],[-0.005208333333333333,-0.2190740740740741,0.4557999997138964],[-0.007708333333333309,-0.23259259259259263,0.4727999997138994],[-0.0012500000000000473,-0.23166666666666672,0.48919999980926576],[-0.024687500000000046,-0.25703703703703706,0.505900000095366],[-0.0484375,-0.30037037037037034,0.5224000000953666],[-0.04708333333333338,-0.32037037037037036,0.5391999998092629],[-0.04510416666666662,-0.3333333333333333,0.556599999904634],[-0.04052083333333331,-0.3638888888888889,0.572499999999998],[-0.03843749999999998,-0.39648148148148155,0.5890999999046329],[-0.036562500000000026,-0.3983333333333334,0.6059000000953674],[-0.011354166666666643,-0.39518518518518514,0.6225000000000023],[0.005416666666666714,-0.38333333333333336,0.6391999998092643],[0.013229166666666714,-0.3859259259259259,0.6574000000953717],[0.021145833333333287,-0.35851851851851857,0.6724999999999994],[0.029375000000000047,-0.3131481481481482,0.6890999999046343],[0.03354166666666671,-0.257962962962963,0.7059000000953688],[0.03166666666666664,-0.2418518518518519,0.7232999997139018],[0.007604166666666619,-0.2190740740740741,0.7390999999046315],[-0.014479166666666644,-0.19296296296296295,0.755900000095366],[-0.049270833333333285,-0.14018518518518516,0.7725000000000009],[-0.07156250000000004,-0.11055555555555553,0.7892999997138972],[-0.10322916666666669,-0.09851851851851849,0.8059000000953702],[-0.11895833333333337,-0.02907407407407416,0.8224000000953708],[-0.13479166666666664,0.010370370370370412,0.839500000000001],[-0.14395833333333338,0.007592592592592635,0.8559000000953674],[-0.15739583333333335,-0.02444444444444453,0.8725000000000023],[-0.17770833333333336,0.0016666666666666245,0.8891999998092643],[-0.1736458333333334,-0.0025925925925925505,0.905699999809265],[-0.19760416666666672,0.031111111111111027,0.9224000000953652],[-0.21447916666666664,0.03185185185185194,0.9390999999046343],[-0.24968750000000003,0.04981481481481477,0.9557999997138964],[-0.2515625,0.09277777777777782,0.9724000000953694],[-0.2515625,0.09277777777777782,0.9890999999046315],[-0.26937500000000003,0.07833333333333325,1.0057999997139007],[-0.2708333333333333,0.07555555555555547,1.0239000000953666],[-0.3132291666666667,0.09685185185185177,1.0412999997138996],[-0.35562499999999997,0.11814814814814806,1.0577999997139003],[-0.3538541666666667,0.1287037037037037,1.0737999997138985],[-0.3538541666666667,0.1287037037037037,1.089099999904633],[-0.35479166666666667,0.17481481481481478,1.1060000000000016],[-0.36604166666666665,0.1874074074074075,1.1252999997138957],[-0.3614583333333333,0.18574074074074065,1.1430000000000007],[-0.3614583333333333,0.18574074074074065,1.1559000000953716],[-0.33395833333333336,0.20314814814814824,1.1724999999999994],[-0.33125,0.16629629629629622,1.1916999998092663],[-0.32927083333333335,0.14574074074074084,1.2059000000953688],[-0.3228125,0.11351851851851844,1.2225000000000037],[-0.2916666666666667,0.12129629629629629,1.2390999999046315],[-0.2678125,0.09962962962962954,1.2590999999046346],[-0.2913541666666667,0.06333333333333342,1.274799999713899],[-0.2808333333333334,0.04944444444444453,1.2890999999046358],[-0.2358333333333333,0.03092592592592601,1.3059000000953702],[-0.20302083333333332,0.041666666666666664,1.3224000000953708],[-0.19312499999999996,0.03333333333333333,1.339099999904633],[-0.16833333333333336,0.07314814814814814,1.3565999999046312],[-0.16833333333333336,0.07314814814814814,1.3734000000953657],[-0.13656250000000003,0.05759259259259263,1.38909999990463],[-0.12541666666666665,0.09166666666666666,1.405699999809265],[-0.11572916666666669,0.04222222222222214,1.4224000000953652],[-0.08916666666666669,0.06370370370370367,1.4390999999046343],[-0.04645833333333336,0.09148148148148144,1.4561999998092645],[-0.0421875,0.12629629629629638,1.4725999999046309],[-0.0359375,0.11148148148148157,1.4900999999046363],[-0.0359375,0.11148148148148157,1.5057999997139007],[-0.03458333333333338,0.13629629629629633,1.5225000000000009],[-0.03812500000000003,0.12037037037037036,1.539599999904631],[-0.041666666666666664,0.10444444444444441,1.5574000000953703],[-0.050833333333333286,0.11907407407407399,1.57509999990463],[-0.051874999999999956,0.10351851851851848,1.5930000000000035],[-0.051874999999999956,0.10351851851851848,1.605799999713895],[-0.04833333333333331,0.11740740740740736,1.6266999998092686],[-0.04833333333333331,0.11740740740740736,1.639400000095371],[-0.04864583333333338,0.14574074074074084,1.6562999997139016],[-0.04864583333333338,0.14574074074074084,1.6727999997138951],[-0.05281250000000005,0.18074074074074079,1.6927999997138983],[-0.049270833333333285,0.15777777777777785,1.7086999998092693],[-0.04739583333333333,0.17629629629629637,1.7251999998092629],[-0.044375000000000026,0.15425925925925918,1.7442999997138955],[-0.044375000000000026,0.15425925925925918,1.756699999809264],[-0.0375,0.14870370370370362,1.7725999999046351],[-0.058333333333333334,0.17629629629629637,1.7892999997138972],[-0.06614583333333333,0.19611111111111107,1.8222999997138984],[-0.06614583333333333,0.19611111111111107,1.8300999999046326],[-0.07885416666666671,0.18981481481481483,1.8392999997139015],[-0.08510416666666672,0.21574074074074073,1.8560000000000016],[-0.08927083333333338,0.21129629629629634,1.8765],[-0.09135416666666671,0.18629629629629635,1.8926999998092668],[-0.10041666666666664,0.19870370370370363,1.908299999713897],[-0.10083333333333329,0.21944444444444444,1.922699999809268],[-0.10479166666666669,0.2161111111111112,1.9440000000000026],[-0.10291666666666661,0.2125925925925925,1.9605000000000032],[-0.10291666666666661,0.2125925925925925,1.9725999999046309],[-0.0733333333333333,0.17592592592592593,1.9892999997139],[-0.06177083333333329,0.18870370370370365,2.00959999990463],[-0.08177083333333333,0.18481481481481474,2.0234999999999985],[-0.08177083333333333,0.18481481481481474,2.039299999713897],[-0.10177083333333338,0.18092592592592602,2.0560999999046317],[-0.10177083333333338,0.18092592592592602,2.072499999999998],[-0.11906249999999995,0.17333333333333337,2.089199999809267],[-0.11906249999999995,0.17333333333333337,2.105799999713895],[-0.11645833333333329,0.17759259259259255,2.133499999999998],[-0.11645833333333329,0.17759259259259255,2.1440999999046326],[-0.12052083333333338,0.15018518518518523,2.156400000095367],[-0.12052083333333338,0.15018518518518523,2.1725999999046337],[-0.13385416666666666,0.1300000000000001,2.1935000000000002],[-0.13385416666666666,0.1300000000000001,2.2060999999046302],[-0.13666666666666671,0.14759259259259266,2.222599999904631],[-0.13666666666666671,0.14759259259259266,2.2431999998092635],[-0.15531250000000002,0.16666666666666666,2.2560000000000002],[-0.15531250000000002,0.16666666666666666,2.2727999997138966],[-0.18624999999999994,0.23777777777777773,2.295500000000004],[-0.18624999999999994,0.23777777777777773,2.30590000009537],[-0.19364583333333332,0.22037037037037038,2.3226999998092666],[-0.19364583333333332,0.22037037037037038,2.339199999809267],[-0.1532291666666667,0.20851851851851855,2.361000000000004],[-0.1532291666666667,0.20851851851851855,2.3725000000000023],[-0.11447916666666665,0.19611111111111107,2.38909999990463],[-0.11447916666666665,0.19611111111111107,2.4057999997138992],[-0.09270833333333334,0.16962962962962966,2.422400000095365],[-0.07583333333333328,0.13555555555555565,2.4420999999046344],[-0.07552083333333333,0.11185185185185181,2.4580999999046327],[-0.07489583333333331,0.08074074074074078,2.473799999713897],[-0.07739583333333329,0.00592592592592601,2.4934999999999974],[-0.06885416666666669,-0.04592592592592584,2.5097999997138984],[-0.030312500000000023,-0.11500000000000005,2.5252999997139014],[-0.0109375,-0.1287037037037037,2.540599999904636],[-0.011249999999999953,-0.12462962962962965,2.557299999713898],[-0.02333333333333331,-0.11166666666666669,2.573999999999998],[-0.034895833333333334,-0.11740740740740736,2.5906999998092672],[-0.03718750000000005,-0.11666666666666667,2.60940000009537],[-0.015312500000000047,-0.09277777777777782,2.6241999998092638],[-0.019895833333333356,-0.08925925925925923,2.640500000000003],[-0.02822916666666669,-0.06981481481481479,2.6584000000953694],[-0.00010416666666669035,-0.010185185185185186,2.6750999999046314],[0.010312499999999976,0.014629629629629588,2.6895999999046367],[0.005520833333333286,0.02296296296296292,2.713400000095369],[0.005520833333333286,0.02296296296296292,2.7224000000953694],[0.014479166666666644,0.04296296296296305,2.7391999998092658],[0.03708333333333336,0.05611111111111103,2.7580000000000027],[0.04489583333333336,0.04259259259259259,2.773299999713899],[0.033958333333333354,0.05648148148148148,2.7919000000953673],[0.025729166666666713,0.05962962962962971,2.8075999999046317],[0.035520833333333356,0.07111111111111107,2.823900000095371],[0.04677083333333331,0.08462962962962971,2.841400000095369],[0.02177083333333331,0.06851851851851852,2.85790000009537],[0.02177083333333331,0.06851851851851852,2.8759999999999977],[-0.009375,0.040740740740740744,2.8891999998092643],[-0.011354166666666643,0.024629629629629547,2.9065999999046355],[-0.034895833333333334,0.013888888888888888,2.9262999997138976],[-0.06333333333333328,-0.011296296296296339,2.9421999998092687],[-0.07104166666666671,0.0011111111111111532,2.9590999999046304],[-0.06291666666666665,-0.0198148148148149,2.977099999904631],[-0.07260416666666672,-0.03222222222222218,2.9920999999046316],[-0.0702083333333333,-0.044999999999999915,3.0075000000000003],[-0.07489583333333331,-0.056851851851851834,3.0226999998092694],[-0.0828125,-0.08370370370370368,3.0435000000000016],[-0.0828125,-0.08370370370370368,3.05590000009537],[-0.078125,-0.08499999999999996,3.0725999999046323],[-0.078125,-0.08499999999999996,3.0894000000953667],[-0.08770833333333337,-0.08407407407407404,3.110599999904636],[-0.08770833333333337,-0.08407407407407404,3.1226999998092637],[-0.08354166666666671,-0.10018518518518522,3.139499999999998],[-0.07458333333333336,-0.10444444444444441,3.160199999809265],[-0.07489583333333331,-0.11148148148148146,3.17640000009537],[-0.10916666666666662,-0.10185185185185185,3.1924000000953683],[-0.13031250000000003,-0.10537037037037032,3.208900000095369],[-0.13114583333333332,-0.0933333333333333,3.224099999904631],[-0.12635416666666663,-0.08425925925925926,3.2426999998092683],[-0.11604166666666664,-0.07851851851851847,3.258499999999998],[-0.11218750000000005,-0.08666666666666668,3.2756999998092624],[-0.11218750000000005,-0.08666666666666668,3.2890999999046358],[-0.0984375,-0.0883333333333333,3.305799999713898],[-0.10249999999999998,-0.08925925925925923,3.322400000095371],[-0.10249999999999998,-0.08925925925925923,3.342500000000001],[-0.10572916666666667,-0.08611111111111111,3.356199999809263],[-0.10572916666666667,-0.08611111111111111,3.3725999999046365],[-0.09635416666666667,-0.06981481481481479,3.393400000095369],[-0.06687500000000005,-0.0794444444444444,3.4095000000000013],[-0.03270833333333331,-0.08444444444444449,3.424500000000002],[-0.026979166666666644,-0.09722222222222222,3.4390999999046343],[-0.02322916666666662,-0.11148148148148146,3.4584000000953665],[-0.02374999999999995,-0.10499999999999998,3.4739000000953695],[-0.024270833333333287,-0.09851851851851849,3.4891999998092658],[-0.034166666666666616,-0.08518518518518518,3.5064000000953683],[-0.03218749999999997,-0.07259259259259257,3.5222999997139013],[-0.013333333333333286,-0.06796296296296295,3.543599999904636],[-0.01260416666666669,-0.08351851851851856,3.560599999904632],[-0.017604166666666643,-0.08074074074074078,3.576999999999998],[-0.017604166666666643,-0.08074074074074078,3.6052999997138997],[-0.017604166666666643,-0.08074074074074078,3.6069999999999993],[-0.014479166666666644,-0.07907407407407405,3.6226999998092637],[0.010312499999999976,-0.05740740740740741,3.6391999998092643],[0.006562499999999953,-0.019999999999999917,3.6606999998092675],[0.016145833333333335,-0.01907407407407399,3.676000000000002],[0.02374999999999995,-0.004444444444444402,3.691299999713898],[0.019479166666666714,-0.005185185185185101,3.706299999713899],[0.03145833333333338,0.005370370370370328,3.7224000000953694],[0.025625000000000023,0.02092592592592584,3.7392999997139],[0.03458333333333338,0.046296296296296294,3.7590999999046346],[0.03999999999999997,0.04537037037037037,3.7749999999999986],[0.030729166666666665,0.04148148148148144,3.790299999713902],[0.019583333333333286,0.04462962962962967,3.8077999997139003],[0.03895833333333331,0.03351851851851856,3.8264000000953686],[0.022708333333333285,0.02444444444444453,3.8421999998092673],[0.008437500000000023,0.0016666666666666245,3.85790000009537],[0.010104166666666714,-0.000925925925925926,3.8736999998092685],[-0.0032291666666666905,-0.01574074074074074,3.8915000000000006],[-0.022916666666666665,-0.024074074074074074,3.9077999997139017],[-0.042604166666666644,-0.032407407407407406,3.922799999713895],[-0.06020833333333329,-0.013518518518518435,3.940799999713896],[-0.07124999999999998,0.009444444444444486,3.9612999997139013],[-0.08489583333333334,0.005740740740740783,3.9772999997138996],[-0.1125,-0.000925925925925926,3.9922999997139],[-0.11604166666666664,0.013888888888888888,4.0075],[-0.1436458333333333,0.03351851851851856,4.024000000000001],[-0.1436458333333333,0.03351851851851856,4.043400000095367],[-0.1710416666666667,0.032407407407407406,4.055799999713898],[-0.17177083333333332,0.06055555555555564,4.074400000095366],[-0.1701041666666666,0.05555555555555555,4.0930000000000035],[-0.16843750000000005,0.05055555555555547,4.110099999904634],[-0.17281249999999998,0.04666666666666675,4.126599999904634],[-0.18229166666666666,0.03555555555555564,4.142699999809267],[-0.19937499999999997,0.03592592592592588,4.158699999809265],[-0.20375000000000001,0.028518518518518478,4.175400000095365],[-0.20812499999999995,0.02111111111111107,4.1920999999046344],[-0.153125,0.028703703703703703,4.206400000095371],[-0.10260416666666666,0.04148148148148144,4.228199999809263],[-0.10260416666666666,0.04148148148148144,4.261400000095371],[-0.08854166666666667,0.013333333333333417,4.2697999997138965],[-0.08854166666666667,0.013333333333333417,4.279199999809265],[-0.06124999999999995,0.014814814814814815,4.28940000009537],[-0.06124999999999995,0.014814814814814815,4.310299999713898],[-0.03781249999999995,0.011296296296296339,4.322599999904632],[-0.03781249999999995,0.011296296296296339,4.339199999809267],[-0.002916666666666619,0,4.3592999997138975],[-0.002916666666666619,0,4.372500000000002],[0.042708333333333334,0.013888888888888888,4.389299999713899],[0.042708333333333334,0.013888888888888888,4.406099999904633],[0.08270833333333343,0.022037037037036994,4.4254999999999995],[0.11572916666666658,0.027037037037037078,4.439699999809264],[0.14427083333333332,0.01648148148148144,4.455900000095369],[0.1375,-0.013888888888888888,4.472400000095369],[0.11322916666666671,-0.030555555555555555,4.4890999999046315],[0.11322916666666671,-0.030555555555555555,4.505799999713901],[0.09343750000000005,-0.03944444444444436,4.522400000095367],[0.09343750000000005,-0.03944444444444436,4.539199999809263],[0.0775000000000001,-0.0455555555555556,4.55590000009537],[0.07072916666666676,-0.03314814814814811,4.572499999999998],[0.060000000000000026,-0.015000000000000043,4.593400000095372],[0.060000000000000026,-0.015000000000000043,4.606000000000002],[0.03270833333333331,-0.03944444444444436,4.6225999999046365],[0.026041666666666668,-0.053148148148148125,4.641400000095366],[0.019895833333333356,-0.03592592592592588,4.656199999809267],[0.0018749999999999527,-0.04018518518518527,4.672499999999999],[-0.002916666666666619,-0.0198148148148149,4.691199999809264],[-0.002916666666666619,-0.0198148148148149,4.705799999713896],[0.0012500000000000473,-0.0022222222222223064,4.722400000095369],[0.036354166666666646,0.00851851851851856,4.739400000095365],[0.07239583333333334,0.010740740740740657,4.755900000095366],[0.0818749999999999,-0.0012962962962963806,4.775099999904633],[0.10510416666666676,-0.004259259259259175,4.789299999713897],[0.1349999999999999,0.0198148148148149,4.80590000009537],[0.14375,0.034074074074074034,4.826199999809269],[0.14375,0.034074074074074034,4.839199999809267],[0.1290625000000001,0.02370370370370362,4.856500000000004],[0.13708333333333325,0.03925925925925934,4.873599999904634],[0.13531250000000009,0.052407407407407326,4.893099999904635],[0.15374999999999991,0.041111111111111195,4.9080999999046355],[0.1578125,0.05018518518518523,4.9229000000953675],[0.1478125000000001,0.062037037037037036,4.939199999809269],[0.15906250000000005,0.07462962962962955,4.960299999713897],[0.14375,0.06018518518518518,4.975000000000001],[0.13270833333333343,0.04333333333333329,4.989199999809266],[0.12552083333333333,0.04888888888888885,5.0075],[0.14229166666666657,0.03092592592592601,5.025099999904633],[0.1482291666666666,0.0257407407407407,5.039599999904631],[0.15072916666666672,-0.0016666666666666245,5.05590000009537],[0.12468750000000005,0.014074074074074116,5.074599999904635],[0.12468750000000005,0.014074074074074116,5.0892999997139015],[0.10739583333333323,-0.01314814814814819,5.106199999809263],[0.09239583333333339,-0.049074074074074076,5.1265],[0.09239583333333339,-0.049074074074074076,5.139299999713899],[0.0515625,-0.07962962962962963,5.156099999904633],[0.033958333333333354,-0.1051851851851852,5.172599999904634],[0.005312500000000024,-0.13629629629629633,5.191400000095371],[-0.0026041666666666665,-0.17314814814814813,5.205799999713896],[-0.010104166666666714,-0.17333333333333337,5.222299999713897],[-0.013125000000000024,-0.17518518518518522,5.2390999999046315],[-0.010520833333333358,-0.19370370370370374,5.255799999713901],[0.008958333333333356,-0.2418518518518519,5.273599999904633],[0.022812499999999975,-0.225,5.290699999809263],[0.019895833333333356,-0.21888888888888886,5.30590000009537],[0.03291666666666669,-0.21129629629629634,5.322699999809267],[0.035520833333333356,-0.19074074074074074,5.339099999904633],[0.04916666666666671,-0.1646296296296296,5.355799999713895],[0.033958333333333354,-0.182962962962963,5.372400000095368],[0.025520833333333333,-0.20685185185185184,5.390799999713899],[0.020833333333333332,-0.22555555555555556,5.405799999713899],[0.010520833333333358,-0.22759259259259254,5.422400000095365],[-0.000833333333333286,-0.22740740740740742,5.440699999809269],[-0.02781250000000005,-0.257962962962963,5.455699999809269],[-0.044166666666666646,-0.2748148148148148,5.472400000095369],[-0.034895833333333334,-0.2898148148148148,5.4890999999046315],[-0.035104166666666714,-0.30037037037037034,5.505799999713901],[-0.035312499999999976,-0.3109259259259259,5.522500000000001],[-0.030520833333333285,-0.29981481481481476,5.539299999713897],[-0.014583333333333334,-0.27999999999999997,5.5564000000953655],[-0.003958333333333286,-0.2735185185185185,5.572400000095371],[0.002708333333333357,-0.2522222222222222,5.589099999904633],[0.010416666666666666,-0.2331481481481481,5.605799999713895],[0.030624999999999975,-0.22888888888888892,5.622299999713896],[0.0546875,-0.21888888888888886,5.63909999990463],[0.07677083333333339,-0.21333333333333332,5.655799999713899],[0.10833333333333334,-0.21222222222222226,5.672400000095365],[0.11114583333333337,-0.21333333333333332,5.689099999904634],[0.11270833333333338,-0.2064814814814815,5.705900000095369],[0.10697916666666671,-0.2198148148148148,5.7254000000953695],[0.10281250000000004,-0.225,5.7407999997139],[0.10260416666666666,-0.24500000000000002,5.758599999904632],[0.10260416666666666,-0.24500000000000002,5.773000000000003],[0.09052083333333343,-0.24240740740740738,5.789099999904636],[0.09354166666666662,-0.2131481481481482,5.8062999997139],[0.09812500000000005,-0.19129629629629633,5.822400000095371],[0.07208333333333337,-0.18574074074074076,5.8396999998092625],[0.04604166666666672,-0.1801851851851852,5.85940000009537],[0.03989583333333328,-0.15388888888888894,5.878],[0.03989583333333328,-0.15388888888888894,5.88909999990463],[0.04208333333333331,-0.13648148148148145,5.905799999713899],[0.04729166666666664,-0.10407407407407405,5.924699999809263],[0.0515625,-0.06814814814814817,5.941900000095366],[0.0546875,-0.03629629629629634,5.9584000000953665],[0.0546875,-0.03629629629629634,5.972400000095369],[0.06854166666666663,-0.03166666666666671,5.9890999999046315],[0.04885416666666664,-0.04129629629629621,6.007699999809269],[0.03447916666666669,-0.041666666666666664,6.022400000095367],[0.03697916666666667,-0.030000000000000086,6.039199999809263],[0.03843749999999998,-0.030000000000000086,6.057699999809266],[0.04041666666666662,-0.052037037037037076,6.074199999809267],[0.04041666666666662,-0.052037037037037076,6.089099999904633],[0.04614583333333329,-0.04759259259259268,6.105799999713895],[0.04614583333333329,-0.04759259259259268,6.122500000000002],[0.036458333333333336,-0.0507407407407407,6.139199999809264],[0.036458333333333336,-0.0507407407407407,6.155699999809265],[0.027083333333333334,-0.06703703703703702,6.172499999999999],[0.025520833333333333,-0.06888888888888887,6.189],[0.025520833333333333,-0.06888888888888887,6.20909999990463],[0.0010416666666666667,-0.09240740740740737,6.224199999809265],[0.0010416666666666667,-0.09240740740740737,6.2390999999046315],[-0.00625,-0.10537037037037032,6.255900000095366],[-0.00625,-0.10537037037037032,6.272500000000001],[-0.00604166666666662,-0.08722222222222227,6.289099999904636],[-0.00604166666666662,-0.08722222222222227,6.3056999998092635],[-0.01583333333333338,-0.11722222222222224,6.322400000095371],[-0.01583333333333338,-0.11722222222222224,6.338999999999999],[0.0013541666666666192,-0.1,6.355799999713895],[0.0013541666666666192,-0.1,6.372400000095368],[0.02000000000000005,-0.09296296296296294,6.389199999809264],[0.02052083333333338,-0.14222222222222225,6.411199999809263],[0.02052083333333338,-0.14222222222222225,6.422400000095365],[0.04697916666666669,-0.15722222222222218,6.439099999904634]]","[0.00019999980926854732,0.051400000095370046,0.0774000000953663,0.0877999997139014,0.11259999990463143,0.12459999990463189,0.13919999980926434,0.1559999999999988,0.17249999999999943,0.1891999998092686,0.2059000000953688,0.2225000000000037,0.23919999980926576,0.25719999980926644,0.2752999997139014,0.2905999999046358,0.3075999999046317,0.3254999999999981,0.34929999971389947,0.36699999999999733,0.382400000095366,0.38909999990463007,0.40579999971389924,0.42319999980926326,0.43950000000000244,0.4557999997138964,0.4727999997138994,0.48919999980926576,0.505900000095366,0.5224000000953666,0.5391999998092629,0.556599999904634,0.572499999999998,0.5890999999046329,0.6059000000953674,0.6225000000000023,0.6391999998092643,0.6574000000953717,0.6724999999999994,0.6890999999046343,0.7059000000953688,0.7232999997139018,0.7390999999046315,0.755900000095366,0.7725000000000009,0.7892999997138972,0.8059000000953702,0.8224000000953708,0.839500000000001,0.8559000000953674,0.8725000000000023,0.8891999998092643,0.905699999809265,0.9224000000953652,0.9390999999046343,0.9557999997138964,0.9724000000953694,0.9890999999046315,1.0057999997139007,1.0239000000953666,1.0412999997138996,1.0577999997139003,1.0737999997138985,1.089099999904633,1.1060000000000016,1.1252999997138957,1.1430000000000007,1.1559000000953716,1.1724999999999994,1.1916999998092663,1.2059000000953688,1.2225000000000037,1.2390999999046315,1.2590999999046346,1.274799999713899,1.2890999999046358,1.3059000000953702,1.3224000000953708,1.339099999904633,1.3565999999046312,1.3734000000953657,1.38909999990463,1.405699999809265,1.4224000000953652,1.4390999999046343,1.4561999998092645,1.4725999999046309,1.4900999999046363,1.5057999997139007,1.5225000000000009,1.539599999904631,1.5574000000953703,1.57509999990463,1.5930000000000035,1.605799999713895,1.6266999998092686,1.639400000095371,1.6562999997139016,1.6727999997138951,1.6927999997138983,1.7086999998092693,1.7251999998092629,1.7442999997138955,1.756699999809264,1.7725999999046351,1.7892999997138972,1.8222999997138984,1.8300999999046326,1.8392999997139015,1.8560000000000016,1.8765,1.8926999998092668,1.908299999713897,1.922699999809268,1.9440000000000026,1.9605000000000032,1.9725999999046309,1.9892999997139,2.00959999990463,2.0234999999999985,2.039299999713897,2.0560999999046317,2.072499999999998,2.089199999809267,2.105799999713895,2.133499999999998,2.1440999999046326,2.156400000095367,2.1725999999046337,2.1935000000000002,2.2060999999046302,2.222599999904631,2.2431999998092635,2.2560000000000002,2.2727999997138966,2.295500000000004,2.30590000009537,2.3226999998092666,2.339199999809267,2.361000000000004,2.3725000000000023,2.38909999990463,2.4057999997138992,2.422400000095365,2.4420999999046344,2.4580999999046327,2.473799999713897,2.4934999999999974,2.5097999997138984,2.5252999997139014,2.540599999904636,2.557299999713898,2.573999999999998,2.5906999998092672,2.60940000009537,2.6241999998092638,2.640500000000003,2.6584000000953694,2.6750999999046314,2.6895999999046367,2.713400000095369,2.7224000000953694,2.7391999998092658,2.7580000000000027,2.773299999713899,2.7919000000953673,2.8075999999046317,2.823900000095371,2.841400000095369,2.85790000009537,2.8759999999999977,2.8891999998092643,2.9065999999046355,2.9262999997138976,2.9421999998092687,2.9590999999046304,2.977099999904631,2.9920999999046316,3.0075000000000003,3.0226999998092694,3.0435000000000016,3.05590000009537,3.0725999999046323,3.0894000000953667,3.110599999904636,3.1226999998092637,3.139499999999998,3.160199999809265,3.17640000009537,3.1924000000953683,3.208900000095369,3.224099999904631,3.2426999998092683,3.258499999999998,3.2756999998092624,3.2890999999046358,3.305799999713898,3.322400000095371,3.342500000000001,3.356199999809263,3.3725999999046365,3.393400000095369,3.4095000000000013,3.424500000000002,3.4390999999046343,3.4584000000953665,3.4739000000953695,3.4891999998092658,3.5064000000953683,3.5222999997139013,3.543599999904636,3.560599999904632,3.576999999999998,3.6052999997138997,3.6069999999999993,3.6226999998092637,3.6391999998092643,3.6606999998092675,3.676000000000002,3.691299999713898,3.706299999713899,3.7224000000953694,3.7392999997139,3.7590999999046346,3.7749999999999986,3.790299999713902,3.8077999997139003,3.8264000000953686,3.8421999998092673,3.85790000009537,3.8736999998092685,3.8915000000000006,3.9077999997139017,3.922799999713895,3.940799999713896,3.9612999997139013,3.9772999997138996,3.9922999997139,4.0075,4.024000000000001,4.043400000095367,4.055799999713898,4.074400000095366,4.0930000000000035,4.110099999904634,4.126599999904634,4.142699999809267,4.158699999809265,4.175400000095365,4.1920999999046344,4.206400000095371,4.228199999809263,4.261400000095371,4.2697999997138965,4.279199999809265,4.28940000009537,4.310299999713898,4.322599999904632,4.339199999809267,4.3592999997138975,4.372500000000002,4.389299999713899,4.406099999904633,4.4254999999999995,4.439699999809264,4.455900000095369,4.472400000095369,4.4890999999046315,4.505799999713901,4.522400000095367,4.539199999809263,4.55590000009537,4.572499999999998,4.593400000095372,4.606000000000002,4.6225999999046365,4.641400000095366,4.656199999809267,4.672499999999999,4.691199999809264,4.705799999713896,4.722400000095369,4.739400000095365,4.755900000095366,4.775099999904633,4.789299999713897,4.80590000009537,4.826199999809269,4.839199999809267,4.856500000000004,4.873599999904634,4.893099999904635,4.9080999999046355,4.9229000000953675,4.939199999809269,4.960299999713897,4.975000000000001,4.989199999809266,5.0075,5.025099999904633,5.039599999904631,5.05590000009537,5.074599999904635,5.0892999997139015,5.106199999809263,5.1265,5.139299999713899,5.156099999904633,5.172599999904634,5.191400000095371,5.205799999713896,5.222299999713897,5.2390999999046315,5.255799999713901,5.273599999904633,5.290699999809263,5.30590000009537,5.322699999809267,5.339099999904633,5.355799999713895,5.372400000095368,5.390799999713899,5.405799999713899,5.422400000095365,5.440699999809269,5.455699999809269,5.472400000095369,5.4890999999046315,5.505799999713901,5.522500000000001,5.539299999713897,5.5564000000953655,5.572400000095371,5.589099999904633,5.605799999713895,5.622299999713896,5.63909999990463,5.655799999713899,5.672400000095365,5.689099999904634,5.705900000095369,5.7254000000953695,5.7407999997139,5.758599999904632,5.773000000000003,5.789099999904636,5.8062999997139,5.822400000095371,5.8396999998092625,5.85940000009537,5.878,5.88909999990463,5.905799999713899,5.924699999809263,5.941900000095366,5.9584000000953665,5.972400000095369,5.9890999999046315,6.007699999809269,6.022400000095367,6.039199999809263,6.057699999809266,6.074199999809267,6.089099999904633,6.105799999713895,6.122500000000002,6.139199999809264,6.155699999809265,6.172499999999999,6.189,6.20909999990463,6.224199999809265,6.2390999999046315,6.255900000095366,6.272500000000001,6.289099999904636,6.3056999998092635,6.322400000095371,6.338999999999999,6.355799999713895,6.372400000095368,6.389199999809264,6.411199999809263,6.422400000095365,6.439099999904634]","[1732170032035,1732170032077,1732170032103,1732170032113,1732170032138,1732170032150,1732170032164,1732170032181,1732170032198,1732170032214,1732170032231,1732170032248,1732170032264,1732170032282,1732170032300,1732170032316,1732170032333,1732170032351,1732170032374,1732170032392,1732170032408,1732170032414,1732170032431,1732170032448,1732170032465,1732170032481,1732170032498,1732170032514,1732170032531,1732170032548,1732170032564,1732170032582,1732170032598,1732170032614,1732170032631,1732170032648,1732170032664,1732170032683,1732170032698,1732170032714,1732170032731,1732170032749,1732170032764,1732170032781,1732170032798,1732170032815,1732170032831,1732170032848,1732170032865,1732170032881,1732170032898,1732170032914,1732170032931,1732170032948,1732170032964,1732170032981,1732170032998,1732170033014,1732170033031,1732170033049,1732170033066,1732170033083,1732170033099,1732170033114,1732170033131,1732170033150,1732170033168,1732170033181,1732170033198,1732170033217,1732170033231,1732170033248,1732170033264,1732170033284,1732170033300,1732170033314,1732170033331,1732170033348,1732170033364,1732170033382,1732170033399,1732170033414,1732170033431,1732170033448,1732170033464,1732170033481,1732170033498,1732170033515,1732170033531,1732170033548,1732170033565,1732170033583,1732170033600,1732170033618,1732170033631,1732170033652,1732170033665,1732170033681,1732170033698,1732170033718,1732170033734,1732170033750,1732170033769,1732170033782,1732170033798,1732170033814,1732170033847,1732170033855,1732170033864,1732170033881,1732170033902,1732170033918,1732170033933,1732170033948,1732170033969,1732170033986,1732170033998,1732170034014,1732170034035,1732170034049,1732170034064,1732170034081,1732170034098,1732170034114,1732170034131,1732170034159,1732170034169,1732170034182,1732170034198,1732170034219,1732170034231,1732170034248,1732170034268,1732170034281,1732170034298,1732170034321,1732170034331,1732170034348,1732170034364,1732170034386,1732170034398,1732170034414,1732170034431,1732170034448,1732170034467,1732170034483,1732170034499,1732170034519,1732170034535,1732170034550,1732170034566,1732170034582,1732170034599,1732170034616,1732170034635,1732170034649,1732170034666,1732170034684,1732170034700,1732170034715,1732170034739,1732170034748,1732170034764,1732170034783,1732170034799,1732170034817,1732170034833,1732170034849,1732170034866,1732170034883,1732170034901,1732170034914,1732170034932,1732170034951,1732170034967,1732170034984,1732170035002,1732170035017,1732170035033,1732170035048,1732170035069,1732170035081,1732170035098,1732170035115,1732170035136,1732170035148,1732170035165,1732170035185,1732170035202,1732170035218,1732170035234,1732170035249,1732170035268,1732170035284,1732170035301,1732170035314,1732170035331,1732170035348,1732170035368,1732170035381,1732170035398,1732170035419,1732170035435,1732170035450,1732170035464,1732170035484,1732170035499,1732170035514,1732170035532,1732170035548,1732170035569,1732170035586,1732170035602,1732170035630,1732170035632,1732170035648,1732170035664,1732170035686,1732170035701,1732170035716,1732170035731,1732170035748,1732170035764,1732170035784,1732170035800,1732170035816,1732170035833,1732170035851,1732170035867,1732170035883,1732170035899,1732170035917,1732170035933,1732170035948,1732170035966,1732170035986,1732170036003,1732170036017,1732170036033,1732170036049,1732170036069,1732170036081,1732170036100,1732170036118,1732170036135,1732170036152,1732170036168,1732170036184,1732170036201,1732170036217,1732170036232,1732170036253,1732170036287,1732170036295,1732170036304,1732170036315,1732170036336,1732170036348,1732170036364,1732170036384,1732170036398,1732170036415,1732170036431,1732170036451,1732170036465,1732170036481,1732170036498,1732170036514,1732170036531,1732170036548,1732170036564,1732170036581,1732170036598,1732170036619,1732170036631,1732170036648,1732170036667,1732170036681,1732170036698,1732170036716,1732170036731,1732170036748,1732170036765,1732170036781,1732170036800,1732170036814,1732170036831,1732170036851,1732170036864,1732170036882,1732170036899,1732170036918,1732170036933,1732170036948,1732170036964,1732170036985,1732170037000,1732170037014,1732170037033,1732170037050,1732170037065,1732170037081,1732170037100,1732170037114,1732170037131,1732170037152,1732170037164,1732170037181,1732170037198,1732170037217,1732170037231,1732170037248,1732170037264,1732170037281,1732170037299,1732170037316,1732170037331,1732170037348,1732170037364,1732170037381,1732170037398,1732170037416,1732170037431,1732170037448,1732170037466,1732170037481,1732170037498,1732170037514,1732170037531,1732170037548,1732170037564,1732170037582,1732170037598,1732170037614,1732170037631,1732170037647,1732170037664,1732170037681,1732170037698,1732170037714,1732170037731,1732170037751,1732170037766,1732170037784,1732170037798,1732170037814,1732170037831,1732170037848,1732170037865,1732170037884,1732170037903,1732170037914,1732170037931,1732170037950,1732170037967,1732170037984,1732170037998,1732170038014,1732170038033,1732170038048,1732170038064,1732170038083,1732170038099,1732170038114,1732170038131,1732170038148,1732170038164,1732170038181,1732170038198,1732170038214,1732170038234,1732170038249,1732170038264,1732170038281,1732170038298,1732170038314,1732170038331,1732170038348,1732170038364,1732170038381,1732170038398,1732170038414,1732170038436,1732170038448,1732170038464]","[[962.7,559.8],[962.7,559.8],[945.2,545.7],[945.2,545.7],[927.9,555.9],[927.9,555.9],[898.2,532],[898.2,532],[860.9,535],[860.9,535],[844.7,546.6],[844.7,546.6],[833,542.5],[814.7,510.9],[813.2,484.4],[810.8,454.7],[840.4,465.3],[868.5,463.4],[876.7,442.8],[876.7,442.8],[893.2,445.3],[893.2,445.3],[910.2,449.6],[928.5,437.9],[949.9,424.2],[955,421.7],[952.6,414.4],[958.8,414.9],[936.3,401.2],[913.5,377.8],[914.8,367],[916.7,360],[921.1,343.5],[923.1,325.9],[924.9,324.9],[949.1,326.6],[965.2,333],[972.7,331.6],[980.3,346.4],[988.2,370.9],[992.2,400.7],[990.4,409.4],[967.3,421.7],[946.1,435.8],[912.7,464.3],[891.3,480.3],[860.9,486.8],[845.8,524.3],[830.6,545.6],[821.8,544.1],[808.9,526.8],[789.4,540.9],[793.3,538.6],[770.3,556.8],[754.1,557.2],[720.3,566.9],[718.5,590.1],[718.5,590.1],[701.4,582.3],[700,580.8],[659.3,592.3],[618.6,603.8],[620.3,609.5],[620.3,609.5],[619.4,634.4],[608.6,641.2],[613,640.3],[613,640.3],[639.4,649.7],[642,629.8],[643.9,618.7],[650.1,601.3],[680,605.5],[702.9,593.8],[680.3,574.2],[690.4,566.7],[733.6,556.7],[765.1,562.5],[774.6,558],[798.4,579.5],[798.4,579.5],[828.9,571.1],[839.6,589.5],[848.9,562.8],[874.4,574.4],[915.4,589.4],[919.5,608.2],[925.5,600.2],[925.5,600.2],[926.8,613.6],[923.4,605],[920,596.4],[911.2,604.3],[910.2,595.9],[910.2,595.9],[913.6,603.4],[913.6,603.4],[913.3,618.7],[913.3,618.7],[909.3,637.6],[912.7,625.2],[914.5,635.2],[917.4,623.3],[917.4,623.3],[924,620.3],[904,635.2],[896.5,645.9],[896.5,645.9],[884.3,642.5],[878.3,656.5],[874.3,654.1],[872.3,640.6],[863.6,647.3],[863.2,658.5],[859.4,656.7],[861.2,654.8],[861.2,654.8],[889.6,635],[900.7,641.9],[881.5,639.8],[881.5,639.8],[862.3,637.7],[862.3,637.7],[845.7,633.6],[845.7,633.6],[848.2,635.9],[848.2,635.9],[844.3,621.1],[844.3,621.1],[831.5,610.2],[831.5,610.2],[828.8,619.7],[828.8,619.7],[810.9,630],[810.9,630],[781.2,668.4],[781.2,668.4],[774.1,659],[774.1,659],[812.9,652.6],[812.9,652.6],[850.1,645.9],[850.1,645.9],[871,631.6],[887.2,613.2],[887.5,600.4],[888.1,583.6],[885.7,543.2],[893.9,515.2],[930.9,477.9],[949.5,470.5],[949.2,472.7],[937.6,479.7],[926.5,476.6],[924.3,477],[945.3,489.9],[940.9,491.8],[932.9,502.3],[959.9,534.5],[969.9,547.9],[965.3,552.4],[965.3,552.4],[973.9,563.2],[995.6,570.3],[1003.1,563],[992.6,570.5],[984.7,572.2],[994.1,578.4],[1004.9,585.7],[980.9,577],[980.9,577],[951,562],[949.1,553.3],[926.5,547.5],[899.2,533.9],[891.8,540.6],[899.6,529.3],[890.3,522.6],[892.6,515.7],[888.1,509.3],[880.5,494.8],[880.5,494.8],[885,494.1],[885,494.1],[875.8,494.6],[875.8,494.6],[879.8,485.9],[888.4,483.6],[888.1,479.8],[855.2,485],[834.9,483.1],[834.1,489.6],[838.7,494.5],[848.6,497.6],[852.3,493.2],[852.3,493.2],[865.5,492.3],[861.6,491.8],[861.6,491.8],[858.5,493.5],[858.5,493.5],[867.5,502.3],[895.8,497.1],[928.6,494.4],[934.1,487.5],[937.7,479.8],[937.2,483.3],[936.7,486.8],[927.2,494],[929.1,500.8],[947.2,503.3],[947.9,494.9],[943.1,496.4],[943.1,496.4],[943.1,496.4],[946.1,497.3],[969.9,509],[966.3,529.2],[975.5,529.7],[982.8,537.6],[978.7,537.2],[990.2,542.9],[984.6,551.3],[993.2,565],[998.4,564.5],[989.5,562.4],[978.8,564.1],[997.4,558.1],[981.8,553.2],[968.1,540.9],[969.7,539.5],[956.9,531.5],[938,527],[919.1,522.5],[902.2,532.7],[891.6,545.1],[878.5,543.1],[852,539.5],[848.6,547.5],[822.1,558.1],[822.1,558.1],[795.8,557.5],[795.1,572.7],[796.7,570],[798.3,567.3],[794.1,565.2],[785,559.2],[768.6,559.4],[764.4,555.4],[760.2,551.4],[813,555.5],[861.5,562.4],[861.5,562.4],[875,547.2],[875,547.2],[901.2,548],[901.2,548],[923.7,546.1],[923.7,546.1],[957.2,540],[957.2,540],[1001,547.5],[1001,547.5],[1039.4,551.9],[1071.1,554.6],[1098.5,548.9],[1092,532.5],[1068.7,523.5],[1068.7,523.5],[1049.7,518.7],[1049.7,518.7],[1034.4,515.4],[1027.9,522.1],[1017.6,531.9],[1017.6,531.9],[991.4,518.7],[985,511.3],[979.1,520.6],[961.8,518.3],[957.2,529.3],[957.2,529.3],[961.2,538.8],[994.9,544.6],[1029.5,545.8],[1038.6,539.3],[1060.9,537.7],[1089.6,550.7],[1098,558.4],[1098,558.4],[1083.9,552.8],[1091.6,561.2],[1089.9,568.3],[1107.6,562.2],[1111.5,567.1],[1101.9,573.5],[1112.7,580.3],[1098,572.5],[1087.4,563.4],[1080.5,566.4],[1096.6,556.7],[1102.3,553.9],[1104.7,539.1],[1079.7,547.6],[1079.7,547.6],[1063.1,532.9],[1048.7,513.5],[1048.7,513.5],[1009.5,497],[992.6,483.2],[965.1,466.4],[957.5,446.5],[950.3,446.4],[947.4,445.4],[949.9,435.4],[968.6,409.4],[981.9,418.5],[979.1,421.8],[991.6,425.9],[994.1,437],[1007.2,451.1],[992.6,441.2],[984.5,428.3],[980,418.2],[970.1,417.1],[959.2,417.2],[933.3,400.7],[917.6,391.6],[926.5,383.5],[926.3,377.8],[926.1,372.1],[930.7,378.1],[946,388.8],[956.2,392.3],[962.6,403.8],[970,414.1],[989.4,416.4],[1012.5,421.8],[1033.7,424.8],[1064,425.4],[1066.7,424.8],[1068.2,428.5],[1062.7,421.3],[1058.7,418.5],[1058.5,407.7],[1058.5,407.7],[1046.9,409.1],[1049.8,424.9],[1054.2,436.7],[1029.2,439.7],[1004.2,442.7],[998.3,456.9],[998.3,456.9],[1000.4,466.3],[1005.4,483.8],[1009.5,503.2],[1012.5,520.4],[1012.5,520.4],[1025.8,522.9],[1006.9,517.7],[993.1,517.5],[995.5,523.8],[996.9,523.8],[998.8,511.9],[998.8,511.9],[1004.3,514.3],[1004.3,514.3],[995,512.6],[995,512.6],[986,503.8],[984.5,502.8],[984.5,502.8],[961,490.1],[961,490.1],[954,483.1],[954,483.1],[954.2,492.9],[954.2,492.9],[944.8,476.7],[944.8,476.7],[961.3,486],[961.3,486],[979.2,489.8],[979.7,463.2],[979.7,463.2],[1005.1,455.1]]","[-0.056692,0.170076]","[0.056692,0.170076]","[0.170076,0.170076]","[-0.170076,0.056692]","[-0.170076,-0.170076]","[-0.170076,-0.056692]","[-0.056692,0.056692]","[0.056692,0.056692]","[0.170076,0.056692]","[-0.056692,-0.170076]","[0.056692,-0.170076]","[0.170076,-0.170076]","[-0.056692,-0.056692]","[0.056692,-0.056692]","[0.170076,-0.056692]",0,0,0,0,1,4,Smartphone,25,20,8,1,60,4,1,60,3
