inst1_resp.keys,inst1_resp.rt,calibrationMouse.x,calibrationMouse.y,calibrationMouse.leftButton,calibrationMouse.midButton,calibrationMouse.rightButton,calibrationClick.x,calibrationClick.y,calibrationClick.leftButton,calibrationClick.midButton,calibrationClick.rightButton,calibrationClick.clicked_name,trialsc.thisRepN,trialsc.thisTrialN,trialsc.thisN,trialsc.thisIndex,trialsc.ran,calibration_x,calibration_y,participant,session,date,expName,psychopyVersion,OS,frameRate,ScreenRes_pixels,mouse_2.x,mouse_2.y,mouse_2.leftButton,mouse_2.midButton,mouse_2.rightButton,mouse_2.time,mouse_2.clicked_name,Camera_pixels,mouse.x,mouse.y,mouse.leftButton,mouse.midButton,mouse.rightButton,mouse.time,mouse.clicked_name,Choice,Trial,TrialDuration,MOUSE_GAZE,ET_GAZE,ET_GAZE_x_T,time,unixTime,ET_GAZE_NF,Loc_Bus_label,Loc_Metro_label,Loc_RH_label,Loc_Cost_label,Loc_Travel_label,Loc_Comfort_label,Loc_Bus_cost,Loc_Metro_cost,Loc_RH_cost,Loc_Bus_travel,Loc_Metro_travel,Loc_RH_travel,Loc_Bus_comfort,Loc_Metro_comfort,Loc_RH_comfort,trials.thisRepN,trials.thisTrialN,trials.thisN,trials.thisIndex,trials.ran,Block,Device,RH_cost,RH_travel_time,RH_Comfort,metro_cost,metro_travel_time,metro_Comfort,Bus_cost,Bus_travel_time,Bus_Comfort
space,2.6736,0.421875,0.007407407,1,0,0,-0.667708333,-0.674074074,1,0,0,calibration_square,0,0,0,0,1,-0.67,-0.67,26,001,2024-11-21_10h47.08.097,Attention_exp_legacy,2023.1.0,Win32,59.88023952,,,,,,,,,,,,,,,,,,,,,,,,,,,,,,,,,,,,,,,,,,,,,,,,,,,,,,,,
,,,,,,,-0.332291667,-0.32037037,1,0,0,calibration_square,0,1,1,5,1,-0.33,-0.33,26,001,2024-11-21_10h47.08.097,Attention_exp_legacy,2023.1.0,Win32,59.88023952,,,,,,,,,,,,,,,,,,,,,,,,,,,,,,,,,,,,,,,,,,,,,,,,,,,,,,,,
,,,,,,,0.317708333,0.675925926,1,0,0,,0,2,2,18,1,0.33,0.67,26,001,2024-11-21_10h47.08.097,Attention_exp_legacy,2023.1.0,Win32,59.88023952,,,,,,,,,,,,,,,,,,,,,,,,,,,,,,,,,,,,,,,,,,,,,,,,,,,,,,,,
,,,,,,,-0.00625,-0.675925926,1,0,0,calibration_square,0,3,3,9,1,0,-0.67,26,001,2024-11-21_10h47.08.097,Attention_exp_legacy,2023.1.0,Win32,59.88023952,,,,,,,,,,,,,,,,,,,,,,,,,,,,,,,,,,,,,,,,,,,,,,,,,,,,,,,,
,,,,,,,-0.680208333,-0.340740741,1,0,0,,0,4,4,1,1,-0.67,-0.33,26,001,2024-11-21_10h47.08.097,Attention_exp_legacy,2023.1.0,Win32,59.88023952,,,,,,,,,,,,,,,,,,,,,,,,,,,,,,,,,,,,,,,,,,,,,,,,,,,,,,,,
,,,,,,,0.329166667,0.007407407,1,0,0,calibration_square,0,5,5,16,1,0.33,0,26,001,2024-11-21_10h47.08.097,Attention_exp_legacy,2023.1.0,Win32,59.88023952,,,,,,,,,,,,,,,,,,,,,,,,,,,,,,,,,,,,,,,,,,,,,,,,,,,,,,,,
,,,,,,,0.33125,-0.683333333,1,0,0,,0,6,6,14,1,0.33,-0.67,26,001,2024-11-21_10h47.08.097,Attention_exp_legacy,2023.1.0,Win32,59.88023952,,,,,,,,,,,,,,,,,,,,,,,,,,,,,,,,,,,,,,,,,,,,,,,,,,,,,,,,
,,,,,,,-0.680208333,0.32962963,1,0,0,,0,7,7,3,1,-0.67,0.33,26,001,2024-11-21_10h47.08.097,Attention_exp_legacy,2023.1.0,Win32,59.88023952,,,,,,,,,,,,,,,,,,,,,,,,,,,,,,,,,,,,,,,,,,,,,,,,,,,,,,,,
,,,,,,,-0.00625,0.322222222,1,0,0,calibration_square,0,8,8,12,1,0,0.33,26,001,2024-11-21_10h47.08.097,Attention_exp_legacy,2023.1.0,Win32,59.88023952,,,,,,,,,,,,,,,,,,,,,,,,,,,,,,,,,,,,,,,,,,,,,,,,,,,,,,,,
,,,,,,,-0.005208333,0.664814815,1,0,0,calibration_square,0,9,9,13,1,0,0.67,26,001,2024-11-21_10h47.08.097,Attention_exp_legacy,2023.1.0,Win32,59.88023952,,,,,,,,,,,,,,,,,,,,,,,,,,,,,,,,,,,,,,,,,,,,,,,,,,,,,,,,
,,,,,,,0.002083333,-0.007407407,1,0,0,calibration_square,0,10,10,11,1,0,0,26,001,2024-11-21_10h47.08.097,Attention_exp_legacy,2023.1.0,Win32,59.88023952,,,,,,,,,,,,,,,,,,,,,,,,,,,,,,,,,,,,,,,,,,,,,,,,,,,,,,,,
,,,,,,,0.001041667,-0.324074074,1,0,0,calibration_square,0,11,11,10,1,0,-0.33,26,001,2024-11-21_10h47.08.097,Attention_exp_legacy,2023.1.0,Win32,59.88023952,,,,,,,,,,,,,,,,,,,,,,,,,,,,,,,,,,,,,,,,,,,,,,,,,,,,,,,,
,,,,,,,-0.333333333,0.672222222,1,0,0,calibration_square,0,12,12,8,1,-0.33,0.67,26,001,2024-11-21_10h47.08.097,Attention_exp_legacy,2023.1.0,Win32,59.88023952,,,,,,,,,,,,,,,,,,,,,,,,,,,,,,,,,,,,,,,,,,,,,,,,,,,,,,,,
,,,,,,,-0.677083333,0.016666667,1,0,0,,0,13,13,2,1,-0.67,0,26,001,2024-11-21_10h47.08.097,Attention_exp_legacy,2023.1.0,Win32,59.88023952,,,,,,,,,,,,,,,,,,,,,,,,,,,,,,,,,,,,,,,,,,,,,,,,,,,,,,,,
,,,,,,,0.333333333,0.344444444,1,0,0,,0,14,14,17,1,0.33,0.33,26,001,2024-11-21_10h47.08.097,Attention_exp_legacy,2023.1.0,Win32,59.88023952,,,,,,,,,,,,,,,,,,,,,,,,,,,,,,,,,,,,,,,,,,,,,,,,,,,,,,,,
,,,,,,,0.665625,-0.651851852,1,0,0,,0,15,15,20,1,0.67,-0.67,26,001,2024-11-21_10h47.08.097,Attention_exp_legacy,2023.1.0,Win32,59.88023952,,,,,,,,,,,,,,,,,,,,,,,,,,,,,,,,,,,,,,,,,,,,,,,,,,,,,,,,
,,,,,,,0.664583333,0.681481481,1,0,0,,0,16,16,19,1,0.67,0.67,26,001,2024-11-21_10h47.08.097,Attention_exp_legacy,2023.1.0,Win32,59.88023952,,,,,,,,,,,,,,,,,,,,,,,,,,,,,,,,,,,,,,,,,,,,,,,,,,,,,,,,
,,,,,,,0.325,-0.353703704,1,0,0,,0,17,17,15,1,0.33,-0.33,26,001,2024-11-21_10h47.08.097,Attention_exp_legacy,2023.1.0,Win32,59.88023952,,,,,,,,,,,,,,,,,,,,,,,,,,,,,,,,,,,,,,,,,,,,,,,,,,,,,,,,
,,,,,,,-0.326041667,0.337037037,1,0,0,calibration_square,0,18,18,7,1,-0.33,0.33,26,001,2024-11-21_10h47.08.097,Attention_exp_legacy,2023.1.0,Win32,59.88023952,,,,,,,,,,,,,,,,,,,,,,,,,,,,,,,,,,,,,,,,,,,,,,,,,,,,,,,,
,,,,,,,-0.329166667,-0.675925926,1,0,0,calibration_square,0,19,19,4,1,-0.33,-0.67,26,001,2024-11-21_10h47.08.097,Attention_exp_legacy,2023.1.0,Win32,59.88023952,,,,,,,,,,,,,,,,,,,,,,,,,,,,,,,,,,,,,,,,,,,,,,,,,,,,,,,,
,,,,,,,-0.330208333,0.02037037,1,0,0,,0,20,20,6,1,-0.33,0,26,001,2024-11-21_10h47.08.097,Attention_exp_legacy,2023.1.0,Win32,59.88023952,,,,,,,,,,,,,,,,,,,,,,,,,,,,,,,,,,,,,,,,,,,,,,,,,,,,,,,,
,,,,,,,,,,,,,,,,,,,,26,001,2024-11-21_10h47.08.097,Attention_exp_legacy,2023.1.0,Win32,59.88023952,"[1920,1080]",[0.041666666666666664],[-0.5388888888888889],[1],[0],[0],[0.900500000000001],"[""StartButton""]","[640,480]",[0.13854166666666667],[0.39444444444444443],[1],[0],[0],[2.313199999809264],"[""Metro_label""]",Metro_label,1,3.3343,"[[0.042708333333333334,-0.5388888888888889],[0.042708333333333334,-0.5388888888888889],[0.042708333333333334,-0.5388888888888889],[0.042708333333333334,-0.5388888888888889],[0.042708333333333334,-0.5388888888888889],[0.042708333333333334,-0.5388888888888889],[0.042708333333333334,-0.5388888888888889],[0.042708333333333334,-0.5388888888888889],[0.042708333333333334,-0.5388888888888889],[0.042708333333333334,-0.5388888888888889],[0.042708333333333334,-0.5388888888888889],[0.042708333333333334,-0.5388888888888889],[0.042708333333333334,-0.5388888888888889],[0.042708333333333334,-0.5388888888888889],[0.042708333333333334,-0.5388888888888889],[0.042708333333333334,-0.5388888888888889],[0.042708333333333334,-0.5388888888888889],[0.042708333333333334,-0.5388888888888889],[0.042708333333333334,-0.5388888888888889],[0.042708333333333334,-0.5388888888888889],[0.042708333333333334,-0.5388888888888889],[0.042708333333333334,-0.5388888888888889],[0.042708333333333334,-0.5388888888888889],[0.042708333333333334,-0.5388888888888889],[0.042708333333333334,-0.5388888888888889],[0.042708333333333334,-0.5388888888888889],[0.042708333333333334,-0.5388888888888889],[0.042708333333333334,-0.5388888888888889],[0.042708333333333334,-0.5388888888888889],[0.04479166666666667,-0.5388888888888889],[0.04791666666666667,-0.5333333333333333],[0.052083333333333336,-0.5222222222222223],[0.05520833333333333,-0.5092592592592593],[0.059375,-0.4962962962962963],[0.0625,-0.4777777777777778],[0.06770833333333333,-0.44814814814814813],[0.07604166666666666,-0.40555555555555556],[0.08645833333333333,-0.3537037037037037],[0.09583333333333334,-0.29444444444444445],[0.10520833333333333,-0.23703703703703705],[0.109375,-0.18518518518518517],[0.11666666666666667,-0.11296296296296296],[0.12291666666666666,-0.037037037037037035],[0.12291666666666666,-0.022222222222222223],[0.12395833333333334,0.009259259259259259],[0.125,0.03518518518518519],[0.12604166666666666,0.053703703703703705],[0.12916666666666668,0.07037037037037037],[0.13229166666666667,0.08888888888888889],[0.13333333333333333,0.09814814814814815],[0.134375,0.10555555555555556],[0.134375,0.10925925925925926],[0.134375,0.1111111111111111],[0.134375,0.1111111111111111],[0.134375,0.1111111111111111],[0.134375,0.1111111111111111],[0.134375,0.1111111111111111],[0.134375,0.1111111111111111],[0.134375,0.1111111111111111],[0.134375,0.1111111111111111],[0.134375,0.1111111111111111],[0.134375,0.1111111111111111],[0.134375,0.1111111111111111],[0.134375,0.1111111111111111],[0.134375,0.1111111111111111],[0.134375,0.1111111111111111],[0.134375,0.1111111111111111],[0.134375,0.1111111111111111],[0.134375,0.1111111111111111],[0.134375,0.1111111111111111],[0.134375,0.1111111111111111],[0.134375,0.1111111111111111],[0.134375,0.1111111111111111],[0.134375,0.1111111111111111],[0.134375,0.1111111111111111],[0.134375,0.1111111111111111],[0.134375,0.1111111111111111],[0.134375,0.1111111111111111],[0.134375,0.1111111111111111],[0.134375,0.1111111111111111],[0.134375,0.1111111111111111],[0.134375,0.1111111111111111],[0.134375,0.11666666666666667],[0.134375,0.13333333333333333],[0.1375,0.1648148148148148],[0.140625,0.2],[0.14270833333333333,0.2351851851851852],[0.14270833333333333,0.26666666666666666],[0.14270833333333333,0.29814814814814816],[0.14270833333333333,0.3351851851851852],[0.14166666666666666,0.35],[0.140625,0.362962962962963],[0.13958333333333334,0.37222222222222223],[0.13958333333333334,0.37592592592592594],[0.13854166666666667,0.37962962962962965],[0.13854166666666667,0.3814814814814815],[0.13854166666666667,0.3814814814814815],[0.13854166666666667,0.3814814814814815],[0.13854166666666667,0.3814814814814815],[0.13854166666666667,0.3814814814814815],[0.13854166666666667,0.3814814814814815],[0.13854166666666667,0.3814814814814815],[0.13854166666666667,0.3814814814814815],[0.13854166666666667,0.3814814814814815],[0.13854166666666667,0.3814814814814815],[0.13854166666666667,0.3814814814814815],[0.13854166666666667,0.3851851851851852],[0.13854166666666667,0.3888888888888889],[0.13854166666666667,0.3888888888888889],[0.13854166666666667,0.3925925925925926],[0.13854166666666667,0.3925925925925926],[0.13854166666666667,0.39444444444444443],[0.13854166666666667,0.39444444444444443],[0.13854166666666667,0.39444444444444443],[0.13854166666666667,0.39444444444444443],[0.13854166666666667,0.39444444444444443],[0.13854166666666667,0.39444444444444443],[0.13854166666666667,0.39444444444444443],[0.13854166666666667,0.39444444444444443],[0.13854166666666667,0.39444444444444443],[0.13854166666666667,0.39444444444444443],[0.13854166666666667,0.39444444444444443],[0.13854166666666667,0.39444444444444443],[0.13854166666666667,0.39444444444444443],[0.13854166666666667,0.39444444444444443],[0.13854166666666667,0.39444444444444443],[0.13854166666666667,0.39444444444444443],[0.13854166666666667,0.39444444444444443],[0.13854166666666667,0.39444444444444443],[0.13854166666666667,0.39444444444444443],[0.13854166666666667,0.39444444444444443],[0.13854166666666667,0.39444444444444443],[0.13854166666666667,0.39444444444444443],[0.13854166666666667,0.39444444444444443],[0.13854166666666667,0.39444444444444443],[0.13854166666666667,0.39444444444444443],[0.13854166666666667,0.39444444444444443],[0.13854166666666667,0.39444444444444443],[0.13854166666666667,0.39444444444444443],[0.13854166666666667,0.39444444444444443],[0.13854166666666667,0.39444444444444443],[0.13854166666666667,0.39444444444444443],[0.13854166666666667,0.39444444444444443],[0.13854166666666667,0.39444444444444443],[0.13854166666666667,0.39444444444444443],[0.13854166666666667,0.39444444444444443],[0.13854166666666667,0.39444444444444443],[0.13854166666666667,0.39444444444444443],[0.13854166666666667,0.39444444444444443],[0.13854166666666667,0.39444444444444443],[0.13854166666666667,0.39444444444444443],[0.13854166666666667,0.39444444444444443],[0.13854166666666667,0.39444444444444443],[0.13854166666666667,0.39444444444444443],[0.13854166666666667,0.39444444444444443],[0.13854166666666667,0.39444444444444443],[0.13854166666666667,0.39444444444444443],[0.13854166666666667,0.39444444444444443],[0.13854166666666667,0.39444444444444443],[0.13854166666666667,0.39444444444444443],[0.13854166666666667,0.39444444444444443],[0.13854166666666667,0.39444444444444443],[0.13854166666666667,0.39444444444444443],[0.13854166666666667,0.39444444444444443],[0.13854166666666667,0.39444444444444443],[0.13854166666666667,0.39444444444444443],[0.13854166666666667,0.39444444444444443],[0.13854166666666667,0.39444444444444443],[0.13854166666666667,0.39444444444444443],[0.13854166666666667,0.39444444444444443],[0.13854166666666667,0.39444444444444443],[0.13854166666666667,0.39444444444444443],[0.13854166666666667,0.39444444444444443],[0.13854166666666667,0.39444444444444443],[0.13854166666666667,0.39444444444444443],[0.13854166666666667,0.39444444444444443],[0.13854166666666667,0.39444444444444443],[0.13854166666666667,0.39444444444444443],[0.13854166666666667,0.39444444444444443],[0.13854166666666667,0.39444444444444443],[0.13854166666666667,0.39444444444444443],[0.13854166666666667,0.39444444444444443],[0.13854166666666667,0.39444444444444443],[0.13854166666666667,0.39444444444444443],[0.13854166666666667,0.39444444444444443],[0.13854166666666667,0.39444444444444443],[0.13854166666666667,0.39444444444444443],[0.13854166666666667,0.39444444444444443],[0.13854166666666667,0.39444444444444443],[0.13854166666666667,0.39444444444444443],[0.13854166666666667,0.39444444444444443],[0.13854166666666667,0.39444444444444443],[0.13854166666666667,0.39444444444444443],[0.13854166666666667,0.39444444444444443],[0.13854166666666667,0.39444444444444443],[0.13854166666666667,0.39444444444444443],[0.13854166666666667,0.39444444444444443],[0.13854166666666667,0.39444444444444443],[0.13854166666666667,0.39444444444444443]]","[[0.12822916666666656,-0.04388888888888897],[0.12531249999999997,-0.06666666666666667],[0.12531249999999997,-0.06666666666666667],[0.12999999999999995,-0.09685185185185187],[0.12260416666666671,-0.12037037037037036],[0.13583333333333342,-0.12962962962962962],[0.14427083333333332,-0.13925925925925925],[0.13354166666666673,-0.18611111111111112],[0.1306250000000001,-0.22999999999999998],[0.12822916666666656,-0.26851851851851855],[0.12697916666666675,-0.2948148148148148],[0.1134375000000001,-0.3448148148148148],[0.0896874999999999,-0.3824074074074074],[0.0896874999999999,-0.3824074074074074],[0.07791666666666662,-0.4088888888888889],[0.046875,-0.44611111111111107],[0.008020833333333382,-0.4903703703703704],[0.008020833333333382,-0.4903703703703704],[-0.013541666666666667,-0.5218518518518519],[-0.013541666666666667,-0.5218518518518519],[-0.005937500000000048,-0.5053703703703704],[-0.00458333333333331,-0.4885185185185185],[-0.00010416666666669035,-0.4781481481481481],[-0.002708333333333357,-0.4751851851851852],[-0.01229166666666662,-0.4675925925925926],[-0.011666666666666714,-0.4596296296296296],[-0.011666666666666714,-0.4596296296296296],[-0.00614583333333331,-0.4581481481481481],[-0.00614583333333331,-0.4581481481481481],[0.017083333333333308,-0.42296296296296293],[0.034895833333333334,-0.33425925925925926],[0.04083333333333338,-0.2524074074074074],[0.04083333333333338,-0.2524074074074074],[0.04708333333333338,-0.17851851851851847],[0.04708333333333338,-0.17851851851851847],[0.0453125,-0.09592592592592594],[0.0453125,-0.09592592592592594],[0.03916666666666669,-0.049074074074074076],[0.03854166666666667,0.004444444444444402],[0.04624999999999998,0.051666666666666625],[0.04624999999999998,0.051666666666666625],[0.04552083333333338,0.10666666666666672],[0.058854166666666666,0.17925925925925917],[0.058854166666666666,0.17925925925925917],[0.06177083333333329,0.25833333333333336],[0.06906249999999996,0.2624074074074075],[0.0953125,0.25851851851851854],[0.11437499999999995,0.2524074074074073],[0.11437499999999995,0.2524074074074073],[0.13729166666666662,0.24944444444444452],[0.14708333333333337,0.22018518518518515],[0.17083333333333334,0.2192592592592592],[0.18333333333333332,0.22685185185185186],[0.18333333333333332,0.22685185185185186],[0.19052083333333342,0.21203703703703702],[0.1943749999999999,0.2035185185185185],[0.21020833333333327,0.1655555555555555],[0.21020833333333327,0.1655555555555555],[0.21427083333333338,0.13962962962962958],[0.16666666666666666,0.06425925925925935],[0.13166666666666677,0.005000000000000084],[0.1118750000000001,-0.027407407407407325],[0.08791666666666677,-0.014259259259259343],[0.08375000000000009,0.01592592592592597],[0.07958333333333342,0.04611111111111107],[0.06041666666666667,0.03944444444444436],[0.036562500000000026,0.037037037037037035],[0.01270833333333338,0.03462962962962971],[0.01270833333333338,0.03462962962962971],[-0.01072916666666662,0.023148148148148147],[0.016458333333333287,0.0794444444444444],[0.029895833333333382,0.15166666666666662],[0.029895833333333382,0.1492592592592593],[0.06208333333333336,0.16777777777777783],[0.06208333333333336,0.16777777777777783],[0.04770833333333328,0.19499999999999992],[0.04770833333333328,0.19499999999999992],[0.03781249999999995,0.1735185185185186],[0.03781249999999995,0.1735185185185186],[0.050729166666666714,0.24444444444444444],[0.050729166666666714,0.24444444444444444],[0.04697916666666669,0.2918518518518519],[0.04697916666666669,0.2918518518518519],[0.07458333333333324,0.28851851851851845],[0.07458333333333324,0.28851851851851845],[0.0821875000000001,0.3175925925925926],[0.0821875000000001,0.3175925925925926],[0.0626041666666667,0.26851851851851855],[0.0626041666666667,0.26851851851851855],[0.07989583333333337,0.2162962962962962],[0.09947916666666666,0.1646296296296296],[0.1109375,0.14907407407407408],[0.13572916666666662,0.07759259259259255],[0.13229166666666667,0],[0.12531249999999997,-0.11629629629629631],[0.1296875,-0.22240740740740744],[0.1296875,-0.22240740740740744],[0.12687499999999996,-0.23592592592592587],[0.12687499999999996,-0.23592592592592587],[0.13645833333333332,-0.26129629629629636],[0.13645833333333332,-0.26129629629629636],[0.1493750000000001,-0.23796296296296296],[0.1493750000000001,-0.23796296296296296],[0.13583333333333342,-0.2511111111111112],[0.13583333333333342,-0.2511111111111112],[0.14447916666666671,-0.32833333333333337],[0.14447916666666671,-0.32833333333333337],[0.14322916666666666,-0.3388888888888889],[0.14322916666666666,-0.3388888888888889],[0.14510416666666662,-0.36018518518518516],[0.14510416666666662,-0.36018518518518516],[0.15583333333333324,-0.2905555555555555],[0.15583333333333324,-0.2905555555555555],[0.16843750000000005,-0.22092592592592594],[0.16843750000000005,-0.22092592592592594],[0.18916666666666657,-0.15796296296296297],[0.18916666666666657,-0.15796296296296297],[0.19083333333333338,-0.11537037037037039],[0.19083333333333338,-0.11537037037037039],[0.19020833333333323,-0.1270370370370371],[0.19020833333333323,-0.1270370370370371],[0.18854166666666666,-0.14888888888888885],[0.18854166666666666,-0.14888888888888885],[0.19052083333333342,-0.13092592592592592],[0.19052083333333342,-0.13092592592592592],[0.17604166666666668,-0.018518518518518517],[0.17604166666666668,-0.018518518518518517],[0.16958333333333328,-0.022222222222222223],[0.16958333333333328,-0.022222222222222223],[0.1716666666666666,0.020185185185185143],[0.1560416666666666,0.008703703703703788],[0.1560416666666666,0.008703703703703788],[0.13854166666666667,-0.002777777777777778],[0.12572916666666673,-0.014814814814814815],[0.11281249999999995,-0.04407407407407399],[0.11489583333333328,-0.025370370370370456],[0.11500000000000009,0.021296296296296296],[0.11281249999999995,0.046481481481481526],[0.11281249999999995,0.046481481481481526],[0.11135416666666677,0.075],[0.11020833333333328,0.11833333333333329],[0.10187499999999995,0.11333333333333341],[0.12541666666666676,0.12018518518518514],[0.14895833333333333,0.1270370370370371],[0.10947916666666657,0.07462962962962955],[0.06625000000000002,0.043703703703703745],[0.06625000000000002,0.043703703703703745],[0.07489583333333343,0.009444444444444486],[0.0515625,-0.08314814814814811],[0.050416666666666644,-0.14388888888888887],[0.04510416666666662,-0.20277777777777778],[0.02958333333333331,-0.23796296296296296],[-0.001145833333333357,-0.2948148148148148],[-0.001145833333333357,-0.2948148148148148],[-0.010104166666666714,-0.3224074074074075],[-0.022604166666666713,-0.3403703703703704],[0.013437499999999976,-0.2959259259259259],[0.04906250000000002,-0.27259259259259255],[0.01739583333333338,-0.2668518518518519],[0.03833333333333329,-0.21777777777777782],[-0.001145833333333357,-0.22018518518518515],[-0.025625000000000023,-0.2175925925925926],[-0.011979166666666667,-0.2581481481481481],[0.012395833333333309,-0.2640740740740741],[0.01572916666666669,-0.2933333333333333],[-0.0017708333333333807,-0.3403703703703704],[-0.006458333333333381,-0.38870370370370366],[-0.026979166666666644,-0.4507407407407407],[-0.026979166666666644,-0.4507407407407407],[0.014999999999999977,-0.508888888888889],[0.014999999999999977,-0.508888888888889],[0.029895833333333382,-0.5609259259259259],[0.10104166666666667,-0.6037037037037037],[0.10104166666666667,-0.6037037037037037],[0.1716666666666666,-0.6507407407407407],[0.21385416666666662,-0.6520370370370371],[0.2068749999999999,-0.6812962962962963],[0.19989583333333344,-0.7105555555555555],[0.22864583333333333,-0.6890740740740741],[0.24718749999999995,-0.6775925925925925],[0.24718749999999995,-0.6775925925925925],[0.27291666666666664,-0.6746296296296297],[0.2538541666666667,-0.662962962962963],[0.24708333333333338,-0.649074074074074],[0.23302083333333337,-0.6462962962962963],[0.2029166666666666,-0.6342592592592593],[0.17062499999999994,-0.6327777777777778],[0.17062499999999994,-0.6327777777777778],[0.1875,-0.6033333333333334],[0.2131249999999999,-0.5775925925925925],[0.2196875000000001,-0.5901851851851851],[0.22510416666666658,-0.6192592592592592],[0.24427083333333333,-0.6424074074074073],[0.24427083333333333,-0.6424074074074073],[0.26447916666666677,-0.6568518518518518],[0.2938541666666666,-0.647962962962963],[0.2938541666666666,-0.647962962962963],[0.30802083333333335,-0.6370370370370371],[0.30802083333333335,-0.6370370370370371]]","[[0.12822916666666656,-0.04388888888888897,0.00020000028609956644],[0.12531249999999997,-0.06666666666666667,0.05130000019072867],[0.12531249999999997,-0.06666666666666667,0.059200000286097065],[0.12999999999999995,-0.09685185185185187,0.06780000019072929],[0.12260416666666671,-0.12037037037037036,0.08449999999999847],[0.13583333333333342,-0.12962962962962962,0.10360000038146921],[0.14427083333333332,-0.13925925925925925,0.12199999999999989],[0.13354166666666673,-0.18611111111111112,0.13720000028610002],[0.1306250000000001,-0.22999999999999998,0.15349999999999397],[0.12822916666666656,-0.26851851851851855,0.1678000001907307],[0.12697916666666675,-0.2948148148148148,0.18910000038146535],[0.1134375000000001,-0.3448148148148148,0.20530000019073213],[0.0896874999999999,-0.3824074074074074,0.2219999999999942],[0.0896874999999999,-0.3824074074074074,0.23449999999999704],[0.07791666666666662,-0.4088888888888889,0.25120000028609724],[0.046875,-0.44611111111111107,0.2688000001907298],[0.008020833333333382,-0.4903703703703704,0.29480000019073316],[0.008020833333333382,-0.4903703703703704,0.3024000000953606],[-0.013541666666666667,-0.5218518518518519,0.3178000001907293],[-0.013541666666666667,-0.5218518518518519,0.3343000001907299],[-0.005937500000000048,-0.5053703703703704,0.3511000003814644],[-0.00458333333333331,-0.4885185185185185,0.3677000002860993],[-0.00010416666666669035,-0.4781481481481481,0.3847000002861023],[-0.002708333333333357,-0.4751851851851852,0.40280000019073015],[-0.01229166666666662,-0.4675925925925926,0.4206000003814694],[-0.011666666666666714,-0.4596296296296296,0.43860000038146296],[-0.011666666666666714,-0.4596296296296296,0.45299999999999585],[-0.00614583333333331,-0.4581481481481481,0.46780000019072787],[-0.00614583333333331,-0.4581481481481481,0.48440000009536277],[0.017083333333333308,-0.42296296296296293,0.504800000190734],[0.034895833333333334,-0.33425925925925926,0.5209999999999937],[0.04083333333333338,-0.2524074074074074,0.540300000190733],[0.04083333333333338,-0.2524074074074074,0.5512000002861015],[0.04708333333333338,-0.17851851851851847,0.5726000003814633],[0.04708333333333338,-0.17851851851851847,0.5844999999999985],[0.0453125,-0.09592592592592594,0.6012000002860987],[0.0453125,-0.09592592592592594,0.6229000000953633],[0.03916666666666669,-0.049074074074074076,0.634600000381468],[0.03854166666666667,0.004444444444444402,0.6519000000953667],[0.04624999999999998,0.051666666666666625,0.6722000002860966],[0.04624999999999998,0.051666666666666625,0.6849999999999952],[0.04552083333333338,0.10666666666666672,0.7013000001907344],[0.058854166666666666,0.17925925925925917,0.7312000002861012],[0.058854166666666666,0.17925925925925917,0.7384000000953606],[0.06177083333333329,0.25833333333333336,0.7513000001907315],[0.06906249999999996,0.2624074074074075,0.7679000000953664],[0.0953125,0.25851851851851854,0.787700000286101],[0.11437499999999995,0.2524074074074073,0.8039999999999949],[0.11437499999999995,0.2524074074074073,0.8181000003814631],[0.13729166666666662,0.24944444444444452,0.8374999999999986],[0.14708333333333337,0.22018518518518515,0.8542000002860988],[0.17083333333333334,0.2192592592592592,0.8701000003814627],[0.18333333333333332,0.22685185185185186,0.893100000381466],[0.18333333333333332,0.22685185185185186,0.9009999999999962],[0.19052083333333342,0.21203703703703702,0.9178000001907307],[0.1943749999999999,0.2035185185185185,0.9343000001907313],[0.21020833333333327,0.1655555555555555,0.9533000001907297],[0.21020833333333327,0.1655555555555555,0.9702000002860984],[0.21427083333333338,0.13962962962962958,0.9844000000953628],[0.16666666666666666,0.06425925925925935,1.0009999999999977],[0.13166666666666677,0.005000000000000084,1.0177000002860979],[0.1118750000000001,-0.027407407407407325,1.0343000001907328],[0.08791666666666677,-0.014259259259259343,1.0509999999999948],[0.08375000000000009,0.01592592592592597,1.0677000002861021],[0.07958333333333342,0.04611111111111107,1.0844000000953642],[0.06041666666666667,0.03944444444444436,1.100999999999999],[0.036562500000000026,0.037037037037037035,1.1183000001907288],[0.01270833333333338,0.03462962962962971,1.1344000000953613],[0.01270833333333338,0.03462962962962971,1.1511000003814686],[-0.01072916666666662,0.023148148148148147,1.1678000001907307],[0.016458333333333287,0.0794444444444444,1.1844000000953656],[0.029895833333333382,0.15166666666666662,1.2009999999999934],[0.029895833333333382,0.1492592592592593,1.2177000002861007],[0.06208333333333336,0.16777777777777783,1.2344000000953628],[0.06208333333333336,0.16777777777777783,1.2509999999999977],[0.04770833333333328,0.19499999999999992,1.2678000001907321],[0.04770833333333328,0.19499999999999992,1.284400000095367],[0.03781249999999995,0.1735185185185186,1.3009999999999948],[0.03781249999999995,0.1735185185185186,1.3178000001907293],[0.050729166666666714,0.24444444444444444,1.3344000000953642],[0.050729166666666714,0.24444444444444444,1.3511000003814644],[0.04697916666666669,0.2918518518518519,1.3677000002860993],[0.04697916666666669,0.2918518518518519,1.3878000001907296],[0.07458333333333324,0.28851851851851845,1.40130000019073],[0.07458333333333324,0.28851851851851845,1.4181000003814646],[0.0821875000000001,0.3175925925925926,1.440499999999993],[0.0821875000000001,0.3175925925925926,1.4531000003814682],[0.0626041666666667,0.26851851851851855,1.468200000286096],[0.0626041666666667,0.26851851851851855,1.4848000001907309],[0.07989583333333337,0.2162962962962962,1.504100000381463],[0.09947916666666666,0.1646296296296296,1.5213000001907346],[0.1109375,0.14907407407407408,1.5372000002860986],[0.13572916666666662,0.07759259259259255,1.5554000000953607],[0.13229166666666667,0,1.572100000381468],[0.12531249999999997,-0.11629629629629631,1.58880000019073],[0.1296875,-0.22240740740740744,1.6256000003814677],[0.1296875,-0.22240740740740744,1.6329999999999956],[0.12687499999999996,-0.23592592592592587,1.6541000003814688],[0.12687499999999996,-0.23592592592592587,1.6614000000953624],[0.13645833333333332,-0.26129629629629636,1.687100000381463],[0.13645833333333332,-0.26129629629629636,1.6951000003814656],[0.1493750000000001,-0.23796296296296296,1.7204999999999941],[0.1493750000000001,-0.23796296296296296,1.7274999999999991],[0.13583333333333342,-0.2511111111111112,1.753700000286102],[0.13583333333333342,-0.2511111111111112,1.7607000002861],[0.14447916666666671,-0.32833333333333337,1.7871000003814643],[0.14447916666666671,-0.32833333333333337,1.803999999999995],[0.14322916666666666,-0.3388888888888889,1.820600000381468],[0.14322916666666666,-0.3388888888888889,1.8272000002860977],[0.14510416666666662,-0.36018518518518516,1.8567000002860965],[0.14510416666666662,-0.36018518518518516,1.8639999999999972],[0.15583333333333324,-0.2905555555555555,1.8872000002861],[0.15583333333333324,-0.2905555555555555,1.893900000095364],[0.16843750000000005,-0.22092592592592594,1.9207000002860966],[0.16843750000000005,-0.22092592592592594,1.9279999999999973],[0.18916666666666657,-0.15796296296296297,1.9537000002860978],[0.18916666666666657,-0.15796296296296297,1.9611000003814638],[0.19083333333333338,-0.11537037037037039,1.9871000003814672],[0.19083333333333338,-0.11537037037037039,1.994800000190729],[0.19020833333333323,-0.1270370370370371,2.0187000002860955],[0.19020833333333323,-0.1270370370370371,2.0274999999999963],[0.18854166666666666,-0.14888888888888885,2.0544999999999973],[0.18854166666666666,-0.14888888888888885,2.0616000003814676],[0.19052083333333342,-0.13092592592592592,2.0871000003814686],[0.19052083333333342,-0.13092592592592592,2.0942000002861008],[0.17604166666666668,-0.018518518518518517,2.1199999999999974],[0.17604166666666668,-0.018518518518518517,2.1274000000953635],[0.16958333333333328,-0.022222222222222223,2.1539999999999964],[0.16958333333333328,-0.022222222222222223,2.1688000001907284],[0.1716666666666666,0.020185185185185143,2.1844000000953656],[0.1560416666666666,0.008703703703703788,2.201900000095364],[0.1560416666666666,0.008703703703703788,2.2177000002861007],[0.13854166666666667,-0.002777777777777778,2.2344000000953628],[0.12572916666666673,-0.014814814814814815,2.253999999999998],[0.11281249999999995,-0.04407407407407399,2.271100000381466],[0.11489583333333328,-0.025370370370370456,2.287300000190733],[0.11500000000000009,0.021296296296296296,2.3038000001907335],[0.11281249999999995,0.046481481481481526,2.3237000002860952],[0.11281249999999995,0.046481481481481526,2.334400000095364],[0.11135416666666677,0.075,2.3512000002860987],[0.11020833333333328,0.11833333333333329,2.367600000381465],[0.10187499999999995,0.11333333333333341,2.384300000190734],[0.12541666666666676,0.12018518518518514,2.404600000381464],[0.14895833333333333,0.1270370370370371,2.421300000190733],[0.10947916666666657,0.07462962962962955,2.4375],[0.06625000000000002,0.043703703703703745,2.4559000000953617],[0.06625000000000002,0.043703703703703745,2.467800000190728],[0.07489583333333343,0.009444444444444486,2.484800000190731],[0.0515625,-0.08314814814814811,2.5057000002860974],[0.050416666666666644,-0.14388888888888887,2.5219999999999985],[0.04510416666666662,-0.20277777777777778,2.5391000003814668],[0.02958333333333331,-0.23796296296296296,2.5556000003814674],[-0.001145833333333357,-0.2948148148148148,2.571800000190734],[-0.001145833333333357,-0.2948148148148148,2.59030000019073],[-0.010104166666666714,-0.3224074074074075,2.600999999999999],[-0.022604166666666713,-0.3403703703703704,2.6196000003814675],[0.013437499999999976,-0.2959259259259259,2.6344000000953613],[0.04906250000000002,-0.27259259259259255,2.653400000095367],[0.01739583333333338,-0.2668518518518519,2.6679999999999993],[0.03833333333333329,-0.21777777777777782,2.686300000190734],[-0.001145833333333357,-0.22018518518518515,2.7036000003814635],[-0.025625000000000023,-0.2175925925925926,2.7209999999999965],[-0.011979166666666667,-0.2581481481481481,2.7357000002861014],[0.012395833333333309,-0.2640740740740741,2.7509999999999977],[0.01572916666666669,-0.2933333333333333,2.7676000003814636],[-0.0017708333333333807,-0.3403703703703704,2.7849000000953623],[-0.006458333333333381,-0.38870370370370366,2.800999999999995],[-0.026979166666666644,-0.4507407407407407,2.826100000381466],[-0.026979166666666644,-0.4507407407407407,2.834400000095364],[0.014999999999999977,-0.508888888888889,2.8511000003814644],[0.014999999999999977,-0.508888888888889,2.8677000002860993],[0.029895833333333382,-0.5609259259259259,2.8844000000953613],[0.10104166666666667,-0.6037037037037037,2.9009999999999962],[0.10104166666666667,-0.6037037037037037,2.918200000286099],[0.1716666666666666,-0.6507407407407407,2.9343000001907313],[0.21385416666666662,-0.6520370370370371,2.952999999999996],[0.2068749999999999,-0.6812962962962963,2.9677000002861007],[0.19989583333333344,-0.7105555555555555,2.984499999999997],[0.22864583333333333,-0.6890740740740741,3.0009999999999977],[0.24718749999999995,-0.6775925925925925,3.023999999999994],[0.24718749999999995,-0.6775925925925925,3.034400000095367],[0.27291666666666664,-0.6746296296296297,3.0512000002861015],[0.2538541666666667,-0.662962962962963,3.067700000286102],[0.24708333333333338,-0.649074074074074,3.08430000019073],[0.23302083333333337,-0.6462962962962963,3.100999999999999],[0.2029166666666666,-0.6342592592592593,3.1204000000953656],[0.17062499999999994,-0.6327777777777778,3.1417000002861],[0.17062499999999994,-0.6327777777777778,3.1559000000953645],[0.1875,-0.6033333333333334,3.1677000002860964],[0.2131249999999999,-0.5775925925925925,3.1843000001907313],[0.2196875000000001,-0.5901851851851851,3.2009999999999934],[0.22510416666666658,-0.6192592592592592,3.217900000095362],[0.24427083333333333,-0.6424074074074073,3.2343000001907285],[0.24427083333333333,-0.6424074074074073,3.251100000381463],[0.26447916666666677,-0.6568518518518518,3.267700000286098],[0.2938541666666666,-0.647962962962963,3.288100000381469],[0.2938541666666666,-0.647962962962963,3.300999999999995],[0.30802083333333335,-0.6370370370370371,3.317700000286102],[0.30802083333333335,-0.6370370370370371,3.33430000019073]]","[0.00020000028609956644,0.05130000019072867,0.059200000286097065,0.06780000019072929,0.08449999999999847,0.10360000038146921,0.12199999999999989,0.13720000028610002,0.15349999999999397,0.1678000001907307,0.18910000038146535,0.20530000019073213,0.2219999999999942,0.23449999999999704,0.25120000028609724,0.2688000001907298,0.29480000019073316,0.3024000000953606,0.3178000001907293,0.3343000001907299,0.3511000003814644,0.3677000002860993,0.3847000002861023,0.40280000019073015,0.4206000003814694,0.43860000038146296,0.45299999999999585,0.46780000019072787,0.48440000009536277,0.504800000190734,0.5209999999999937,0.540300000190733,0.5512000002861015,0.5726000003814633,0.5844999999999985,0.6012000002860987,0.6229000000953633,0.634600000381468,0.6519000000953667,0.6722000002860966,0.6849999999999952,0.7013000001907344,0.7312000002861012,0.7384000000953606,0.7513000001907315,0.7679000000953664,0.787700000286101,0.8039999999999949,0.8181000003814631,0.8374999999999986,0.8542000002860988,0.8701000003814627,0.893100000381466,0.9009999999999962,0.9178000001907307,0.9343000001907313,0.9533000001907297,0.9702000002860984,0.9844000000953628,1.0009999999999977,1.0177000002860979,1.0343000001907328,1.0509999999999948,1.0677000002861021,1.0844000000953642,1.100999999999999,1.1183000001907288,1.1344000000953613,1.1511000003814686,1.1678000001907307,1.1844000000953656,1.2009999999999934,1.2177000002861007,1.2344000000953628,1.2509999999999977,1.2678000001907321,1.284400000095367,1.3009999999999948,1.3178000001907293,1.3344000000953642,1.3511000003814644,1.3677000002860993,1.3878000001907296,1.40130000019073,1.4181000003814646,1.440499999999993,1.4531000003814682,1.468200000286096,1.4848000001907309,1.504100000381463,1.5213000001907346,1.5372000002860986,1.5554000000953607,1.572100000381468,1.58880000019073,1.6256000003814677,1.6329999999999956,1.6541000003814688,1.6614000000953624,1.687100000381463,1.6951000003814656,1.7204999999999941,1.7274999999999991,1.753700000286102,1.7607000002861,1.7871000003814643,1.803999999999995,1.820600000381468,1.8272000002860977,1.8567000002860965,1.8639999999999972,1.8872000002861,1.893900000095364,1.9207000002860966,1.9279999999999973,1.9537000002860978,1.9611000003814638,1.9871000003814672,1.994800000190729,2.0187000002860955,2.0274999999999963,2.0544999999999973,2.0616000003814676,2.0871000003814686,2.0942000002861008,2.1199999999999974,2.1274000000953635,2.1539999999999964,2.1688000001907284,2.1844000000953656,2.201900000095364,2.2177000002861007,2.2344000000953628,2.253999999999998,2.271100000381466,2.287300000190733,2.3038000001907335,2.3237000002860952,2.334400000095364,2.3512000002860987,2.367600000381465,2.384300000190734,2.404600000381464,2.421300000190733,2.4375,2.4559000000953617,2.467800000190728,2.484800000190731,2.5057000002860974,2.5219999999999985,2.5391000003814668,2.5556000003814674,2.571800000190734,2.59030000019073,2.600999999999999,2.6196000003814675,2.6344000000953613,2.653400000095367,2.6679999999999993,2.686300000190734,2.7036000003814635,2.7209999999999965,2.7357000002861014,2.7509999999999977,2.7676000003814636,2.7849000000953623,2.800999999999995,2.826100000381466,2.834400000095364,2.8511000003814644,2.8677000002860993,2.8844000000953613,2.9009999999999962,2.918200000286099,2.9343000001907313,2.952999999999996,2.9677000002861007,2.984499999999997,3.0009999999999977,3.023999999999994,3.034400000095367,3.0512000002861015,3.067700000286102,3.08430000019073,3.100999999999999,3.1204000000953656,3.1417000002861,3.1559000000953645,3.1677000002860964,3.1843000001907313,3.2009999999999934,3.217900000095362,3.2343000001907285,3.251100000381463,3.267700000286098,3.288100000381469,3.300999999999995,3.317700000286102,3.33430000019073]","[1732157268522,1732157268563,1732157268571,1732157268580,1732157268596,1732157268615,1732157268634,1732157268649,1732157268665,1732157268679,1732157268701,1732157268717,1732157268734,1732157268746,1732157268763,1732157268780,1732157268807,1732157268814,1732157268830,1732157268846,1732157268863,1732157268879,1732157268896,1732157268915,1732157268932,1732157268950,1732157268965,1732157268980,1732157268996,1732157269016,1732157269033,1732157269052,1732157269063,1732157269084,1732157269096,1732157269113,1732157269135,1732157269146,1732157269164,1732157269184,1732157269197,1732157269213,1732157269243,1732157269250,1732157269263,1732157269280,1732157269299,1732157269316,1732157269330,1732157269349,1732157269366,1732157269382,1732157269405,1732157269413,1732157269430,1732157269446,1732157269465,1732157269482,1732157269496,1732157269513,1732157269529,1732157269546,1732157269563,1732157269579,1732157269596,1732157269613,1732157269630,1732157269646,1732157269663,1732157269679,1732157269696,1732157269713,1732157269729,1732157269746,1732157269763,1732157269780,1732157269796,1732157269813,1732157269830,1732157269846,1732157269863,1732157269879,1732157269900,1732157269913,1732157269930,1732157269952,1732157269965,1732157269980,1732157269996,1732157270016,1732157270033,1732157270049,1732157270067,1732157270084,1732157270101,1732157270137,1732157270145,1732157270166,1732157270173,1732157270199,1732157270207,1732157270232,1732157270239,1732157270265,1732157270272,1732157270299,1732157270316,1732157270332,1732157270339,1732157270368,1732157270376,1732157270399,1732157270406,1732157270432,1732157270440,1732157270465,1732157270473,1732157270499,1732157270507,1732157270530,1732157270539,1732157270569,1732157270576,1732157270602,1732157270609,1732157270634,1732157270642,1732157270668,1732157270683,1732157270699,1732157270716,1732157270732,1732157270749,1732157270769,1732157270786,1732157270802,1732157270818,1732157270838,1732157270849,1732157270866,1732157270882,1732157270899,1732157270919,1732157270936,1732157270952,1732157270970,1732157270982,1732157270999,1732157271020,1732157271036,1732157271054,1732157271070,1732157271086,1732157271105,1732157271116,1732157271134,1732157271149,1732157271168,1732157271183,1732157271201,1732157271218,1732157271236,1732157271250,1732157271266,1732157271282,1732157271299,1732157271316,1732157271341,1732157271349,1732157271366,1732157271382,1732157271399,1732157271416,1732157271433,1732157271449,1732157271467,1732157271482,1732157271499,1732157271516,1732157271538,1732157271549,1732157271566,1732157271582,1732157271599,1732157271616,1732157271635,1732157271656,1732157271670,1732157271682,1732157271699,1732157271715,1732157271732,1732157271749,1732157271766,1732157271782,1732157271803,1732157271815,1732157271832,1732157271849]","[[1083.1,516.3],[1080.3,504],[1080.3,504],[1084.8,487.7],[1077.7,475],[1090.4,470],[1098.5,464.8],[1088.2,439.5],[1085.4,415.8],[1083.1,395],[1081.9,380.8],[1068.9,353.8],[1046.1,333.5],[1046.1,333.5],[1034.8,319.2],[1005,299.1],[967.7,275.2],[967.7,275.2],[947,258.2],[947,258.2],[954.3,267.1],[955.6,276.2],[959.9,281.8],[957.4,283.4],[948.2,287.5],[948.8,291.8],[948.8,291.8],[954.1,292.6],[954.1,292.6],[976.4,311.6],[993.5,359.5],[999.2,403.7],[999.2,403.7],[1005.2,443.6],[1005.2,443.6],[1003.5,488.2],[1003.5,488.2],[997.6,513.5],[997,542.4],[1004.4,567.9],[1004.4,567.9],[1003.7,597.6],[1016.5,636.8],[1016.5,636.8],[1019.3,679.5],[1026.3,681.7],[1051.5,679.6],[1069.8,676.3],[1069.8,676.3],[1091.8,674.7],[1101.2,658.9],[1124,658.4],[1136,662.5],[1136,662.5],[1142.9,654.5],[1146.6,649.9],[1161.8,629.4],[1161.8,629.4],[1165.7,615.4],[1120,574.7],[1086.4,542.7],[1067.4,525.2],[1044.4,532.3],[1040.4,548.6],[1036.4,564.9],[1018,561.3],[995.1,560],[972.2,558.7],[972.2,558.7],[949.7,552.5],[975.8,582.9],[988.7,621.9],[988.7,620.6],[1019.6,630.6],[1019.6,630.6],[1005.8,645.3],[1005.8,645.3],[996.3,633.7],[996.3,633.7],[1008.7,672],[1008.7,672],[1005.1,697.6],[1005.1,697.6],[1031.6,695.8],[1031.6,695.8],[1038.9,711.5],[1038.9,711.5],[1020.1,685],[1020.1,685],[1036.7,656.8],[1055.5,628.9],[1066.5,620.5],[1090.3,581.9],[1087,540],[1080.3,477.2],[1084.5,419.9],[1084.5,419.9],[1081.8,412.6],[1081.8,412.6],[1091,398.9],[1091,398.9],[1103.4,411.5],[1103.4,411.5],[1090.4,404.4],[1090.4,404.4],[1098.7,362.7],[1098.7,362.7],[1097.5,357],[1097.5,357],[1099.3,345.5],[1099.3,345.5],[1109.6,383.1],[1109.6,383.1],[1121.7,420.7],[1121.7,420.7],[1141.6,454.7],[1141.6,454.7],[1143.2,477.7],[1143.2,477.7],[1142.6,471.4],[1142.6,471.4],[1141,459.6],[1141,459.6],[1142.9,469.3],[1142.9,469.3],[1129,530],[1129,530],[1122.8,528],[1122.8,528],[1124.8,550.9],[1109.8,544.7],[1109.8,544.7],[1093,538.5],[1080.7,532],[1068.3,516.2],[1070.3,526.3],[1070.4,551.5],[1068.3,565.1],[1068.3,565.1],[1066.9,580.5],[1065.8,603.9],[1057.8,601.2],[1080.4,604.9],[1103,608.6],[1065.1,580.3],[1023.6,563.6],[1023.6,563.6],[1031.9,545.1],[1009.5,495.1],[1008.4,462.3],[1003.3,430.5],[988.4,411.5],[958.9,380.8],[958.9,380.8],[950.3,365.9],[938.3,356.2],[972.9,380.2],[1007.1,392.8],[976.7,395.9],[996.8,422.4],[958.9,421.1],[935.4,422.5],[948.5,400.6],[971.9,397.4],[975.1,381.6],[958.3,356.2],[953.8,330.1],[934.1,296.6],[934.1,296.6],[974.4,265.2],[974.4,265.2],[988.7,237.1],[1057,214],[1057,214],[1124.8,188.6],[1165.3,187.9],[1158.6,172.1],[1151.9,156.3],[1179.5,167.9],[1197.3,174.1],[1197.3,174.1],[1222,175.7],[1203.7,182],[1197.2,189.5],[1183.7,191],[1154.8,197.5],[1123.8,198.3],[1123.8,198.3],[1140,214.2],[1164.6,228.1],[1170.9,221.3],[1176.1,205.6],[1194.5,193.1],[1194.5,193.1],[1213.9,185.3],[1242.1,190.1],[1242.1,190.1],[1255.7,196],[1255.7,196]]","[-0.142,0.42599999999999993]","[0.142,0.42599999999999993]","[0.42599999999999993,0.42599999999999993]","[-0.42599999999999993,-0.142]","[-0.42599999999999993,0.142]","[-0.42599999999999993,-0.42599999999999993]","[-0.142,-0.142]","[0.142,-0.142]","[0.42599999999999993,-0.142]","[-0.142,0.142]","[0.142,0.142]","[0.42599999999999993,0.142]","[-0.142,-0.42599999999999993]","[0.142,-0.42599999999999993]","[0.42599999999999993,-0.42599999999999993]",0,0,0,0,1,1,Laptop,20,20,7,2,70,4,2,70,4
,,,,,,,,,,,,,,,,,,,,26,001,2024-11-21_10h47.08.097,Attention_exp_legacy,2023.1.0,Win32,59.88023952,,,,,,,,,,[0.13854166666666667],[0.39444444444444443],[1],[0],[0],[2.261099999904637],"[""Metro_label""]",Metro_label,2,3.2828,"[[0.13854166666666667,0.39444444444444443],[0.13854166666666667,0.39444444444444443],[0.13854166666666667,0.39444444444444443],[0.13854166666666667,0.39444444444444443],[0.13854166666666667,0.39444444444444443],[0.13854166666666667,0.39444444444444443],[0.13854166666666667,0.39444444444444443],[0.13854166666666667,0.39444444444444443],[0.13854166666666667,0.39444444444444443],[0.13854166666666667,0.39444444444444443],[0.13854166666666667,0.39444444444444443],[0.13854166666666667,0.39444444444444443],[0.13854166666666667,0.39444444444444443],[0.13854166666666667,0.39444444444444443],[0.13854166666666667,0.39444444444444443],[0.13854166666666667,0.39444444444444443],[0.13854166666666667,0.39444444444444443],[0.13854166666666667,0.39444444444444443],[0.13854166666666667,0.39444444444444443],[0.13854166666666667,0.39444444444444443],[0.13854166666666667,0.39444444444444443],[0.13854166666666667,0.39444444444444443],[0.13854166666666667,0.39444444444444443],[0.13854166666666667,0.39444444444444443],[0.13854166666666667,0.39444444444444443],[0.13854166666666667,0.39444444444444443],[0.13854166666666667,0.39444444444444443],[0.13854166666666667,0.39444444444444443],[0.13854166666666667,0.39444444444444443],[0.13854166666666667,0.39444444444444443],[0.13854166666666667,0.39444444444444443],[0.13854166666666667,0.39444444444444443],[0.13854166666666667,0.39444444444444443],[0.13854166666666667,0.39444444444444443],[0.13854166666666667,0.39444444444444443],[0.13854166666666667,0.39444444444444443],[0.13854166666666667,0.39444444444444443],[0.13854166666666667,0.39444444444444443],[0.13854166666666667,0.39444444444444443],[0.13854166666666667,0.39444444444444443],[0.13854166666666667,0.39444444444444443],[0.13854166666666667,0.39444444444444443],[0.13854166666666667,0.39444444444444443],[0.13854166666666667,0.39444444444444443],[0.13854166666666667,0.39444444444444443],[0.13854166666666667,0.39444444444444443],[0.13854166666666667,0.39444444444444443],[0.13854166666666667,0.39444444444444443],[0.13854166666666667,0.39444444444444443],[0.13854166666666667,0.39444444444444443],[0.13854166666666667,0.39444444444444443],[0.13854166666666667,0.39444444444444443],[0.13854166666666667,0.39444444444444443],[0.13854166666666667,0.39444444444444443],[0.13854166666666667,0.39444444444444443],[0.13854166666666667,0.39444444444444443],[0.13854166666666667,0.39444444444444443],[0.13854166666666667,0.39444444444444443],[0.13854166666666667,0.39444444444444443],[0.13854166666666667,0.39444444444444443],[0.13854166666666667,0.39444444444444443],[0.13854166666666667,0.39444444444444443],[0.13854166666666667,0.39444444444444443],[0.13854166666666667,0.39444444444444443],[0.13854166666666667,0.39444444444444443],[0.13854166666666667,0.39444444444444443],[0.13854166666666667,0.39444444444444443],[0.13854166666666667,0.39444444444444443],[0.13854166666666667,0.39444444444444443],[0.13854166666666667,0.39444444444444443],[0.13854166666666667,0.39444444444444443],[0.13854166666666667,0.39444444444444443],[0.13854166666666667,0.39444444444444443],[0.13854166666666667,0.39444444444444443],[0.13854166666666667,0.39444444444444443],[0.13854166666666667,0.39444444444444443],[0.13854166666666667,0.39444444444444443],[0.13854166666666667,0.39444444444444443],[0.13854166666666667,0.39444444444444443],[0.13854166666666667,0.39444444444444443],[0.13854166666666667,0.39444444444444443],[0.13854166666666667,0.39444444444444443],[0.13854166666666667,0.39444444444444443],[0.13854166666666667,0.39444444444444443],[0.13854166666666667,0.39444444444444443],[0.13854166666666667,0.39444444444444443],[0.13854166666666667,0.39444444444444443],[0.13854166666666667,0.39444444444444443],[0.13854166666666667,0.39444444444444443],[0.13854166666666667,0.39444444444444443],[0.13854166666666667,0.39444444444444443],[0.13854166666666667,0.39444444444444443],[0.13854166666666667,0.39444444444444443],[0.13854166666666667,0.39444444444444443],[0.13854166666666667,0.39444444444444443],[0.13854166666666667,0.39444444444444443],[0.13854166666666667,0.39444444444444443],[0.13854166666666667,0.39444444444444443],[0.13854166666666667,0.39444444444444443],[0.13854166666666667,0.39444444444444443],[0.13854166666666667,0.39444444444444443],[0.13854166666666667,0.39444444444444443],[0.13854166666666667,0.39444444444444443],[0.13854166666666667,0.39444444444444443],[0.13854166666666667,0.39444444444444443],[0.13854166666666667,0.39444444444444443],[0.13854166666666667,0.39444444444444443],[0.13854166666666667,0.39444444444444443],[0.13854166666666667,0.39444444444444443],[0.13854166666666667,0.39444444444444443],[0.13854166666666667,0.39444444444444443],[0.13854166666666667,0.39444444444444443],[0.13854166666666667,0.39444444444444443],[0.13854166666666667,0.39444444444444443],[0.13854166666666667,0.39444444444444443],[0.13854166666666667,0.39444444444444443],[0.13854166666666667,0.39444444444444443],[0.13854166666666667,0.39444444444444443],[0.13854166666666667,0.39444444444444443],[0.13854166666666667,0.39444444444444443],[0.13854166666666667,0.39444444444444443],[0.13854166666666667,0.39444444444444443],[0.13854166666666667,0.39444444444444443],[0.13854166666666667,0.39444444444444443],[0.13854166666666667,0.39444444444444443],[0.13854166666666667,0.39444444444444443],[0.13854166666666667,0.39444444444444443],[0.13854166666666667,0.39444444444444443],[0.13854166666666667,0.39444444444444443],[0.13854166666666667,0.39444444444444443],[0.13854166666666667,0.39444444444444443],[0.13854166666666667,0.39444444444444443],[0.13854166666666667,0.39444444444444443],[0.13854166666666667,0.39444444444444443],[0.13854166666666667,0.39444444444444443],[0.13854166666666667,0.39444444444444443],[0.13854166666666667,0.39444444444444443],[0.13854166666666667,0.39444444444444443],[0.13854166666666667,0.39444444444444443],[0.13854166666666667,0.39444444444444443],[0.13854166666666667,0.39444444444444443],[0.13854166666666667,0.39444444444444443],[0.13854166666666667,0.39444444444444443],[0.13854166666666667,0.39444444444444443],[0.13854166666666667,0.39444444444444443],[0.13854166666666667,0.39444444444444443],[0.13854166666666667,0.39444444444444443],[0.13854166666666667,0.39444444444444443],[0.13854166666666667,0.39444444444444443],[0.13854166666666667,0.39444444444444443],[0.13854166666666667,0.39444444444444443],[0.13854166666666667,0.39444444444444443],[0.13854166666666667,0.39444444444444443],[0.13854166666666667,0.39444444444444443],[0.13854166666666667,0.39444444444444443],[0.13854166666666667,0.39444444444444443],[0.13854166666666667,0.39444444444444443],[0.13854166666666667,0.39444444444444443],[0.13854166666666667,0.39444444444444443],[0.13854166666666667,0.39444444444444443],[0.13854166666666667,0.39444444444444443],[0.13854166666666667,0.39444444444444443],[0.13854166666666667,0.39444444444444443],[0.13854166666666667,0.39444444444444443],[0.13854166666666667,0.39444444444444443],[0.13854166666666667,0.39444444444444443],[0.13854166666666667,0.39444444444444443],[0.13854166666666667,0.39444444444444443],[0.13854166666666667,0.39444444444444443],[0.13854166666666667,0.39444444444444443],[0.13854166666666667,0.39444444444444443],[0.13854166666666667,0.39444444444444443],[0.13854166666666667,0.39444444444444443],[0.13854166666666667,0.39444444444444443],[0.13854166666666667,0.39444444444444443],[0.13854166666666667,0.39444444444444443],[0.13854166666666667,0.39444444444444443],[0.13854166666666667,0.39444444444444443],[0.13854166666666667,0.39444444444444443],[0.13854166666666667,0.39444444444444443],[0.13854166666666667,0.39444444444444443],[0.13854166666666667,0.39444444444444443],[0.13854166666666667,0.39444444444444443],[0.13854166666666667,0.39444444444444443],[0.13854166666666667,0.39444444444444443],[0.13854166666666667,0.39444444444444443],[0.13854166666666667,0.39444444444444443],[0.13854166666666667,0.39444444444444443],[0.13854166666666667,0.39444444444444443],[0.13854166666666667,0.39444444444444443],[0.13854166666666667,0.39444444444444443],[0.13854166666666667,0.39444444444444443],[0.13854166666666667,0.39444444444444443],[0.13854166666666667,0.39444444444444443],[0.13854166666666667,0.39444444444444443],[0.13854166666666667,0.39444444444444443],[0.13854166666666667,0.39444444444444443]]","[[0.246875,-0.07574074074074069],[0.246875,-0.07574074074074069],[0.22083333333333333,-0.0668518518518519],[0.22083333333333333,-0.0668518518518519],[0.20947916666666658,-0.055740740740740785],[0.2085416666666667,-0.0514814814814814],[0.20572916666666666,-0.059814814814814835],[0.24552083333333338,-0.06666666666666667],[0.24552083333333338,-0.06666666666666667],[0.21666666666666667,-0.1259259259259259],[0.21666666666666667,-0.1259259259259259],[0.18875000000000006,-0.17629629629629628],[0.17687499999999995,-0.23537037037037042],[0.18302083333333338,-0.2785185185185185],[0.22104166666666672,-0.3333333333333333],[0.2526041666666667,-0.4035185185185185],[0.20750000000000005,-0.4964814814814815],[0.20750000000000005,-0.4964814814814815],[0.14552083333333338,-0.5657407407407408],[0.15145833333333342,-0.6266666666666666],[0.13385416666666666,-0.682962962962963],[0.15625,-0.6814814814814815],[0.17416666666666672,-0.7024074074074075],[0.17416666666666672,-0.7024074074074075],[0.21135416666666676,-0.7088888888888889],[0.22156250000000005,-0.725],[0.2078125,-0.7281481481481481],[0.19166666666666668,-0.7429629629629629],[0.20770833333333344,-0.7242592592592593],[0.2243750000000001,-0.725],[0.2243750000000001,-0.725],[0.19416666666666677,-0.7227777777777779],[0.16395833333333343,-0.7025925925925925],[0.11833333333333323,-0.6909259259259259],[0.059791666666666646,-0.687962962962963],[0.011666666666666714,-0.6848148148148149],[-0.026145833333333358,-0.6694444444444444],[-0.05260416666666667,-0.6477777777777778],[-0.04729166666666664,-0.6485185185185185],[-0.07177083333333331,-0.6346296296296297],[-0.06135416666666664,-0.6168518518518519],[-0.06135416666666664,-0.6168518518518519],[-0.07083333333333333,-0.6035185185185185],[-0.052187500000000026,-0.6266666666666666],[-0.028541666666666642,-0.6401851851851852],[0.025520833333333333,-0.6211111111111111],[0.03781249999999995,-0.6172222222222222],[0.06375000000000004,-0.6233333333333334],[0.0890625,-0.6294444444444444],[0.08499999999999991,-0.6014814814814815],[0.12604166666666666,-0.5972222222222222],[0.12666666666666657,-0.5781481481481481],[0.12666666666666657,-0.5781481481481481],[0.10864583333333329,-0.5846296296296296],[0.1146874999999999,-0.5468518518518519],[0.1146874999999999,-0.5468518518518519],[0.11572916666666658,-0.5187037037037038],[0.11572916666666658,-0.5187037037037038],[0.0896874999999999,-0.5116666666666667],[0.0896874999999999,-0.5116666666666667],[0.0796875,-0.5037037037037037],[0.0796875,-0.5037037037037037],[0.08270833333333343,-0.5120370370370371],[0.08270833333333343,-0.5120370370370371],[0.03302083333333338,-0.5196296296296297],[0.03302083333333338,-0.5196296296296297],[0.009375,-0.5181481481481481],[-0.02677083333333338,-0.522962962962963],[-0.02677083333333338,-0.522962962962963],[-0.005624999999999976,-0.5324074074074074],[-0.005624999999999976,-0.5324074074074074],[0.016979166666666618,-0.5375925925925926],[0.03708333333333336,-0.5505555555555556],[0.02385416666666664,-0.5807407407407408],[0.02385416666666664,-0.5807407407407408],[0.057083333333333285,-0.582962962962963],[0.057083333333333285,-0.582962962962963],[0.09666666666666662,-0.5562962962962963],[0.09666666666666662,-0.5562962962962963],[0.10187499999999995,-0.5238888888888888],[0.14072916666666657,-0.5181481481481481],[0.15354166666666677,-0.5214814814814815],[0.1796875,-0.5083333333333333],[0.16291666666666677,-0.5140740740740741],[0.1506249999999999,-0.48870370370370364],[0.11500000000000009,-0.4940740740740741],[0.11291666666666676,-0.4666666666666667],[0.08239583333333324,-0.4677777777777778],[0.058333333333333334,-0.45925925925925926],[0.058333333333333334,-0.45925925925925926],[0.035520833333333356,-0.45185185185185184],[0.033854166666666664,-0.43944444444444447],[0.019166666666666644,-0.41814814814814816],[0.0036458333333333334,-0.40703703703703703],[-0.00302083333333331,-0.3801851851851852],[-0.00302083333333331,-0.3801851851851852],[0.010625000000000048,-0.362962962962963],[0.010625000000000048,-0.362962962962963],[0.017083333333333308,-0.34296296296296297],[0.017083333333333308,-0.34296296296296297],[0.017083333333333308,-0.3344444444444445],[0.011458333333333333,-0.35537037037037034],[-0.000833333333333286,-0.3901851851851852],[-0.008020833333333382,-0.42185185185185187],[-0.022708333333333285,-0.42018518518518516],[-0.024374999999999977,-0.4274074074074074],[-0.016666666666666666,-0.4244444444444444],[-0.01895833333333338,-0.4235185185185185],[-0.01895833333333338,-0.4235185185185185],[-0.01895833333333338,-0.4235185185185185],[-0.0328125,-0.43],[-0.0328125,-0.43],[-0.05458333333333331,-0.43277777777777776],[-0.05458333333333331,-0.43277777777777776],[-0.07083333333333333,-0.4331481481481481],[-0.07083333333333333,-0.4331481481481481],[-0.09093749999999995,-0.39888888888888885],[-0.09093749999999995,-0.39888888888888885],[-0.09666666666666662,-0.3701851851851851],[-0.09666666666666662,-0.3701851851851851],[-0.07989583333333337,-0.35537037037037034],[-0.07989583333333337,-0.35537037037037034],[-0.06239583333333331,-0.3581481481481481],[-0.06239583333333331,-0.3581481481481481],[-0.028854166666666715,-0.34814814814814815],[-0.028854166666666715,-0.34814814814814815],[-0.007604166666666619,-0.3477777777777778],[-0.007604166666666619,-0.3477777777777778],[0.020937500000000022,-0.3435185185185185],[0.020937500000000022,-0.3435185185185185],[0.05656249999999995,-0.3509259259259259],[0.11124999999999995,-0.35759259259259263],[0.16666666666666666,-0.3707407407407407],[0.2289583333333333,-0.3785185185185185],[0.2639583333333334,-0.4155555555555555],[0.2919791666666666,-0.42407407407407405],[0.31124999999999997,-0.41222222222222227],[0.31124999999999997,-0.41222222222222227],[0.33322916666666674,-0.4359259259259259],[0.33322916666666674,-0.4359259259259259],[0.34489583333333323,-0.4631481481481482],[0.3381249999999999,-0.5025925925925926],[0.32791666666666663,-0.5344444444444445],[0.28885416666666663,-0.5488888888888889],[0.2497916666666666,-0.5633333333333334],[0.20843749999999991,-0.5770370370370371],[0.1890625,-0.5498148148148148],[0.1890625,-0.5498148148148148],[0.1872916666666666,-0.5238888888888888],[0.20385416666666673,-0.5385185185185185],[0.20166666666666658,-0.5303703703703704],[0.19395833333333337,-0.5320370370370371],[0.20354166666666676,-0.5296296296296297],[0.20260416666666667,-0.5262962962962963],[0.22177083333333342,-0.5438888888888889],[0.25031249999999994,-0.5211111111111111],[0.25031249999999994,-0.5211111111111111],[0.27885416666666674,-0.49833333333333335],[0.32614583333333325,-0.48814814814814816],[0.32937500000000003,-0.5418518518518519],[0.3160416666666668,-0.5514814814814815],[0.3160416666666668,-0.5514814814814815],[0.2542708333333332,-0.5331481481481481],[0.20927083333333343,-0.5383333333333333],[0.15812499999999996,-0.5392592592592592],[0.12385416666666677,-0.5387037037037037],[0.12385416666666677,-0.5387037037037037],[0.08958333333333333,-0.5381481481481482],[0.051874999999999956,-0.5675925925925925],[0.009062500000000048,-0.6],[-0.025416666666666643,-0.6394444444444445],[-0.06770833333333333,-0.6051851851851852],[-0.11156250000000002,-0.616111111111111],[-0.0889583333333333,-0.634074074074074],[-0.0889583333333333,-0.634074074074074],[-0.06437499999999995,-0.6157407407407407],[-0.06437499999999995,-0.6157407407407407],[-0.049687500000000044,-0.6096296296296296],[-0.049687500000000044,-0.6096296296296296],[-0.042916666666666714,-0.5812962962962962],[-0.042916666666666714,-0.5812962962962962],[-0.00625,-0.5537037037037037],[-0.026145833333333358,-0.5466666666666666],[-0.026145833333333358,-0.5466666666666666],[-0.014999999999999977,-0.5385185185185185],[-0.04020833333333336,-0.5022222222222222],[-0.04020833333333336,-0.5022222222222222],[-0.02510416666666669,-0.49666666666666665],[-0.006666666666666643,-0.4762962962962963],[-0.006666666666666643,-0.4762962962962963],[-0.005937500000000048,-0.4564814814814815],[0.022083333333333382,-0.4583333333333333],[0.060000000000000026,-0.4479629629629629],[0.09979166666666663,-0.45092592592592595],[0.14270833333333333,-0.40925925925925927],[0.23624999999999996,-0.3574074074074074],[0.26062500000000005,-0.3761111111111112]]","[[0.246875,-0.07574074074074069,0.00009999990463427366],[0.246875,-0.07574074074074069,0.012800000190736682],[0.22083333333333333,-0.0668518518518519,0.03620000028610093],[0.22083333333333333,-0.0668518518518519,0.045900000095372206],[0.20947916666666658,-0.055740740740740785,0.06259999990463427],[0.2085416666666667,-0.0514814814814814,0.08320000028610508],[0.20572916666666666,-0.059814814814814835,0.09920000028610332],[0.24552083333333338,-0.06666666666666667,0.11659999990463632],[0.24552083333333338,-0.06666666666666667,0.1294000000953659],[0.21666666666666667,-0.1259259259259259,0.14609999990463507],[0.21666666666666667,-0.1259259259259259,0.162700000286101],[0.18875000000000006,-0.17629629629629628,0.1793000001907359],[0.17687499999999995,-0.23537037037037042,0.19609999990463223],[0.18302083333333338,-0.2785185185185185,0.21270000028610525],[0.22104166666666672,-0.3333333333333333,0.22930000019074015],[0.2526041666666667,-0.4035185185185185,0.24590000009536794],[0.20750000000000005,-0.4964814814814815,0.2625999999046371],[0.20750000000000005,-0.4964814814814815,0.2793000001907373],[0.14552083333333338,-0.5657407407407408,0.2959999999999994],[0.15145833333333342,-0.6266666666666666,0.31500000000000483],[0.13385416666666666,-0.682962962962963,0.33070000028610735],[0.15625,-0.6814814814814815,0.34780000019073753],[0.17416666666666672,-0.7024074074074075,0.3640000000000043],[0.17416666666666672,-0.7024074074074075,0.37930000019073873],[0.21135416666666676,-0.7088888888888889,0.3959000000953665],[0.22156250000000005,-0.725,0.41280000019073526],[0.2078125,-0.7281481481481481,0.4293000001907359],[0.19166666666666668,-0.7429629629629629,0.4502000002861024],[0.20770833333333344,-0.7242592592592593,0.4663000001907349],[0.2243750000000001,-0.725,0.49500000000000455],[0.2243750000000001,-0.725,0.5017000002861067],[0.19416666666666677,-0.7227777777777779,0.5125999999046371],[0.16395833333333343,-0.7025925925925925,0.529599999904633],[0.11833333333333323,-0.6909259259259259,0.5482000002861014],[0.059791666666666646,-0.687962962962963,0.5629000000953681],[0.011666666666666714,-0.6848148148148149,0.582099999904635],[-0.026145833333333358,-0.6694444444444444,0.5988000001907352],[-0.05260416666666667,-0.6477777777777778,0.6125999999046314],[-0.04729166666666664,-0.6485185185185185,0.6292000002861045],[-0.07177083333333331,-0.6346296296296297,0.6465000000000032],[-0.06135416666666664,-0.6168518518518519,0.6673000001907354],[-0.06135416666666664,-0.6168518518518519,0.6829999999999998],[-0.07083333333333333,-0.6035185185185185,0.6959000000953708],[-0.052187500000000026,-0.6266666666666666,0.7125999999046329],[-0.028541666666666642,-0.6401851851851852,0.7292000002861059],[0.025520833333333333,-0.6211111111111111,0.7460000000000022],[0.03781249999999995,-0.6172222222222222,0.7625999999046371],[0.06375000000000004,-0.6233333333333334,0.7793000001907373],[0.0890625,-0.6294444444444444,0.7959999999999994],[0.08499999999999991,-0.6014814814814815,0.8125999999046343],[0.12604166666666666,-0.5972222222222222,0.8293000001907345],[0.12666666666666657,-0.5781481481481481,0.8459000000953694],[0.12666666666666657,-0.5781481481481481,0.8627000002861038],[0.10864583333333329,-0.5846296296296296,0.8793000001907387],[0.1146874999999999,-0.5468518518518519,0.8959000000953665],[0.1146874999999999,-0.5468518518518519,0.9125999999046357],[0.11572916666666658,-0.5187037037037038,0.9293000001907359],[0.11572916666666658,-0.5187037037037038,0.9459000000953708],[0.0896874999999999,-0.5116666666666667,0.9625999999046329],[0.0896874999999999,-0.5116666666666667,0.9793000001907401],[0.0796875,-0.5037037037037037,0.9960000000000022],[0.0796875,-0.5037037037037037,1.0125999999046371],[0.08270833333333343,-0.5120370370370371,1.0293000001907373],[0.08270833333333343,-0.5120370370370371,1.0459999999999994],[0.03302083333333338,-0.5196296296296297,1.0625999999046343],[0.03302083333333338,-0.5196296296296297,1.0793000001907345],[0.009375,-0.5181481481481481,1.0960000000000036],[-0.02677083333333338,-0.522962962962963,1.1165999999046363],[-0.02677083333333338,-0.522962962962963,1.1293000001907387],[-0.005624999999999976,-0.5324074074074074,1.146099999904635],[-0.005624999999999976,-0.5324074074074074,1.1625999999046357],[0.016979166666666618,-0.5375925925925926,1.1793000001907359],[0.03708333333333336,-0.5505555555555556,1.196000000000005],[0.02385416666666664,-0.5807407407407408,1.2125999999046329],[0.02385416666666664,-0.5807407407407408,1.2292000002861059],[0.057083333333333285,-0.582962962962963,1.2460000000000022],[0.057083333333333285,-0.582962962962963,1.2625999999046371],[0.09666666666666662,-0.5562962962962963,1.2793000001907373],[0.09666666666666662,-0.5562962962962963,1.2959999999999994],[0.10187499999999995,-0.5238888888888888,1.3127000002861067],[0.14072916666666657,-0.5181481481481481,1.331000000000003],[0.15354166666666677,-0.5214814814814815,1.3492000002861033],[0.1796875,-0.5083333333333333,1.36390000009537],[0.16291666666666677,-0.5140740740740741,1.382700000286107],[0.1506249999999999,-0.48870370370370364,1.3992000002861076],[0.11500000000000009,-0.4940740740740741,1.4145000000000039],[0.11291666666666676,-0.4666666666666667,1.4313000001907383],[0.08239583333333324,-0.4677777777777778,1.4507000002861048],[0.058333333333333334,-0.45925925925925926,1.4665999999046377],[0.058333333333333334,-0.45925925925925926,1.4793000001907401],[0.035520833333333356,-0.45185185185185184,1.4962000002861018],[0.033854166666666664,-0.43944444444444447,1.517000000000003],[0.019166666666666644,-0.41814814814814816,1.5324000000953717],[0.0036458333333333334,-0.40703703703703703,1.5493000001907333],[-0.00302083333333331,-0.3801851851851852,1.5672000002861068],[-0.00302083333333331,-0.3801851851851852,1.5793000001907345],[0.010625000000000048,-0.362962962962963,1.5959000000953694],[0.010625000000000048,-0.362962962962963,1.6125999999046314],[0.017083333333333308,-0.34296296296296297,1.6293000001907387],[0.017083333333333308,-0.34296296296296297,1.6459000000953665],[0.017083333333333308,-0.3344444444444445,1.662700000286101],[0.011458333333333333,-0.35537037037037034,1.6820000000000022],[-0.000833333333333286,-0.3901851851851852,1.6980999999046347],[-0.008020833333333382,-0.42185185185185187,1.7154999999999987],[-0.022708333333333285,-0.42018518518518516,1.730000000000004],[-0.024374999999999977,-0.4274074074074074,1.7477000002861018],[-0.016666666666666666,-0.4244444444444444,1.7630000000000052],[-0.01895833333333338,-0.4235185185185185,1.780700000286103],[-0.01895833333333338,-0.4235185185185185,1.79990000009537],[-0.01895833333333338,-0.4235185185185185,1.814700000286102],[-0.0328125,-0.43,1.8485999999046356],[-0.0328125,-0.43,1.8562000002861012],[-0.05458333333333331,-0.43277777777777776,1.8820999999046322],[-0.05458333333333331,-0.43277777777777776,1.8888000001907344],[-0.07083333333333333,-0.4331481481481481,1.9152000002861058],[-0.07083333333333333,-0.4331481481481481,1.9220000000000041],[-0.09093749999999995,-0.39888888888888885,1.9465999999046346],[-0.09093749999999995,-0.39888888888888885,1.9545999999046373],[-0.09666666666666662,-0.3701851851851851,1.9819000000953721],[-0.09666666666666662,-0.3701851851851851,1.9887000002861015],[-0.07989583333333337,-0.35537037037037034,2.013300000190739],[-0.07989583333333337,-0.35537037037037034,2.0204999999999984],[-0.06239583333333331,-0.3581481481481481,2.0494000000953676],[-0.06239583333333331,-0.3581481481481481,2.056599999904634],[-0.028854166666666715,-0.34814814814814815,2.082500000000003],[-0.028854166666666715,-0.34814814814814815,2.089500000000001],[-0.007604166666666619,-0.3477777777777778,2.118300000190736],[-0.007604166666666619,-0.3477777777777778,2.129800000190734],[0.020937500000000022,-0.3435185185185185,2.1459000000953665],[0.020937500000000022,-0.3435185185185185,2.1625999999046357],[0.05656249999999995,-0.3509259259259259,2.179300000190736],[0.11124999999999995,-0.35759259259259263,2.1965000000000003],[0.16666666666666666,-0.3707407407407407,2.2139000000953715],[0.2289583333333333,-0.3785185185185185,2.2317000002861036],[0.2639583333333334,-0.4155555555555555,2.2465000000000046],[0.2919791666666666,-0.42407407407407405,2.263300000190739],[0.31124999999999997,-0.41222222222222227,2.2967000002861013],[0.31124999999999997,-0.41222222222222227,2.3042000002861016],[0.33322916666666674,-0.4359259259259259,2.3125999999046343],[0.33322916666666674,-0.4359259259259259,2.3292000002861073],[0.34489583333333323,-0.4631481481481482,2.3460000000000036],[0.3381249999999999,-0.5025925925925926,2.3629000000953724],[0.32791666666666663,-0.5344444444444445,2.3819000000953707],[0.28885416666666663,-0.5488888888888889,2.397900000095369],[0.2497916666666666,-0.5633333333333334,2.4144000000953696],[0.20843749999999991,-0.5770370370370371,2.429300000190736],[0.1890625,-0.5498148148148148,2.451500000000003],[0.1890625,-0.5498148148148148,2.4624999999999986],[0.1872916666666666,-0.5238888888888888,2.47930000019074],[0.20385416666666673,-0.5385185185185185,2.4969000000953727],[0.20166666666666658,-0.5303703703703704,2.5149000000953663],[0.19395833333333337,-0.5320370370370371,2.5293000001907373],[0.20354166666666676,-0.5296296296296297,2.5478000001907333],[0.20260416666666667,-0.5262962962962963,2.5645000000000024],[0.22177083333333342,-0.5438888888888889,2.583500000000001],[0.25031249999999994,-0.5211111111111111,2.602700000286106],[0.25031249999999994,-0.5211111111111111,2.6125999999046314],[0.27885416666666674,-0.49833333333333335,2.6292000002861045],[0.32614583333333325,-0.48814814814814816,2.650099999904633],[0.32937500000000003,-0.5418518518518519,2.666000000000004],[0.3160416666666668,-0.5514814814814815,2.6843000001907384],[0.3160416666666668,-0.5514814814814815,2.696000000000005],[0.2542708333333332,-0.5331481481481481,2.713700000286103],[0.20927083333333343,-0.5383333333333333,2.7299000000953697],[0.15812499999999996,-0.5392592592592592,2.745900000095368],[0.12385416666666677,-0.5387037037037037,2.7627000002861024],[0.12385416666666677,-0.5387037037037037,2.7793000001907373],[0.08958333333333333,-0.5381481481481482,2.7959999999999994],[0.051874999999999956,-0.5675925925925925,2.814],[0.009062500000000048,-0.6,2.8294000000953687],[-0.025416666666666643,-0.6394444444444445,2.8459000000953694],[-0.06770833333333333,-0.6051851851851852,2.8625000000000043],[-0.11156250000000002,-0.616111111111111,2.8830000000000027],[-0.0889583333333333,-0.634074074074074,2.8984999999999985],[-0.0889583333333333,-0.634074074074074,2.912700000286101],[-0.06437499999999995,-0.6157407407407407,2.933099999904634],[-0.06437499999999995,-0.6157407407407407,2.946000000000005],[-0.049687500000000044,-0.6096296296296296,2.962599999904633],[-0.049687500000000044,-0.6096296296296296,2.97930000019074],[-0.042916666666666714,-0.5812962962962962,2.995900000095368],[-0.042916666666666714,-0.5812962962962962,3.012599999904637],[-0.00625,-0.5537037037037037,3.029200000286103],[-0.026145833333333358,-0.5466666666666666,3.0504999999999995],[-0.026145833333333358,-0.5466666666666666,3.062900000095368],[-0.014999999999999977,-0.5385185185185185,3.0793000001907345],[-0.04020833333333336,-0.5022222222222222,3.100900000095372],[-0.04020833333333336,-0.5022222222222222,3.112700000286104],[-0.02510416666666669,-0.49666666666666665,3.129400000095366],[-0.006666666666666643,-0.4762962962962963,3.1484999999999985],[-0.006666666666666643,-0.4762962962962963,3.1625999999046357],[-0.005937500000000048,-0.4564814814814815,3.179300000190736],[0.022083333333333382,-0.4583333333333333,3.195900000095371],[0.060000000000000026,-0.4479629629629629,3.212599999904633],[0.09979166666666663,-0.45092592592592595,3.229200000286106],[0.14270833333333333,-0.40925925925925927,3.246200000286102],[0.23624999999999996,-0.3574074074074074,3.262599999904637],[0.26062500000000005,-0.3761111111111112,3.28280000019074]]","[0.00009999990463427366,0.012800000190736682,0.03620000028610093,0.045900000095372206,0.06259999990463427,0.08320000028610508,0.09920000028610332,0.11659999990463632,0.1294000000953659,0.14609999990463507,0.162700000286101,0.1793000001907359,0.19609999990463223,0.21270000028610525,0.22930000019074015,0.24590000009536794,0.2625999999046371,0.2793000001907373,0.2959999999999994,0.31500000000000483,0.33070000028610735,0.34780000019073753,0.3640000000000043,0.37930000019073873,0.3959000000953665,0.41280000019073526,0.4293000001907359,0.4502000002861024,0.4663000001907349,0.49500000000000455,0.5017000002861067,0.5125999999046371,0.529599999904633,0.5482000002861014,0.5629000000953681,0.582099999904635,0.5988000001907352,0.6125999999046314,0.6292000002861045,0.6465000000000032,0.6673000001907354,0.6829999999999998,0.6959000000953708,0.7125999999046329,0.7292000002861059,0.7460000000000022,0.7625999999046371,0.7793000001907373,0.7959999999999994,0.8125999999046343,0.8293000001907345,0.8459000000953694,0.8627000002861038,0.8793000001907387,0.8959000000953665,0.9125999999046357,0.9293000001907359,0.9459000000953708,0.9625999999046329,0.9793000001907401,0.9960000000000022,1.0125999999046371,1.0293000001907373,1.0459999999999994,1.0625999999046343,1.0793000001907345,1.0960000000000036,1.1165999999046363,1.1293000001907387,1.146099999904635,1.1625999999046357,1.1793000001907359,1.196000000000005,1.2125999999046329,1.2292000002861059,1.2460000000000022,1.2625999999046371,1.2793000001907373,1.2959999999999994,1.3127000002861067,1.331000000000003,1.3492000002861033,1.36390000009537,1.382700000286107,1.3992000002861076,1.4145000000000039,1.4313000001907383,1.4507000002861048,1.4665999999046377,1.4793000001907401,1.4962000002861018,1.517000000000003,1.5324000000953717,1.5493000001907333,1.5672000002861068,1.5793000001907345,1.5959000000953694,1.6125999999046314,1.6293000001907387,1.6459000000953665,1.662700000286101,1.6820000000000022,1.6980999999046347,1.7154999999999987,1.730000000000004,1.7477000002861018,1.7630000000000052,1.780700000286103,1.79990000009537,1.814700000286102,1.8485999999046356,1.8562000002861012,1.8820999999046322,1.8888000001907344,1.9152000002861058,1.9220000000000041,1.9465999999046346,1.9545999999046373,1.9819000000953721,1.9887000002861015,2.013300000190739,2.0204999999999984,2.0494000000953676,2.056599999904634,2.082500000000003,2.089500000000001,2.118300000190736,2.129800000190734,2.1459000000953665,2.1625999999046357,2.179300000190736,2.1965000000000003,2.2139000000953715,2.2317000002861036,2.2465000000000046,2.263300000190739,2.2967000002861013,2.3042000002861016,2.3125999999046343,2.3292000002861073,2.3460000000000036,2.3629000000953724,2.3819000000953707,2.397900000095369,2.4144000000953696,2.429300000190736,2.451500000000003,2.4624999999999986,2.47930000019074,2.4969000000953727,2.5149000000953663,2.5293000001907373,2.5478000001907333,2.5645000000000024,2.583500000000001,2.602700000286106,2.6125999999046314,2.6292000002861045,2.650099999904633,2.666000000000004,2.6843000001907384,2.696000000000005,2.713700000286103,2.7299000000953697,2.745900000095368,2.7627000002861024,2.7793000001907373,2.7959999999999994,2.814,2.8294000000953687,2.8459000000953694,2.8625000000000043,2.8830000000000027,2.8984999999999985,2.912700000286101,2.933099999904634,2.946000000000005,2.962599999904633,2.97930000019074,2.995900000095368,3.012599999904637,3.029200000286103,3.0504999999999995,3.062900000095368,3.0793000001907345,3.100900000095372,3.112700000286104,3.129400000095366,3.1484999999999985,3.1625999999046357,3.179300000190736,3.195900000095371,3.212599999904633,3.229200000286106,3.246200000286102,3.262599999904637,3.28280000019074]","[1732157272855,1732157272866,1732157272889,1732157272899,1732157272915,1732157272936,1732157272952,1732157272970,1732157272982,1732157272999,1732157273016,1732157273032,1732157273049,1732157273066,1732157273082,1732157273099,1732157273116,1732157273132,1732157273149,1732157273168,1732157273184,1732157273201,1732157273217,1732157273232,1732157273249,1732157273266,1732157273282,1732157273303,1732157273319,1732157273348,1732157273355,1732157273366,1732157273383,1732157273401,1732157273416,1732157273435,1732157273452,1732157273466,1732157273482,1732157273499,1732157273520,1732157273536,1732157273549,1732157273565,1732157273582,1732157273599,1732157273615,1732157273632,1732157273649,1732157273665,1732157273682,1732157273699,1732157273716,1732157273732,1732157273749,1732157273766,1732157273782,1732157273799,1732157273815,1732157273832,1732157273849,1732157273866,1732157273882,1732157273899,1732157273916,1732157273932,1732157273949,1732157273970,1732157273982,1732157273999,1732157274015,1732157274032,1732157274049,1732157274065,1732157274082,1732157274099,1732157274115,1732157274132,1732157274149,1732157274166,1732157274184,1732157274202,1732157274217,1732157274236,1732157274252,1732157274267,1732157274284,1732157274304,1732157274320,1732157274332,1732157274349,1732157274370,1732157274385,1732157274402,1732157274420,1732157274432,1732157274449,1732157274466,1732157274482,1732157274499,1732157274516,1732157274535,1732157274551,1732157274568,1732157274583,1732157274601,1732157274616,1732157274634,1732157274653,1732157274668,1732157274701,1732157274709,1732157274735,1732157274742,1732157274768,1732157274775,1732157274800,1732157274807,1732157274835,1732157274842,1732157274866,1732157274873,1732157274902,1732157274910,1732157274935,1732157274942,1732157274971,1732157274983,1732157274999,1732157275016,1732157275032,1732157275049,1732157275067,1732157275085,1732157275099,1732157275116,1732157275150,1732157275157,1732157275165,1732157275182,1732157275199,1732157275216,1732157275235,1732157275251,1732157275267,1732157275282,1732157275304,1732157275315,1732157275332,1732157275350,1732157275368,1732157275382,1732157275401,1732157275417,1732157275436,1732157275456,1732157275465,1732157275482,1732157275503,1732157275519,1732157275537,1732157275549,1732157275567,1732157275583,1732157275599,1732157275615,1732157275632,1732157275649,1732157275667,1732157275682,1732157275699,1732157275715,1732157275736,1732157275751,1732157275766,1732157275786,1732157275799,1732157275815,1732157275832,1732157275849,1732157275865,1732157275882,1732157275903,1732157275916,1732157275932,1732157275954,1732157275966,1732157275982,1732157276001,1732157276015,1732157276032,1732157276049,1732157276065,1732157276082,1732157276099,1732157276115,1732157276136]","[[1197,499.1],[1197,499.1],[1172,503.9],[1172,503.9],[1161.1,509.9],[1160.2,512.2],[1157.5,507.7],[1195.7,504],[1195.7,504],[1168,472],[1168,472],[1141.2,444.8],[1129.8,412.9],[1135.7,389.6],[1172.2,360],[1202.5,322.1],[1159.2,271.9],[1159.2,271.9],[1099.7,234.5],[1105.4,201.6],[1088.5,171.2],[1110,172],[1127.2,160.7],[1127.2,160.7],[1162.9,157.2],[1172.7,148.5],[1159.5,146.8],[1144,138.8],[1159.4,148.9],[1175.4,148.5],[1175.4,148.5],[1146.4,149.7],[1117.4,160.6],[1073.6,166.9],[1017.4,168.5],[971.2,170.2],[934.9,178.5],[909.5,190.2],[914.6,189.8],[891.1,197.3],[901.1,206.9],[901.1,206.9],[892,214.1],[909.9,201.6],[932.6,194.3],[984.5,204.6],[996.3,206.7],[1021.2,203.4],[1045.5,200.1],[1041.6,215.2],[1081,217.5],[1081.6,227.8],[1081.6,227.8],[1064.3,224.3],[1070.1,244.7],[1070.1,244.7],[1071.1,259.9],[1071.1,259.9],[1046.1,263.7],[1046.1,263.7],[1036.5,268],[1036.5,268],[1039.4,263.5],[1039.4,263.5],[991.7,259.4],[991.7,259.4],[969,260.2],[934.3,257.6],[934.3,257.6],[954.6,252.5],[954.6,252.5],[976.3,249.7],[995.6,242.7],[982.9,226.4],[982.9,226.4],[1014.8,225.2],[1014.8,225.2],[1052.8,239.6],[1052.8,239.6],[1057.8,257.1],[1095.1,260.2],[1107.4,258.4],[1132.5,265.5],[1116.4,262.4],[1104.6,276.1],[1070.4,273.2],[1068.4,288],[1039.1,287.4],[1016,292],[1016,292],[994.1,296],[992.5,302.7],[978.4,314.2],[963.5,320.2],[957.1,334.7],[957.1,334.7],[970.2,344],[970.2,344],[976.4,354.8],[976.4,354.8],[976.4,359.4],[971,348.1],[959.2,329.3],[952.3,312.2],[938.2,313.1],[936.6,309.2],[944,310.8],[941.8,311.3],[941.8,311.3],[941.8,311.3],[928.5,307.8],[928.5,307.8],[907.6,306.3],[907.6,306.3],[892,306.1],[892,306.1],[872.7,324.6],[872.7,324.6],[867.2,340.1],[867.2,340.1],[883.3,348.1],[883.3,348.1],[900.1,346.6],[900.1,346.6],[932.3,352],[932.3,352],[952.7,352.2],[952.7,352.2],[980.1,354.5],[980.1,354.5],[1014.3,350.5],[1066.8,346.9],[1120,339.8],[1179.8,335.6],[1213.4,315.6],[1240.3,311],[1258.8,317.4],[1258.8,317.4],[1279.9,304.6],[1279.9,304.6],[1291.1,289.9],[1284.6,268.6],[1274.8,251.4],[1237.3,243.6],[1199.8,235.8],[1160.1,228.4],[1141.5,243.1],[1141.5,243.1],[1139.8,257.1],[1155.7,249.2],[1153.6,253.6],[1146.2,252.7],[1155.4,254],[1154.5,255.8],[1172.9,246.3],[1200.3,258.6],[1200.3,258.6],[1227.7,270.9],[1273.1,276.4],[1276.2,247.4],[1263.4,242.2],[1263.4,242.2],[1204.1,252.1],[1160.9,249.3],[1111.8,248.8],[1078.9,249.1],[1078.9,249.1],[1046,249.4],[1009.8,233.5],[968.7,216],[935.6,194.7],[895,213.2],[852.9,207.3],[874.6,197.6],[874.6,197.6],[898.2,207.5],[898.2,207.5],[912.3,210.8],[912.3,210.8],[918.8,226.1],[918.8,226.1],[954,241],[934.9,244.8],[934.9,244.8],[945.6,249.2],[921.4,268.8],[921.4,268.8],[935.9,271.8],[953.6,282.8],[953.6,282.8],[954.3,293.5],[981.2,292.5],[1017.6,298.1],[1055.8,296.5],[1097,319],[1186.8,347],[1210.2,336.9]]","[-0.142,0.42599999999999993]","[0.142,0.42599999999999993]","[0.42599999999999993,0.42599999999999993]","[-0.42599999999999993,-0.42599999999999993]","[-0.42599999999999993,-0.142]","[-0.42599999999999993,0.142]","[-0.142,-0.42599999999999993]","[0.142,-0.42599999999999993]","[0.42599999999999993,-0.42599999999999993]","[-0.142,-0.142]","[0.142,-0.142]","[0.42599999999999993,-0.142]","[-0.142,0.142]","[0.142,0.142]","[0.42599999999999993,0.142]",0,1,1,1,1,1,Laptop,20,40,7,3,50,5,3,60,4
