inst1_resp.keys,inst1_resp.rt,calibrationMouse.x,calibrationMouse.y,calibrationMouse.leftButton,calibrationMouse.midButton,calibrationMouse.rightButton,calibrationClick.x,calibrationClick.y,calibrationClick.leftButton,calibrationClick.midButton,calibrationClick.rightButton,trialsc.thisRepN,trialsc.thisTrialN,trialsc.thisN,trialsc.thisIndex,trialsc.ran,calibration_x,calibration_y,participant,session,date,expName,psychopyVersion,OS,frameRate,calibrationClick.clicked_name,ScreenRes_pixels,Camera_pixels,mouse_2.x,mouse_2.y,mouse_2.leftButton,mouse_2.midButton,mouse_2.rightButton,mouse_2.time,mouse_2.clicked_name,mouse.x,mouse.y,mouse.leftButton,mouse.midButton,mouse.rightButton,mouse.time,mouse.clicked_name,Choice,Trial,TrialDuration,MOUSE_GAZE,ET_GAZE,ET_GAZE_x_T,time,unixTime,ET_GAZE_NF,Loc_Bus_label,Loc_Metro_label,Loc_RH_label,Loc_Cost_label,Loc_Travel_label,Loc_Comfort_label,Loc_Bus_cost,Loc_Metro_cost,Loc_RH_cost,Loc_Bus_travel,Loc_Metro_travel,Loc_RH_travel,Loc_Bus_comfort,Loc_Metro_comfort,Loc_RH_comfort,trials.thisRepN,trials.thisTrialN,trials.thisN,trials.thisIndex,trials.ran,Block,Device,RH_cost,RH_travel_time,RH_Comfort,metro_cost,metro_travel_time,metro_Comfort,Bus_cost,Bus_travel_time,Bus_Comfort
space,2.5335,0.039583333,-0.559259259,1,0,0,-0.332291667,0.659259259,1,0,0,0,0,0,8,1,-0.33,0.67,12,001,2024-11-21_13h11.46.075,Attention_exp_legacy,2023.1.0,Win32,59.88023952,,,,,,,,,,,,,,,,,,,,,,,,,,,,,,,,,,,,,,,,,,,,,,,,,,,,,,,,,
,,,,,,,0.013541667,0.327777778,1,0,0,0,1,1,12,1,0,0.33,12,001,2024-11-21_13h11.46.075,Attention_exp_legacy,2023.1.0,Win32,59.88023952,,,,,,,,,,,,,,,,,,,,,,,,,,,,,,,,,,,,,,,,,,,,,,,,,,,,,,,,,
,,,,,,,-0.346875,-0.32962963,1,0,0,0,2,2,5,1,-0.33,-0.33,12,001,2024-11-21_13h11.46.075,Attention_exp_legacy,2023.1.0,Win32,59.88023952,,,,,,,,,,,,,,,,,,,,,,,,,,,,,,,,,,,,,,,,,,,,,,,,,,,,,,,,,
,,,,,,,0.004166667,0.651851852,1,0,0,0,3,3,13,1,0,0.67,12,001,2024-11-21_13h11.46.075,Attention_exp_legacy,2023.1.0,Win32,59.88023952,,,,,,,,,,,,,,,,,,,,,,,,,,,,,,,,,,,,,,,,,,,,,,,,,,,,,,,,,
,,,,,,,0.31875,0.340740741,1,0,0,0,4,4,17,1,0.33,0.33,12,001,2024-11-21_13h11.46.075,Attention_exp_legacy,2023.1.0,Win32,59.88023952,,,,,,,,,,,,,,,,,,,,,,,,,,,,,,,,,,,,,,,,,,,,,,,,,,,,,,,,,
,,,,,,,-0.682291667,-0.02962963,1,0,0,0,5,5,2,1,-0.67,0,12,001,2024-11-21_13h11.46.075,Attention_exp_legacy,2023.1.0,Win32,59.88023952,,,,,,,,,,,,,,,,,,,,,,,,,,,,,,,,,,,,,,,,,,,,,,,,,,,,,,,,,
,,,,,,,0.348958333,0.696296296,1,0,0,0,6,6,18,1,0.33,0.67,12,001,2024-11-21_13h11.46.075,Attention_exp_legacy,2023.1.0,Win32,59.88023952,,,,,,,,,,,,,,,,,,,,,,,,,,,,,,,,,,,,,,,,,,,,,,,,,,,,,,,,,
,,,,,,,-0.31875,-0.65,1,0,0,0,7,7,4,1,-0.33,-0.67,12,001,2024-11-21_13h11.46.075,Attention_exp_legacy,2023.1.0,Win32,59.88023952,,,,,,,,,,,,,,,,,,,,,,,,,,,,,,,,,,,,,,,,,,,,,,,,,,,,,,,,,
,,,,,,,0.328125,-0.309259259,1,0,0,0,8,8,15,1,0.33,-0.33,12,001,2024-11-21_13h11.46.075,Attention_exp_legacy,2023.1.0,Win32,59.88023952,,,,,,,,,,,,,,,,,,,,,,,,,,,,,,,,,,,,,,,,,,,,,,,,,,,,,,,,,
,,,,,,,0.320833333,-0.655555556,1,0,0,0,9,9,14,1,0.33,-0.67,12,001,2024-11-21_13h11.46.075,Attention_exp_legacy,2023.1.0,Win32,59.88023952,,,,,,,,,,,,,,,,,,,,,,,,,,,,,,,,,,,,,,,,,,,,,,,,,,,,,,,,,
,,,,,,,0.672916667,0.696296296,1,0,0,0,10,10,19,1,0.67,0.67,12,001,2024-11-21_13h11.46.075,Attention_exp_legacy,2023.1.0,Win32,59.88023952,,,,,,,,,,,,,,,,,,,,,,,,,,,,,,,,,,,,,,,,,,,,,,,,,,,,,,,,,
,,,,,,,-0.655208333,-0.662962963,1,0,0,0,11,11,0,1,-0.67,-0.67,12,001,2024-11-21_13h11.46.075,Attention_exp_legacy,2023.1.0,Win32,59.88023952,,,,,,,,,,,,,,,,,,,,,,,,,,,,,,,,,,,,,,,,,,,,,,,,,,,,,,,,,
,,,,,,,0,-0.32037037,1,0,0,0,12,12,10,1,0,-0.33,12,001,2024-11-21_13h11.46.075,Attention_exp_legacy,2023.1.0,Win32,59.88023952,calibration_square,,,,,,,,,,,,,,,,,,,,,,,,,,,,,,,,,,,,,,,,,,,,,,,,,,,,,,,,
,,,,,,,-0.669791667,0.32962963,1,0,0,0,13,13,3,1,-0.67,0.33,12,001,2024-11-21_13h11.46.075,Attention_exp_legacy,2023.1.0,Win32,59.88023952,calibration_square,,,,,,,,,,,,,,,,,,,,,,,,,,,,,,,,,,,,,,,,,,,,,,,,,,,,,,,,
,,,,,,,-0.326041667,-0.018518519,1,0,0,0,14,14,6,1,-0.33,0,12,001,2024-11-21_13h11.46.075,Attention_exp_legacy,2023.1.0,Win32,59.88023952,,,,,,,,,,,,,,,,,,,,,,,,,,,,,,,,,,,,,,,,,,,,,,,,,,,,,,,,,
,,,,,,,-0.663541667,-0.337037037,1,0,0,0,15,15,1,1,-0.67,-0.33,12,001,2024-11-21_13h11.46.075,Attention_exp_legacy,2023.1.0,Win32,59.88023952,calibration_square,,,,,,,,,,,,,,,,,,,,,,,,,,,,,,,,,,,,,,,,,,,,,,,,,,,,,,,,
,,,,,,,-0.0125,-0.674074074,1,0,0,0,16,16,9,1,0,-0.67,12,001,2024-11-21_13h11.46.075,Attention_exp_legacy,2023.1.0,Win32,59.88023952,,,,,,,,,,,,,,,,,,,,,,,,,,,,,,,,,,,,,,,,,,,,,,,,,,,,,,,,,
,,,,,,,-0.008333333,0.014814815,1,0,0,0,17,17,11,1,0,0,12,001,2024-11-21_13h11.46.075,Attention_exp_legacy,2023.1.0,Win32,59.88023952,,,,,,,,,,,,,,,,,,,,,,,,,,,,,,,,,,,,,,,,,,,,,,,,,,,,,,,,,
,,,,,,,0.676041667,-0.696296296,1,0,0,0,18,18,20,1,0.67,-0.67,12,001,2024-11-21_13h11.46.075,Attention_exp_legacy,2023.1.0,Win32,59.88023952,,,,,,,,,,,,,,,,,,,,,,,,,,,,,,,,,,,,,,,,,,,,,,,,,,,,,,,,,
,,,,,,,0.344791667,-0.016666667,1,0,0,0,19,19,16,1,0.33,0,12,001,2024-11-21_13h11.46.075,Attention_exp_legacy,2023.1.0,Win32,59.88023952,,,,,,,,,,,,,,,,,,,,,,,,,,,,,,,,,,,,,,,,,,,,,,,,,,,,,,,,,
,,,,,,,-0.307291667,0.322222222,1,0,0,0,20,20,7,1,-0.33,0.33,12,001,2024-11-21_13h11.46.075,Attention_exp_legacy,2023.1.0,Win32,59.88023952,,,,,,,,,,,,,,,,,,,,,,,,,,,,,,,,,,,,,,,,,,,,,,,,,,,,,,,,,
,,,,,,,,,,,,,,,,,,,12,001,2024-11-21_13h11.46.075,Attention_exp_legacy,2023.1.0,Win32,59.88023952,,"[1920,1080]","[640,480]",[0.07916666666666666],[-0.5296296296296297],[1],[0],[0],[2.5799999999999983],"[""StartButton""]",[0.16979166666666667],[0.15925925925925927],[1],[0],[0],[5.663300000190738],"[""RH_label""]",RH_label,1,6.6765,"[[0.07916666666666666,-0.5185185185185185],[0.07916666666666666,-0.5185185185185185],[0.07916666666666666,-0.5185185185185185],[0.07916666666666666,-0.5185185185185185],[0.07916666666666666,-0.5185185185185185],[0.07916666666666666,-0.5185185185185185],[0.07916666666666666,-0.5185185185185185],[0.07916666666666666,-0.5185185185185185],[0.07916666666666666,-0.5185185185185185],[0.07916666666666666,-0.5185185185185185],[0.07916666666666666,-0.5185185185185185],[0.07916666666666666,-0.5185185185185185],[0.07916666666666666,-0.5185185185185185],[0.07916666666666666,-0.5185185185185185],[0.07916666666666666,-0.5185185185185185],[0.07916666666666666,-0.5185185185185185],[0.07916666666666666,-0.5185185185185185],[0.07916666666666666,-0.5185185185185185],[0.07916666666666666,-0.5185185185185185],[0.07916666666666666,-0.5185185185185185],[0.07916666666666666,-0.5185185185185185],[0.07916666666666666,-0.5185185185185185],[0.07916666666666666,-0.5185185185185185],[0.07916666666666666,-0.5185185185185185],[0.07916666666666666,-0.5185185185185185],[0.07916666666666666,-0.5166666666666667],[0.07916666666666666,-0.5148148148148148],[0.07916666666666666,-0.512962962962963],[0.078125,-0.5111111111111111],[0.078125,-0.5111111111111111],[0.078125,-0.5111111111111111],[0.078125,-0.5111111111111111],[0.078125,-0.5092592592592593],[0.078125,-0.5092592592592593],[0.078125,-0.5092592592592593],[0.078125,-0.5092592592592593],[0.078125,-0.5092592592592593],[0.078125,-0.5092592592592593],[0.078125,-0.5092592592592593],[0.078125,-0.5092592592592593],[0.078125,-0.5092592592592593],[0.078125,-0.5092592592592593],[0.078125,-0.5092592592592593],[0.078125,-0.5092592592592593],[0.078125,-0.5092592592592593],[0.078125,-0.5092592592592593],[0.078125,-0.5092592592592593],[0.078125,-0.5092592592592593],[0.078125,-0.5092592592592593],[0.078125,-0.5092592592592593],[0.078125,-0.5092592592592593],[0.078125,-0.5092592592592593],[0.078125,-0.5092592592592593],[0.078125,-0.5092592592592593],[0.078125,-0.5092592592592593],[0.078125,-0.5092592592592593],[0.078125,-0.5092592592592593],[0.078125,-0.5092592592592593],[0.078125,-0.5092592592592593],[0.078125,-0.5092592592592593],[0.078125,-0.5092592592592593],[0.078125,-0.5092592592592593],[0.078125,-0.5092592592592593],[0.078125,-0.5092592592592593],[0.078125,-0.5092592592592593],[0.078125,-0.5092592592592593],[0.078125,-0.5092592592592593],[0.078125,-0.5092592592592593],[0.078125,-0.5092592592592593],[0.078125,-0.5092592592592593],[0.078125,-0.5092592592592593],[0.078125,-0.5092592592592593],[0.07708333333333334,-0.5092592592592593],[0.075,-0.5092592592592593],[0.071875,-0.5055555555555555],[0.06979166666666667,-0.5037037037037037],[0.06666666666666667,-0.5],[0.06458333333333334,-0.4962962962962963],[0.06041666666666667,-0.4888888888888889],[0.059375,-0.48703703703703705],[0.057291666666666664,-0.48148148148148145],[0.05520833333333333,-0.4759259259259259],[0.052083333333333336,-0.4703703703703704],[0.05,-0.4648148148148148],[0.04791666666666667,-0.46111111111111114],[0.04479166666666667,-0.45740740740740743],[0.042708333333333334,-0.4537037037037037],[0.03958333333333333,-0.4462962962962963],[0.036458333333333336,-0.4388888888888889],[0.03333333333333333,-0.4351851851851852],[0.030208333333333334,-0.43148148148148147],[0.027083333333333334,-0.4222222222222222],[0.026041666666666668,-0.4185185185185185],[0.022916666666666665,-0.412962962962963],[0.021875,-0.4074074074074074],[0.020833333333333332,-0.40185185185185185],[0.019791666666666666,-0.39444444444444443],[0.019791666666666666,-0.387037037037037],[0.019791666666666666,-0.37962962962962965],[0.019791666666666666,-0.3685185185185185],[0.019791666666666666,-0.3592592592592593],[0.019791666666666666,-0.34629629629629627],[0.019791666666666666,-0.3351851851851852],[0.019791666666666666,-0.32407407407407407],[0.019791666666666666,-0.30925925925925923],[0.019791666666666666,-0.29814814814814816],[0.019791666666666666,-0.28888888888888886],[0.019791666666666666,-0.2777777777777778],[0.019791666666666666,-0.26481481481481484],[0.019791666666666666,-0.2537037037037037],[0.019791666666666666,-0.24074074074074073],[0.019791666666666666,-0.22592592592592592],[0.019791666666666666,-0.21296296296296297],[0.01875,-0.19814814814814816],[0.016666666666666666,-0.18888888888888888],[0.014583333333333334,-0.17777777777777778],[0.011458333333333333,-0.1574074074074074],[0.011458333333333333,-0.14814814814814814],[0.009375,-0.13333333333333333],[0.008333333333333333,-0.12222222222222222],[0.00625,-0.10925925925925926],[0.005208333333333333,-0.1],[0.003125,-0.08518518518518518],[0.0010416666666666667,-0.07777777777777778],[-0.003125,-0.06296296296296296],[-0.005208333333333333,-0.053703703703703705],[-0.007291666666666667,-0.04259259259259259],[-0.011458333333333333,-0.02962962962962963],[-0.015625,-0.012962962962962963],[-0.016666666666666666,-0.005555555555555556],[-0.01875,0.001851851851851852],[-0.020833333333333332,0.009259259259259259],[-0.022916666666666665,0.016666666666666666],[-0.026041666666666668,0.022222222222222223],[-0.028125,0.02962962962962963],[-0.03125,0.03518518518518519],[-0.03333333333333333,0.03888888888888889],[-0.034375,0.04259259259259259],[-0.036458333333333336,0.046296296296296294],[-0.0375,0.04814814814814815],[-0.040625,0.05],[-0.040625,0.05185185185185185],[-0.041666666666666664,0.053703703703703705],[-0.041666666666666664,0.053703703703703705],[-0.041666666666666664,0.053703703703703705],[-0.041666666666666664,0.053703703703703705],[-0.041666666666666664,0.053703703703703705],[-0.041666666666666664,0.053703703703703705],[-0.041666666666666664,0.053703703703703705],[-0.041666666666666664,0.053703703703703705],[-0.041666666666666664,0.053703703703703705],[-0.040625,0.053703703703703705],[-0.035416666666666666,0.05555555555555555],[-0.030208333333333334,0.05740740740740741],[-0.025,0.05925925925925926],[-0.021875,0.05925925925925926],[-0.017708333333333333,0.05925925925925926],[-0.013541666666666667,0.05925925925925926],[-0.009375,0.05925925925925926],[-0.003125,0.05925925925925926],[0.005208333333333333,0.05925925925925926],[0.009375,0.05925925925925926],[0.0125,0.05925925925925926],[0.01875,0.05925925925925926],[0.025,0.05925925925925926],[0.030208333333333334,0.05925925925925926],[0.03229166666666667,0.05925925925925926],[0.035416666666666666,0.05925925925925926],[0.03854166666666667,0.05925925925925926],[0.040625,0.05925925925925926],[0.04375,0.05925925925925926],[0.04583333333333333,0.05925925925925926],[0.04791666666666667,0.05925925925925926],[0.051041666666666666,0.05925925925925926],[0.053125,0.05925925925925926],[0.05625,0.05925925925925926],[0.06145833333333333,0.05740740740740741],[0.06458333333333334,0.05740740740740741],[0.06875,0.05740740740740741],[0.071875,0.05740740740740741],[0.075,0.05555555555555555],[0.078125,0.05555555555555555],[0.08229166666666667,0.05185185185185185],[0.0875,0.05185185185185185],[0.08958333333333333,0.05185185185185185],[0.09270833333333334,0.05185185185185185],[0.09479166666666666,0.05],[0.09895833333333333,0.04814814814814815],[0.10104166666666667,0.04814814814814815],[0.10104166666666667,0.04814814814814815],[0.103125,0.04814814814814815],[0.10416666666666667,0.046296296296296294],[0.10625,0.046296296296296294],[0.10625,0.046296296296296294],[0.10729166666666666,0.046296296296296294],[0.109375,0.046296296296296294],[0.11041666666666666,0.046296296296296294],[0.11041666666666666,0.046296296296296294],[0.11145833333333334,0.046296296296296294],[0.11354166666666667,0.046296296296296294],[0.11458333333333333,0.046296296296296294],[0.115625,0.046296296296296294],[0.11770833333333333,0.046296296296296294],[0.11875,0.046296296296296294],[0.11979166666666667,0.046296296296296294],[0.121875,0.046296296296296294],[0.12291666666666666,0.046296296296296294],[0.125,0.046296296296296294],[0.12708333333333333,0.046296296296296294],[0.128125,0.046296296296296294],[0.128125,0.046296296296296294],[0.13020833333333334,0.046296296296296294],[0.13125,0.046296296296296294],[0.13125,0.046296296296296294],[0.13229166666666667,0.046296296296296294],[0.13229166666666667,0.04814814814814815],[0.13229166666666667,0.04814814814814815],[0.13229166666666667,0.04814814814814815],[0.13333333333333333,0.04814814814814815],[0.13333333333333333,0.04814814814814815],[0.13333333333333333,0.04814814814814815],[0.13333333333333333,0.04814814814814815],[0.13333333333333333,0.04814814814814815],[0.13333333333333333,0.04814814814814815],[0.13333333333333333,0.04814814814814815],[0.13333333333333333,0.04814814814814815],[0.13333333333333333,0.04814814814814815],[0.13333333333333333,0.04814814814814815],[0.13333333333333333,0.04814814814814815],[0.13333333333333333,0.04814814814814815],[0.13333333333333333,0.04814814814814815],[0.13333333333333333,0.04814814814814815],[0.13333333333333333,0.04814814814814815],[0.13333333333333333,0.04814814814814815],[0.13333333333333333,0.04814814814814815],[0.13333333333333333,0.04814814814814815],[0.13333333333333333,0.04814814814814815],[0.13333333333333333,0.04814814814814815],[0.13333333333333333,0.04814814814814815],[0.13333333333333333,0.04814814814814815],[0.13333333333333333,0.04814814814814815],[0.13333333333333333,0.04814814814814815],[0.13333333333333333,0.04814814814814815],[0.13333333333333333,0.04814814814814815],[0.13333333333333333,0.04814814814814815],[0.13333333333333333,0.04814814814814815],[0.13333333333333333,0.04814814814814815],[0.13333333333333333,0.04814814814814815],[0.13333333333333333,0.04814814814814815],[0.13333333333333333,0.04814814814814815],[0.13333333333333333,0.04814814814814815],[0.13333333333333333,0.04814814814814815],[0.13333333333333333,0.04814814814814815],[0.13333333333333333,0.04814814814814815],[0.13333333333333333,0.04814814814814815],[0.13645833333333332,0.05],[0.13854166666666667,0.05],[0.140625,0.05],[0.14166666666666666,0.05185185185185185],[0.14270833333333333,0.05185185185185185],[0.14479166666666668,0.05185185185185185],[0.14583333333333334,0.05185185185185185],[0.146875,0.05185185185185185],[0.146875,0.05185185185185185],[0.14895833333333333,0.05185185185185185],[0.15,0.05185185185185185],[0.15,0.05185185185185185],[0.15,0.05185185185185185],[0.15,0.05185185185185185],[0.15,0.05185185185185185],[0.15,0.05185185185185185],[0.15,0.05185185185185185],[0.15,0.05185185185185185],[0.15,0.05185185185185185],[0.15,0.05185185185185185],[0.15,0.05185185185185185],[0.14895833333333333,0.05185185185185185],[0.14270833333333333,0.05185185185185185],[0.13229166666666667,0.05],[0.12395833333333334,0.04814814814814815],[0.11666666666666667,0.04814814814814815],[0.11041666666666666,0.04814814814814815],[0.10416666666666667,0.04814814814814815],[0.10104166666666667,0.04814814814814815],[0.09479166666666666,0.04814814814814815],[0.08854166666666667,0.04814814814814815],[0.084375,0.04814814814814815],[0.08125,0.04814814814814815],[0.07708333333333334,0.04814814814814815],[0.071875,0.04814814814814815],[0.06770833333333333,0.04814814814814815],[0.06354166666666666,0.05185185185185185],[0.06041666666666667,0.05185185185185185],[0.057291666666666664,0.05740740740740741],[0.05625,0.05740740740740741],[0.052083333333333336,0.06296296296296296],[0.051041666666666666,0.06296296296296296],[0.04895833333333333,0.06851851851851852],[0.04791666666666667,0.07222222222222222],[0.04583333333333333,0.07962962962962963],[0.04583333333333333,0.08703703703703704],[0.04583333333333333,0.09444444444444444],[0.04583333333333333,0.10185185185185185],[0.04583333333333333,0.10740740740740741],[0.04583333333333333,0.11851851851851852],[0.04895833333333333,0.12777777777777777],[0.05416666666666667,0.13518518518518519],[0.0625,0.1425925925925926],[0.071875,0.15185185185185185],[0.07708333333333334,0.15185185185185185],[0.08020833333333334,0.1537037037037037],[0.08333333333333333,0.1537037037037037],[0.08645833333333333,0.1537037037037037],[0.08958333333333333,0.1537037037037037],[0.09583333333333334,0.1537037037037037],[0.10104166666666667,0.14629629629629629],[0.10520833333333333,0.14074074074074075],[0.115625,0.13333333333333333],[0.125,0.1259259259259259],[0.134375,0.11851851851851852],[0.14791666666666667,0.10925925925925926],[0.15520833333333334,0.10925925925925926],[0.16041666666666668,0.10925925925925926],[0.16354166666666667,0.10925925925925926],[0.16354166666666667,0.10925925925925926],[0.165625,0.1111111111111111],[0.165625,0.11851851851851852],[0.165625,0.12777777777777777],[0.165625,0.13518518518518519],[0.16666666666666666,0.1425925925925926],[0.16770833333333332,0.14814814814814814],[0.16770833333333332,0.15185185185185185],[0.16979166666666667,0.15555555555555556],[0.16979166666666667,0.1574074074074074],[0.16979166666666667,0.15925925925925927],[0.16979166666666667,0.15925925925925927],[0.16979166666666667,0.15925925925925927],[0.16979166666666667,0.15925925925925927],[0.16979166666666667,0.15925925925925927],[0.16979166666666667,0.15925925925925927],[0.16979166666666667,0.15925925925925927],[0.16979166666666667,0.15925925925925927],[0.16979166666666667,0.15925925925925927],[0.16979166666666667,0.15925925925925927],[0.16979166666666667,0.15925925925925927],[0.16979166666666667,0.15925925925925927],[0.16979166666666667,0.15925925925925927],[0.16979166666666667,0.15925925925925927],[0.16979166666666667,0.15925925925925927],[0.16979166666666667,0.15925925925925927],[0.16979166666666667,0.15925925925925927],[0.16979166666666667,0.15925925925925927],[0.16979166666666667,0.15925925925925927],[0.16979166666666667,0.15925925925925927],[0.16979166666666667,0.15925925925925927],[0.16979166666666667,0.15925925925925927],[0.16979166666666667,0.15925925925925927],[0.16979166666666667,0.15925925925925927],[0.16979166666666667,0.15925925925925927],[0.16979166666666667,0.15925925925925927],[0.16979166666666667,0.15925925925925927],[0.17083333333333334,0.15925925925925927],[0.17291666666666666,0.16111111111111112],[0.17395833333333333,0.16296296296296298],[0.17708333333333334,0.1648148148148148],[0.17916666666666667,0.16666666666666666],[0.17916666666666667,0.16666666666666666],[0.17916666666666667,0.16666666666666666],[0.17916666666666667,0.16666666666666666],[0.17916666666666667,0.16666666666666666],[0.17916666666666667,0.16666666666666666],[0.17916666666666667,0.16666666666666666],[0.17916666666666667,0.16666666666666666],[0.17916666666666667,0.16666666666666666],[0.17916666666666667,0.16666666666666666],[0.17916666666666667,0.16666666666666666],[0.17916666666666667,0.16666666666666666],[0.17916666666666667,0.16666666666666666],[0.17916666666666667,0.16666666666666666],[0.17916666666666667,0.16666666666666666],[0.17916666666666667,0.16666666666666666],[0.17916666666666667,0.16666666666666666],[0.18229166666666666,0.16666666666666666],[0.18229166666666666,0.16666666666666666],[0.18333333333333332,0.16666666666666666],[0.18541666666666667,0.16666666666666666],[0.18645833333333334,0.16666666666666666],[0.1875,0.16666666666666666],[0.18958333333333333,0.1648148148148148],[0.18958333333333333,0.15555555555555556],[0.19270833333333334,0.12777777777777777],[0.19583333333333333,0.1111111111111111],[0.20104166666666667,0.09259259259259259],[0.20416666666666666,0.07407407407407407],[0.20729166666666668,0.05740740740740741],[0.21041666666666667,0.03888888888888889],[0.21458333333333332,0.018518518518518517],[0.21770833333333334,0],[0.21770833333333334,-0.009259259259259259],[0.22083333333333333,-0.018518518518518517]]","[[0.1556250000000001,-0.015370370370370286],[0.1556250000000001,-0.015370370370370286],[0.15031249999999996,0.009814814814814731],[0.15031249999999996,0.009814814814814731],[0.10447916666666662,0.010185185185185186],[0.10447916666666662,0.010185185185185186],[0.06833333333333323,0.02296296296296292],[0.06833333333333323,0.02296296296296292],[0.016875000000000046,0.018333333333333292],[0.016875000000000046,0.018333333333333292],[0.010520833333333358,0.025185185185185227],[0.010520833333333358,0.025185185185185227],[-0.0018749999999999527,0.03814814814814819],[0.0034374999999999527,0.06277777777777774],[0.02781250000000005,0.10092592592592593],[0.02781250000000005,0.10092592592592593],[0.025520833333333333,0.10722222222222218],[0.020833333333333332,0.06814814814814807],[0.02354166666666669,0.07166666666666675],[0.030520833333333285,0.05537037037037033],[0.050416666666666644,0.0705555555555556],[0.06916666666666677,0.07314814814814814],[0.06916666666666677,0.07314814814814814],[0.06031249999999998,0.10018518518518522],[0.05645833333333338,0.12537037037037047],[0.05447916666666662,0.1300000000000001],[0.05281250000000005,0.1537037037037037],[0.050312499999999954,0.18425925925925926],[0.03177083333333333,0.21851851851851853],[0.03177083333333333,0.21851851851851853],[0.03447916666666669,0.2331481481481481],[0.035520833333333356,0.26722222222222214],[0.035312499999999976,0.27148148148148155],[0.049479166666666664,0.30037037037037045],[0.07364583333333338,0.3138888888888889],[0.0884375000000001,0.32592592592592595],[0.10135416666666662,0.35851851851851857],[0.12010416666666662,0.35833333333333334],[0.09770833333333329,0.34018518518518526],[0.06395833333333331,0.2946296296296297],[0.050625000000000024,0.2844444444444445],[0.050729166666666714,0.26185185185185184],[0.04656250000000005,0.26888888888888896],[0.03708333333333336,0.2611111111111111],[0.036458333333333336,0.26648148148148143],[0.035312499999999976,0.2611111111111111],[0.03812500000000003,0.26888888888888896],[0.012916666666666642,0.2479629629629629],[0.012916666666666642,0.2479629629629629],[0.017499999999999953,0.26703703703703713],[0.06145833333333333,0.2905555555555555],[0.07374999999999995,0.30648148148148147],[0.07666666666666658,0.32944444444444443],[0.08697916666666666,0.34333333333333327],[0.07291666666666667,0.36314814814814816],[0.07760416666666667,0.3851851851851852],[0.07760416666666667,0.3851851851851852],[0.0865624999999999,0.3731481481481482],[0.0865624999999999,0.3731481481481482],[0.07249999999999991,0.36740740740740735],[0.06697916666666662,0.381111111111111],[0.08031249999999991,0.38981481481481484],[0.08031249999999991,0.38981481481481484],[0.04729166666666664,0.40925925925925927],[0.04729166666666664,0.40925925925925927],[0.02781250000000005,0.4251851851851852],[0.030729166666666665,0.3990740740740741],[0.01906249999999995,0.4107407407407407],[0.022916666666666665,0.40666666666666673],[0.022916666666666665,0.40666666666666673],[0.021979166666666692,0.39018518518518525],[0.006979166666666714,0.3990740740740741],[0.005729166666666666,0.38981481481481484],[0.005729166666666666,0.38981481481481484],[0.03791666666666664,0.4012962962962964],[0.034375,0.38851851851851843],[0.04812500000000005,0.3794444444444444],[0.06614583333333333,0.380925925925926],[0.06312500000000003,0.43129629629629623],[0.07312500000000005,0.44888888888888884],[0.0984375,0.47092592592592586],[0.09812500000000005,0.4874074074074075],[0.12218749999999995,0.5255555555555554],[0.14552083333333338,0.5659259259259259],[0.14552083333333338,0.5659259259259259],[0.1337500000000001,0.5924074074074074],[0.16072916666666662,0.5862962962962963],[0.16072916666666662,0.5862962962962963],[0.14489583333333325,0.6042592592592592],[0.1368750000000001,0.6224074074074074],[0.1234375,0.6390740740740741],[0.12999999999999995,0.6072222222222222],[0.12218749999999995,0.5835185185185185],[0.10656249999999995,0.5535185185185185],[0.08729166666666661,0.5185185185185185],[0.08177083333333333,0.4737037037037036],[0.07218749999999995,0.43148148148148147],[0.04031250000000005,0.42407407407407405],[0.052291666666666715,0.40111111111111114],[0.04020833333333336,0.37240740740740746],[0.028125,0.34370370370370373],[0.002916666666666619,0.35037037037037044],[0.002916666666666619,0.35037037037037044],[-0.013750000000000047,0.3357407407407407],[-0.021875,0.33277777777777784],[-0.02020833333333331,0.33055555555555555],[-0.024791666666666618,0.3475925925925927],[-0.029375000000000047,0.3646296296296296],[-0.014895833333333285,0.369074074074074],[-0.012187500000000047,0.3651851851851853],[0.017708333333333333,0.36129629629629634],[0.03125,0.3411111111111112],[0.06135416666666664,0.32833333333333325],[0.06677083333333324,0.32944444444444443],[0.11364583333333324,0.31444444444444436],[0.11145833333333334,0.30648148148148147],[0.1078125,0.2855555555555556],[0.10458333333333343,0.2598148148148147],[0.1118750000000001,0.2594444444444445],[0.13479166666666675,0.24722222222222223],[0.146875,0.21888888888888897],[0.146875,0.21888888888888897],[0.1646874999999999,0.20500000000000007],[0.1646874999999999,0.20500000000000007],[0.14968750000000006,0.18111111111111103],[0.14968750000000006,0.18111111111111103],[0.1616666666666667,0.16314814814814818],[0.1616666666666667,0.16314814814814818],[0.1359375,0.14629629629629629],[0.1382291666666667,0.14092592592592595],[0.1382291666666667,0.14092592592592595],[0.134375,0.12240740740740745],[0.134375,0.12240740740740745],[0.13552083333333323,0.11092592592592589],[0.11833333333333323,0.0824074074074074],[0.0740624999999999,0.08351851851851856],[0.04114583333333333,0.06629629629629621],[0.011562500000000024,0.06333333333333342],[0.035520833333333356,0.06518518518518526],[0.025833333333333285,0.06351851851851843],[0.008854166666666666,0.06055555555555564],[0.023958333333333335,0.03777777777777774],[0.033749999999999974,0.03185185185185194],[0.033749999999999974,0.03185185185185194],[0.04520833333333331,0.0025925925925925505],[0.06281249999999995,-0.013333333333333417],[0.08989583333333329,-0.032777777777777864],[0.10760416666666663,-0.039629629629629584],[0.11791666666666671,-0.0455555555555556],[0.10437500000000005,-0.06425925925925924],[0.1056250000000001,-0.07166666666666664],[0.09708333333333338,-0.06833333333333329],[0.06885416666666658,-0.07185185185185188],[0.052083333333333336,-0.07907407407407405],[0.04541666666666669,-0.05259259259259255],[0.027499999999999976,-0.05240740740740743],[0.02333333333333331,-0.05814814814814811],[0.022500000000000023,-0.040740740740740744],[0.012187500000000047,-0.03722222222222227],[0.0013541666666666192,-0.046296296296296294],[-0.019375000000000024,-0.03981481481481482],[0.0034374999999999527,-0.0485185185185186],[0.03291666666666669,-0.021481481481481525],[0.04364583333333331,-0.03462962962962971],[0.042708333333333334,-0.053703703703703705],[0.042708333333333334,-0.053703703703703705],[0.06041666666666667,-0.04944444444444453],[0.0828125,-0.03851851851851843],[0.0828125,-0.03851851851851843],[0.07249999999999991,-0.056666666666666705],[0.08302083333333338,-0.056851851851851834],[0.07864583333333333,-0.04870370370370362],[0.07864583333333333,-0.04870370370370362],[0.07864583333333333,-0.03518518518518519],[0.06229166666666662,-0.030740740740740784],[0.06229166666666662,-0.030740740740740784],[0.03427083333333331,-0.039629629629629584],[0.03083333333333336,-0.03981481481481482],[0.029895833333333382,-0.012407407407407492],[0,0.007037037037036953],[-0.02302083333333336,0.026851851851851852],[-0.02302083333333336,0.026851851851851852],[-0.01885416666666669,0.03351851851851856],[-0.01229166666666662,0.007962962962962878],[-0.01229166666666662,0.007962962962962878],[0.028854166666666715,0.016111111111111194],[0.07416666666666671,0.01962962962962967],[0.10750000000000005,0.034999999999999955],[0.10833333333333334,0.03833333333333342],[0.10010416666666658,0.04740740740740745],[0.11229166666666662,0.0492592592592593],[0.13020833333333334,0.02962962962962963],[0.13322916666666676,0.019259259259259216],[0.12468750000000005,0.04796296296296292],[0.13125,0.06870370370370374],[0.09697916666666657,0.06870370370370374],[0.07854166666666676,0.052407407407407326],[0.06479166666666672,0.06277777777777774],[0.06166666666666672,0.034999999999999955],[0.09812500000000005,0.056666666666666705],[0.10354166666666677,0.043703703703703745],[0.10260416666666666,0.055000000000000084],[0.10260416666666666,0.055000000000000084],[0.109375,0.05],[0.11531250000000005,0.03092592592592601],[0.1209374999999999,0.018703703703703747],[0.1109375,0.024074074074074074],[0.1046875,0.026111111111111154],[0.09729166666666676,0.011296296296296339],[0.09729166666666676,0.011296296296296339],[0.13322916666666676,0.021851851851851768],[0.15031249999999996,0.027222222222222307],[0.17000000000000004,0.04018518518518527],[0.14947916666666666,0.0338888888888888],[0.12458333333333324,0.02759259259259255],[0.1267708333333334,0.04055555555555551],[0.1267708333333334,0.04055555555555551],[0.12114583333333329,0.046481481481481526],[0.1321875000000001,0.0455555555555556],[0.15187499999999995,0.05277777777777778],[0.17156250000000003,0.059999999999999956],[0.1736458333333334,0.07703703703703708],[0.14614583333333328,0.07370370370370362],[0.11864583333333342,0.07037037037037037],[0.13291666666666657,0.08759259259259251],[0.14718749999999994,0.10481481481481486],[0.18614583333333337,0.12777777777777777],[0.21906249999999997,0.1737037037037036],[0.22395833333333334,0.18222222222222217],[0.22822916666666657,0.1883333333333334],[0.23250000000000004,0.19444444444444445],[0.21916666666666676,0.21092592592592588],[0.2179166666666667,0.22925925925925916],[0.23427083333333343,0.25259259259259254],[0.24874999999999994,0.27037037037037037],[0.26291666666666674,0.2588888888888888],[0.24520833333333342,0.23203703703703696],[0.21552083333333344,0.19944444444444454],[0.21979166666666666,0.19814814814814816],[0.21979166666666666,0.19814814814814816],[0.2007291666666667,0.20333333333333325],[0.2007291666666667,0.20333333333333325],[0.22229166666666675,0.20629629629629626],[0.22229166666666675,0.20629629629629626],[0.23427083333333343,0.2007407407407407],[0.23427083333333343,0.2007407407407407],[0.23968749999999991,0.21222222222222226],[0.24562499999999995,0.1896296296296296],[0.24562499999999995,0.1896296296296296],[0.2630208333333333,0.16148148148148156],[0.2630208333333333,0.16148148148148156],[0.27708333333333335,0.1757407407407407],[0.2476041666666667,0.19796296296296292],[0.2547916666666666,0.24092592592592596],[0.26197916666666665,0.2838888888888888],[0.2826041666666666,0.2868518518518518],[0.2826041666666666,0.2868518518518518],[0.2443749999999999,0.2603703703703704],[0.23156249999999995,0.23055555555555557],[0.20989583333333334,0.20851851851851855],[0.18781249999999997,0.19203703703703712],[0.1603125000000001,0.19185185185185188],[0.13635416666666675,0.17851851851851847],[0.16697916666666662,0.12981481481481486],[0.16697916666666662,0.12981481481481486],[0.17291666666666666,0.06611111111111119],[0.1788541666666667,0.03629629629629634],[0.1544791666666666,0.04129629629629621],[0.1544791666666666,0.04129629629629621],[0.14562499999999995,0.07851851851851847],[0.14562499999999995,0.07851851851851847],[0.1650000000000001,0.08481481481481473],[0.1650000000000001,0.08481481481481473],[0.18458333333333338,0.09648148148148153],[0.1709374999999999,0.13222222222222219],[0.1709374999999999,0.13222222222222219],[0.16020833333333329,0.1574074074074074],[0.1794791666666666,0.1588888888888888],[0.17625000000000005,0.1544444444444444],[0.16104166666666658,0.1544444444444444],[0.14385416666666656,0.09814814814814815],[0.14729166666666677,0.05722222222222218],[0.1631249999999999,0.002407407407407323],[0.14291666666666672,-0.01055555555555564],[0.15927083333333342,-0.06148148148148146],[0.17572916666666671,-0.08925925925925923],[0.19500000000000003,-0.12444444444444443],[0.18937499999999996,-0.13925925925925925],[0.1712500000000001,-0.12759259259259256],[0.16635416666666672,-0.13185185185185183],[0.1634375000000001,-0.11370370370370367],[0.15031249999999996,-0.1411111111111111],[0.1359375,-0.12388888888888884],[0.13114583333333343,-0.1161111111111111],[0.11927083333333334,-0.11018518518518519],[0.10791666666666658,-0.11888888888888886],[0.1046875,-0.10574074074074079],[0.09645833333333324,-0.08925925925925923],[0.09375,-0.09611111111111106],[0.09156250000000009,-0.07888888888888893],[0.09135416666666671,-0.05703703703703706],[0.10270833333333323,-0.015000000000000043],[0.08499999999999991,-0.03518518518518519],[0.08499999999999991,-0.03518518518518519],[0.06593749999999995,-0.041111111111111195],[0.05239583333333329,-0.03351851851851856],[0.05375000000000003,-0.034999999999999955],[0.04854166666666669,-0.07666666666666662],[0.03250000000000005,-0.0977777777777778],[0.03697916666666667,-0.1096296296296296],[0.03968750000000002,-0.13407407407407404],[0.02364583333333338,-0.15722222222222218],[0.007604166666666619,-0.18037037037037032],[0.03718750000000005,-0.15925925925925927],[0.03718750000000005,-0.15925925925925927],[0.0421875,-0.16814814814814816],[0.051145833333333356,-0.1727777777777778],[0.060104166666666715,-0.17740740740740743],[0.04666666666666662,-0.16129629629629633],[0.044062499999999956,-0.16574074074074074],[0.03895833333333331,-0.16129629629629633],[0.033854166666666664,-0.15685185185185183],[0.04135416666666671,-0.1492592592592593],[0.04885416666666664,-0.14166666666666666],[0.04010416666666667,-0.13222222222222219],[0.057291666666666664,-0.10703703703703706],[0.03875000000000005,-0.10907407407407403],[0.02020833333333331,-0.1111111111111111],[0.02791666666666662,-0.12148148148148152],[0.02791666666666662,-0.12148148148148152],[0.03125,-0.12222222222222222],[0.03125,-0.11425925925925924],[0.03125,-0.10629629629629625],[0.04906250000000002,-0.09833333333333337],[0.06687500000000005,-0.09037037037037039],[0.06708333333333343,-0.08888888888888889],[0.06708333333333343,-0.08888888888888889],[0.06729166666666657,-0.08740740740740739],[0.08520833333333329,-0.08703703703703704],[0.10427083333333324,-0.08574074074074076],[0.11510416666666666,-0.07111111111111107],[0.13031249999999991,-0.06611111111111109],[0.12999999999999995,-0.08425925925925926],[0.1296875,-0.10240740740740743],[0.13562500000000005,-0.08314814814814811],[0.14114583333333333,-0.07574074074074069],[0.13864583333333325,-0.10185185185185185],[0.13614583333333338,-0.127962962962963],[0.140625,-0.125],[0.1609375,-0.1190740740740741],[0.18125,-0.11314814814814819],[0.1959374999999999,-0.10851851851851856],[0.1959374999999999,-0.10851851851851856],[0.22260416666666671,-0.08722222222222227],[0.2685416666666666,-0.019999999999999917],[0.26708333333333345,-0.051111111111111156],[0.2734375,-0.053703703703703705],[0.28010416666666677,-0.04314814814814806],[0.29104166666666675,-0.02962962962962963],[0.2908333333333334,-0.0338888888888888],[0.27364583333333337,-0.04203703703703712],[0.27364583333333337,-0.04203703703703712],[0.2542708333333332,-0.059999999999999956],[0.2542708333333332,-0.059999999999999956],[0.2508333333333333,-0.05425925925925928],[0.2508333333333333,-0.05425925925925928],[0.23739583333333342,-0.06259259259259262],[0.23739583333333342,-0.06259259259259262],[0.21447916666666675,-0.11648148148148144],[0.221875,-0.08185185185185183],[0.221875,-0.08185185185185183],[0.20187499999999994,-0.07962962962962963],[0.20187499999999994,-0.07962962962962963],[0.20593750000000005,-0.09722222222222222],[0.2133333333333333,-0.08629629629629634],[0.21083333333333343,-0.0883333333333333],[0.2228125000000001,-0.05962962962962961],[0.22625000000000003,-0.05259259259259255],[0.21979166666666666,-0.0690740740740741],[0.2228125000000001,-0.07759259259259255],[0.2228125000000001,-0.07759259259259255],[0.21604166666666677,-0.08648148148148146],[0.20083333333333328,-0.122037037037037],[0.21145833333333333,-0.12740740740740744],[0.21458333333333332,-0.10129629629629627],[0.21062500000000003,-0.1111111111111111],[0.2127083333333334,-0.09907407407407408],[0.1898958333333333,-0.1374074074074074],[0.17781250000000004,-0.14425925925925923],[0.16479166666666673,-0.15092592592592594],[0.14697916666666658,-0.1485185185185185],[0.12916666666666668,-0.14611111111111108],[0.12374999999999996,-0.14240740740740737],[0.12281250000000009,-0.15129629629629626],[0.12281250000000009,-0.15129629629629626],[0.12531249999999997,-0.1809259259259259],[0.1087500000000001,-0.19092592592592597],[0.1087500000000001,-0.19092592592592597],[0.11260416666666657,-0.20870370370370367],[0.12604166666666666,-0.21944444444444444]]","[[0.1556250000000001,-0.015370370370370286,0.0003000001907338401],[0.1556250000000001,-0.015370370370370286,0.05299999999999727],[0.15031249999999996,0.009814814814814731,0.07800000000000296],[0.15031249999999996,0.009814814814814731,0.08899999999999864],[0.10447916666666662,0.010185185185185186,0.10090000009536482],[0.10447916666666662,0.010185185185185186,0.1084000000953651],[0.06833333333333323,0.02296296296296292,0.122400000095368],[0.06833333333333323,0.02296296296296292,0.13909999990463007],[0.016875000000000046,0.018333333333333292,0.15590000009536453],[0.016875000000000046,0.018333333333333292,0.1725999999046337],[0.010520833333333358,0.025185185185185227,0.1893000001907339],[0.010520833333333358,0.025185185185185227,0.2059000000953688],[-0.0018749999999999527,0.03814814814814819,0.22240000009536942],[0.0034374999999999527,0.06277777777777774,0.23899999999999721],[0.02781250000000005,0.10092592592592593,0.2556999998092664],[0.02781250000000005,0.10092592592592593,0.2724000000953666],[0.025520833333333333,0.10722222222222218,0.28909999990463575],[0.020833333333333332,0.06814814814814807,0.30569999980926355],[0.02354166666666669,0.07166666666666675,0.3251999998092643],[0.030520833333333285,0.05537037037037033,0.3404999999999987],[0.050416666666666644,0.0705555555555556,0.3609999999999971],[0.06916666666666677,0.07314814814814814,0.377599999904632],[0.06916666666666677,0.07314814814814814,0.38909999990463007],[0.06031249999999998,0.10018518518518522,0.40580000019073736],[0.05645833333333338,0.12537037037037047,0.42240000009536516],[0.05447916666666662,0.1300000000000001,0.44250000000000256],[0.05281250000000005,0.1537037037037037,0.45769999980926457],[0.050312499999999954,0.18425925925925926,0.47259999990463086],[0.03177083333333333,0.21851851851851853,0.4964999999999975],[0.03177083333333333,0.21851851851851853,0.5058000001907317],[0.03447916666666669,0.2331481481481481,0.5223000001907323],[0.035520833333333356,0.26722222222222214,0.5391999998092629],[0.035312499999999976,0.27148148148148155,0.5595999999046342],[0.049479166666666664,0.30037037037037045,0.5759000000953662],[0.07364583333333338,0.3138888888888889,0.5921999998092673],[0.0884375000000001,0.32592592592592595,0.6091999998092632],[0.10135416666666662,0.35851851851851857,0.6245999999046319],[0.12010416666666662,0.35833333333333334,0.6405999999046301],[0.09770833333333329,0.34018518518518526,0.655699999809265],[0.06395833333333331,0.2946296296296297,0.673099999904629],[0.050625000000000024,0.2844444444444445,0.6916999998092663],[0.050729166666666714,0.26185185185185184,0.7071999998092622],[0.04656250000000005,0.26888888888888896,0.722999999999999],[0.03708333333333336,0.2611111111111111,0.7413000001907335],[0.036458333333333336,0.26648148148148143,0.7565000000000026],[0.035312499999999976,0.2611111111111111,0.7730999999046304],[0.03812500000000003,0.26888888888888896,0.7923000001907354],[0.012916666666666642,0.2479629629629629,0.8085999999046294],[0.012916666666666642,0.2479629629629629,0.8224000000953637],[0.017499999999999953,0.26703703703703713,0.8391999998092672],[0.06145833333333333,0.2905555555555555,0.8590000000000018],[0.07374999999999995,0.30648148148148147,0.8756999998092638],[0.07666666666666658,0.32944444444444443,0.8931999998092621],[0.08697916666666666,0.34333333333333327,0.9093000001907328],[0.07291666666666667,0.36314814814814816,0.9258000001907334],[0.07760416666666667,0.3851851851851852,0.9443000001907365],[0.07760416666666667,0.3851851851851852,0.9558000001907345],[0.0865624999999999,0.3731481481481482,0.9724999999999966],[0.0865624999999999,0.3731481481481482,0.9890999999046315],[0.07249999999999991,0.36740740740740735,1.005900000095366],[0.06697916666666662,0.381111111111111,1.0249000000953643],[0.08031249999999991,0.38981481481481484,1.044400000095365],[0.08031249999999991,0.38981481481481484,1.0626999998092614],[0.04729166666666664,0.40925925925925927,1.0774000000953663],[0.04729166666666664,0.40925925925925927,1.0889999999999986],[0.02781250000000005,0.4251851851851852,1.105800000190733],[0.030729166666666665,0.3990740740740741,1.122400000095368],[0.01906249999999995,0.4107407407407407,1.139000000000003],[0.022916666666666665,0.40666666666666673,1.155699999809265],[0.022916666666666665,0.40666666666666673,1.1724000000953652],[0.021979166666666692,0.39018518518518525,1.189],[0.006979166666666714,0.3990740740740741,1.2056999998092621],[0.005729166666666666,0.38981481481481484,1.2349999999999994],[0.005729166666666666,0.38981481481481484,1.2413000001907335],[0.03791666666666664,0.4012962962962964,1.255900000095366],[0.034375,0.38851851851851843,1.2725999999046351],[0.04812500000000005,0.3794444444444444,1.290699999809263],[0.06614583333333333,0.380925925925926,1.3059000000953702],[0.06312500000000003,0.43129629629629623,1.3250000000000028],[0.07312500000000005,0.44888888888888884,1.3410999999046354],[0.0984375,0.47092592592592586,1.3559000000953674],[0.09812500000000005,0.4874074074074075,1.3725999999046294],[0.12218749999999995,0.5255555555555554,1.3891999998092643],[0.14552083333333338,0.5659259259259259,1.4074000000953646],[0.14552083333333338,0.5659259259259259,1.4224999999999994],[0.1337500000000001,0.5924074074074074,1.439300000190734],[0.16072916666666662,0.5862962962962963,1.458599999904635],[0.16072916666666662,0.5862962962962963,1.4725999999046309],[0.14489583333333325,0.6042592592592592,1.4894000000953653],[0.1368750000000001,0.6224074074074074,1.5060000000000002],[0.1234375,0.6390740740740741,1.5249000000953643],[0.12999999999999995,0.6072222222222222,1.5411999998092654],[0.12218749999999995,0.5835185185185185,1.5559999999999974],[0.10656249999999995,0.5535185185185185,1.5725999999046323],[0.08729166666666661,0.5185185185185185,1.591000000000001],[0.08177083333333333,0.4737037037037036,1.6060999999046288],[0.07218749999999995,0.43148148148148147,1.6228000001907361],[0.04031250000000005,0.42407407407407405,1.6391999998092643],[0.052291666666666715,0.40111111111111114,1.6574000000953646],[0.04020833333333336,0.37240740740740746,1.6724999999999994],[0.028125,0.34370370370370373,1.689300000190734],[0.002916666666666619,0.35037037037037044,1.708199999809267],[0.002916666666666619,0.35037037037037044,1.7224999999999966],[-0.013750000000000047,0.3357407407407407,1.739300000190731],[-0.021875,0.33277777777777784,1.7573000001907317],[-0.02020833333333331,0.33055555555555555,1.7725000000000009],[-0.024791666666666618,0.3475925925925927,1.7893000001907353],[-0.029375000000000047,0.3646296296296296,1.8078000001907313],[-0.014895833333333285,0.369074074074074,1.8225999999046323],[-0.012187500000000047,0.3651851851851853,1.8391999998092672],[0.017708333333333333,0.36129629629629634,1.8585999999046336],[0.03125,0.3411111111111112,1.8748000001907315],[0.06135416666666664,0.32833333333333325,1.8914000000953664],[0.06677083333333324,0.32944444444444443,1.9076999998092674],[0.11364583333333324,0.31444444444444436,1.9225999999046337],[0.11145833333333334,0.30648148148148147,1.939300000190734],[0.1078125,0.2855555555555556,1.9579000000953641],[0.10458333333333343,0.2598148148148147,1.9724999999999966],[0.1118750000000001,0.2594444444444445,1.9891999998092658],[0.13479166666666675,0.24722222222222223,2.0058000001907317],[0.146875,0.21888888888888897,2.0256999998092624],[0.146875,0.21888888888888897,2.039199999809263],[0.1646874999999999,0.20500000000000007,2.05590000009537],[0.1646874999999999,0.20500000000000007,2.072499999999998],[0.14968750000000006,0.18111111111111103,2.092400000095367],[0.14968750000000006,0.18111111111111103,2.105800000190733],[0.1616666666666667,0.16314814814814818,2.1225999999046294],[0.1616666666666667,0.16314814814814818,2.13909999990463],[0.1359375,0.14629629629629629,2.159099999904633],[0.1382291666666667,0.14092592592592595,2.1779999999999973],[0.1382291666666667,0.14092592592592595,2.1895000000000024],[0.134375,0.12240740740740745,2.2058000001907345],[0.134375,0.12240740740740745,2.2250999999046357],[0.13552083333333323,0.11092592592592589,2.2394000000953653],[0.11833333333333323,0.0824074074074074,2.2560000000000002],[0.0740624999999999,0.08351851851851856,2.2769000000953667],[0.04114583333333333,0.06629629629629621,2.2915999999046335],[0.011562500000000024,0.06333333333333342,2.30590000009537],[0.035520833333333356,0.06518518518518526,2.322499999999998],[0.025833333333333285,0.06351851851851843,2.342500000000001],[0.008854166666666666,0.06055555555555564,2.3569999999999993],[0.023958333333333335,0.03777777777777774,2.3725000000000023],[0.033749999999999974,0.03185185185185194,2.3951999998092646],[0.033749999999999974,0.03185185185185194,2.405699999809265],[0.04520833333333331,0.0025925925925925505,2.422300000190738],[0.06281249999999995,-0.013333333333333417,2.439],[0.08989583333333329,-0.032777777777777864,2.455699999809262],[0.10760416666666663,-0.039629629629629584,2.472699999809265],[0.11791666666666671,-0.0455555555555556,2.490000000000002],[0.10437500000000005,-0.06425925925925924,2.5075000000000003],[0.1056250000000001,-0.07166666666666664,2.5224000000953666],[0.09708333333333338,-0.06833333333333329,2.5419000000953673],[0.06885416666666658,-0.07185185185185188,2.556199999809266],[0.052083333333333336,-0.07907407407407405,2.572900000095366],[0.04541666666666669,-0.05259259259259255,2.593900000095367],[0.027499999999999976,-0.05240740740740743,2.609900000095365],[0.02333333333333331,-0.05814814814814811,2.626900000095368],[0.022500000000000023,-0.040740740740740744,2.6445000000000007],[0.012187500000000047,-0.03722222222222227,2.6589000000953646],[0.0013541666666666192,-0.046296296296296294,2.675699999809268],[-0.019375000000000024,-0.03981481481481482,2.694499999999998],[0.0034374999999999527,-0.0485185185185186,2.7090999999046304],[0.03291666666666669,-0.021481481481481525,2.7230999999046333],[0.04364583333333331,-0.03462962962962971,2.739300000190731],[0.042708333333333334,-0.053703703703703705,2.762900000095364],[0.042708333333333334,-0.053703703703703705,2.772500000000001],[0.06041666666666667,-0.04944444444444453,2.7893000001907353],[0.0828125,-0.03851851851851843,2.8095],[0.0828125,-0.03851851851851843,2.822499999999998],[0.07249999999999991,-0.056666666666666705,2.839199999809267],[0.08302083333333338,-0.056851851851851834,2.855800000190733],[0.07864583333333333,-0.04870370370370362,2.8749000000953657],[0.07864583333333333,-0.04870370370370362,2.8893000001907367],[0.07864583333333333,-0.03518518518518519,2.9059000000953645],[0.06229166666666662,-0.030740740740740784,2.925599999904634],[0.06229166666666662,-0.030740740740740784,2.939300000190734],[0.03427083333333331,-0.039629629629629584,2.9558000001907345],[0.03083333333333336,-0.03981481481481482,2.9750999999046357],[0.029895833333333382,-0.012407407407407492,2.9914000000953678],[0,0.007037037037036953,3.0076999998092617],[-0.02302083333333336,0.026851851851851852,3.0304999999999964],[-0.02302083333333336,0.026851851851851852,3.039199999809263],[-0.01885416666666669,0.03351851851851856,3.0559999999999974],[-0.01229166666666662,0.007962962962962878,3.080599999904635],[-0.01229166666666662,0.007962962962962878,3.0893000001907325],[0.028854166666666715,0.016111111111111194,3.1059000000953674],[0.07416666666666671,0.01962962962962967,3.1225000000000023],[0.10750000000000005,0.034999999999999955,3.1439999999999984],[0.10833333333333334,0.03833333333333342,3.1593000001907328],[0.10010416666666658,0.04740740740740745,3.1759000000953677],[0.11229166666666662,0.0492592592592593,3.1939000000953683],[0.13020833333333334,0.02962962962962963,3.210099999904635],[0.13322916666666676,0.019259259259259216,3.2254999999999967],[0.12468750000000005,0.04796296296296292,3.2419999999999973],[0.13125,0.06870370370370374,3.2585999999046322],[0.09697916666666657,0.06870370370370374,3.2745999999046305],[0.07854166666666676,0.052407407407407326,3.2920999999046288],[0.06479166666666672,0.06277777777777774,3.3079000000953656],[0.06166666666666672,0.034999999999999955,3.3253000001907367],[0.09812500000000005,0.056666666666666705,3.3396999998092625],[0.10354166666666677,0.043703703703703745,3.355800000190733],[0.10260416666666666,0.055000000000000084,3.3765999999046343],[0.10260416666666666,0.055000000000000084,3.3895999999046325],[0.109375,0.05,3.4059000000953645],[0.11531250000000005,0.03092592592592601,3.4224999999999994],[0.1209374999999999,0.018703703703703747,3.441599999904632],[0.1109375,0.024074074074074074,3.458599999904635],[0.1046875,0.026111111111111154,3.4750999999046357],[0.09729166666666676,0.011296296296296339,3.4941999998092683],[0.09729166666666676,0.011296296296296339,3.5060000000000002],[0.13322916666666676,0.021851851851851768,3.5224000000953666],[0.15031249999999996,0.027222222222222307,3.5396999998092653],[0.17000000000000004,0.04018518518518527,3.560599999904632],[0.14947916666666666,0.0338888888888888,3.5760000000000005],[0.12458333333333324,0.02759259259259255,3.592099999904633],[0.1267708333333334,0.04055555555555551,3.610500000000002],[0.1267708333333334,0.04055555555555551,3.623199999809266],[0.12114583333333329,0.046481481481481526,3.639000000000003],[0.1321875000000001,0.0455555555555556,3.6559000000953645],[0.15187499999999995,0.05277777777777778,3.672300000190738],[0.17156250000000003,0.059999999999999956,3.689],[0.1736458333333334,0.07703703703703708,3.708199999809267],[0.14614583333333328,0.07370370370370362,3.7224000000953694],[0.11864583333333342,0.07037037037037037,3.7416999998092635],[0.13291666666666657,0.08759259259259251,3.7580000000000027],[0.14718749999999994,0.10481481481481486,3.774000000000001],[0.18614583333333337,0.12777777777777777,3.7908000001907354],[0.21906249999999997,0.1737037037037036,3.8074000000953703],[0.22395833333333334,0.18222222222222217,3.823999999999998],[0.22822916666666657,0.1883333333333334,3.8404000000953644],[0.23250000000000004,0.19444444444444445,3.8584999999999994],[0.21916666666666676,0.21092592592592588,3.8740999999046295],[0.2179166666666667,0.22925925925925916,3.8909999999999982],[0.23427083333333343,0.25259259259259254,3.9059000000953645],[0.24874999999999994,0.27037037037037037,3.922300000190738],[0.26291666666666674,0.2588888888888888,3.941599999904632],[0.24520833333333342,0.23203703703703696,3.957800000190737],[0.21552083333333344,0.19944444444444454,3.9745999999046333],[0.21979166666666666,0.19814814814814816,3.996300000190736],[0.21979166666666666,0.19814814814814816,4.005800000190732],[0.2007291666666667,0.20333333333333325,4.022400000095367],[0.2007291666666667,0.20333333333333325,4.038900000095367],[0.22229166666666675,0.20629629629629626,4.055800000190736],[0.22229166666666675,0.20629629629629626,4.072300000190737],[0.23427083333333343,0.2007407407407407,4.092999999999996],[0.23427083333333343,0.2007407407407407,4.105699999809268],[0.23968749999999991,0.21222222222222226,4.122400000095368],[0.24562499999999995,0.1896296296296296,4.145800000190732],[0.24562499999999995,0.1896296296296296,4.155699999809265],[0.2630208333333333,0.16148148148148156,4.172400000095365],[0.2630208333333333,0.16148148148148156,4.189099999904634],[0.27708333333333335,0.1757407407407407,4.2058000001907345],[0.2476041666666667,0.19796296296296292,4.225900000095365],[0.2547916666666666,0.24092592592592596,4.242099999904632],[0.26197916666666665,0.2838888888888888,4.259],[0.2826041666666666,0.2868518518518518,4.278400000095367],[0.2826041666666666,0.2868518518518518,4.289699999809265],[0.2443749999999999,0.2603703703703704,4.30590000009537],[0.23156249999999995,0.23055555555555557,4.322499999999998],[0.20989583333333334,0.20851851851851855,4.341699999809265],[0.18781249999999997,0.19203703703703712,4.3578000001907355],[0.1603125000000001,0.19185185185185188,4.3735],[0.13635416666666675,0.17851851851851847,4.393400000095369],[0.16697916666666662,0.12981481481481486,4.4103000001907375],[0.16697916666666662,0.12981481481481486,4.422400000095365],[0.17291666666666666,0.06611111111111119,4.4391999998092615],[0.1788541666666667,0.03629629629629634,4.455599999904635],[0.1544791666666666,0.04129629629629621,4.474099999904631],[0.1544791666666666,0.04129629629629621,4.4998000001907315],[0.14562499999999995,0.07851851851851847,4.517499999999998],[0.14562499999999995,0.07851851851851847,4.524999999999999],[0.1650000000000001,0.08481481481481473,4.5390000000000015],[0.1650000000000001,0.08481481481481473,4.555999999999997],[0.18458333333333338,0.09648148148148153,4.572300000190737],[0.1709374999999999,0.13222222222222219,4.588999999999999],[0.1709374999999999,0.13222222222222219,4.6055999999046335],[0.16020833333333329,0.1574074074074074,4.625300000190734],[0.1794791666666666,0.1588888888888888,4.641599999904635],[0.17625000000000005,0.1544444444444444,4.655800000190737],[0.16104166666666658,0.1544444444444444,4.672400000095365],[0.14385416666666656,0.09814814814814815,4.6905],[0.14729166666666677,0.05722222222222218,4.705900000095369],[0.1631249999999999,0.002407407407407323,4.722499999999997],[0.14291666666666672,-0.01055555555555564,4.74190000009537],[0.15927083333333342,-0.06148148148148146,4.755800000190732],[0.17572916666666671,-0.08925925925925923,4.772500000000001],[0.19500000000000003,-0.12444444444444443,4.789199999809263],[0.18937499999999996,-0.13925925925925925,4.807300000190736],[0.1712500000000001,-0.12759259259259256,4.822400000095364],[0.16635416666666672,-0.13185185185185183,4.839199999809267],[0.1634375000000001,-0.11370370370370367,4.855800000190733],[0.15031249999999996,-0.1411111111111111,4.8740999999046295],[0.1359375,-0.12388888888888884,4.889199999809264],[0.13114583333333343,-0.1161111111111111,4.9088000001907375],[0.11927083333333334,-0.11018518518518519,4.925699999809268],[0.10791666666666658,-0.11888888888888886,4.939900000095371],[0.1046875,-0.10574074074074079,4.9561999998092645],[0.09645833333333324,-0.08925925925925923,4.975000000000001],[0.09375,-0.09611111111111106,4.989900000095368],[0.09156250000000009,-0.07888888888888893,5.005800000190732],[0.09135416666666671,-0.05703703703703706,5.022500000000001],[0.10270833333333323,-0.015000000000000043,5.040999999999997],[0.08499999999999991,-0.03518518518518519,5.05590000009537],[0.08499999999999991,-0.03518518518518519,5.072499999999998],[0.06593749999999995,-0.041111111111111195,5.091499999999996],[0.05239583333333329,-0.03351851851851856,5.106000000000002],[0.05375000000000003,-0.034999999999999955,5.122800000190736],[0.04854166666666669,-0.07666666666666662,5.142000000000003],[0.03250000000000005,-0.0977777777777778,5.157699999809267],[0.03697916666666667,-0.1096296296296296,5.173800000190738],[0.03968750000000002,-0.13407407407407404,5.192400000095368],[0.02364583333333338,-0.15722222222222218,5.209300000190737],[0.007604166666666619,-0.18037037037037032,5.225000000000001],[0.03718750000000005,-0.15925925925925927,5.240900000095365],[0.03718750000000005,-0.15925925925925927,5.257599999904635],[0.0421875,-0.16814814814814816,5.272599999904635],[0.051145833333333356,-0.1727777777777778,5.290800000190735],[0.060104166666666715,-0.17740740740740743,5.307800000190731],[0.04666666666666662,-0.16129629629629633,5.322400000095364],[0.044062499999999956,-0.16574074074074074,5.339199999809267],[0.03895833333333331,-0.16129629629629633,5.355800000190733],[0.033854166666666664,-0.15685185185185183,5.3744000000953704],[0.04135416666666671,-0.1492592592592593,5.389300000190737],[0.04885416666666664,-0.14166666666666666,5.405800000190737],[0.04010416666666667,-0.13222222222222219,5.422300000190738],[0.057291666666666664,-0.10703703703703706,5.4410000000000025],[0.03875000000000005,-0.10907407407407403,5.4558000001907345],[0.02020833333333331,-0.1111111111111111,5.472599999904631],[0.02791666666666662,-0.12148148148148152,5.4928000001907336],[0.02791666666666662,-0.12148148148148152,5.505900000095366],[0.03125,-0.12222222222222222,5.522500000000001],[0.03125,-0.11425925925925924,5.539099999904636],[0.03125,-0.10629629629629625,5.558699999809264],[0.04906250000000002,-0.09833333333333337,5.572699999809267],[0.06687500000000005,-0.09037037037037039,5.5893000001907325],[0.06708333333333343,-0.08888888888888889,5.605699999809268],[0.06708333333333343,-0.08888888888888889,5.622500000000002],[0.06729166666666657,-0.08740740740740739,5.639000000000003],[0.08520833333333329,-0.08703703703703704,5.655599999904631],[0.10427083333333324,-0.08574074074074076,5.672300000190738],[0.11510416666666666,-0.07111111111111107,5.688900000095366],[0.13031249999999991,-0.06611111111111109,5.705599999904635],[0.12999999999999995,-0.08425925925925926,5.722300000190735],[0.1296875,-0.10240740740740743,5.73890000009537],[0.13562500000000005,-0.08314814814814811,5.755699999809266],[0.14114583333333333,-0.07574074074074069,5.774000000000001],[0.13864583333333325,-0.10185185185185185,5.788900000095367],[0.13614583333333338,-0.127962962962963,5.805599999904629],[0.140625,-0.125,5.825499999999998],[0.1609375,-0.1190740740740741,5.839099999904633],[0.18125,-0.11314814814814819,5.8555999999046335],[0.1959374999999999,-0.10851851851851856,5.872300000190734],[0.1959374999999999,-0.10851851851851856,5.88909999990463],[0.22260416666666671,-0.08722222222222227,5.905599999904631],[0.2685416666666666,-0.019999999999999917,5.922300000190738],[0.26708333333333345,-0.051111111111111156,5.939],[0.2734375,-0.053703703703703705,5.955699999809262],[0.28010416666666677,-0.04314814814814806,5.972400000095369],[0.29104166666666675,-0.02962962962962963,5.990800000190731],[0.2908333333333334,-0.0338888888888888,6.005599999904632],[0.27364583333333337,-0.04203703703703712,6.022300000190732],[0.27364583333333337,-0.04203703703703712,6.043300000190733],[0.2542708333333332,-0.059999999999999956,6.055800000190736],[0.2542708333333332,-0.059999999999999956,6.072599999904632],[0.2508333333333333,-0.05425925925925928,6.094199999809263],[0.2508333333333333,-0.05425925925925928,6.105800000190733],[0.23739583333333342,-0.06259259259259262,6.122300000190734],[0.23739583333333342,-0.06259259259259262,6.138900000095369],[0.21447916666666675,-0.11648148148148144,6.155599999904631],[0.221875,-0.08185185185185183,6.176099999904629],[0.221875,-0.08185185185185183,6.189],[0.20187499999999994,-0.07962962962962963,6.205599999904635],[0.20187499999999994,-0.07962962962962963,6.222199999809263],[0.20593750000000005,-0.09722222222222222,6.238999999999997],[0.2133333333333333,-0.08629629629629634,6.255599999904632],[0.21083333333333343,-0.0883333333333333,6.276699999809267],[0.2228125000000001,-0.05962962962962961,6.293400000095367],[0.22625000000000003,-0.05259259259259255,6.308800000190736],[0.21979166666666666,-0.0690740740740741,6.323699999809264],[0.2228125000000001,-0.07759259259259255,6.347699999809265],[0.2228125000000001,-0.07759259259259255,6.355699999809268],[0.21604166666666677,-0.08648148148148146,6.372400000095368],[0.20083333333333328,-0.122037037037037,6.392800000190732],[0.21145833333333333,-0.12740740740740744,6.409599999904636],[0.21458333333333332,-0.10129629629629627,6.424199999809268],[0.21062500000000003,-0.1111111111111111,6.439099999904634],[0.2127083333333334,-0.09907407407407408,6.458500000000001],[0.1898958333333333,-0.1374074074074074,6.474599999904633],[0.17781250000000004,-0.14425925925925923,6.490900000095365],[0.16479166666666673,-0.15092592592592594,6.50959999990463],[0.14697916666666658,-0.1485185185185185,6.524300000190735],[0.12916666666666668,-0.14611111111111108,6.541499999999999],[0.12374999999999996,-0.14240740740740737,6.559699999809261],[0.12281250000000009,-0.15129629629629626,6.576699999809264],[0.12281250000000009,-0.15129629629629626,6.589199999809267],[0.12531249999999997,-0.1809259259259259,6.605900000095367],[0.1087500000000001,-0.19092592592592597,6.625999999999998],[0.1087500000000001,-0.19092592592592597,6.63909999990463],[0.11260416666666657,-0.20870370370370367,6.655999999999999],[0.12604166666666666,-0.21944444444444444,6.676499999999997]]","[0.0003000001907338401,0.05299999999999727,0.07800000000000296,0.08899999999999864,0.10090000009536482,0.1084000000953651,0.122400000095368,0.13909999990463007,0.15590000009536453,0.1725999999046337,0.1893000001907339,0.2059000000953688,0.22240000009536942,0.23899999999999721,0.2556999998092664,0.2724000000953666,0.28909999990463575,0.30569999980926355,0.3251999998092643,0.3404999999999987,0.3609999999999971,0.377599999904632,0.38909999990463007,0.40580000019073736,0.42240000009536516,0.44250000000000256,0.45769999980926457,0.47259999990463086,0.4964999999999975,0.5058000001907317,0.5223000001907323,0.5391999998092629,0.5595999999046342,0.5759000000953662,0.5921999998092673,0.6091999998092632,0.6245999999046319,0.6405999999046301,0.655699999809265,0.673099999904629,0.6916999998092663,0.7071999998092622,0.722999999999999,0.7413000001907335,0.7565000000000026,0.7730999999046304,0.7923000001907354,0.8085999999046294,0.8224000000953637,0.8391999998092672,0.8590000000000018,0.8756999998092638,0.8931999998092621,0.9093000001907328,0.9258000001907334,0.9443000001907365,0.9558000001907345,0.9724999999999966,0.9890999999046315,1.005900000095366,1.0249000000953643,1.044400000095365,1.0626999998092614,1.0774000000953663,1.0889999999999986,1.105800000190733,1.122400000095368,1.139000000000003,1.155699999809265,1.1724000000953652,1.189,1.2056999998092621,1.2349999999999994,1.2413000001907335,1.255900000095366,1.2725999999046351,1.290699999809263,1.3059000000953702,1.3250000000000028,1.3410999999046354,1.3559000000953674,1.3725999999046294,1.3891999998092643,1.4074000000953646,1.4224999999999994,1.439300000190734,1.458599999904635,1.4725999999046309,1.4894000000953653,1.5060000000000002,1.5249000000953643,1.5411999998092654,1.5559999999999974,1.5725999999046323,1.591000000000001,1.6060999999046288,1.6228000001907361,1.6391999998092643,1.6574000000953646,1.6724999999999994,1.689300000190734,1.708199999809267,1.7224999999999966,1.739300000190731,1.7573000001907317,1.7725000000000009,1.7893000001907353,1.8078000001907313,1.8225999999046323,1.8391999998092672,1.8585999999046336,1.8748000001907315,1.8914000000953664,1.9076999998092674,1.9225999999046337,1.939300000190734,1.9579000000953641,1.9724999999999966,1.9891999998092658,2.0058000001907317,2.0256999998092624,2.039199999809263,2.05590000009537,2.072499999999998,2.092400000095367,2.105800000190733,2.1225999999046294,2.13909999990463,2.159099999904633,2.1779999999999973,2.1895000000000024,2.2058000001907345,2.2250999999046357,2.2394000000953653,2.2560000000000002,2.2769000000953667,2.2915999999046335,2.30590000009537,2.322499999999998,2.342500000000001,2.3569999999999993,2.3725000000000023,2.3951999998092646,2.405699999809265,2.422300000190738,2.439,2.455699999809262,2.472699999809265,2.490000000000002,2.5075000000000003,2.5224000000953666,2.5419000000953673,2.556199999809266,2.572900000095366,2.593900000095367,2.609900000095365,2.626900000095368,2.6445000000000007,2.6589000000953646,2.675699999809268,2.694499999999998,2.7090999999046304,2.7230999999046333,2.739300000190731,2.762900000095364,2.772500000000001,2.7893000001907353,2.8095,2.822499999999998,2.839199999809267,2.855800000190733,2.8749000000953657,2.8893000001907367,2.9059000000953645,2.925599999904634,2.939300000190734,2.9558000001907345,2.9750999999046357,2.9914000000953678,3.0076999998092617,3.0304999999999964,3.039199999809263,3.0559999999999974,3.080599999904635,3.0893000001907325,3.1059000000953674,3.1225000000000023,3.1439999999999984,3.1593000001907328,3.1759000000953677,3.1939000000953683,3.210099999904635,3.2254999999999967,3.2419999999999973,3.2585999999046322,3.2745999999046305,3.2920999999046288,3.3079000000953656,3.3253000001907367,3.3396999998092625,3.355800000190733,3.3765999999046343,3.3895999999046325,3.4059000000953645,3.4224999999999994,3.441599999904632,3.458599999904635,3.4750999999046357,3.4941999998092683,3.5060000000000002,3.5224000000953666,3.5396999998092653,3.560599999904632,3.5760000000000005,3.592099999904633,3.610500000000002,3.623199999809266,3.639000000000003,3.6559000000953645,3.672300000190738,3.689,3.708199999809267,3.7224000000953694,3.7416999998092635,3.7580000000000027,3.774000000000001,3.7908000001907354,3.8074000000953703,3.823999999999998,3.8404000000953644,3.8584999999999994,3.8740999999046295,3.8909999999999982,3.9059000000953645,3.922300000190738,3.941599999904632,3.957800000190737,3.9745999999046333,3.996300000190736,4.005800000190732,4.022400000095367,4.038900000095367,4.055800000190736,4.072300000190737,4.092999999999996,4.105699999809268,4.122400000095368,4.145800000190732,4.155699999809265,4.172400000095365,4.189099999904634,4.2058000001907345,4.225900000095365,4.242099999904632,4.259,4.278400000095367,4.289699999809265,4.30590000009537,4.322499999999998,4.341699999809265,4.3578000001907355,4.3735,4.393400000095369,4.4103000001907375,4.422400000095365,4.4391999998092615,4.455599999904635,4.474099999904631,4.4998000001907315,4.517499999999998,4.524999999999999,4.5390000000000015,4.555999999999997,4.572300000190737,4.588999999999999,4.6055999999046335,4.625300000190734,4.641599999904635,4.655800000190737,4.672400000095365,4.6905,4.705900000095369,4.722499999999997,4.74190000009537,4.755800000190732,4.772500000000001,4.789199999809263,4.807300000190736,4.822400000095364,4.839199999809267,4.855800000190733,4.8740999999046295,4.889199999809264,4.9088000001907375,4.925699999809268,4.939900000095371,4.9561999998092645,4.975000000000001,4.989900000095368,5.005800000190732,5.022500000000001,5.040999999999997,5.05590000009537,5.072499999999998,5.091499999999996,5.106000000000002,5.122800000190736,5.142000000000003,5.157699999809267,5.173800000190738,5.192400000095368,5.209300000190737,5.225000000000001,5.240900000095365,5.257599999904635,5.272599999904635,5.290800000190735,5.307800000190731,5.322400000095364,5.339199999809267,5.355800000190733,5.3744000000953704,5.389300000190737,5.405800000190737,5.422300000190738,5.4410000000000025,5.4558000001907345,5.472599999904631,5.4928000001907336,5.505900000095366,5.522500000000001,5.539099999904636,5.558699999809264,5.572699999809267,5.5893000001907325,5.605699999809268,5.622500000000002,5.639000000000003,5.655599999904631,5.672300000190738,5.688900000095366,5.705599999904635,5.722300000190735,5.73890000009537,5.755699999809266,5.774000000000001,5.788900000095367,5.805599999904629,5.825499999999998,5.839099999904633,5.8555999999046335,5.872300000190734,5.88909999990463,5.905599999904631,5.922300000190738,5.939,5.955699999809262,5.972400000095369,5.990800000190731,6.005599999904632,6.022300000190732,6.043300000190733,6.055800000190736,6.072599999904632,6.094199999809263,6.105800000190733,6.122300000190734,6.138900000095369,6.155599999904631,6.176099999904629,6.189,6.205599999904635,6.222199999809263,6.238999999999997,6.255599999904632,6.276699999809267,6.293400000095367,6.308800000190736,6.323699999809264,6.347699999809265,6.355699999809268,6.372400000095368,6.392800000190732,6.409599999904636,6.424199999809268,6.439099999904634,6.458500000000001,6.474599999904633,6.490900000095365,6.50959999990463,6.524300000190735,6.541499999999999,6.559699999809261,6.576699999809264,6.589199999809267,6.605900000095367,6.625999999999998,6.63909999990463,6.655999999999999,6.676499999999997]","[1732165947529,1732165947573,1732165947598,1732165947609,1732165947621,1732165947628,1732165947642,1732165947659,1732165947676,1732165947692,1732165947709,1732165947726,1732165947742,1732165947759,1732165947775,1732165947792,1732165947809,1732165947825,1732165947845,1732165947860,1732165947881,1732165947897,1732165947909,1732165947926,1732165947942,1732165947962,1732165947977,1732165947992,1732165948016,1732165948025,1732165948042,1732165948059,1732165948079,1732165948096,1732165948112,1732165948129,1732165948144,1732165948160,1732165948175,1732165948193,1732165948211,1732165948227,1732165948243,1732165948261,1732165948276,1732165948293,1732165948312,1732165948328,1732165948342,1732165948359,1732165948379,1732165948395,1732165948413,1732165948429,1732165948446,1732165948464,1732165948476,1732165948492,1732165948509,1732165948526,1732165948545,1732165948564,1732165948582,1732165948597,1732165948609,1732165948626,1732165948642,1732165948659,1732165948675,1732165948692,1732165948709,1732165948725,1732165948755,1732165948761,1732165948776,1732165948792,1732165948810,1732165948826,1732165948845,1732165948861,1732165948876,1732165948892,1732165948909,1732165948927,1732165948942,1732165948959,1732165948978,1732165948992,1732165949009,1732165949026,1732165949045,1732165949061,1732165949076,1732165949092,1732165949111,1732165949126,1732165949142,1732165949159,1732165949177,1732165949192,1732165949209,1732165949228,1732165949242,1732165949259,1732165949277,1732165949292,1732165949309,1732165949328,1732165949342,1732165949359,1732165949378,1732165949395,1732165949411,1732165949427,1732165949442,1732165949459,1732165949478,1732165949492,1732165949509,1732165949526,1732165949545,1732165949559,1732165949576,1732165949592,1732165949612,1732165949626,1732165949642,1732165949659,1732165949679,1732165949698,1732165949709,1732165949726,1732165949745,1732165949759,1732165949776,1732165949797,1732165949811,1732165949826,1732165949842,1732165949862,1732165949877,1732165949892,1732165949915,1732165949925,1732165949942,1732165949959,1732165949975,1732165949992,1732165950010,1732165950027,1732165950042,1732165950062,1732165950076,1732165950093,1732165950114,1732165950130,1732165950147,1732165950164,1732165950179,1732165950195,1732165950214,1732165950229,1732165950243,1732165950259,1732165950283,1732165950292,1732165950309,1732165950329,1732165950342,1732165950359,1732165950376,1732165950395,1732165950409,1732165950426,1732165950445,1732165950459,1732165950476,1732165950495,1732165950511,1732165950527,1732165950550,1732165950559,1732165950576,1732165950600,1732165950609,1732165950626,1732165950642,1732165950664,1732165950679,1732165950696,1732165950714,1732165950730,1732165950745,1732165950762,1732165950778,1732165950794,1732165950812,1732165950828,1732165950845,1732165950859,1732165950875,1732165950896,1732165950909,1732165950926,1732165950942,1732165950961,1732165950978,1732165950995,1732165951014,1732165951026,1732165951042,1732165951059,1732165951080,1732165951096,1732165951112,1732165951130,1732165951143,1732165951159,1732165951176,1732165951192,1732165951209,1732165951228,1732165951242,1732165951261,1732165951278,1732165951294,1732165951310,1732165951327,1732165951344,1732165951360,1732165951378,1732165951394,1732165951411,1732165951426,1732165951442,1732165951461,1732165951477,1732165951494,1732165951516,1732165951525,1732165951542,1732165951559,1732165951575,1732165951592,1732165951613,1732165951625,1732165951642,1732165951666,1732165951675,1732165951692,1732165951709,1732165951726,1732165951746,1732165951762,1732165951779,1732165951798,1732165951809,1732165951826,1732165951842,1732165951861,1732165951878,1732165951893,1732165951913,1732165951930,1732165951942,1732165951959,1732165951975,1732165951994,1732165952020,1732165952037,1732165952045,1732165952059,1732165952076,1732165952092,1732165952109,1732165952125,1732165952145,1732165952161,1732165952176,1732165952192,1732165952210,1732165952226,1732165952242,1732165952262,1732165952275,1732165952292,1732165952309,1732165952327,1732165952342,1732165952359,1732165952375,1732165952394,1732165952409,1732165952428,1732165952445,1732165952460,1732165952476,1732165952495,1732165952510,1732165952526,1732165952542,1732165952561,1732165952576,1732165952592,1732165952611,1732165952626,1732165952643,1732165952662,1732165952677,1732165952693,1732165952712,1732165952729,1732165952745,1732165952761,1732165952777,1732165952792,1732165952811,1732165952827,1732165952842,1732165952859,1732165952875,1732165952894,1732165952909,1732165952926,1732165952942,1732165952961,1732165952976,1732165952992,1732165953013,1732165953026,1732165953042,1732165953059,1732165953078,1732165953092,1732165953109,1732165953125,1732165953142,1732165953159,1732165953175,1732165953192,1732165953209,1732165953225,1732165953242,1732165953259,1732165953275,1732165953294,1732165953309,1732165953325,1732165953345,1732165953359,1732165953375,1732165953392,1732165953409,1732165953425,1732165953442,1732165953459,1732165953475,1732165953492,1732165953510,1732165953525,1732165953542,1732165953563,1732165953576,1732165953592,1732165953614,1732165953625,1732165953642,1732165953659,1732165953675,1732165953696,1732165953709,1732165953725,1732165953742,1732165953759,1732165953775,1732165953796,1732165953813,1732165953829,1732165953843,1732165953867,1732165953875,1732165953892,1732165953913,1732165953929,1732165953944,1732165953959,1732165953978,1732165953994,1732165954011,1732165954029,1732165954044,1732165954061,1732165954079,1732165954096,1732165954109,1732165954126,1732165954146,1732165954159,1732165954176,1732165954196]","[[1109.4,531.7],[1109.4,531.7],[1104.3,545.3],[1104.3,545.3],[1060.3,545.5],[1060.3,545.5],[1025.6,552.4],[1025.6,552.4],[976.2,549.9],[976.2,549.9],[970.1,553.6],[970.1,553.6],[958.2,560.6],[963.3,573.9],[986.7,594.5],[986.7,594.5],[984.5,597.9],[980,576.8],[982.6,578.7],[989.3,569.9],[1008.4,578.1],[1026.4,579.5],[1026.4,579.5],[1017.9,594.1],[1014.2,607.7],[1012.3,610.2],[1010.7,623],[1008.3,639.5],[990.5,658],[990.5,658],[993.1,665.9],[994.1,684.3],[993.9,686.6],[1007.5,702.2],[1030.7,709.5],[1044.9,716],[1057.3,733.6],[1075.3,733.5],[1053.8,723.7],[1021.4,699.1],[1008.6,693.6],[1008.7,681.4],[1004.7,685.2],[995.6,681],[995,683.9],[993.9,681],[996.6,685.2],[972.4,673.9],[972.4,673.9],[976.8,684.2],[1019,696.9],[1030.8,705.5],[1033.6,717.9],[1043.5,725.4],[1030,736.1],[1034.5,748],[1034.5,748],[1043.1,741.5],[1043.1,741.5],[1029.6,738.4],[1024.3,745.8],[1037.1,750.5],[1037.1,750.5],[1005.4,761],[1005.4,761],[986.7,769.6],[989.5,755.5],[978.3,761.8],[982,759.6],[982,759.6],[981.1,750.7],[966.7,755.5],[965.5,750.5],[965.5,750.5],[996.4,756.7],[993,749.8],[1006.2,744.9],[1023.5,745.7],[1020.6,772.9],[1030.2,782.4],[1054.5,794.3],[1054.2,803.2],[1077.3,823.8],[1099.7,845.6],[1099.7,845.6],[1088.4,859.9],[1114.3,856.6],[1114.3,856.6],[1099.1,866.3],[1091.4,876.1],[1078.5,885.1],[1084.8,867.9],[1077.3,855.1],[1062.3,838.9],[1043.8,820],[1038.5,795.8],[1029.3,773],[998.7,769],[1010.2,756.6],[998.6,741.1],[987,725.6],[962.8,729.2],[962.8,729.2],[946.8,721.3],[939,719.7],[940.6,718.5],[936.2,727.7],[931.8,736.9],[945.7,739.3],[948.3,737.2],[977,735.1],[990,724.2],[1018.9,717.3],[1024.1,717.9],[1069.1,709.8],[1067,705.5],[1063.5,694.2],[1060.4,680.3],[1067.4,680.1],[1089.4,673.5],[1101,658.2],[1101,658.2],[1118.1,650.7],[1118.1,650.7],[1103.7,637.8],[1103.7,637.8],[1115.2,628.1],[1115.2,628.1],[1090.5,619],[1092.7,616.1],[1092.7,616.1],[1089,606.1],[1089,606.1],[1090.1,599.9],[1073.6,584.5],[1031.1,585.1],[999.5,575.8],[971.1,574.2],[994.1,575.2],[984.8,574.3],[968.5,572.7],[983,560.4],[992.4,557.2],[992.4,557.2],[1003.4,541.4],[1020.3,532.8],[1046.3,522.3],[1063.3,518.6],[1073.2,515.4],[1060.2,505.3],[1061.4,501.3],[1053.2,503.1],[1026.1,501.2],[1010,497.3],[1003.6,511.6],[986.4,511.7],[982.4,508.6],[981.6,518],[971.7,519.9],[961.3,515],[941.4,518.5],[963.3,513.8],[991.6,528.4],[1001.9,521.3],[1001,511],[1001,511],[1018,513.3],[1039.5,519.2],[1039.5,519.2],[1029.6,509.4],[1039.7,509.3],[1035.5,513.7],[1035.5,513.7],[1035.5,521],[1019.8,523.4],[1019.8,523.4],[992.9,518.6],[989.6,518.5],[988.7,533.3],[960,543.8],[937.9,554.5],[937.9,554.5],[941.9,558.1],[948.2,544.3],[948.2,544.3],[987.7,548.7],[1031.2,550.6],[1063.2,558.9],[1064,560.7],[1056.1,565.6],[1067.8,566.6],[1085,556],[1087.9,550.4],[1079.7,565.9],[1086,577.1],[1053.1,577.1],[1035.4,568.3],[1022.2,573.9],[1019.2,558.9],[1054.2,570.6],[1059.4,563.6],[1058.5,569.7],[1058.5,569.7],[1065,567],[1070.7,556.7],[1076.1,550.1],[1066.5,553],[1060.5,554.1],[1053.4,546.1],[1053.4,546.1],[1087.9,551.8],[1104.3,554.7],[1123.2,561.7],[1103.5,558.3],[1079.6,554.9],[1081.7,561.9],[1081.7,561.9],[1076.3,565.1],[1086.9,564.6],[1105.8,568.5],[1124.7,572.4],[1126.7,581.6],[1100.3,579.8],[1073.9,578],[1087.6,587.3],[1101.3,596.6],[1138.7,609],[1170.3,633.8],[1175,638.4],[1179.1,641.7],[1183.2,645],[1170.4,653.9],[1169.2,663.8],[1184.9,676.4],[1198.8,686],[1212.4,679.8],[1195.4,665.3],[1166.9,647.7],[1171,647],[1171,647],[1152.7,649.8],[1152.7,649.8],[1173.4,651.4],[1173.4,651.4],[1184.9,648.4],[1184.9,648.4],[1190.1,654.6],[1195.8,642.4],[1195.8,642.4],[1212.5,627.2],[1212.5,627.2],[1226,634.9],[1197.7,646.9],[1204.6,670.1],[1211.5,693.3],[1231.3,694.9],[1231.3,694.9],[1194.6,680.6],[1182.3,664.5],[1161.5,652.6],[1140.3,643.7],[1113.9,643.6],[1090.9,636.4],[1120.3,610.1],[1120.3,610.1],[1126,575.7],[1131.7,559.6],[1108.3,562.3],[1108.3,562.3],[1099.8,582.4],[1099.8,582.4],[1118.4,585.8],[1118.4,585.8],[1137.2,592.1],[1124.1,611.4],[1124.1,611.4],[1113.8,625],[1132.3,625.8],[1129.2,623.4],[1114.6,623.4],[1098.1,593],[1101.4,570.9],[1116.6,541.3],[1097.2,534.3],[1112.9,506.8],[1128.7,491.8],[1147.2,472.8],[1141.8,464.8],[1124.4,471.1],[1119.7,468.8],[1116.9,478.6],[1104.3,463.8],[1090.5,473.1],[1085.9,477.3],[1074.5,480.5],[1063.6,475.8],[1060.5,482.9],[1052.6,491.8],[1050,488.1],[1047.9,497.4],[1047.7,509.2],[1058.6,531.9],[1041.6,521],[1041.6,521],[1023.3,517.8],[1010.3,521.9],[1011.6,521.1],[1006.6,498.6],[991.2,487.2],[995.5,480.8],[998.1,467.6],[982.7,455.1],[967.3,442.6],[995.7,454],[995.7,454],[1000.5,449.2],[1009.1,446.7],[1017.7,444.2],[1004.8,452.9],[1002.3,450.5],[997.4,452.9],[992.5,455.3],[999.7,459.4],[1006.9,463.5],[998.5,468.6],[1015,482.2],[997.2,481.1],[979.4,480],[986.8,474.4],[986.8,474.4],[990,474],[990,478.3],[990,482.6],[1007.1,486.9],[1024.2,491.2],[1024.4,492],[1024.4,492],[1024.6,492.8],[1041.8,493],[1060.1,493.7],[1070.5,501.6],[1085.1,504.3],[1084.8,494.5],[1084.5,484.7],[1090.2,495.1],[1095.5,499.1],[1093.1,485],[1090.7,470.9],[1095,472.5],[1114.5,475.7],[1134,478.9],[1148.1,481.4],[1148.1,481.4],[1173.7,492.9],[1217.8,529.2],[1216.4,512.4],[1222.5,511],[1228.9,516.7],[1239.4,524],[1239.2,521.7],[1222.7,517.3],[1222.7,517.3],[1204.1,507.6],[1204.1,507.6],[1200.8,510.7],[1200.8,510.7],[1187.9,506.2],[1187.9,506.2],[1165.9,477.1],[1173,495.8],[1173,495.8],[1153.8,497],[1153.8,497],[1157.7,487.5],[1164.8,493.4],[1162.4,492.3],[1173.9,507.8],[1177.2,511.6],[1171,502.7],[1173.9,498.1],[1173.9,498.1],[1167.4,493.3],[1152.8,474.1],[1163,471.2],[1166,485.3],[1162.2,480],[1164.2,486.5],[1142.3,465.8],[1130.7,462.1],[1118.2,458.5],[1101.1,459.8],[1084,461.1],[1078.8,463.1],[1077.9,458.3],[1077.9,458.3],[1080.3,442.3],[1064.4,436.9],[1064.4,436.9],[1068.1,427.3],[1081,421.5]]","[-0.056692,0.170076]","[0.056692,0.170076]","[0.170076,0.170076]","[-0.170076,-0.170076]","[-0.170076,0.056692]","[-0.170076,-0.056692]","[-0.056692,-0.170076]","[0.056692,-0.170076]","[0.170076,-0.170076]","[-0.056692,0.056692]","[0.056692,0.056692]","[0.170076,0.056692]","[-0.056692,-0.056692]","[0.056692,-0.056692]","[0.170076,-0.056692]",0,0,0,0,1,1,Smartphone,20,20,7,2,70,4,2,70,4
