inst1_resp.keys,inst1_resp.rt,calibrationMouse.x,calibrationMouse.y,calibrationMouse.leftButton,calibrationMouse.midButton,calibrationMouse.rightButton,calibrationClick.x,calibrationClick.y,calibrationClick.leftButton,calibrationClick.midButton,calibrationClick.rightButton,trialsc.thisRepN,trialsc.thisTrialN,trialsc.thisN,trialsc.thisIndex,trialsc.ran,calibration_x,calibration_y,participant,session,date,expName,psychopyVersion,OS,frameRate,calibrationClick.clicked_name,ScreenRes_pixels,Camera_pixels,mouse_2.x,mouse_2.y,mouse_2.leftButton,mouse_2.midButton,mouse_2.rightButton,mouse_2.time,mouse_2.clicked_name,mouse.x,mouse.y,mouse.leftButton,mouse.midButton,mouse.rightButton,mouse.time,mouse.clicked_name,Choice,Trial,TrialDuration,MOUSE_GAZE,ET_GAZE,ET_GAZE_x_T,time,unixTime,ET_GAZE_NF,Loc_Bus_label,Loc_Metro_label,Loc_RH_label,Loc_Cost_label,Loc_Travel_label,Loc_Comfort_label,Loc_Bus_cost,Loc_Metro_cost,Loc_RH_cost,Loc_Bus_travel,Loc_Metro_travel,Loc_RH_travel,Loc_Bus_comfort,Loc_Metro_comfort,Loc_RH_comfort,trials.thisRepN,trials.thisTrialN,trials.thisN,trials.thisIndex,trials.ran,Block,Device,RH_cost,RH_travel_time,RH_Comfort,metro_cost,metro_travel_time,metro_Comfort,Bus_cost,Bus_travel_time,Bus_Comfort
space,2.4718,-0.064583333,-0.144444444,1,0,0,0.09375,0.337037037,0,0,0,0,0,0,20,1,0.67,-0.67,41,001,2024-11-21_12h20.23.740,Attention_exp_legacy,2023.1.0,Win32,59.52380952,,,,,,,,,,,,,,,,,,,,,,,,,,,,,,,,,,,,,,,,,,,,,,,,,,,,,,,,,
,,,,,,,0.001041667,0.675925926,1,0,0,0,1,1,13,1,0,0.67,41,001,2024-11-21_12h20.23.740,Attention_exp_legacy,2023.1.0,Win32,59.52380952,calibration_square,,,,,,,,,,,,,,,,,,,,,,,,,,,,,,,,,,,,,,,,,,,,,,,,,,,,,,,,
,,,,,,,0.326041667,-0.67037037,1,0,0,0,2,2,14,1,0.33,-0.67,41,001,2024-11-21_12h20.23.740,Attention_exp_legacy,2023.1.0,Win32,59.52380952,calibration_square,,,,,,,,,,,,,,,,,,,,,,,,,,,,,,,,,,,,,,,,,,,,,,,,,,,,,,,,
,,,,,,,0.335416667,0.346296296,1,0,0,0,3,3,17,1,0.33,0.33,41,001,2024-11-21_12h20.23.740,Attention_exp_legacy,2023.1.0,Win32,59.52380952,,,,,,,,,,,,,,,,,,,,,,,,,,,,,,,,,,,,,,,,,,,,,,,,,,,,,,,,,
,,,,,,,-0.635416667,-0.672222222,1,0,0,0,4,4,0,1,-0.67,-0.67,41,001,2024-11-21_12h20.23.740,Attention_exp_legacy,2023.1.0,Win32,59.52380952,,,,,,,,,,,,,,,,,,,,,,,,,,,,,,,,,,,,,,,,,,,,,,,,,,,,,,,,,
,,,,,,,-0.007291667,-0.314814815,1,0,0,0,5,5,10,1,0,-0.33,41,001,2024-11-21_12h20.23.740,Attention_exp_legacy,2023.1.0,Win32,59.52380952,,,,,,,,,,,,,,,,,,,,,,,,,,,,,,,,,,,,,,,,,,,,,,,,,,,,,,,,,
,,,,,,,-0.663541667,0.322222222,1,0,0,0,6,6,3,1,-0.67,0.33,41,001,2024-11-21_12h20.23.740,Attention_exp_legacy,2023.1.0,Win32,59.52380952,calibration_square,,,,,,,,,,,,,,,,,,,,,,,,,,,,,,,,,,,,,,,,,,,,,,,,,,,,,,,,
,,,,,,,-0.336458333,-0.668518519,1,0,0,0,7,7,4,1,-0.33,-0.67,41,001,2024-11-21_12h20.23.740,Attention_exp_legacy,2023.1.0,Win32,59.52380952,calibration_square,,,,,,,,,,,,,,,,,,,,,,,,,,,,,,,,,,,,,,,,,,,,,,,,,,,,,,,,
,,,,,,,-0.333333333,0.335185185,1,0,0,0,8,8,7,1,-0.33,0.33,41,001,2024-11-21_12h20.23.740,Attention_exp_legacy,2023.1.0,Win32,59.52380952,calibration_square,,,,,,,,,,,,,,,,,,,,,,,,,,,,,,,,,,,,,,,,,,,,,,,,,,,,,,,,
,,,,,,,0.313541667,0.003703704,1,0,0,0,9,9,16,1,0.33,0,41,001,2024-11-21_12h20.23.740,Attention_exp_legacy,2023.1.0,Win32,59.52380952,,,,,,,,,,,,,,,,,,,,,,,,,,,,,,,,,,,,,,,,,,,,,,,,,,,,,,,,,
,,,,,,,-0.004166667,-0.690740741,1,0,0,0,10,10,9,1,0,-0.67,41,001,2024-11-21_12h20.23.740,Attention_exp_legacy,2023.1.0,Win32,59.52380952,,,,,,,,,,,,,,,,,,,,,,,,,,,,,,,,,,,,,,,,,,,,,,,,,,,,,,,,,
,,,,,,,-0.003125,0.003703704,1,0,0,0,11,11,11,1,0,0,41,001,2024-11-21_12h20.23.740,Attention_exp_legacy,2023.1.0,Win32,59.52380952,calibration_square,,,,,,,,,,,,,,,,,,,,,,,,,,,,,,,,,,,,,,,,,,,,,,,,,,,,,,,,
,,,,,,,0.328125,0.674074074,1,0,0,0,12,12,18,1,0.33,0.67,41,001,2024-11-21_12h20.23.740,Attention_exp_legacy,2023.1.0,Win32,59.52380952,calibration_square,,,,,,,,,,,,,,,,,,,,,,,,,,,,,,,,,,,,,,,,,,,,,,,,,,,,,,,,
,,,,,,,-0.00625,0.338888889,1,0,0,0,13,13,12,1,0,0.33,41,001,2024-11-21_12h20.23.740,Attention_exp_legacy,2023.1.0,Win32,59.52380952,calibration_square,,,,,,,,,,,,,,,,,,,,,,,,,,,,,,,,,,,,,,,,,,,,,,,,,,,,,,,,
,,,,,,,-0.327083333,-0.32037037,1,0,0,0,14,14,5,1,-0.33,-0.33,41,001,2024-11-21_12h20.23.740,Attention_exp_legacy,2023.1.0,Win32,59.52380952,calibration_square,,,,,,,,,,,,,,,,,,,,,,,,,,,,,,,,,,,,,,,,,,,,,,,,,,,,,,,,
,,,,,,,-0.334375,0.001851852,1,0,0,0,15,15,6,1,-0.33,0,41,001,2024-11-21_12h20.23.740,Attention_exp_legacy,2023.1.0,Win32,59.52380952,calibration_square,,,,,,,,,,,,,,,,,,,,,,,,,,,,,,,,,,,,,,,,,,,,,,,,,,,,,,,,
,,,,,,,0.671875,0.664814815,1,0,0,0,16,16,19,1,0.67,0.67,41,001,2024-11-21_12h20.23.740,Attention_exp_legacy,2023.1.0,Win32,59.52380952,calibration_square,,,,,,,,,,,,,,,,,,,,,,,,,,,,,,,,,,,,,,,,,,,,,,,,,,,,,,,,
,,,,,,,-0.640625,0.016666667,1,0,0,0,17,17,2,1,-0.67,0,41,001,2024-11-21_12h20.23.740,Attention_exp_legacy,2023.1.0,Win32,59.52380952,,,,,,,,,,,,,,,,,,,,,,,,,,,,,,,,,,,,,,,,,,,,,,,,,,,,,,,,,
,,,,,,,0.322916667,-0.318518519,1,0,0,0,18,18,15,1,0.33,-0.33,41,001,2024-11-21_12h20.23.740,Attention_exp_legacy,2023.1.0,Win32,59.52380952,,,,,,,,,,,,,,,,,,,,,,,,,,,,,,,,,,,,,,,,,,,,,,,,,,,,,,,,,
,,,,,,,-0.330208333,0.685185185,1,0,0,0,19,19,8,1,-0.33,0.67,41,001,2024-11-21_12h20.23.740,Attention_exp_legacy,2023.1.0,Win32,59.52380952,,,,,,,,,,,,,,,,,,,,,,,,,,,,,,,,,,,,,,,,,,,,,,,,,,,,,,,,,
,,,,,,,-0.670833333,-0.312962963,1,0,0,0,20,20,1,1,-0.67,-0.33,41,001,2024-11-21_12h20.23.740,Attention_exp_legacy,2023.1.0,Win32,59.52380952,,,,,,,,,,,,,,,,,,,,,,,,,,,,,,,,,,,,,,,,,,,,,,,,,,,,,,,,,
,,,,,,,,,,,,,,,,,,,41,001,2024-11-21_12h20.23.740,Attention_exp_legacy,2023.1.0,Win32,59.52380952,,"[1920,1080]","[640,480]",[-0.010416666666666666],[-0.4888888888888889],[1],[0],[0],[1.0945000000000036],"[""StartButton""]",[0.11145833333333334],[0.40925925925925927],[1],[0],[0],[6.498000000000005],"[""Metro_label""]",Metro_label,1,7.5254,"[[0.07083333333333333,0.09259259259259259],[0.07083333333333333,0.09259259259259259],[0.07083333333333333,0.09259259259259259],[0.07083333333333333,0.09259259259259259],[0.07083333333333333,0.09259259259259259],[0.07083333333333333,0.09259259259259259],[0.07083333333333333,0.09259259259259259],[0.07083333333333333,0.09259259259259259],[0.07083333333333333,0.09259259259259259],[0.07083333333333333,0.09259259259259259],[0.07083333333333333,0.09259259259259259],[0.07083333333333333,0.09259259259259259],[0.07083333333333333,0.09259259259259259],[0.07083333333333333,0.09259259259259259],[0.07083333333333333,0.09259259259259259],[0.07083333333333333,0.09259259259259259],[0.07083333333333333,0.09259259259259259],[0.07083333333333333,0.09259259259259259],[0.07083333333333333,0.09259259259259259],[0.07083333333333333,0.09259259259259259],[0.07083333333333333,0.09259259259259259],[0.07083333333333333,0.09259259259259259],[0.07083333333333333,0.09259259259259259],[0.07083333333333333,0.09259259259259259],[0.07083333333333333,0.09259259259259259],[0.07083333333333333,0.09259259259259259],[0.07083333333333333,0.09259259259259259],[0.07083333333333333,0.09259259259259259],[0.07083333333333333,0.09259259259259259],[0.07083333333333333,0.09259259259259259],[0.07083333333333333,0.09259259259259259],[0.07083333333333333,0.09259259259259259],[0.07083333333333333,0.09259259259259259],[0.07083333333333333,0.09259259259259259],[0.07083333333333333,0.09259259259259259],[0.07083333333333333,0.09259259259259259],[0.07083333333333333,0.09259259259259259],[0.07083333333333333,0.09259259259259259],[0.07083333333333333,0.09259259259259259],[0.07083333333333333,0.09259259259259259],[0.07083333333333333,0.09259259259259259],[0.07083333333333333,0.09259259259259259],[0.07083333333333333,0.09259259259259259],[0.07083333333333333,0.09259259259259259],[0.07083333333333333,0.09259259259259259],[0.07083333333333333,0.09259259259259259],[0.07083333333333333,0.09259259259259259],[0.07083333333333333,0.09259259259259259],[0.07083333333333333,0.09259259259259259],[0.07083333333333333,0.09259259259259259],[0.07083333333333333,0.09259259259259259],[0.07083333333333333,0.09259259259259259],[0.07083333333333333,0.09259259259259259],[0.07083333333333333,0.09259259259259259],[0.07083333333333333,0.09259259259259259],[0.07083333333333333,0.09259259259259259],[0.07083333333333333,0.09259259259259259],[0.07083333333333333,0.09259259259259259],[0.06979166666666667,0.09259259259259259],[0.06979166666666667,0.09444444444444444],[0.06875,0.09444444444444444],[0.06875,0.09444444444444444],[0.06875,0.09444444444444444],[0.06875,0.09444444444444444],[0.06770833333333333,0.0962962962962963],[0.06770833333333333,0.0962962962962963],[0.06770833333333333,0.0962962962962963],[0.06770833333333333,0.0962962962962963],[0.06770833333333333,0.0962962962962963],[0.06770833333333333,0.0962962962962963],[0.06770833333333333,0.0962962962962963],[0.06770833333333333,0.0962962962962963],[0.06770833333333333,0.0962962962962963],[0.06770833333333333,0.0962962962962963],[0.06770833333333333,0.0962962962962963],[0.06770833333333333,0.0962962962962963],[0.06770833333333333,0.0962962962962963],[0.06770833333333333,0.0962962962962963],[0.06770833333333333,0.0962962962962963],[0.06770833333333333,0.0962962962962963],[0.06770833333333333,0.0962962962962963],[0.06770833333333333,0.0962962962962963],[0.06770833333333333,0.0962962962962963],[0.06770833333333333,0.0962962962962963],[0.06770833333333333,0.0962962962962963],[0.06770833333333333,0.0962962962962963],[0.06770833333333333,0.0962962962962963],[0.06770833333333333,0.0962962962962963],[0.06770833333333333,0.0962962962962963],[0.06770833333333333,0.0962962962962963],[0.06770833333333333,0.0962962962962963],[0.06770833333333333,0.0962962962962963],[0.06770833333333333,0.0962962962962963],[0.06770833333333333,0.0962962962962963],[0.06770833333333333,0.0962962962962963],[0.06770833333333333,0.0962962962962963],[0.06770833333333333,0.0962962962962963],[0.06770833333333333,0.0962962962962963],[0.06770833333333333,0.0962962962962963],[0.06770833333333333,0.0962962962962963],[0.06770833333333333,0.0962962962962963],[0.06770833333333333,0.0962962962962963],[0.06770833333333333,0.0962962962962963],[0.06770833333333333,0.0962962962962963],[0.06770833333333333,0.0962962962962963],[0.06770833333333333,0.0962962962962963],[0.06770833333333333,0.0962962962962963],[0.06770833333333333,0.0962962962962963],[0.06770833333333333,0.0962962962962963],[0.06770833333333333,0.0962962962962963],[0.06770833333333333,0.0962962962962963],[0.06770833333333333,0.0962962962962963],[0.06770833333333333,0.0962962962962963],[0.06770833333333333,0.0962962962962963],[0.06770833333333333,0.0962962962962963],[0.06770833333333333,0.0962962962962963],[0.06770833333333333,0.0962962962962963],[0.06770833333333333,0.0962962962962963],[0.06770833333333333,0.0962962962962963],[0.06770833333333333,0.0962962962962963],[0.06770833333333333,0.0962962962962963],[0.06770833333333333,0.0962962962962963],[0.06770833333333333,0.0962962962962963],[0.06770833333333333,0.0962962962962963],[0.06770833333333333,0.0962962962962963],[0.06770833333333333,0.0962962962962963],[0.06770833333333333,0.0962962962962963],[0.06770833333333333,0.0962962962962963],[0.06770833333333333,0.0962962962962963],[0.06770833333333333,0.0962962962962963],[0.06770833333333333,0.0962962962962963],[0.06770833333333333,0.0962962962962963],[0.06770833333333333,0.0962962962962963],[0.06770833333333333,0.0962962962962963],[0.06770833333333333,0.0962962962962963],[0.06770833333333333,0.0962962962962963],[0.06770833333333333,0.0962962962962963],[0.06770833333333333,0.0962962962962963],[0.06770833333333333,0.0962962962962963],[0.06770833333333333,0.0962962962962963],[0.06770833333333333,0.0962962962962963],[0.06770833333333333,0.0962962962962963],[0.06770833333333333,0.0962962962962963],[0.06770833333333333,0.0962962962962963],[0.06770833333333333,0.0962962962962963],[0.06770833333333333,0.0962962962962963],[0.06770833333333333,0.0962962962962963],[0.06770833333333333,0.0962962962962963],[0.06770833333333333,0.0962962962962963],[0.06770833333333333,0.0962962962962963],[0.06770833333333333,0.0962962962962963],[0.06770833333333333,0.0962962962962963],[0.06770833333333333,0.0962962962962963],[0.06770833333333333,0.0962962962962963],[0.06770833333333333,0.0962962962962963],[0.06770833333333333,0.0962962962962963],[0.06770833333333333,0.0962962962962963],[0.06770833333333333,0.0962962962962963],[0.06770833333333333,0.0962962962962963],[0.06770833333333333,0.0962962962962963],[0.06770833333333333,0.0962962962962963],[0.06770833333333333,0.0962962962962963],[0.06770833333333333,0.0962962962962963],[0.06770833333333333,0.0962962962962963],[0.06770833333333333,0.0962962962962963],[0.06770833333333333,0.0962962962962963],[0.06770833333333333,0.0962962962962963],[0.06770833333333333,0.0962962962962963],[0.06770833333333333,0.0962962962962963],[0.06770833333333333,0.0962962962962963],[0.06770833333333333,0.0962962962962963],[0.06770833333333333,0.0962962962962963],[0.06770833333333333,0.0962962962962963],[0.06770833333333333,0.0962962962962963],[0.06770833333333333,0.0962962962962963],[0.06770833333333333,0.0962962962962963],[0.06770833333333333,0.0962962962962963],[0.06770833333333333,0.0962962962962963],[0.06770833333333333,0.0962962962962963],[0.06770833333333333,0.0962962962962963],[0.06770833333333333,0.0962962962962963],[0.06770833333333333,0.0962962962962963],[0.06770833333333333,0.0962962962962963],[0.06770833333333333,0.0962962962962963],[0.06770833333333333,0.0962962962962963],[0.06770833333333333,0.0962962962962963],[0.06770833333333333,0.0962962962962963],[0.06770833333333333,0.0962962962962963],[0.06770833333333333,0.0962962962962963],[0.06770833333333333,0.0962962962962963],[0.06770833333333333,0.0962962962962963],[0.06770833333333333,0.0962962962962963],[0.06770833333333333,0.0962962962962963],[0.06770833333333333,0.0962962962962963],[0.06770833333333333,0.0962962962962963],[0.06770833333333333,0.0962962962962963],[0.06770833333333333,0.0962962962962963],[0.06770833333333333,0.0962962962962963],[0.06770833333333333,0.0962962962962963],[0.06770833333333333,0.0962962962962963],[0.06770833333333333,0.0962962962962963],[0.06770833333333333,0.0962962962962963],[0.06770833333333333,0.0962962962962963],[0.06770833333333333,0.0962962962962963],[0.06770833333333333,0.0962962962962963],[0.06770833333333333,0.0962962962962963],[0.06770833333333333,0.0962962962962963],[0.06770833333333333,0.0962962962962963],[0.06770833333333333,0.0962962962962963],[0.06770833333333333,0.0962962962962963],[0.06770833333333333,0.0962962962962963],[0.06770833333333333,0.0962962962962963],[0.06770833333333333,0.0962962962962963],[0.06770833333333333,0.0962962962962963],[0.06770833333333333,0.0962962962962963],[0.06770833333333333,0.0962962962962963],[0.06770833333333333,0.0962962962962963],[0.06770833333333333,0.0962962962962963],[0.06770833333333333,0.0962962962962963],[0.06770833333333333,0.0962962962962963],[0.06770833333333333,0.0962962962962963],[0.06770833333333333,0.0962962962962963],[0.06770833333333333,0.0962962962962963],[0.06770833333333333,0.0962962962962963],[0.06770833333333333,0.0962962962962963],[0.06770833333333333,0.0962962962962963],[0.06770833333333333,0.0962962962962963],[0.06770833333333333,0.0962962962962963],[0.06770833333333333,0.0962962962962963],[0.06770833333333333,0.0962962962962963],[0.06770833333333333,0.0962962962962963],[0.06770833333333333,0.0962962962962963],[0.06770833333333333,0.0962962962962963],[0.06770833333333333,0.0962962962962963],[0.06770833333333333,0.0962962962962963],[0.06770833333333333,0.0962962962962963],[0.06770833333333333,0.0962962962962963],[0.06770833333333333,0.0962962962962963],[0.06770833333333333,0.0962962962962963],[0.06770833333333333,0.0962962962962963],[0.06666666666666667,0.09814814814814815],[0.06666666666666667,0.09814814814814815],[0.06666666666666667,0.09814814814814815],[0.06666666666666667,0.09814814814814815],[0.06666666666666667,0.09814814814814815],[0.06666666666666667,0.09814814814814815],[0.06666666666666667,0.09814814814814815],[0.06666666666666667,0.09814814814814815],[0.06666666666666667,0.1],[0.06666666666666667,0.1],[0.06666666666666667,0.10185185185185185],[0.06666666666666667,0.10185185185185185],[0.06666666666666667,0.10185185185185185],[0.06666666666666667,0.1037037037037037],[0.06666666666666667,0.1037037037037037],[0.06666666666666667,0.1037037037037037],[0.065625,0.1037037037037037],[0.065625,0.1037037037037037],[0.065625,0.1037037037037037],[0.065625,0.1037037037037037],[0.065625,0.10555555555555556],[0.065625,0.10555555555555556],[0.065625,0.10555555555555556],[0.065625,0.10555555555555556],[0.065625,0.10555555555555556],[0.065625,0.10555555555555556],[0.065625,0.10925925925925926],[0.065625,0.10925925925925926],[0.065625,0.10925925925925926],[0.065625,0.10925925925925926],[0.065625,0.10925925925925926],[0.065625,0.1111111111111111],[0.065625,0.1111111111111111],[0.065625,0.1111111111111111],[0.065625,0.1111111111111111],[0.065625,0.11481481481481481],[0.065625,0.11481481481481481],[0.065625,0.11481481481481481],[0.065625,0.11481481481481481],[0.065625,0.11666666666666667],[0.065625,0.11666666666666667],[0.065625,0.11666666666666667],[0.065625,0.12037037037037036],[0.065625,0.12037037037037036],[0.065625,0.12037037037037036],[0.06458333333333334,0.12407407407407407],[0.06354166666666666,0.12407407407407407],[0.06354166666666666,0.1259259259259259],[0.06354166666666666,0.1259259259259259],[0.06354166666666666,0.12777777777777777],[0.06354166666666666,0.12777777777777777],[0.06354166666666666,0.13148148148148148],[0.06354166666666666,0.13333333333333333],[0.06458333333333334,0.1388888888888889],[0.06458333333333334,0.1425925925925926],[0.06458333333333334,0.14444444444444443],[0.06666666666666667,0.14814814814814814],[0.06666666666666667,0.15],[0.06666666666666667,0.15185185185185185],[0.06666666666666667,0.15185185185185185],[0.06666666666666667,0.1537037037037037],[0.06666666666666667,0.1537037037037037],[0.06666666666666667,0.1537037037037037],[0.06666666666666667,0.15555555555555556],[0.06666666666666667,0.15555555555555556],[0.06666666666666667,0.15555555555555556],[0.06666666666666667,0.15555555555555556],[0.06666666666666667,0.15555555555555556],[0.06666666666666667,0.15555555555555556],[0.06666666666666667,0.15555555555555556],[0.06666666666666667,0.15555555555555556],[0.06666666666666667,0.15555555555555556],[0.06666666666666667,0.15555555555555556],[0.06666666666666667,0.15555555555555556],[0.06666666666666667,0.15555555555555556],[0.06666666666666667,0.15555555555555556],[0.06666666666666667,0.15555555555555556],[0.06666666666666667,0.15555555555555556],[0.06666666666666667,0.15555555555555556],[0.06666666666666667,0.15555555555555556],[0.06666666666666667,0.15555555555555556],[0.06666666666666667,0.15555555555555556],[0.06666666666666667,0.15555555555555556],[0.06666666666666667,0.15555555555555556],[0.06666666666666667,0.15555555555555556],[0.06666666666666667,0.15555555555555556],[0.06666666666666667,0.15555555555555556],[0.06666666666666667,0.15555555555555556],[0.06666666666666667,0.15555555555555556],[0.06666666666666667,0.15555555555555556],[0.065625,0.15555555555555556],[0.06458333333333334,0.15555555555555556],[0.06354166666666666,0.15555555555555556],[0.06145833333333333,0.15555555555555556],[0.06145833333333333,0.15555555555555556],[0.06145833333333333,0.15555555555555556],[0.06041666666666667,0.15555555555555556],[0.06041666666666667,0.15555555555555556],[0.06041666666666667,0.15555555555555556],[0.057291666666666664,0.15555555555555556],[0.052083333333333336,0.15925925925925927],[0.042708333333333334,0.17037037037037037],[0.029166666666666667,0.18703703703703703],[0.014583333333333334,0.2037037037037037],[-0.0020833333333333333,0.2222222222222222],[-0.014583333333333334,0.23333333333333334],[-0.0375,0.25925925925925924],[-0.051041666666666666,0.2722222222222222],[-0.065625,0.28703703703703703],[-0.07604166666666666,0.29814814814814816],[-0.08020833333333334,0.3037037037037037],[-0.08541666666666667,0.3074074074074074],[-0.08958333333333333,0.31296296296296294],[-0.09166666666666666,0.31851851851851853],[-0.09270833333333334,0.32407407407407407],[-0.09375,0.3277777777777778],[-0.09375,0.3333333333333333],[-0.09479166666666666,0.337037037037037],[-0.09479166666666666,0.34444444444444444],[-0.09479166666666666,0.34814814814814815],[-0.09479166666666666,0.35185185185185186],[-0.09479166666666666,0.35555555555555557],[-0.09270833333333334,0.3592592592592593],[-0.0875,0.3648148148148148],[-0.07604166666666666,0.3685185185185185],[-0.06145833333333333,0.37592592592592594],[-0.041666666666666664,0.38333333333333336],[-0.014583333333333334,0.387037037037037],[0.03333333333333333,0.387037037037037],[0.04791666666666667,0.387037037037037],[0.06979166666666667,0.387037037037037],[0.08541666666666667,0.387037037037037],[0.09375,0.3888888888888889],[0.09791666666666667,0.3907407407407407],[0.10104166666666667,0.3925925925925926],[0.10208333333333333,0.39444444444444443],[0.103125,0.39444444444444443],[0.10520833333333333,0.39814814814814814],[0.10520833333333333,0.4],[0.10625,0.40185185185185185],[0.10833333333333334,0.40370370370370373],[0.109375,0.40555555555555556],[0.11041666666666666,0.4074074074074074],[0.11145833333333334,0.40925925925925927],[0.11145833333333334,0.40925925925925927],[0.11145833333333334,0.40925925925925927],[0.11145833333333334,0.40925925925925927],[0.11145833333333334,0.40925925925925927],[0.11145833333333334,0.40925925925925927],[0.11145833333333334,0.40925925925925927],[0.11145833333333334,0.40925925925925927],[0.11145833333333334,0.40925925925925927],[0.11145833333333334,0.40925925925925927],[0.11145833333333334,0.40925925925925927],[0.11145833333333334,0.40925925925925927],[0.11145833333333334,0.40925925925925927],[0.11145833333333334,0.40925925925925927],[0.11145833333333334,0.40925925925925927],[0.11145833333333334,0.40925925925925927],[0.11145833333333334,0.40925925925925927],[0.11145833333333334,0.40925925925925927],[0.11145833333333334,0.40925925925925927],[0.11145833333333334,0.40925925925925927],[0.11145833333333334,0.40925925925925927],[0.11145833333333334,0.40925925925925927],[0.11145833333333334,0.40925925925925927],[0.11145833333333334,0.40925925925925927],[0.11145833333333334,0.40925925925925927],[0.11145833333333334,0.40925925925925927],[0.11145833333333334,0.40925925925925927],[0.11145833333333334,0.40925925925925927],[0.11145833333333334,0.40925925925925927],[0.11145833333333334,0.40925925925925927],[0.11145833333333334,0.40925925925925927],[0.11145833333333334,0.40925925925925927],[0.11145833333333334,0.40925925925925927],[0.11145833333333334,0.40925925925925927],[0.11145833333333334,0.40925925925925927],[0.11145833333333334,0.40925925925925927],[0.11145833333333334,0.40925925925925927],[0.11145833333333334,0.40925925925925927],[0.11145833333333334,0.40925925925925927],[0.11145833333333334,0.40925925925925927],[0.11145833333333334,0.40925925925925927],[0.11145833333333334,0.40925925925925927],[0.11145833333333334,0.40925925925925927],[0.11145833333333334,0.40925925925925927],[0.11145833333333334,0.40925925925925927],[0.11145833333333334,0.40925925925925927],[0.11145833333333334,0.40925925925925927],[0.11145833333333334,0.40925925925925927],[0.11145833333333334,0.40925925925925927],[0.11145833333333334,0.40925925925925927],[0.11145833333333334,0.40925925925925927],[0.11145833333333334,0.40925925925925927],[0.11145833333333334,0.40925925925925927],[0.11145833333333334,0.40925925925925927],[0.11145833333333334,0.40925925925925927],[0.11145833333333334,0.40925925925925927],[0.11145833333333334,0.40925925925925927],[0.11145833333333334,0.40925925925925927],[0.11145833333333334,0.40925925925925927],[0.11145833333333334,0.40925925925925927],[0.11145833333333334,0.40925925925925927],[0.11145833333333334,0.40925925925925927],[0.11145833333333334,0.40925925925925927],[0.11145833333333334,0.40925925925925927],[0.11145833333333334,0.40925925925925927],[0.11145833333333334,0.40925925925925927],[0.11145833333333334,0.40925925925925927]]","[[-0.1970833333333334,0.3761111111111112],[-0.1970833333333334,0.3761111111111112],[-0.17052083333333337,0.3072222222222222],[-0.17052083333333337,0.3072222222222222],[-0.15041666666666664,0.2301851851851851],[-0.15041666666666664,0.2301851851851851],[-0.11124999999999995,0.20555555555555555],[-0.11124999999999995,0.20555555555555555],[-0.057187499999999974,0.17703703703703708],[-0.057187499999999974,0.17703703703703708],[-0.011562500000000024,0.1270370370370371],[-0.011562500000000024,0.1270370370370371],[0.04593750000000003,0.06407407407407412],[0.04593750000000003,0.06407407407407412],[0.08989583333333329,0.03518518518518519],[0.08989583333333329,0.03518518518518519],[0.08989583333333329,0.03518518518518519],[0.08989583333333329,0.03518518518518519],[0.13781249999999995,0.03759259259259251],[0.13781249999999995,0.03759259259259251],[0.16135416666666677,-0.014814814814814815],[0.1946875000000001,-0.0883333333333333],[0.2150000000000001,-0.14611111111111108],[0.2150000000000001,-0.14611111111111108],[0.2181250000000001,-0.21277777777777773],[0.2296875,-0.27314814814814814],[0.22531249999999994,-0.32592592592592595],[0.21124999999999997,-0.3412962962962963],[0.1853125000000001,-0.34370370370370373],[0.1646874999999999,-0.38981481481481484],[0.14479166666666668,-0.43648148148148147],[0.1460416666666667,-0.42000000000000004],[0.1460416666666667,-0.42000000000000004],[0.12572916666666673,-0.4103703703703704],[0.1271874999999999,-0.4168518518518519],[0.1271874999999999,-0.4168518518518519],[0.12750000000000009,-0.4431481481481482],[0.12312500000000005,-0.4662962962962963],[0.11531250000000005,-0.47851851851851845],[0.11729166666666657,-0.5403703703703704],[0.125,-0.5859259259259259],[0.1209374999999999,-0.6151851851851852],[0.12333333333333343,-0.6344444444444445],[0.12312500000000005,-0.6657407407407407],[0.14479166666666668,-0.6553703703703704],[0.12083333333333333,-0.6553703703703704],[0.10958333333333338,-0.64],[0.09135416666666671,-0.6603703703703704],[0.09333333333333324,-0.6737037037037037],[0.0859375,-0.6433333333333333],[0.0859375,-0.6433333333333333],[0.0818749999999999,-0.6398148148148148],[0.0818749999999999,-0.6398148148148148],[0.08427083333333343,-0.6366666666666667],[0.08427083333333343,-0.6366666666666667],[0.08708333333333323,-0.6507407407407407],[0.08708333333333323,-0.6507407407407407],[0.1009375000000001,-0.6581481481481481],[0.1009375000000001,-0.6581481481481481],[0.07312500000000005,-0.6301851851851852],[0.07312500000000005,-0.6301851851851852],[0.07625000000000005,-0.5853703703703704],[0.08020833333333334,-0.5422222222222223],[0.07270833333333329,-0.4883333333333333],[0.07270833333333329,-0.4883333333333333],[0.06062500000000005,-0.4331481481481481],[0.0625,-0.3948148148148148],[0.0625,-0.3948148148148148],[0.05385416666666672,-0.3485185185185185],[0.04822916666666662,-0.2866666666666667],[0.03427083333333331,-0.22759259259259254],[0.0234375,-0.15462962962962962],[0.036354166666666646,-0.1316666666666667],[0.05406249999999998,-0.11500000000000005],[0.06583333333333338,-0.1096296296296296],[0.07572916666666671,-0.08499999999999996],[0.06864583333333343,-0.08944444444444447],[0.078125,-0.08537037037037042],[0.09260416666666677,-0.06351851851851854],[0.08812499999999991,-0.05092592592592592],[0.08364583333333328,-0.03833333333333342],[0.07791666666666662,-0.06259259259259262],[0.08354166666666671,-0.08722222222222227],[0.08364583333333328,-0.11018518518518519],[0.08885416666666662,-0.11870370370370374],[0.09114583333333333,-0.10870370370370368],[0.08489583333333334,-0.13222222222222219],[0.06583333333333338,-0.1574074074074074],[0.05656249999999995,-0.20833333333333334],[0.07000000000000005,-0.24296296296296294],[0.08208333333333329,-0.2825925925925926],[0.08208333333333329,-0.2825925925925926],[0.05802083333333338,-0.3042592592592593],[0.01260416666666669,-0.3514814814814815],[0.01260416666666669,-0.3514814814814815],[-0.0007291666666667141,-0.3785185185185185],[-0.028437499999999952,-0.3911111111111111],[-0.05364583333333333,-0.4251851851851852],[-0.0655208333333333,-0.415925925925926],[-0.07979166666666669,-0.4401851851851852],[-0.10739583333333336,-0.45388888888888895],[-0.11541666666666663,-0.4766666666666666],[-0.1469791666666667,-0.48629629629629634],[-0.12010416666666662,-0.4838888888888889],[-0.09375,-0.44592592592592595],[-0.0985416666666667,-0.4275925925925925],[-0.0889583333333333,-0.4251851851851852],[-0.07166666666666661,-0.4172222222222222],[-0.05437500000000005,-0.40925925925925927],[-0.05552083333333328,-0.37481481481481477],[-0.05666666666666664,-0.3403703703703704],[-0.05499999999999995,-0.3005555555555556],[-0.028437499999999952,-0.26888888888888884],[-0.049791666666666616,-0.2366666666666667],[-0.06062500000000005,-0.2140740740740741],[-0.060000000000000026,-0.17370370370370372],[-0.059375,-0.13333333333333333],[-0.042499999999999954,-0.11777777777777781],[-0.042499999999999954,-0.11777777777777781],[-0.026250000000000048,-0.10259259259259255],[0.01083333333333331,-0.08037037037037033],[0.051979166666666646,-0.05333333333333336],[0.05322916666666669,-0.027037037037037078],[0.03135416666666669,-0.01518518518518527],[0.02802083333333331,-0.013888888888888888],[0.050625000000000024,-0.02907407407407416],[0.06156250000000003,-0.05796296296296299],[0.05687500000000002,-0.11037037037037041],[0.043958333333333384,-0.13407407407407404],[0.01906249999999995,-0.19981481481481478],[-0.005833333333333357,-0.2655555555555555],[-0.030104166666666644,-0.29148148148148145],[-0.042916666666666714,-0.3264814814814815],[-0.017499999999999953,-0.3557407407407408],[0.0109375,-0.37888888888888894],[0.019687499999999976,-0.3427777777777778],[0.028437499999999952,-0.3066666666666667],[0.05416666666666667,-0.2512962962962963],[0.07197916666666657,-0.2131481481481482],[0.09770833333333329,-0.14962962962962964],[0.12114583333333329,-0.08296296296296299],[0.1368750000000001,-0.07925925925925928],[0.16822916666666668,-0.047037037037036995],[0.16822916666666668,-0.047037037037036995],[0.16822916666666668,-0.047037037037036995],[0.1728125000000001,-0.013518518518518435],[0.1712500000000001,0.02444444444444453],[0.17864583333333334,0.04518518518518514],[0.19145833333333329,0.05981481481481473],[0.20239583333333327,0.0712962962962963],[0.2133333333333333,0.08277777777777787],[0.2133333333333333,0.08277777777777787],[0.2296875,0.11037037037037041],[0.2296875,0.11037037037037041],[0.24260416666666676,0.11703703703703712],[0.24260416666666676,0.11703703703703712],[0.2647916666666667,0.1507407407407407],[0.2630208333333333,0.15833333333333333],[0.2694791666666667,0.17314814814814813],[0.2790625000000001,0.17740740740740732],[0.2734375,0.15611111111111103],[0.2738541666666668,0.14166666666666666],[0.2747916666666666,0.1346296296296297],[0.2626041666666666,0.14370370370370375],[0.2513541666666666,0.17703703703703708],[0.234375,0.2035185185185185],[0.21833333333333324,0.22259259259259268],[0.19958333333333325,0.2351851851851852],[0.20104166666666667,0.259074074074074],[0.20104166666666667,0.259074074074074],[0.18791666666666676,0.2640740740740741],[0.18791666666666676,0.2640740740740741],[0.18864583333333323,0.2759259259259259],[0.18864583333333323,0.2759259259259259],[0.171875,0.29740740740740745],[0.171875,0.29740740740740745],[0.15145833333333342,0.32388888888888884],[0.15145833333333342,0.32388888888888884],[0.13812499999999991,0.29444444444444445],[0.11375000000000005,0.24870370370370362],[0.09697916666666657,0.2770370370370371],[0.09697916666666657,0.2770370370370371],[0.06916666666666677,0.30481481481481487],[0.08312499999999995,0.32222222222222224],[0.08031249999999991,0.3285185185185185],[0.07416666666666671,0.3431481481481481],[0.05416666666666667,0.3509259259259259],[0.033645833333333285,0.3331481481481481],[0.016770833333333356,0.3103703703703704],[0.003854166666666714,0.30944444444444447],[0.0003124999999999526,0.3014814814814814],[0.00458333333333331,0.2544444444444444],[0.011979166666666667,0.2022222222222223],[-0.030208333333333334,0.16370370370370366],[-0.030208333333333334,0.16370370370370366],[-0.06593749999999995,0.13277777777777786],[-0.07843749999999995,0.12259259259259268],[-0.08177083333333333,0.102962962962963],[-0.08302083333333338,0.09666666666666675],[-0.09375,0.10481481481481486],[-0.10239583333333328,0.130925925925926],[-0.11322916666666671,0.1411111111111112],[-0.1280208333333333,0.14092592592592595],[-0.12906249999999997,0.15925925925925927],[-0.12875000000000003,0.15685185185185194],[-0.11145833333333334,0.14666666666666675],[-0.11583333333333339,0.13407407407407404],[-0.1273958333333333,0.13111111111111104],[-0.13447916666666668,0.1300000000000001],[-0.13218749999999999,0.11074074074074065],[-0.12989583333333338,0.09148148148148144],[-0.12552083333333333,0.08296296296296288],[-0.12114583333333329,0.07444444444444454],[-0.12458333333333335,0.0705555555555556],[-0.11218750000000005,0.06500000000000004],[-0.1258333333333333,0.08148148148148149],[-0.12916666666666668,0.1014814814814814],[-0.13125,0.08611111111111111],[-0.13333333333333333,0.07074074074074083],[-0.12052083333333338,0.0838888888888888],[-0.10770833333333331,0.09703703703703699],[-0.10427083333333335,0.08574074074074066],[-0.0985416666666667,0.07351851851851861],[-0.103125,0.08870370370370366],[-0.10604166666666662,0.1270370370370371],[-0.10177083333333338,0.07481481481481478],[-0.09145833333333328,0.011296296296296339],[-0.08406250000000005,0.020370370370370372],[-0.07749999999999997,0.04685185185185177],[-0.08739583333333331,0.03481481481481473],[-0.09343750000000005,0.04592592592592584],[-0.08937499999999995,0.0544444444444444],[-0.08760416666666669,0.06388888888888888],[-0.07833333333333338,0.0764814814814814],[-0.09031250000000005,0.04407407407407399],[-0.10718749999999998,0.06351851851851843],[-0.12114583333333329,0.09574074074074082],[-0.11895833333333337,0.09037037037037028],[-0.12218749999999995,0.08722222222222227],[-0.11854166666666661,0.06722222222222214],[-0.11489583333333328,0.0418518518518519],[-0.11489583333333328,0.0418518518518519],[-0.12114583333333329,0.04518518518518514],[-0.11427083333333338,0.037037037037037035],[-0.12229166666666665,-0.018148148148148063],[-0.10343749999999995,-0.024629629629629547],[-0.08427083333333331,-0.014259259259259343],[-0.06864583333333331,-0.014074074074074116],[-0.08031250000000002,-0.0198148148148149],[-0.058229166666666644,-0.02240740740740745],[-0.03677083333333329,0.01648148148148144],[-0.014687500000000023,0.005370370370370328],[0.016666666666666666,-0.0022222222222223064],[0.019791666666666666,0.0235185185185186],[0.03947916666666664,0.016666666666666666],[0.05354166666666664,0.006111111111111027],[0.06760416666666676,-0.004444444444444402],[0.07395833333333333,-0.0242592592592593],[0.09114583333333333,-0.03796296296296296],[0.0931250000000001,-0.0727777777777778],[0.09375,-0.10944444444444448],[0.06906249999999996,-0.12518518518518523],[0.044375000000000026,-0.14092592592592595],[0.04739583333333333,-0.1705555555555556],[0.05552083333333328,-0.1638888888888889],[0.03718750000000005,-0.21814814814814817],[0.03718750000000005,-0.21814814814814817],[0.04489583333333336,-0.2101851851851852],[0.03687499999999998,-0.2175925925925926],[0.02833333333333338,-0.2338888888888889],[0.014583333333333334,-0.259074074074074],[0.014583333333333334,-0.259074074074074],[0.01552083333333331,-0.23129629629629625],[0.01552083333333331,-0.23129629629629625],[0.041979166666666616,-0.192037037037037],[0.05447916666666662,-0.19074074074074074],[0.05447916666666662,-0.19074074074074074],[0.06229166666666662,-0.16277777777777774],[0.03968750000000002,-0.15925925925925927],[0.07906250000000009,-0.06777777777777783],[0.06104166666666669,-0.06833333333333329],[0.0890625,-0.05481481481481486],[0.11760416666666676,-0.032407407407407406],[0.13833333333333328,0.013518518518518435],[0.14114583333333333,-0.0025925925925925505],[0.13791666666666677,-0.051111111111111156],[0.14635416666666667,-0.051111111111111156],[0.13468749999999996,-0.06074074074074076],[0.13541666666666666,-0.07685185185185185],[0.11770833333333333,-0.12240740740740745],[0.11770833333333333,-0.12240740740740745],[0.12354166666666658,-0.12851851851851848],[0.12354166666666658,-0.12851851851851848],[0.10697916666666671,-0.12074074074074072],[0.10697916666666671,-0.12074074074074072],[0.08635416666666676,-0.11925925925925922],[0.08635416666666676,-0.11925925925925922],[0.0834374999999999,-0.17240740740740745],[0.0834374999999999,-0.17240740740740745],[0.06885416666666658,-0.17611111111111116],[0.06885416666666658,-0.17611111111111116],[0.06947916666666672,-0.17592592592592593],[0.059895833333333336,-0.202962962962963],[0.07416666666666671,-0.22314814814814815],[0.09427083333333333,-0.22296296296296292],[0.09677083333333343,-0.23574074074074075],[0.09864583333333338,-0.22462962962962965],[0.09052083333333343,-0.2603703703703704],[0.08645833333333333,-0.2898148148148148],[0.07249999999999991,-0.23277777777777775],[0.08479166666666677,-0.2633333333333333],[0.0821875000000001,-0.24018518518518517],[0.09208333333333343,-0.20037037037037034],[0.0756249999999999,-0.19166666666666668],[0.05687500000000002,-0.20722222222222217],[0.026041666666666668,-0.18925925925925924],[0.026041666666666668,-0.18925925925925924],[0.017083333333333308,-0.17018518518518513],[0.02510416666666669,-0.1685185185185185],[0.04354166666666662,-0.12148148148148152],[0.0546875,-0.125],[0.025416666666666643,-0.019259259259259216],[0.010520833333333358,0.08425925925925926],[0.010520833333333358,0.08425925925925926],[-0.006979166666666714,0.17074074074074083],[-0.04593750000000003,0.2338888888888888],[-0.05416666666666667,0.34685185185185174],[-0.06239583333333331,0.47018518518518515],[-0.0890625,0.5483333333333333],[-0.09895833333333333,0.7012962962962964],[-0.13645833333333332,0.7890740740740741],[-0.13677083333333329,0.7737037037037037],[-0.13677083333333329,0.7737037037037037],[-0.11979166666666667,0.6966666666666668],[-0.11979166666666667,0.6966666666666668],[-0.10416666666666667,0.6288888888888889],[-0.09645833333333335,0.5740740740740741],[-0.057395833333333354,0.522037037037037],[-0.04375,0.44907407407407407],[-0.02802083333333331,0.2985185185185186],[0.02374999999999995,0.2131481481481482],[0.024791666666666618,0.09407407407407399],[0.043020833333333286,-0.005185185185185101],[0.024166666666666715,-0.045740740740740825],[0.011666666666666714,-0.08185185185185183],[-0.024062500000000025,-0.16722222222222224],[-0.04645833333333336,-0.26592592592592595],[-0.060000000000000026,-0.3031481481481481],[-0.058229166666666644,-0.32092592592592595],[-0.04593750000000003,-0.28962962962962957],[-0.04593750000000003,-0.28962962962962957],[-0.08510416666666672,-0.3359259259259259],[-0.096875,-0.36500000000000005],[-0.08947916666666664,-0.34518518518518515],[-0.09281250000000002,-0.3229629629629629],[-0.08427083333333331,-0.29666666666666663],[-0.06520833333333335,-0.27314814814814814],[-0.05458333333333331,-0.22166666666666665],[-0.05166666666666669,-0.22259259259259256],[-0.04458333333333329,-0.21481481481481482],[-0.0375,-0.20703703703703705],[-0.02322916666666662,-0.2051851851851852],[-0.0006250000000000236,-0.18111111111111114],[-0.008124999999999953,-0.15537037037037033],[-0.004791666666666691,-0.08518518518518518],[-0.004791666666666691,-0.08518518518518518],[0.007604166666666619,-0.12018518518518514],[0.007604166666666619,-0.12018518518518514],[0.02322916666666662,-0.09703703703703699],[0.02322916666666662,-0.09703703703703699],[0.025729166666666713,-0.0764814814814815],[0.044062499999999956,-0.07370370370370373],[0.034687499999999954,-0.10537037037037032],[0.030729166666666665,-0.12148148148148152],[0.03999999999999997,-0.10870370370370368],[0.041562499999999974,-0.1359259259259259],[0.057500000000000044,-0.21388888888888888],[0.06864583333333343,-0.28185185185185185],[0.05677083333333333,-0.2875925925925926],[0.05249999999999998,-0.30777777777777776],[0.05249999999999998,-0.30777777777777776],[0.06906249999999996,-0.33185185185185184],[0.06166666666666672,-0.35759259259259263],[0.0640625,-0.36648148148148146],[0.07531249999999995,-0.38870370370370366],[0.07354166666666657,-0.39148148148148143],[0.058541666666666714,-0.38333333333333336],[0.04677083333333331,-0.3762962962962963],[0.05260416666666667,-0.38499999999999995],[0.06656249999999998,-0.34388888888888886],[0.07041666666666657,-0.32685185185185184],[0.07041666666666657,-0.32685185185185184],[0.06447916666666664,-0.32814814814814813],[0.06447916666666664,-0.32814814814814813],[0.0578125,-0.2803703703703703],[0.04072916666666669,-0.2418518518518519],[0.009375,-0.20555555555555555],[0.0067708333333333336,-0.18499999999999997],[0.026145833333333358,-0.19462962962962968],[0.030104166666666644,-0.1594444444444445],[0.021249999999999977,-0.11851851851851852],[0.025416666666666643,-0.17240740740740745],[0.02958333333333331,-0.22629629629629627],[0.05385416666666672,-0.23870370370370367],[0.051770833333333384,-0.28833333333333333],[0.051770833333333384,-0.28833333333333333],[0.05447916666666662,-0.2975925925925926],[0.07010416666666662,-0.32981481481481484],[0.07458333333333324,-0.3707407407407407],[0.07218749999999995,-0.3683333333333333],[0.07218749999999995,-0.3683333333333333],[0.07520833333333338,-0.4272222222222222],[0.07520833333333338,-0.4272222222222222],[0.05947916666666669,-0.4842592592592593],[0.050520833333333334,-0.44722222222222224],[0.050520833333333334,-0.44722222222222224],[0.03104166666666662,-0.3972222222222222],[0.03104166666666662,-0.3972222222222222],[0.009583333333333381,-0.377962962962963],[0.009583333333333381,-0.377962962962963],[0.03718750000000005,-0.33777777777777773],[0.03718750000000005,-0.33777777777777773],[0.07302083333333324,-0.3237037037037037],[0.0900000000000001,-0.3224074074074075],[0.0765625,-0.30999999999999994],[0.0765625,-0.30999999999999994],[0.058958333333333356,-0.3005555555555556],[0.06062500000000005,-0.27],[0.09604166666666672,-0.23074074074074077],[0.0900000000000001,-0.23203703703703707],[0.09447916666666671,-0.2462962962962963],[0.09447916666666671,-0.2462962962962963],[0.08354166666666671,-0.25407407407407406],[0.06812500000000009,-0.23629629629629634],[0.04052083333333331,-0.2390740740740741],[0.043124999999999976,-0.2270370370370371],[0.07604166666666666,-0.20833333333333334],[0.10010416666666658,-0.20851851851851855],[0.11614583333333334,-0.2183333333333333],[0.11197916666666667,-0.20611111111111113],[0.11645833333333329,-0.19796296296296292],[0.11989583333333324,-0.20722222222222217],[0.12833333333333338,-0.21944444444444444],[0.14583333333333334,-0.24759259259259256],[0.14854166666666657,-0.2866666666666667],[0.1478125000000001,-0.285],[0.1375,-0.3109259259259259],[0.12770833333333323,-0.31666666666666665],[0.12770833333333323,-0.31666666666666665],[0.12625000000000006,-0.3066666666666667]]","[[-0.1970833333333334,0.3761111111111112,0.00020000028609956644],[-0.1970833333333334,0.3761111111111112,0.05230000019073344],[-0.17052083333333337,0.3072222222222222,0.0761000003814658],[-0.17052083333333337,0.3072222222222222,0.08399999999999608],[-0.15041666666666664,0.2301851851851851,0.1093000001907356],[-0.15041666666666664,0.2301851851851851,0.11990000009536317],[-0.11124999999999995,0.20555555555555555,0.14390000009536408],[-0.11124999999999995,0.20555555555555555,0.1508000001907348],[-0.057187499999999974,0.17703703703703708,0.17720000028609917],[-0.057187499999999974,0.17703703703703708,0.18430000019073134],[-0.011562500000000024,0.1270370370370371,0.21270000028609815],[-0.011562500000000024,0.1270370370370371,0.2208000001907351],[0.04593750000000003,0.06407407407407412,0.24410000038146507],[0.04593750000000003,0.06407407407407412,0.25160000038146535],[0.08989583333333329,0.03518518518518519,0.2774999999999963],[0.08989583333333329,0.03518518518518519,0.28570000028609854],[0.08989583333333329,0.03518518518518519,0.29230000019073543],[0.08989583333333329,0.03518518518518519,0.31400000000000006],[0.13781249999999995,0.03759259259259251,0.3583000001907308],[0.13781249999999995,0.03759259259259251,0.3667000002861016],[0.16135416666666677,-0.014814814814814815,0.37520000028609957],[0.1946875000000001,-0.0883333333333333,0.3929000000953664],[0.2150000000000001,-0.14611111111111108,0.40860000038146893],[0.2150000000000001,-0.14611111111111108,0.425300000190731],[0.2181250000000001,-0.21277777777777773,0.44200000000000017],[0.2296875,-0.27314814814814814,0.4603000001907347],[0.22531249999999994,-0.32592592592592595,0.4754999999999967],[0.21124999999999997,-0.3412962962962963,0.492600000381465],[0.1853125000000001,-0.34370370370370373,0.5087000002860975],[0.1646874999999999,-0.38981481481481484,0.5261000003814686],[0.14479166666666668,-0.43648148148148147,0.5424999999999969],[0.1460416666666667,-0.42000000000000004,0.5618000001907362],[0.1460416666666667,-0.42000000000000004,0.5753000001907367],[0.12572916666666673,-0.4103703703703704,0.5921000003814711],[0.1271874999999999,-0.4168518518518519,0.6109999999999971],[0.1271874999999999,-0.4168518518518519,0.6252000002860996],[0.12750000000000009,-0.4431481481481482,0.6419999999999959],[0.12312500000000005,-0.4662962962962963,0.6586000003814689],[0.11531250000000005,-0.47851851851851845,0.6752000002861038],[0.11729166666666657,-0.5403703703703704,0.6924000000953683],[0.125,-0.5859259259259259,0.7086000003814661],[0.1209374999999999,-0.6151851851851852,0.7272000002861034],[0.12333333333333343,-0.6344444444444445,0.7452000002861041],[0.12312500000000005,-0.6657407407407407,0.7613000001907366],[0.14479166666666668,-0.6553703703703704,0.7754000000953667],[0.12083333333333333,-0.6553703703703704,0.7962000002860989],[0.10958333333333338,-0.64,0.8117000002861019],[0.09135416666666671,-0.6603703703703704,0.8286000003814706],[0.09333333333333324,-0.6737037037037037,0.8426000003814664],[0.0859375,-0.6433333333333333,0.8586000003814718],[0.0859375,-0.6433333333333333,0.8753000001907338],[0.0818749999999999,-0.6398148148148148,0.8919999999999959],[0.0818749999999999,-0.6398148148148148,0.9086000003814689],[0.08427083333333343,-0.6366666666666667,0.925300000190731],[0.08427083333333343,-0.6366666666666667,0.9420000000000002],[0.08708333333333323,-0.6507407407407407,0.9587000002861004],[0.08708333333333323,-0.6507407407407407,0.9753000001907353],[0.1009375000000001,-0.6581481481481481,0.9921000003814697],[0.1009375000000001,-0.6581481481481481,1.016999999999996],[0.07312500000000005,-0.6301851851851852,1.025500000000001],[0.07312500000000005,-0.6301851851851852,1.0422000002861012],[0.07625000000000005,-0.5853703703703704,1.0586000003814675],[0.08020833333333334,-0.5422222222222223,1.0752000002861024],[0.07270833333333329,-0.4883333333333333,1.0919999999999987],[0.07270833333333329,-0.4883333333333333,1.1124000000953629],[0.06062500000000005,-0.4331481481481481,1.1252000002860996],[0.0625,-0.3948148148148148,1.1421000003814683],[0.0625,-0.3948148148148148,1.158600000381469],[0.05385416666666672,-0.3485185185185185,1.175300000190731],[0.04822916666666662,-0.2866666666666667,1.1920000000000002],[0.03427083333333331,-0.22759259259259254,1.2102000002861004],[0.0234375,-0.15462962962962962,1.2269999999999968],[0.036354166666666646,-0.1316666666666667,1.241900000095363],[0.05406249999999998,-0.11500000000000005,1.2607000002861],[0.06583333333333338,-0.1096296296296296,1.2753000001907324],[0.07572916666666671,-0.08499999999999996,1.2942000002861036],[0.06864583333333343,-0.08944444444444447,1.3099999999999952],[0.078125,-0.08537037037037042,1.3293000001907345],[0.09260416666666677,-0.06351851851851854,1.3427000002861007],[0.08812499999999991,-0.05092592592592592,1.3592000002861013],[0.08364583333333328,-0.03833333333333342,1.3753000001907338],[0.07791666666666662,-0.06259259259259262,1.3928000001907321],[0.08354166666666671,-0.08722222222222227,1.4095000000000013],[0.08364583333333328,-0.11018518518518519,1.4267000002861039],[0.08885416666666662,-0.11870370370370374,1.4421000003814655],[0.09114583333333333,-0.10870370370370368,1.4600000000000009],[0.08489583333333334,-0.13222222222222219,1.477800000190733],[0.06583333333333338,-0.1574074074074074,1.4967000002861042],[0.05656249999999995,-0.20833333333333334,1.5135000000000005],[0.07000000000000005,-0.24296296296296294,1.5298000001907326],[0.08208333333333329,-0.2825925925925926,1.545499999999997],[0.08208333333333329,-0.2825925925925926,1.5586000003814675],[0.05802083333333338,-0.3042592592592593,1.5762000002861],[0.01260416666666669,-0.3514814814814815,1.5971000003814666],[0.01260416666666669,-0.3514814814814815,1.6086000003814718],[-0.0007291666666667141,-0.3785185185185185,1.6253000001907338],[-0.028437499999999952,-0.3911111111111111,1.6419000000953687],[-0.05364583333333333,-0.4251851851851852,1.658600000381469],[-0.0655208333333333,-0.415925925925926,1.675300000190731],[-0.07979166666666669,-0.4401851851851852,1.6927000002861021],[-0.10739583333333336,-0.45388888888888895,1.708600000381466],[-0.11541666666666663,-0.4766666666666666,1.7253000001907353],[-0.1469791666666667,-0.48629629629629634,1.7419999999999973],[-0.12010416666666662,-0.4838888888888889,1.758499999999998],[-0.09375,-0.44592592592592595,1.7753000001907324],[-0.0985416666666667,-0.4275925925925925,1.7934000000953674],[-0.0889583333333333,-0.4251851851851852,1.8087000002861018],[-0.07166666666666661,-0.4172222222222222,1.8269999999999982],[-0.05437500000000005,-0.40925925925925927,1.8419000000953645],[-0.05552083333333328,-0.37481481481481477,1.8584999999999994],[-0.05666666666666664,-0.3403703703703704,1.8753000001907338],[-0.05499999999999995,-0.3005555555555556,1.8922000002861026],[-0.028437499999999952,-0.26888888888888884,1.9089000000953646],[-0.049791666666666616,-0.2366666666666667,1.9277000002861016],[-0.06062500000000005,-0.2140740740740741,1.9444000000953636],[-0.060000000000000026,-0.17370370370370372,1.9602000002861004],[-0.059375,-0.13333333333333333,1.9765000000000015],[-0.042499999999999954,-0.11777777777777781,2.011400000095364],[-0.042499999999999954,-0.11777777777777781,2.0191000003814707],[-0.026250000000000048,-0.10259259259259255,2.0254000000953667],[0.01083333333333331,-0.08037037037037033,2.0420000000000016],[0.051979166666666646,-0.05333333333333336,2.0608000001907314],[0.05322916666666669,-0.027037037037037078,2.0757000002860977],[0.03135416666666669,-0.01518518518518527,2.0923000001907326],[0.02802083333333331,-0.013888888888888888,2.1086000003814718],[0.050625000000000024,-0.02907407407407416,2.1282000002860997],[0.06156250000000003,-0.05796296296296299,2.1419000000953687],[0.05687500000000002,-0.11037037037037041,2.1604000000953647],[0.043958333333333384,-0.13407407407407404,2.1766000003814696],[0.01906249999999995,-0.19981481481481478,2.1937000002861],[-0.005833333333333357,-0.2655555555555555,2.208600000381466],[-0.030104166666666644,-0.29148148148148145,2.225999999999999],[-0.042916666666666714,-0.3264814814814815,2.24360000038147],[-0.017499999999999953,-0.3557407407407408,2.258499999999998],[0.0109375,-0.37888888888888894,2.2753000001907324],[0.019687499999999976,-0.3427777777777778,2.2920000000000016],[0.028437499999999952,-0.3066666666666667,2.308499999999995],[0.05416666666666667,-0.2512962962962963,2.3277000002861],[0.07197916666666657,-0.2131481481481482,2.344700000286103],[0.09770833333333329,-0.14962962962962964,2.360999999999997],[0.12114583333333329,-0.08296296296296299,2.3769999999999953],[0.1368750000000001,-0.07925925925925928,2.3981000003814685],[0.16822916666666668,-0.047037037037036995,2.4287000002860992],[0.16822916666666668,-0.047037037037036995,2.4351000003814676],[0.16822916666666668,-0.047037037037036995,2.441900000095366],[0.1728125000000001,-0.013518518518518435,2.458600000381466],[0.1712500000000001,0.02444444444444453,2.4753000001907353],[0.17864583333333334,0.04518518518518514,2.49360000038147],[0.19145833333333329,0.05981481481481473,2.508499999999998],[0.20239583333333327,0.0712962962962963,2.5253000001907324],[0.2133333333333333,0.08277777777777787,2.5450000000000017],[0.2133333333333333,0.08277777777777787,2.568400000095366],[0.2296875,0.11037037037037041,2.5874000000953643],[0.2296875,0.11037037037037041,2.596499999999999],[0.24260416666666676,0.11703703703703712,2.6086000003814718],[0.24260416666666676,0.11703703703703712,2.625300000190734],[0.2647916666666667,0.1507407407407407,2.6419000000953687],[0.2630208333333333,0.15833333333333333,2.6621000003814714],[0.2694791666666667,0.17314814814814813,2.6769000000953653],[0.2790625000000001,0.17740740740740732,2.692300000190734],[0.2734375,0.15611111111111103,2.708600000381466],[0.2738541666666668,0.14166666666666666,2.725200000286101],[0.2747916666666666,0.1346296296296297,2.7419999999999973],[0.2626041666666666,0.14370370370370375,2.7586000003814704],[0.2513541666666666,0.17703703703703708,2.775200000286098],[0.234375,0.2035185185185185,2.7928000001907307],[0.21833333333333324,0.22259259259259268,2.8086000003814675],[0.19958333333333325,0.2351851851851852,2.8253000001907367],[0.20104166666666667,0.259074074074074,2.8419000000953645],[0.20104166666666667,0.259074074074074,2.8622000002861014],[0.18791666666666676,0.2640740740740741,2.8752000002860996],[0.18791666666666676,0.2640740740740741,2.891999999999996],[0.18864583333333323,0.2759259259259259,2.908600000381469],[0.18864583333333323,0.2759259259259259,2.925300000190731],[0.171875,0.29740740740740745,2.941900000095366],[0.171875,0.29740740740740745,2.958600000381466],[0.15145833333333342,0.32388888888888884,2.9753000001907353],[0.15145833333333342,0.32388888888888884,2.9919999999999973],[0.13812499999999991,0.29444444444444445,3.0086000003814704],[0.11375000000000005,0.24870370370370362,3.029900000095367],[0.09697916666666657,0.2770370370370371,3.047300000190731],[0.09697916666666657,0.2770370370370371,3.058499999999995],[0.06916666666666677,0.30481481481481487,3.0752000002861024],[0.08312499999999995,0.32222222222222224,3.093600000381471],[0.08031249999999991,0.3285185185185185,3.1099999999999994],[0.07416666666666671,0.3431481481481481,3.1262000002861043],[0.05416666666666667,0.3509259259259259,3.141999999999996],[0.033645833333333285,0.3331481481481481,3.158700000286103],[0.016770833333333356,0.3103703703703704,3.175200000286104],[0.003854166666666714,0.30944444444444447,3.1924999999999955],[0.0003124999999999526,0.3014814814814814,3.210400000095369],[0.00458333333333331,0.2544444444444444,3.225200000286101],[0.011979166666666667,0.2022222222222223,3.241900000095363],[-0.030208333333333334,0.16370370370370366,3.2587000002860975],[-0.030208333333333334,0.16370370370370366,3.275200000286098],[-0.06593749999999995,0.13277777777777786,3.292100000381467],[-0.07843749999999995,0.12259259259259268,3.3089000000953632],[-0.08177083333333333,0.102962962962963,3.3260000000000005],[-0.08302083333333338,0.09666666666666675,3.3419000000953645],[-0.09375,0.10481481481481486,3.3586000003814718],[-0.10239583333333328,0.130925925925926,3.3752000002860996],[-0.11322916666666671,0.1411111111111112,3.3919000000953687],[-0.1280208333333333,0.14092592592592595,3.4099000000953694],[-0.12906249999999997,0.15925925925925927,3.425300000190731],[-0.12875000000000003,0.15685185185185194,3.441900000095366],[-0.11145833333333334,0.14666666666666675,3.458500000000001],[-0.11583333333333339,0.13407407407407404,3.4753000001907353],[-0.1273958333333333,0.13111111111111104,3.4921000003814697],[-0.13447916666666668,0.1300000000000001,3.508499999999998],[-0.13218749999999999,0.11074074074074065,3.525200000286098],[-0.12989583333333338,0.09148148148148144,3.5419000000953673],[-0.12552083333333333,0.08296296296296288,3.559200000286104],[-0.12114583333333329,0.07444444444444454,3.5753000001907367],[-0.12458333333333335,0.0705555555555556,3.5941000003814665],[-0.11218750000000005,0.06500000000000004,3.610500000000002],[-0.1258333333333333,0.08148148148148149,3.625700000286102],[-0.12916666666666668,0.1014814814814814,3.6419000000953687],[-0.13125,0.08611111111111111,3.6622000002860986],[-0.13333333333333333,0.07074074074074083,3.6763000001907358],[-0.12052083333333338,0.0838888888888888,3.695300000190734],[-0.10770833333333331,0.09703703703703699,3.7098000001907323],[-0.10427083333333335,0.08574074074074066,3.725200000286101],[-0.0985416666666667,0.07351851851851861,3.741900000095363],[-0.103125,0.08870370370370366,3.7586000003814704],[-0.10604166666666662,0.1270370370370371,3.775200000286098],[-0.10177083333333338,0.07481481481481478,3.7927000002861035],[-0.09145833333333328,0.011296296296296339,3.80910000038147],[-0.08406250000000005,0.020370370370370372,3.8253000001907367],[-0.07749999999999997,0.04685185185185177,3.8419999999999987],[-0.08739583333333331,0.03481481481481473,3.8586000003814718],[-0.09343750000000005,0.04592592592592584,3.8751000003814653],[-0.08937499999999995,0.0544444444444444,3.8924999999999983],[-0.08760416666666669,0.06388888888888888,3.908600000381469],[-0.07833333333333338,0.0764814814814814,3.925200000286104],[-0.09031250000000005,0.04407407407407399,3.9418000001907316],[-0.10718749999999998,0.06351851851851843,3.9588000001907346],[-0.12114583333333329,0.09574074074074082,3.9758000001907305],[-0.11895833333333337,0.09037037037037028,3.9921000003814697],[-0.12218749999999995,0.08722222222222227,4.00860000038147],[-0.11854166666666661,0.06722222222222214,4.0257000002861005],[-0.11489583333333328,0.0418518518518519,4.061800000190736],[-0.11489583333333328,0.0418518518518519,4.0686000003814655],[-0.12114583333333329,0.04518518518518514,4.075200000286102],[-0.11427083333333338,0.037037037037037035,4.091999999999999],[-0.12229166666666665,-0.018148148148148063,4.108600000381472],[-0.10343749999999995,-0.024629629629629547,4.128],[-0.08427083333333331,-0.014259259259259343,4.141900000095369],[-0.06864583333333331,-0.014074074074074116,4.158600000381469],[-0.08031250000000002,-0.0198148148148149,4.178400000095365],[-0.058229166666666644,-0.02240740740740745,4.1936000003814655],[-0.03677083333333329,0.01648148148148144,4.2087000002861],[-0.014687500000000023,0.005370370370370328,4.225100000381467],[0.016666666666666666,-0.0022222222222223064,4.242200000286104],[0.019791666666666666,0.0235185185185186,4.261200000286102],[0.03947916666666664,0.016666666666666666,4.276900000095367],[0.05354166666666664,0.006111111111111027,4.293600000381467],[0.06760416666666676,-0.004444444444444402,4.311900000095363],[0.07395833333333333,-0.0242592592592593,4.327400000095366],[0.09114583333333333,-0.03796296296296296,4.341999999999999],[0.0931250000000001,-0.0727777777777778,4.358499999999999],[0.09375,-0.10944444444444448,4.378100000381465],[0.06906249999999996,-0.12518518518518523,4.393800000190737],[0.044375000000000026,-0.14092592592592595,4.40880000019073],[0.04739583333333333,-0.1705555555555556,4.430700000286102],[0.05552083333333328,-0.1638888888888889,4.445999999999998],[0.03718750000000005,-0.21814814814814817,4.463499999999996],[0.03718750000000005,-0.21814814814814817,4.490200000286102],[0.04489583333333336,-0.2101851851851852,4.496900000095366],[0.03687499999999998,-0.2175925925925926,4.512499999999996],[0.02833333333333338,-0.2338888888888889,4.529900000095367],[0.014583333333333334,-0.259074074074074,4.546200000286099],[0.014583333333333334,-0.259074074074074,4.563100000381468],[0.01552083333333331,-0.23129629629629625,4.575300000190737],[0.01552083333333331,-0.23129629629629625,4.591999999999999],[0.041979166666666616,-0.192037037037037,4.608600000381472],[0.05447916666666662,-0.19074074074074074,4.631900000095364],[0.05447916666666662,-0.19074074074074074,4.641900000095369],[0.06229166666666662,-0.16277777777777774,4.658700000286103],[0.03968750000000002,-0.15925925925925927,4.675300000190731],[0.07906250000000009,-0.06777777777777783,4.697499999999998],[0.06104166666666669,-0.06833333333333329,4.712600000381471],[0.0890625,-0.05481481481481486,4.7284000000953625],[0.11760416666666676,-0.032407407407407406,4.745900000095368],[0.13833333333333328,0.013518518518518435,4.762600000381468],[0.14114583333333333,-0.0025925925925925505,4.777000000000001],[0.13791666666666677,-0.051111111111111156,4.792100000381467],[0.14635416666666667,-0.051111111111111156,4.811999999999998],[0.13468749999999996,-0.06074074074074076,4.827300000190732],[0.13541666666666666,-0.07685185185185185,4.8419000000953645],[0.11770833333333333,-0.12240740740740745,4.863500000000002],[0.11770833333333333,-0.12240740740740745,4.8752000002861],[0.12354166666666658,-0.12851851851851848,4.892300000190737],[0.12354166666666658,-0.12851851851851848,4.908600000381462],[0.10697916666666671,-0.12074074074074072,4.929499999999997],[0.10697916666666671,-0.12074074074074072,4.942],[0.08635416666666676,-0.11925925925925922,4.9588000001907275],[0.08635416666666676,-0.11925925925925922,4.975300000190735],[0.0834374999999999,-0.17240740740740745,4.997100000381472],[0.0834374999999999,-0.17240740740740745,5.008800000190739],[0.06885416666666658,-0.17611111111111116,5.025200000286098],[0.06885416666666658,-0.17611111111111116,5.0419999999999945],[0.06947916666666672,-0.17592592592592593,5.0586000003814675],[0.059895833333333336,-0.202962962962963,5.075200000286095],[0.07416666666666671,-0.22314814814814815,5.096800000190733],[0.09427083333333333,-0.22296296296296292,5.11260000038147],[0.09677083333333343,-0.23574074074074075,5.1295],[0.09864583333333338,-0.22462962962962965,5.144500000000001],[0.09052083333333343,-0.2603703703703704,5.161900000095365],[0.08645833333333333,-0.2898148148148148,5.176900000095365],[0.07249999999999991,-0.23277777777777775,5.193800000190727],[0.08479166666666677,-0.2633333333333333,5.208900000095362],[0.0821875000000001,-0.24018518518518517,5.227300000190731],[0.09208333333333343,-0.20037037037037034,5.245800000190734],[0.0756249999999999,-0.19166666666666668,5.261200000286102],[0.05687500000000002,-0.20722222222222217,5.275600000381466],[0.026041666666666668,-0.18925925925925924,5.292499999999997],[0.026041666666666668,-0.18925925925925924,5.3086000003814675],[0.017083333333333308,-0.17018518518518513,5.325200000286095],[0.02510416666666669,-0.1685185185185185,5.341900000095372],[0.04354166666666662,-0.12148148148148152,5.358800000190733],[0.0546875,-0.125,5.3765],[0.025416666666666643,-0.019259259259259216,5.393999999999998],[0.010520833333333358,0.08425925925925926,5.416700000286106],[0.010520833333333358,0.08425925925925926,5.425200000286104],[-0.006979166666666714,0.17074074074074083,5.441900000095366],[-0.04593750000000003,0.2338888888888888,5.458600000381473],[-0.05416666666666667,0.34685185185185174,5.4769000000953625],[-0.06239583333333331,0.47018518518518515,5.493300000190736],[-0.0890625,0.5483333333333333,5.50860000038147],[-0.09895833333333333,0.7012962962962964,5.525300000190732],[-0.13645833333333332,0.7890740740740741,5.544600000381472],[-0.13677083333333329,0.7737037037037037,5.563900000095366],[-0.13677083333333329,0.7737037037037037,5.575600000381463],[-0.11979166666666667,0.6966666666666668,5.598499999999994],[-0.11979166666666667,0.6966666666666668,5.611400000095365],[-0.10416666666666667,0.6288888888888889,5.625200000286107],[-0.09645833333333335,0.5740740740740741,5.644900000095369],[-0.057395833333333354,0.522037037037037,5.659300000190733],[-0.04375,0.44907407407407407,5.675700000286106],[-0.02802083333333331,0.2985185185185186,5.6982000002861],[0.02374999999999995,0.2131481481481482,5.712600000381464],[0.024791666666666618,0.09407407407407399,5.728300000190735],[0.043020833333333286,-0.005185185185185101,5.742300000190731],[0.024166666666666715,-0.045740740740740825,5.761200000286102],[0.011666666666666714,-0.08185185185185183,5.775900000095369],[-0.024062500000000025,-0.16722222222222224,5.795600000381462],[-0.04645833333333336,-0.26592592592592595,5.814300000190734],[-0.060000000000000026,-0.3031481481481481,5.829600000381468],[-0.058229166666666644,-0.32092592592592595,5.846600000381464],[-0.04593750000000003,-0.28962962962962957,5.865800000190738],[-0.04593750000000003,-0.28962962962962957,5.875300000190727],[-0.08510416666666672,-0.3359259259259259,5.892300000190737],[-0.096875,-0.36500000000000005,5.908900000095365],[-0.08947916666666664,-0.34518518518518515,5.928800000190726],[-0.09281250000000002,-0.3229629629629629,5.944800000190732],[-0.08427083333333331,-0.29666666666666663,5.9602000002861],[-0.06520833333333335,-0.27314814814814814,5.975500000000004],[-0.05458333333333331,-0.22166666666666665,5.99660000038147],[-0.05166666666666669,-0.22259259259259256,6.012700000286095],[-0.04458333333333329,-0.21481481481481482,6.028800000190735],[-0.0375,-0.20703703703703705,6.04390000009537],[-0.02322916666666662,-0.2051851851851852,6.061300000190734],[-0.0006250000000000236,-0.18111111111111114,6.075600000381463],[-0.008124999999999953,-0.15537037037037033,6.092200000286105],[-0.004791666666666691,-0.08518518518518518,6.112000000000002],[-0.004791666666666691,-0.08518518518518518,6.125400000095361],[0.007604166666666619,-0.12018518518518514,6.143200000286107],[0.007604166666666619,-0.12018518518518514,6.175700000286106],[0.02322916666666662,-0.09703703703703699,6.1829000000953656],[0.02322916666666662,-0.09703703703703699,6.1921000003814655],[0.025729166666666713,-0.0764814814814815,6.2088000001907275],[0.044062499999999956,-0.07370370370370373,6.227400000095365],[0.034687499999999954,-0.10537037037037032,6.241999999999997],[0.030729166666666665,-0.12148148148148152,6.258900000095359],[0.03999999999999997,-0.10870370370370368,6.275300000190732],[0.041562499999999974,-0.1359259259259259,6.29480000019074],[0.057500000000000044,-0.21388888888888888,6.308700000286102],[0.06864583333333343,-0.28185185185185185,6.326800000190737],[0.05677083333333333,-0.2875925925925926,6.341999999999992],[0.05249999999999998,-0.30777777777777776,6.362100000381467],[0.05249999999999998,-0.30777777777777776,6.375400000095361],[0.06906249999999996,-0.33185185185185184,6.392200000286103],[0.06166666666666672,-0.35759259259259263,6.408600000381462],[0.0640625,-0.36648148148148146,6.427400000095368],[0.07531249999999995,-0.38870370370370366,6.441800000190732],[0.07354166666666657,-0.39148148148148143,6.458499999999994],[0.058541666666666714,-0.38333333333333336,6.475200000286101],[0.04677083333333331,-0.3762962962962963,6.4925],[0.05260416666666667,-0.38499999999999995,6.50860000038147],[0.06656249999999998,-0.34388888888888886,6.525100000381464],[0.07041666666666657,-0.32685185185185184,6.54190000009536],[0.07041666666666657,-0.32685185185185184,6.5586000003814675],[0.06447916666666664,-0.32814814814814813,6.57530000019073],[0.06447916666666664,-0.32814814814814813,6.591999999999992],[0.0578125,-0.2803703703703703,6.608700000286099],[0.04072916666666669,-0.2418518518518519,6.625200000286107],[0.009375,-0.20555555555555555,6.641900000095369],[0.0067708333333333336,-0.18499999999999997,6.658600000381462],[0.026145833333333358,-0.19462962962962968,6.675200000286104],[0.030104166666666644,-0.1594444444444445,6.692600000381468],[0.021249999999999977,-0.11851851851851852,6.708499999999994],[0.025416666666666643,-0.17240740740740745,6.725200000286101],[0.02958333333333331,-0.22629629629629627,6.741800000190729],[0.05385416666666672,-0.23870370370370367,6.758500000000005],[0.051770833333333384,-0.28833333333333333,6.777700000286096],[0.051770833333333384,-0.28833333333333333,6.796600000381467],[0.05447916666666662,-0.2975925925925926,6.808500000000002],[0.07010416666666662,-0.32981481481481484,6.825600000381463],[0.07458333333333324,-0.3707407407407407,6.841900000095372],[0.07218749999999995,-0.3683333333333333,6.858600000381465],[0.07218749999999995,-0.3683333333333333,6.875200000286107],[0.07520833333333338,-0.4272222222222222,6.892000000000003],[0.07520833333333338,-0.4272222222222222,6.908600000381462],[0.05947916666666669,-0.4842592592592593,6.925300000190738],[0.050520833333333334,-0.44722222222222224,6.947800000190732],[0.050520833333333334,-0.44722222222222224,6.958600000381473],[0.03104166666666662,-0.3972222222222222,6.975300000190735],[0.03104166666666662,-0.3972222222222222,6.991900000095363],[0.009583333333333381,-0.377962962962963,7.00860000038147],[0.009583333333333381,-0.377962962962963,7.025200000286098],[0.03718750000000005,-0.33777777777777773,7.04190000009536],[0.03718750000000005,-0.33777777777777773,7.058500000000002],[0.07302083333333324,-0.3237037037037037,7.07530000019073],[0.0900000000000001,-0.3224074074074075,7.091999999999992],[0.0765625,-0.30999999999999994,7.108499999999999],[0.0765625,-0.30999999999999994,7.125200000286107],[0.058958333333333356,-0.3005555555555556,7.142200000286103],[0.06062500000000005,-0.27,7.158900000095365],[0.09604166666666672,-0.23074074074074077,7.17510000038147],[0.0900000000000001,-0.23203703703703707,7.191900000095366],[0.09447916666666671,-0.2462962962962963,7.209900000095367],[0.09447916666666671,-0.2462962962962963,7.225300000190735],[0.08354166666666671,-0.25407407407407406,7.241900000095363],[0.06812500000000009,-0.23629629629629634,7.258500000000005],[0.04052083333333331,-0.2390740740740741,7.275200000286098],[0.043124999999999976,-0.2270370370370371,7.292100000381474],[0.07604166666666666,-0.20833333333333334,7.308500000000002],[0.10010416666666658,-0.20851851851851855,7.325200000286095],[0.11614583333333334,-0.2183333333333333,7.341900000095372],[0.11197916666666667,-0.20611111111111113,7.358499999999999],[0.11645833333333329,-0.19796296296296292,7.3767000002861],[0.11989583333333324,-0.20722222222222217,7.3947000002861],[0.12833333333333338,-0.21944444444444444,7.409400000095367],[0.14583333333333334,-0.24759259259259256,7.425200000286104],[0.14854166666666657,-0.2866666666666667,7.441900000095366],[0.1478125000000001,-0.285,7.458499999999994],[0.1375,-0.3109259259259259,7.475200000286101],[0.12770833333333323,-0.31666666666666665,7.493100000381467],[0.12770833333333323,-0.31666666666666665,7.508500000000005],[0.12625000000000006,-0.3066666666666667,7.525400000095367]]","[0.00020000028609956644,0.05230000019073344,0.0761000003814658,0.08399999999999608,0.1093000001907356,0.11990000009536317,0.14390000009536408,0.1508000001907348,0.17720000028609917,0.18430000019073134,0.21270000028609815,0.2208000001907351,0.24410000038146507,0.25160000038146535,0.2774999999999963,0.28570000028609854,0.29230000019073543,0.31400000000000006,0.3583000001907308,0.3667000002861016,0.37520000028609957,0.3929000000953664,0.40860000038146893,0.425300000190731,0.44200000000000017,0.4603000001907347,0.4754999999999967,0.492600000381465,0.5087000002860975,0.5261000003814686,0.5424999999999969,0.5618000001907362,0.5753000001907367,0.5921000003814711,0.6109999999999971,0.6252000002860996,0.6419999999999959,0.6586000003814689,0.6752000002861038,0.6924000000953683,0.7086000003814661,0.7272000002861034,0.7452000002861041,0.7613000001907366,0.7754000000953667,0.7962000002860989,0.8117000002861019,0.8286000003814706,0.8426000003814664,0.8586000003814718,0.8753000001907338,0.8919999999999959,0.9086000003814689,0.925300000190731,0.9420000000000002,0.9587000002861004,0.9753000001907353,0.9921000003814697,1.016999999999996,1.025500000000001,1.0422000002861012,1.0586000003814675,1.0752000002861024,1.0919999999999987,1.1124000000953629,1.1252000002860996,1.1421000003814683,1.158600000381469,1.175300000190731,1.1920000000000002,1.2102000002861004,1.2269999999999968,1.241900000095363,1.2607000002861,1.2753000001907324,1.2942000002861036,1.3099999999999952,1.3293000001907345,1.3427000002861007,1.3592000002861013,1.3753000001907338,1.3928000001907321,1.4095000000000013,1.4267000002861039,1.4421000003814655,1.4600000000000009,1.477800000190733,1.4967000002861042,1.5135000000000005,1.5298000001907326,1.545499999999997,1.5586000003814675,1.5762000002861,1.5971000003814666,1.6086000003814718,1.6253000001907338,1.6419000000953687,1.658600000381469,1.675300000190731,1.6927000002861021,1.708600000381466,1.7253000001907353,1.7419999999999973,1.758499999999998,1.7753000001907324,1.7934000000953674,1.8087000002861018,1.8269999999999982,1.8419000000953645,1.8584999999999994,1.8753000001907338,1.8922000002861026,1.9089000000953646,1.9277000002861016,1.9444000000953636,1.9602000002861004,1.9765000000000015,2.011400000095364,2.0191000003814707,2.0254000000953667,2.0420000000000016,2.0608000001907314,2.0757000002860977,2.0923000001907326,2.1086000003814718,2.1282000002860997,2.1419000000953687,2.1604000000953647,2.1766000003814696,2.1937000002861,2.208600000381466,2.225999999999999,2.24360000038147,2.258499999999998,2.2753000001907324,2.2920000000000016,2.308499999999995,2.3277000002861,2.344700000286103,2.360999999999997,2.3769999999999953,2.3981000003814685,2.4287000002860992,2.4351000003814676,2.441900000095366,2.458600000381466,2.4753000001907353,2.49360000038147,2.508499999999998,2.5253000001907324,2.5450000000000017,2.568400000095366,2.5874000000953643,2.596499999999999,2.6086000003814718,2.625300000190734,2.6419000000953687,2.6621000003814714,2.6769000000953653,2.692300000190734,2.708600000381466,2.725200000286101,2.7419999999999973,2.7586000003814704,2.775200000286098,2.7928000001907307,2.8086000003814675,2.8253000001907367,2.8419000000953645,2.8622000002861014,2.8752000002860996,2.891999999999996,2.908600000381469,2.925300000190731,2.941900000095366,2.958600000381466,2.9753000001907353,2.9919999999999973,3.0086000003814704,3.029900000095367,3.047300000190731,3.058499999999995,3.0752000002861024,3.093600000381471,3.1099999999999994,3.1262000002861043,3.141999999999996,3.158700000286103,3.175200000286104,3.1924999999999955,3.210400000095369,3.225200000286101,3.241900000095363,3.2587000002860975,3.275200000286098,3.292100000381467,3.3089000000953632,3.3260000000000005,3.3419000000953645,3.3586000003814718,3.3752000002860996,3.3919000000953687,3.4099000000953694,3.425300000190731,3.441900000095366,3.458500000000001,3.4753000001907353,3.4921000003814697,3.508499999999998,3.525200000286098,3.5419000000953673,3.559200000286104,3.5753000001907367,3.5941000003814665,3.610500000000002,3.625700000286102,3.6419000000953687,3.6622000002860986,3.6763000001907358,3.695300000190734,3.7098000001907323,3.725200000286101,3.741900000095363,3.7586000003814704,3.775200000286098,3.7927000002861035,3.80910000038147,3.8253000001907367,3.8419999999999987,3.8586000003814718,3.8751000003814653,3.8924999999999983,3.908600000381469,3.925200000286104,3.9418000001907316,3.9588000001907346,3.9758000001907305,3.9921000003814697,4.00860000038147,4.0257000002861005,4.061800000190736,4.0686000003814655,4.075200000286102,4.091999999999999,4.108600000381472,4.128,4.141900000095369,4.158600000381469,4.178400000095365,4.1936000003814655,4.2087000002861,4.225100000381467,4.242200000286104,4.261200000286102,4.276900000095367,4.293600000381467,4.311900000095363,4.327400000095366,4.341999999999999,4.358499999999999,4.378100000381465,4.393800000190737,4.40880000019073,4.430700000286102,4.445999999999998,4.463499999999996,4.490200000286102,4.496900000095366,4.512499999999996,4.529900000095367,4.546200000286099,4.563100000381468,4.575300000190737,4.591999999999999,4.608600000381472,4.631900000095364,4.641900000095369,4.658700000286103,4.675300000190731,4.697499999999998,4.712600000381471,4.7284000000953625,4.745900000095368,4.762600000381468,4.777000000000001,4.792100000381467,4.811999999999998,4.827300000190732,4.8419000000953645,4.863500000000002,4.8752000002861,4.892300000190737,4.908600000381462,4.929499999999997,4.942,4.9588000001907275,4.975300000190735,4.997100000381472,5.008800000190739,5.025200000286098,5.0419999999999945,5.0586000003814675,5.075200000286095,5.096800000190733,5.11260000038147,5.1295,5.144500000000001,5.161900000095365,5.176900000095365,5.193800000190727,5.208900000095362,5.227300000190731,5.245800000190734,5.261200000286102,5.275600000381466,5.292499999999997,5.3086000003814675,5.325200000286095,5.341900000095372,5.358800000190733,5.3765,5.393999999999998,5.416700000286106,5.425200000286104,5.441900000095366,5.458600000381473,5.4769000000953625,5.493300000190736,5.50860000038147,5.525300000190732,5.544600000381472,5.563900000095366,5.575600000381463,5.598499999999994,5.611400000095365,5.625200000286107,5.644900000095369,5.659300000190733,5.675700000286106,5.6982000002861,5.712600000381464,5.728300000190735,5.742300000190731,5.761200000286102,5.775900000095369,5.795600000381462,5.814300000190734,5.829600000381468,5.846600000381464,5.865800000190738,5.875300000190727,5.892300000190737,5.908900000095365,5.928800000190726,5.944800000190732,5.9602000002861,5.975500000000004,5.99660000038147,6.012700000286095,6.028800000190735,6.04390000009537,6.061300000190734,6.075600000381463,6.092200000286105,6.112000000000002,6.125400000095361,6.143200000286107,6.175700000286106,6.1829000000953656,6.1921000003814655,6.2088000001907275,6.227400000095365,6.241999999999997,6.258900000095359,6.275300000190732,6.29480000019074,6.308700000286102,6.326800000190737,6.341999999999992,6.362100000381467,6.375400000095361,6.392200000286103,6.408600000381462,6.427400000095368,6.441800000190732,6.458499999999994,6.475200000286101,6.4925,6.50860000038147,6.525100000381464,6.54190000009536,6.5586000003814675,6.57530000019073,6.591999999999992,6.608700000286099,6.625200000286107,6.641900000095369,6.658600000381462,6.675200000286104,6.692600000381468,6.708499999999994,6.725200000286101,6.741800000190729,6.758500000000005,6.777700000286096,6.796600000381467,6.808500000000002,6.825600000381463,6.841900000095372,6.858600000381465,6.875200000286107,6.892000000000003,6.908600000381462,6.925300000190738,6.947800000190732,6.958600000381473,6.975300000190735,6.991900000095363,7.00860000038147,7.025200000286098,7.04190000009536,7.058500000000002,7.07530000019073,7.091999999999992,7.108499999999999,7.125200000286107,7.142200000286103,7.158900000095365,7.17510000038147,7.191900000095366,7.209900000095367,7.225300000190735,7.241900000095363,7.258500000000005,7.275200000286098,7.292100000381474,7.308500000000002,7.325200000286095,7.341900000095372,7.358499999999999,7.3767000002861,7.3947000002861,7.409400000095367,7.425200000286104,7.441900000095366,7.458499999999994,7.475200000286101,7.493100000381467,7.508500000000005,7.525400000095367]","[1732162872643,1732162872684,1732162872708,1732162872716,1732162872741,1732162872752,1732162872776,1732162872783,1732162872809,1732162872816,1732162872845,1732162872853,1732162872876,1732162872883,1732162872909,1732162872918,1732162872924,1732162872946,1732162872990,1732162872999,1732162873007,1732162873025,1732162873041,1732162873057,1732162873074,1732162873092,1732162873107,1732162873125,1732162873141,1732162873158,1732162873174,1732162873194,1732162873207,1732162873224,1732162873243,1732162873257,1732162873274,1732162873290,1732162873307,1732162873324,1732162873340,1732162873359,1732162873377,1732162873393,1732162873407,1732162873428,1732162873444,1732162873461,1732162873474,1732162873490,1732162873507,1732162873524,1732162873540,1732162873557,1732162873574,1732162873591,1732162873607,1732162873624,1732162873649,1732162873657,1732162873674,1732162873690,1732162873707,1732162873724,1732162873744,1732162873757,1732162873774,1732162873791,1732162873807,1732162873824,1732162873842,1732162873859,1732162873874,1732162873893,1732162873907,1732162873926,1732162873942,1732162873961,1732162873975,1732162873991,1732162874007,1732162874025,1732162874041,1732162874059,1732162874074,1732162874092,1732162874110,1732162874129,1732162874145,1732162874162,1732162874177,1732162874191,1732162874208,1732162874229,1732162874241,1732162874257,1732162874274,1732162874290,1732162874307,1732162874325,1732162874340,1732162874357,1732162874374,1732162874390,1732162874407,1732162874425,1732162874441,1732162874459,1732162874474,1732162874490,1732162874507,1732162874524,1732162874541,1732162874560,1732162874576,1732162874592,1732162874608,1732162874643,1732162874651,1732162874657,1732162874674,1732162874693,1732162874708,1732162874724,1732162874741,1732162874760,1732162874774,1732162874792,1732162874808,1732162874826,1732162874840,1732162874858,1732162874875,1732162874890,1732162874907,1732162874924,1732162874940,1732162874960,1732162874977,1732162874993,1732162875009,1732162875030,1732162875061,1732162875067,1732162875074,1732162875091,1732162875107,1732162875126,1732162875140,1732162875157,1732162875177,1732162875200,1732162875219,1732162875228,1732162875241,1732162875257,1732162875274,1732162875294,1732162875309,1732162875324,1732162875340,1732162875357,1732162875374,1732162875391,1732162875407,1732162875425,1732162875440,1732162875457,1732162875474,1732162875494,1732162875507,1732162875524,1732162875540,1732162875557,1732162875574,1732162875590,1732162875607,1732162875624,1732162875640,1732162875662,1732162875679,1732162875690,1732162875707,1732162875726,1732162875742,1732162875758,1732162875774,1732162875791,1732162875807,1732162875824,1732162875842,1732162875857,1732162875874,1732162875891,1732162875907,1732162875924,1732162875941,1732162875958,1732162875974,1732162875990,1732162876007,1732162876024,1732162876042,1732162876057,1732162876074,1732162876090,1732162876107,1732162876124,1732162876140,1732162876157,1732162876174,1732162876191,1732162876207,1732162876226,1732162876242,1732162876258,1732162876274,1732162876294,1732162876308,1732162876327,1732162876342,1732162876357,1732162876374,1732162876390,1732162876407,1732162876425,1732162876441,1732162876457,1732162876474,1732162876490,1732162876507,1732162876524,1732162876540,1732162876557,1732162876574,1732162876591,1732162876608,1732162876624,1732162876640,1732162876658,1732162876694,1732162876700,1732162876707,1732162876724,1732162876740,1732162876760,1732162876774,1732162876790,1732162876810,1732162876825,1732162876841,1732162876857,1732162876874,1732162876893,1732162876909,1732162876926,1732162876944,1732162876959,1732162876974,1732162876990,1732162877010,1732162877026,1732162877041,1732162877063,1732162877078,1732162877095,1732162877122,1732162877129,1732162877144,1732162877162,1732162877178,1732162877195,1732162877207,1732162877224,1732162877240,1732162877264,1732162877274,1732162877291,1732162877307,1732162877329,1732162877345,1732162877360,1732162877378,1732162877394,1732162877409,1732162877424,1732162877444,1732162877459,1732162877474,1732162877495,1732162877507,1732162877524,1732162877541,1732162877561,1732162877574,1732162877591,1732162877607,1732162877629,1732162877641,1732162877657,1732162877674,1732162877690,1732162877707,1732162877729,1732162877744,1732162877761,1732162877776,1732162877794,1732162877809,1732162877826,1732162877841,1732162877859,1732162877878,1732162877893,1732162877907,1732162877924,1732162877940,1732162877957,1732162877974,1732162877991,1732162878008,1732162878026,1732162878049,1732162878057,1732162878074,1732162878090,1732162878109,1732162878125,1732162878140,1732162878157,1732162878176,1732162878196,1732162878207,1732162878230,1732162878243,1732162878257,1732162878277,1732162878291,1732162878308,1732162878330,1732162878345,1732162878360,1732162878374,1732162878393,1732162878408,1732162878428,1732162878446,1732162878461,1732162878478,1732162878498,1732162878507,1732162878524,1732162878541,1732162878561,1732162878577,1732162878592,1732162878607,1732162878629,1732162878645,1732162878661,1732162878676,1732162878693,1732162878707,1732162878724,1732162878744,1732162878757,1732162878775,1732162878808,1732162878815,1732162878824,1732162878841,1732162878859,1732162878874,1732162878891,1732162878907,1732162878927,1732162878941,1732162878959,1732162878974,1732162878994,1732162879007,1732162879024,1732162879041,1732162879059,1732162879074,1732162879090,1732162879107,1732162879124,1732162879141,1732162879157,1732162879174,1732162879191,1732162879207,1732162879224,1732162879241,1732162879257,1732162879274,1732162879290,1732162879307,1732162879325,1732162879340,1732162879357,1732162879374,1732162879390,1732162879410,1732162879429,1732162879440,1732162879457,1732162879474,1732162879491,1732162879507,1732162879524,1732162879540,1732162879557,1732162879580,1732162879590,1732162879607,1732162879624,1732162879641,1732162879657,1732162879674,1732162879690,1732162879707,1732162879724,1732162879740,1732162879757,1732162879774,1732162879791,1732162879807,1732162879824,1732162879842,1732162879857,1732162879874,1732162879890,1732162879907,1732162879924,1732162879940,1732162879957,1732162879974,1732162879990,1732162880008,1732162880027,1732162880041,1732162880057,1732162880074,1732162880090,1732162880107,1732162880125,1732162880140,1732162880157]","[[770.8,743.1],[770.8,743.1],[796.3,705.9],[796.3,705.9],[815.6,664.3],[815.6,664.3],[853.2,651],[853.2,651],[905.1,635.6],[905.1,635.6],[948.9,608.6],[948.9,608.6],[1004.1,574.6],[1004.1,574.6],[1046.3,559],[1046.3,559],[1046.3,559],[1046.3,559],[1092.3,560.3],[1092.3,560.3],[1114.9,532],[1146.9,492.3],[1166.4,461.1],[1166.4,461.1],[1169.4,425.1],[1180.5,392.5],[1176.3,364],[1162.8,355.7],[1137.9,354.4],[1118.1,329.5],[1099,304.3],[1100.2,313.2],[1100.2,313.2],[1080.7,318.4],[1082.1,314.9],[1082.1,314.9],[1082.4,300.7],[1078.2,288.2],[1070.7,281.6],[1072.6,248.2],[1080,223.6],[1076.1,207.8],[1078.4,197.4],[1078.2,180.5],[1099,186.1],[1076,186.1],[1065.2,194.4],[1047.7,183.4],[1049.6,176.2],[1042.5,192.6],[1042.5,192.6],[1038.6,194.5],[1038.6,194.5],[1040.9,196.2],[1040.9,196.2],[1043.6,188.6],[1043.6,188.6],[1056.9,184.6],[1056.9,184.6],[1030.2,199.7],[1030.2,199.7],[1033.2,223.9],[1037,247.2],[1029.8,276.3],[1029.8,276.3],[1018.2,306.1],[1020,326.8],[1020,326.8],[1011.7,351.8],[1006.3,385.2],[992.9,417.1],[982.5,456.5],[994.9,468.9],[1011.9,477.9],[1023.2,480.8],[1032.7,494.1],[1025.9,491.7],[1035,493.9],[1048.9,505.7],[1044.6,512.5],[1040.3,519.3],[1034.8,506.2],[1040.2,492.9],[1040.3,480.5],[1045.3,475.9],[1047.5,481.3],[1041.5,468.6],[1023.2,455],[1014.3,427.5],[1027.2,408.8],[1038.8,387.4],[1038.8,387.4],[1015.7,375.7],[972.1,350.2],[972.1,350.2],[959.3,335.6],[932.7,328.8],[908.5,310.4],[897.1,315.4],[883.4,302.3],[856.9,294.9],[849.2,282.6],[818.9,277.4],[844.7,278.7],[870,299.2],[865.4,309.1],[874.6,310.4],[891.2,314.7],[907.8,319],[906.7,337.6],[905.6,356.2],[907.2,377.7],[932.7,394.8],[912.2,412.2],[901.8,424.4],[902.4,446.2],[903,468],[919.2,476.4],[919.2,476.4],[934.8,484.6],[970.4,496.6],[1009.9,511.2],[1011.1,525.4],[990.1,531.8],[986.9,532.5],[1008.6,524.3],[1019.1,508.7],[1014.6,480.4],[1002.2,467.6],[978.3,432.1],[954.4,396.6],[931.1,382.6],[918.8,363.7],[943.2,347.9],[970.5,335.4],[978.9,354.9],[987.3,374.4],[1012,404.3],[1029.1,424.9],[1053.8,459.2],[1076.3,495.2],[1091.4,497.2],[1121.5,514.6],[1121.5,514.6],[1121.5,514.6],[1125.9,532.7],[1124.4,553.2],[1131.5,564.4],[1143.8,572.3],[1154.3,578.5],[1164.8,584.7],[1164.8,584.7],[1180.5,599.6],[1180.5,599.6],[1192.9,603.2],[1192.9,603.2],[1214.2,621.4],[1212.5,625.5],[1218.7,633.5],[1227.9,635.8],[1222.5,624.3],[1222.9,616.5],[1223.8,612.7],[1212.1,617.6],[1201.3,635.6],[1185,649.9],[1169.6,660.2],[1151.6,667],[1153,679.9],[1153,679.9],[1140.4,682.6],[1140.4,682.6],[1141.1,689],[1141.1,689],[1125,700.6],[1125,700.6],[1105.4,714.9],[1105.4,714.9],[1092.6,699],[1069.2,674.3],[1053.1,689.6],[1053.1,689.6],[1026.4,704.6],[1039.8,714],[1037.1,717.4],[1031.2,725.3],[1012,729.5],[992.3,719.9],[976.1,707.6],[963.7,707.1],[960.3,702.8],[964.4,677.4],[971.5,649.2],[931,628.4],[931,628.4],[896.7,611.7],[884.7,606.2],[881.5,595.6],[880.3,592.2],[870,596.6],[861.7,610.7],[851.3,616.2],[837.1,616.1],[836.1,626],[836.4,624.7],[853,619.2],[848.8,612.4],[837.7,610.8],[830.9,610.2],[833.1,599.8],[835.3,589.4],[839.5,584.8],[843.7,580.2],[840.4,578.1],[852.3,575.1],[839.2,584],[836,594.8],[834,586.5],[832,578.2],[844.3,585.3],[856.6,592.4],[859.9,586.3],[865.4,579.7],[861,587.9],[858.2,608.6],[862.3,580.4],[872.2,546.1],[879.3,551],[885.6,565.3],[876.1,558.8],[870.3,564.8],[874.2,569.4],[875.9,574.5],[884.8,581.3],[873.3,563.8],[857.1,574.3],[843.7,591.7],[845.8,588.8],[842.7,587.1],[846.2,576.3],[849.7,562.6],[849.7,562.6],[843.7,564.4],[850.3,560],[842.6,530.2],[860.7,526.7],[879.1,532.3],[894.1,532.4],[882.9,529.3],[904.1,527.9],[924.7,548.9],[945.9,542.9],[976,538.8],[979,552.7],[997.9,549],[1011.4,543.3],[1024.9,537.6],[1031,526.9],[1047.5,519.5],[1049.4,500.7],[1050,480.9],[1026.3,472.4],[1002.6,463.9],[1005.5,447.9],[1013.3,451.5],[995.7,422.2],[995.7,422.2],[1003.1,426.5],[995.4,422.5],[987.2,413.7],[974,400.1],[974,400.1],[974.9,415.1],[974.9,415.1],[1000.3,436.3],[1012.3,437],[1012.3,437],[1019.8,452.1],[998.1,454],[1035.9,503.4],[1018.6,503.1],[1045.5,510.4],[1072.9,522.5],[1092.8,547.3],[1095.5,538.6],[1092.4,512.4],[1100.5,512.4],[1089.3,507.2],[1090,498.5],[1073,473.9],[1073,473.9],[1078.6,470.6],[1078.6,470.6],[1062.7,474.8],[1062.7,474.8],[1042.9,475.6],[1042.9,475.6],[1040.1,446.9],[1040.1,446.9],[1026.1,444.9],[1026.1,444.9],[1026.7,445],[1017.5,430.4],[1031.2,419.5],[1050.5,419.6],[1052.9,412.7],[1054.7,418.7],[1046.9,399.4],[1043,383.5],[1029.6,414.3],[1041.4,397.8],[1038.9,410.3],[1048.4,431.8],[1032.6,436.5],[1014.6,428.1],[985,437.8],[985,437.8],[976.4,448.1],[984.1,449],[1001.8,474.4],[1012.5,472.5],[984.4,529.6],[970.1,585.5],[970.1,585.5],[953.3,632.2],[915.9,666.3],[908,727.3],[900.1,793.9],[874.5,836.1],[865,918.7],[829,966.1],[828.7,957.8],[828.7,957.8],[845,916.2],[845,916.2],[860,879.6],[867.4,850],[904.9,821.9],[918,782.5],[933.1,701.2],[982.8,655.1],[983.8,590.8],[1001.3,537.2],[983.2,515.3],[971.2,495.8],[936.9,449.7],[915.4,396.4],[902.4,376.3],[904.1,366.7],[915.9,383.6],[915.9,383.6],[878.3,358.6],[867,342.9],[874.1,353.6],[870.9,365.6],[879.1,379.8],[897.4,392.5],[907.6,420.3],[910.4,419.8],[917.2,424],[924,428.2],[937.7,429.2],[959.4,442.2],[952.2,456.1],[955.4,494],[955.4,494],[967.3,475.1],[967.3,475.1],[982.3,487.6],[982.3,487.6],[984.7,498.7],[1002.3,500.2],[993.3,483.1],[989.5,474.4],[998.4,481.3],[999.9,466.6],[1015.2,424.5],[1025.9,387.8],[1014.5,384.7],[1010.4,373.8],[1010.4,373.8],[1026.3,360.8],[1019.2,346.9],[1021.5,342.1],[1032.3,330.1],[1030.6,328.6],[1016.2,333],[1004.9,336.8],[1010.5,332.1],[1023.9,354.3],[1027.6,363.5],[1027.6,363.5],[1021.9,362.8],[1021.9,362.8],[1015.5,388.6],[999.1,409.4],[969,429],[966.5,440.1],[985.1,434.9],[988.9,453.9],[980.4,476],[984.4,446.9],[988.4,417.8],[1011.7,411.1],[1009.7,384.3],[1009.7,384.3],[1012.3,379.3],[1027.3,361.9],[1031.6,339.8],[1029.3,341.1],[1029.3,341.1],[1032.2,309.3],[1032.2,309.3],[1017.1,278.5],[1008.5,298.5],[1008.5,298.5],[989.8,325.5],[989.8,325.5],[969.2,335.9],[969.2,335.9],[995.7,357.6],[995.7,357.6],[1030.1,365.2],[1046.4,365.9],[1033.5,372.6],[1033.5,372.6],[1016.6,377.7],[1018.2,394.2],[1052.2,415.4],[1046.4,414.7],[1050.7,407],[1050.7,407],[1040.2,402.8],[1025.4,412.4],[998.9,410.9],[1001.4,417.4],[1033,427.5],[1056.1,427.4],[1071.5,422.1],[1067.5,428.7],[1071.8,433.1],[1075.1,428.1],[1083.2,421.5],[1100,406.3],[1102.6,385.2],[1101.9,386.1],[1092,372.1],[1082.6,369],[1082.6,369],[1081.2,374.4]]","[-0.142,0.42599999999999993]","[0.142,0.42599999999999993]","[0.42599999999999993,0.42599999999999993]","[-0.42599999999999993,-0.142]","[-0.42599999999999993,0.142]","[-0.42599999999999993,-0.42599999999999993]","[-0.142,-0.142]","[0.142,-0.142]","[0.42599999999999993,-0.142]","[-0.142,0.142]","[0.142,0.142]","[0.42599999999999993,0.142]","[-0.142,-0.42599999999999993]","[0.142,-0.42599999999999993]","[0.42599999999999993,-0.42599999999999993]",0,0,0,0,1,4,Laptop,25,20,8,1,60,4,1,60,3
