inst1_resp.keys,inst1_resp.rt,calibrationMouse.x,calibrationMouse.y,calibrationMouse.leftButton,calibrationMouse.midButton,calibrationMouse.rightButton,calibrationClick.x,calibrationClick.y,calibrationClick.leftButton,calibrationClick.midButton,calibrationClick.rightButton,trialsc.thisRepN,trialsc.thisTrialN,trialsc.thisN,trialsc.thisIndex,trialsc.ran,calibration_x,calibration_y,participant,session,date,expName,psychopyVersion,OS,frameRate,ScreenRes_pixels,Camera_pixels,mouse_2.x,mouse_2.y,mouse_2.leftButton,mouse_2.midButton,mouse_2.rightButton,mouse_2.time,mouse_2.clicked_name,mouse.x,mouse.y,mouse.leftButton,mouse.midButton,mouse.rightButton,mouse.time,mouse.clicked_name,Choice,Trial,TrialDuration,MOUSE_GAZE,ET_GAZE,ET_GAZE_x_T,time,unixTime,ET_GAZE_NF,Loc_Bus_label,Loc_Metro_label,Loc_RH_label,Loc_Cost_label,Loc_Travel_label,Loc_Comfort_label,Loc_Bus_cost,Loc_Metro_cost,Loc_RH_cost,Loc_Bus_travel,Loc_Metro_travel,Loc_RH_travel,Loc_Bus_comfort,Loc_Metro_comfort,Loc_RH_comfort,trials.thisRepN,trials.thisTrialN,trials.thisN,trials.thisIndex,trials.ran,Block,Device,RH_cost,RH_travel_time,RH_Comfort,metro_cost,metro_travel_time,metro_Comfort,Bus_cost,Bus_travel_time,Bus_Comfort
space,2.7126,-0.092708333,-0.440740741,1,0,0,-0.2625,-0.385185185,0,0,0,0,0,0,12,1,0,0.33,19,001,2024-11-18_12h23.41.409,Attention_exp_legacy,2023.1.0,Win32,59.52380952,,,,,,,,,,,,,,,,,,,,,,,,,,,,,,,,,,,,,,,,,,,,,,,,,,,,,,,,
,,,,,,,-0.2625,-0.385185185,0,0,0,0,1,1,15,1,0.33,-0.33,19,001,2024-11-18_12h23.41.409,Attention_exp_legacy,2023.1.0,Win32,59.52380952,,,,,,,,,,,,,,,,,,,,,,,,,,,,,,,,,,,,,,,,,,,,,,,,,,,,,,,,
,,,,,,,-0.2625,-0.385185185,0,0,0,0,2,2,13,1,0,0.67,19,001,2024-11-18_12h23.41.409,Attention_exp_legacy,2023.1.0,Win32,59.52380952,,,,,,,,,,,,,,,,,,,,,,,,,,,,,,,,,,,,,,,,,,,,,,,,,,,,,,,,
,,,,,,,-0.2625,-0.385185185,0,0,0,0,3,3,16,1,0.33,0,19,001,2024-11-18_12h23.41.409,Attention_exp_legacy,2023.1.0,Win32,59.52380952,,,,,,,,,,,,,,,,,,,,,,,,,,,,,,,,,,,,,,,,,,,,,,,,,,,,,,,,
,,,,,,,-0.2625,-0.385185185,0,0,0,0,4,4,3,1,-0.67,0.33,19,001,2024-11-18_12h23.41.409,Attention_exp_legacy,2023.1.0,Win32,59.52380952,,,,,,,,,,,,,,,,,,,,,,,,,,,,,,,,,,,,,,,,,,,,,,,,,,,,,,,,
,,,,,,,-0.2625,-0.385185185,0,0,0,0,5,5,2,1,-0.67,0,19,001,2024-11-18_12h23.41.409,Attention_exp_legacy,2023.1.0,Win32,59.52380952,,,,,,,,,,,,,,,,,,,,,,,,,,,,,,,,,,,,,,,,,,,,,,,,,,,,,,,,
,,,,,,,-0.2625,-0.385185185,0,0,0,0,6,6,17,1,0.33,0.33,19,001,2024-11-18_12h23.41.409,Attention_exp_legacy,2023.1.0,Win32,59.52380952,,,,,,,,,,,,,,,,,,,,,,,,,,,,,,,,,,,,,,,,,,,,,,,,,,,,,,,,
,,,,,,,-0.2625,-0.385185185,0,0,0,0,7,7,11,1,0,0,19,001,2024-11-18_12h23.41.409,Attention_exp_legacy,2023.1.0,Win32,59.52380952,,,,,,,,,,,,,,,,,,,,,,,,,,,,,,,,,,,,,,,,,,,,,,,,,,,,,,,,
,,,,,,,-0.2625,-0.385185185,0,0,0,0,8,8,20,1,0.67,-0.67,19,001,2024-11-18_12h23.41.409,Attention_exp_legacy,2023.1.0,Win32,59.52380952,,,,,,,,,,,,,,,,,,,,,,,,,,,,,,,,,,,,,,,,,,,,,,,,,,,,,,,,
,,,,,,,-0.2625,-0.385185185,0,0,0,0,9,9,14,1,0.33,-0.67,19,001,2024-11-18_12h23.41.409,Attention_exp_legacy,2023.1.0,Win32,59.52380952,,,,,,,,,,,,,,,,,,,,,,,,,,,,,,,,,,,,,,,,,,,,,,,,,,,,,,,,
,,,,,,,-0.2625,-0.385185185,0,0,0,0,10,10,4,1,-0.33,-0.67,19,001,2024-11-18_12h23.41.409,Attention_exp_legacy,2023.1.0,Win32,59.52380952,,,,,,,,,,,,,,,,,,,,,,,,,,,,,,,,,,,,,,,,,,,,,,,,,,,,,,,,
,,,,,,,-0.2625,-0.385185185,0,0,0,0,11,11,6,1,-0.33,0,19,001,2024-11-18_12h23.41.409,Attention_exp_legacy,2023.1.0,Win32,59.52380952,,,,,,,,,,,,,,,,,,,,,,,,,,,,,,,,,,,,,,,,,,,,,,,,,,,,,,,,
,,,,,,,-0.2625,-0.385185185,0,0,0,0,12,12,18,1,0.33,0.67,19,001,2024-11-18_12h23.41.409,Attention_exp_legacy,2023.1.0,Win32,59.52380952,,,,,,,,,,,,,,,,,,,,,,,,,,,,,,,,,,,,,,,,,,,,,,,,,,,,,,,,
,,,,,,,-0.2625,-0.385185185,0,0,0,0,13,13,7,1,-0.33,0.33,19,001,2024-11-18_12h23.41.409,Attention_exp_legacy,2023.1.0,Win32,59.52380952,,,,,,,,,,,,,,,,,,,,,,,,,,,,,,,,,,,,,,,,,,,,,,,,,,,,,,,,
,,,,,,,-0.2625,-0.385185185,0,0,0,0,14,14,19,1,0.67,0.67,19,001,2024-11-18_12h23.41.409,Attention_exp_legacy,2023.1.0,Win32,59.52380952,,,,,,,,,,,,,,,,,,,,,,,,,,,,,,,,,,,,,,,,,,,,,,,,,,,,,,,,
,,,,,,,-0.2625,-0.385185185,0,0,0,0,15,15,5,1,-0.33,-0.33,19,001,2024-11-18_12h23.41.409,Attention_exp_legacy,2023.1.0,Win32,59.52380952,,,,,,,,,,,,,,,,,,,,,,,,,,,,,,,,,,,,,,,,,,,,,,,,,,,,,,,,
,,,,,,,-0.2625,-0.385185185,0,0,0,0,16,16,8,1,-0.33,0.67,19,001,2024-11-18_12h23.41.409,Attention_exp_legacy,2023.1.0,Win32,59.52380952,,,,,,,,,,,,,,,,,,,,,,,,,,,,,,,,,,,,,,,,,,,,,,,,,,,,,,,,
,,,,,,,-0.2625,-0.385185185,0,0,0,0,17,17,10,1,0,-0.33,19,001,2024-11-18_12h23.41.409,Attention_exp_legacy,2023.1.0,Win32,59.52380952,,,,,,,,,,,,,,,,,,,,,,,,,,,,,,,,,,,,,,,,,,,,,,,,,,,,,,,,
,,,,,,,-0.2625,-0.385185185,0,0,0,0,18,18,9,1,0,-0.67,19,001,2024-11-18_12h23.41.409,Attention_exp_legacy,2023.1.0,Win32,59.52380952,,,,,,,,,,,,,,,,,,,,,,,,,,,,,,,,,,,,,,,,,,,,,,,,,,,,,,,,
,,,,,,,-0.2625,-0.385185185,0,0,0,0,19,19,1,1,-0.67,-0.33,19,001,2024-11-18_12h23.41.409,Attention_exp_legacy,2023.1.0,Win32,59.52380952,,,,,,,,,,,,,,,,,,,,,,,,,,,,,,,,,,,,,,,,,,,,,,,,,,,,,,,,
,,,,,,,-0.2625,-0.385185185,0,0,0,0,20,20,0,1,-0.67,-0.67,19,001,2024-11-18_12h23.41.409,Attention_exp_legacy,2023.1.0,Win32,59.52380952,,,,,,,,,,,,,,,,,,,,,,,,,,,,,,,,,,,,,,,,,,,,,,,,,,,,,,,,
,,,,,,,,,,,,,,,,,,,19,001,2024-11-18_12h23.41.409,Attention_exp_legacy,2023.1.0,Win32,59.52380952,"[1920,1080]","[640,480]",[-0.021875],[-0.5444444444444444],[1],[0],[0],[2.6118000001907404],"[""StartButton""]",[0.128125],[0.3907407407407407],[1],[0],[0],[3.620200000286104],"[""Metro_label""]",Metro_label,1,4.6458,"[[-0.0375,-0.55],[-0.0375,-0.55],[-0.0375,-0.55],[-0.0375,-0.55],[-0.0375,-0.55],[-0.0375,-0.55],[-0.0375,-0.55],[-0.0375,-0.55],[-0.0375,-0.55],[-0.0375,-0.55],[-0.0375,-0.55],[-0.0375,-0.55],[-0.0375,-0.55],[-0.0375,-0.55],[-0.0375,-0.55],[-0.0375,-0.55],[-0.0375,-0.55],[-0.0375,-0.55],[-0.0375,-0.55],[-0.0375,-0.55],[-0.0375,-0.55],[-0.0375,-0.55],[-0.0375,-0.55],[-0.0375,-0.55],[-0.0375,-0.55],[-0.0375,-0.55],[-0.0375,-0.55],[-0.0375,-0.55],[-0.0375,-0.55],[-0.0375,-0.55],[-0.0375,-0.55],[-0.0375,-0.55],[-0.0375,-0.55],[-0.0375,-0.55],[-0.0375,-0.55],[-0.0375,-0.55],[-0.0375,-0.55],[-0.0375,-0.55],[-0.0375,-0.55],[-0.0375,-0.55],[-0.0375,-0.55],[-0.0375,-0.55],[-0.0375,-0.55],[-0.0375,-0.55],[-0.0375,-0.55],[-0.0375,-0.55],[-0.03854166666666667,-0.55],[-0.03854166666666667,-0.55],[-0.03958333333333333,-0.55],[-0.03958333333333333,-0.55],[-0.03958333333333333,-0.55],[-0.03958333333333333,-0.55],[-0.03958333333333333,-0.55],[-0.03958333333333333,-0.55],[-0.03958333333333333,-0.55],[-0.03958333333333333,-0.55],[-0.03958333333333333,-0.55],[-0.03958333333333333,-0.55],[-0.03958333333333333,-0.55],[-0.03958333333333333,-0.55],[-0.03958333333333333,-0.55],[-0.03958333333333333,-0.55],[-0.042708333333333334,-0.55],[-0.04895833333333333,-0.55],[-0.06041666666666667,-0.55],[-0.06979166666666667,-0.5462962962962963],[-0.07604166666666666,-0.5388888888888889],[-0.07708333333333334,-0.5351851851851852],[-0.07708333333333334,-0.5351851851851852],[-0.07708333333333334,-0.5351851851851852],[-0.07708333333333334,-0.5351851851851852],[-0.07708333333333334,-0.5351851851851852],[-0.07708333333333334,-0.5351851851851852],[-0.07708333333333334,-0.5351851851851852],[-0.07708333333333334,-0.5351851851851852],[-0.07708333333333334,-0.5351851851851852],[-0.07708333333333334,-0.5351851851851852],[-0.07708333333333334,-0.5351851851851852],[-0.07708333333333334,-0.5351851851851852],[-0.07708333333333334,-0.5351851851851852],[-0.07708333333333334,-0.5351851851851852],[-0.07708333333333334,-0.5351851851851852],[-0.07708333333333334,-0.5351851851851852],[-0.07708333333333334,-0.5351851851851852],[-0.07708333333333334,-0.5351851851851852],[-0.07708333333333334,-0.5351851851851852],[-0.07708333333333334,-0.5351851851851852],[-0.07708333333333334,-0.5351851851851852],[-0.07708333333333334,-0.5351851851851852],[-0.07708333333333334,-0.5351851851851852],[-0.07708333333333334,-0.5351851851851852],[-0.07708333333333334,-0.5351851851851852],[-0.07708333333333334,-0.5351851851851852],[-0.07708333333333334,-0.5351851851851852],[-0.07708333333333334,-0.5351851851851852],[-0.07708333333333334,-0.5351851851851852],[-0.07708333333333334,-0.5351851851851852],[-0.07708333333333334,-0.5351851851851852],[-0.07708333333333334,-0.5351851851851852],[-0.07708333333333334,-0.5351851851851852],[-0.07708333333333334,-0.5351851851851852],[-0.07708333333333334,-0.5351851851851852],[-0.07708333333333334,-0.5351851851851852],[-0.07708333333333334,-0.5351851851851852],[-0.07708333333333334,-0.5351851851851852],[-0.07708333333333334,-0.5351851851851852],[-0.07708333333333334,-0.5351851851851852],[-0.07708333333333334,-0.5351851851851852],[-0.07708333333333334,-0.5351851851851852],[-0.07708333333333334,-0.5351851851851852],[-0.07708333333333334,-0.524074074074074],[-0.07708333333333334,-0.5111111111111111],[-0.07083333333333333,-0.4925925925925926],[-0.065625,-0.48148148148148145],[-0.0625,-0.4703703703703704],[-0.06041666666666667,-0.46296296296296297],[-0.05625,-0.4537037037037037],[-0.051041666666666666,-0.43333333333333335],[-0.04791666666666667,-0.4148148148148148],[-0.042708333333333334,-0.40185185185185185],[-0.0375,-0.3851851851851852],[-0.030208333333333334,-0.3648148148148148],[-0.022916666666666665,-0.34444444444444444],[-0.013541666666666667,-0.32222222222222224],[-0.00625,-0.29444444444444445],[0.003125,-0.25925925925925924],[0.013541666666666667,-0.22592592592592592],[0.020833333333333332,-0.2037037037037037],[0.035416666666666666,-0.16296296296296298],[0.04479166666666667,-0.13703703703703704],[0.053125,-0.11481481481481481],[0.0625,-0.09444444444444444],[0.071875,-0.08148148148148149],[0.08020833333333334,-0.07222222222222222],[0.0875,-0.06111111111111111],[0.09479166666666666,-0.05185185185185185],[0.09791666666666667,-0.04814814814814815],[0.10208333333333333,-0.04259259259259259],[0.10520833333333333,-0.03888888888888889],[0.10625,-0.037037037037037035],[0.109375,-0.03333333333333333],[0.11354166666666667,-0.03148148148148148],[0.11770833333333333,-0.027777777777777776],[0.12083333333333333,-0.024074074074074074],[0.12395833333333334,-0.022222222222222223],[0.12708333333333333,-0.018518518518518517],[0.12916666666666668,-0.014814814814814815],[0.13125,-0.012962962962962963],[0.13333333333333333,-0.011111111111111112],[0.134375,-0.009259259259259259],[0.134375,-0.009259259259259259],[0.13541666666666666,-0.007407407407407408],[0.13645833333333332,-0.005555555555555556],[0.1375,-0.003703703703703704],[0.1375,-0.003703703703703704],[0.1375,-0.003703703703703704],[0.1375,-0.003703703703703704],[0.1375,-0.003703703703703704],[0.1375,-0.001851851851851852],[0.13541666666666666,-0.001851851851851852],[0.134375,-0.001851851851851852],[0.13333333333333333,-0.001851851851851852],[0.13333333333333333,-0.001851851851851852],[0.13333333333333333,-0.001851851851851852],[0.13333333333333333,-0.001851851851851852],[0.13333333333333333,-0.001851851851851852],[0.13333333333333333,-0.001851851851851852],[0.13333333333333333,-0.001851851851851852],[0.13333333333333333,-0.001851851851851852],[0.13333333333333333,-0.001851851851851852],[0.13333333333333333,-0.001851851851851852],[0.13333333333333333,-0.003703703703703704],[0.13333333333333333,-0.003703703703703704],[0.13333333333333333,-0.003703703703703704],[0.13333333333333333,-0.003703703703703704],[0.13333333333333333,-0.003703703703703704],[0.13333333333333333,-0.003703703703703704],[0.13333333333333333,0.009259259259259259],[0.13541666666666666,0.03888888888888889],[0.13645833333333332,0.06481481481481481],[0.13645833333333332,0.08518518518518518],[0.13645833333333332,0.10185185185185185],[0.13645833333333332,0.11666666666666667],[0.13645833333333332,0.12777777777777777],[0.13645833333333332,0.13518518518518519],[0.13645833333333332,0.15185185185185185],[0.13645833333333332,0.15925925925925927],[0.13854166666666667,0.18703703703703703],[0.13854166666666667,0.19444444444444445],[0.13854166666666667,0.2111111111111111],[0.13958333333333334,0.21851851851851853],[0.13958333333333334,0.22777777777777777],[0.140625,0.24259259259259258],[0.14270833333333333,0.2611111111111111],[0.14375,0.2814814814814815],[0.14479166666666668,0.29444444444444445],[0.14479166666666668,0.30185185185185187],[0.14479166666666668,0.3074074074074074],[0.14479166666666668,0.3148148148148148],[0.14479166666666668,0.32592592592592595],[0.14479166666666668,0.3333333333333333],[0.14479166666666668,0.3425925925925926],[0.14479166666666668,0.34629629629629627],[0.14375,0.35555555555555557],[0.14166666666666666,0.362962962962963],[0.13541666666666666,0.37407407407407406],[0.13125,0.38333333333333336],[0.12916666666666668,0.3888888888888889],[0.128125,0.3907407407407407],[0.128125,0.3907407407407407],[0.128125,0.3907407407407407],[0.128125,0.3907407407407407],[0.128125,0.3907407407407407],[0.128125,0.3907407407407407],[0.128125,0.3907407407407407],[0.128125,0.3907407407407407],[0.128125,0.3907407407407407],[0.128125,0.3907407407407407],[0.128125,0.3907407407407407],[0.128125,0.3907407407407407],[0.128125,0.3907407407407407],[0.128125,0.3907407407407407],[0.128125,0.3907407407407407],[0.128125,0.3907407407407407],[0.128125,0.3907407407407407],[0.128125,0.3907407407407407],[0.128125,0.3907407407407407],[0.128125,0.3907407407407407],[0.128125,0.3907407407407407],[0.128125,0.3907407407407407],[0.128125,0.3907407407407407],[0.128125,0.3907407407407407],[0.128125,0.3907407407407407],[0.128125,0.3907407407407407],[0.128125,0.3907407407407407],[0.128125,0.3907407407407407],[0.128125,0.3907407407407407],[0.128125,0.3907407407407407],[0.128125,0.3907407407407407],[0.128125,0.3907407407407407],[0.128125,0.3907407407407407],[0.128125,0.3907407407407407],[0.128125,0.3907407407407407],[0.128125,0.3907407407407407],[0.128125,0.3907407407407407],[0.128125,0.3907407407407407],[0.128125,0.3907407407407407],[0.128125,0.3907407407407407],[0.128125,0.3907407407407407],[0.128125,0.3907407407407407],[0.128125,0.3907407407407407],[0.128125,0.3907407407407407],[0.128125,0.3907407407407407],[0.128125,0.3907407407407407],[0.128125,0.3907407407407407],[0.128125,0.3907407407407407],[0.128125,0.3907407407407407],[0.128125,0.3907407407407407],[0.128125,0.3907407407407407],[0.128125,0.3907407407407407],[0.128125,0.3907407407407407],[0.128125,0.3907407407407407],[0.128125,0.3907407407407407],[0.128125,0.3907407407407407],[0.128125,0.3907407407407407],[0.128125,0.3907407407407407],[0.128125,0.3907407407407407],[0.128125,0.3907407407407407],[0.128125,0.3907407407407407],[0.128125,0.3907407407407407],[0.128125,0.3907407407407407],[0.128125,0.3907407407407407],[0.128125,0.3907407407407407],[0.128125,0.3907407407407407],[0.128125,0.3907407407407407],[0.128125,0.3907407407407407],[0.128125,0.3907407407407407]]","[[-0.13531249999999997,0.38555555555555565],[-0.13531249999999997,0.38555555555555565],[-0.14031250000000003,0.3768518518518518],[-0.14031250000000003,0.3768518518518518],[-0.14281250000000004,0.372037037037037],[-0.14281250000000004,0.372037037037037],[-0.14968750000000006,0.36055555555555563],[-0.14968750000000006,0.36055555555555563],[-0.15885416666666666,0.3455555555555556],[-0.15885416666666666,0.3455555555555556],[-0.16135416666666663,0.3412962962962962],[-0.16135416666666663,0.3412962962962962],[-0.16062500000000005,0.3424074074074074],[-0.16062500000000005,0.3424074074074074],[-0.1610416666666667,0.3416666666666667],[-0.1610416666666667,0.3416666666666667],[-0.1610416666666667,0.3416666666666667],[-0.1610416666666667,0.3416666666666667],[-0.15895833333333337,0.3446296296296297],[-0.15895833333333337,0.3446296296296297],[-0.15552083333333327,0.35037037037037044],[-0.15552083333333327,0.35037037037037044],[-0.14750000000000002,0.36425925925925934],[-0.14750000000000002,0.36425925925925934],[-0.14249999999999996,0.37333333333333335],[-0.14249999999999996,0.37333333333333335],[-0.13291666666666668,0.3890740740740741],[-0.13291666666666668,0.3890740740740741],[-0.12395833333333334,0.4035185185185185],[-0.12395833333333334,0.4035185185185185],[-0.12083333333333333,0.4088888888888888],[-0.12083333333333333,0.4088888888888888],[-0.12177083333333331,0.4075925925925926],[-0.12177083333333331,0.4075925925925926],[-0.11895833333333337,0.4124074074074075],[-0.11895833333333337,0.4124074074074075],[-0.12145833333333336,0.40851851851851856],[-0.12145833333333336,0.40851851851851856],[-0.12291666666666666,0.40666666666666673],[-0.12291666666666666,0.40666666666666673],[-0.12062499999999995,0.4107407407407407],[-0.12062499999999995,0.4107407407407407],[-0.1264583333333333,0.4016666666666666],[-0.1264583333333333,0.4016666666666666],[-0.13031250000000003,0.3955555555555556],[-0.13031250000000003,0.3955555555555556],[-0.13708333333333336,0.3851851851851852],[-0.13708333333333336,0.3851851851851852],[-0.1336458333333333,0.3918518518518519],[-0.1336458333333333,0.3918518518518519],[-0.12687499999999996,0.40314814814814826],[-0.12687499999999996,0.40314814814814826],[-0.12000000000000005,0.4148148148148148],[-0.12000000000000005,0.4148148148148148],[-0.11281249999999995,0.42685185185185187],[-0.10031249999999996,0.44759259259259265],[-0.08729166666666661,0.46888888888888897],[-0.07885416666666671,0.48277777777777786],[-0.06104166666666669,0.5114814814814815],[-0.049270833333333285,0.530925925925926],[-0.033645833333333285,0.556111111111111],[-0.026041666666666668,0.5677777777777778],[-0.022916666666666665,0.5725925925925927],[-0.021979166666666692,0.5744444444444445],[-0.024583333333333356,0.5707407407407408],[-0.027291666666666714,0.5666666666666667],[-0.0296875,0.5631481481481482],[-0.034166666666666616,0.5605555555555556],[-0.041562499999999974,0.5535185185185185],[-0.04364583333333331,0.555],[-0.04791666666666667,0.5533333333333332],[-0.05333333333333338,0.5498148148148148],[-0.059062500000000046,0.5448148148148149],[-0.060000000000000026,0.5462962962962963],[-0.0609375,0.5477777777777777],[-0.06395833333333331,0.5464814814814816],[-0.06697916666666662,0.5451851851851851],[-0.0672916666666667,0.5433333333333333],[-0.06760416666666665,0.5414814814814815],[-0.07145833333333336,0.5337037037037038],[-0.0703125,0.5338888888888889],[-0.06989583333333335,0.5338888888888889],[-0.06916666666666664,0.5353703703703704],[-0.07135416666666666,0.5322222222222222],[-0.07354166666666669,0.5290740740740741],[-0.07593749999999998,0.5237037037037037],[-0.07895833333333328,0.5175925925925926],[-0.08125,0.5140740740740741],[-0.08354166666666671,0.5105555555555557],[-0.08635416666666665,0.5057407407407408],[-0.08635416666666665,0.5057407407407408],[-0.09416666666666665,0.49296296296296305],[-0.09770833333333329,0.4868518518518518],[-0.10093749999999997,0.4812962962962963],[-0.10125000000000005,0.48092592592592603],[-0.1015625,0.48055555555555557],[-0.1014583333333333,0.4824074074074074],[-0.09885416666666665,0.4872222222222223],[-0.09885416666666665,0.4872222222222223],[-0.09812500000000005,0.4883333333333334],[-0.09447916666666671,0.4946296296296297],[-0.08624999999999995,0.5053703703703704],[-0.0780208333333333,0.5161111111111112],[-0.07489583333333331,0.518148148148148],[-0.07489583333333331,0.518148148148148],[-0.07208333333333337,0.5196296296296297],[-0.07208333333333337,0.5196296296296297],[-0.06427083333333337,0.5290740740740741],[-0.06218750000000005,0.5314814814814814],[-0.05927083333333331,0.5353703703703704],[-0.058229166666666644,0.5370370370370371],[-0.057187499999999974,0.5388888888888889],[-0.059062500000000046,0.5355555555555557],[-0.06135416666666664,0.5337037037037038],[-0.06625000000000002,0.5283333333333332],[-0.06687500000000005,0.522962962962963],[-0.06687500000000005,0.522962962962963],[-0.06979166666666667,0.5153703703703703],[-0.07572916666666671,0.5018518518518519],[-0.07354166666666669,0.4922222222222221],[-0.07354166666666669,0.4922222222222221],[-0.07239583333333334,0.4837037037037038],[-0.07156250000000004,0.475],[-0.07062499999999995,0.4681481481481481],[-0.06437499999999995,0.44592592592592584],[-0.06437499999999995,0.44592592592592584],[-0.057604166666666616,0.43185185185185193],[-0.05239583333333329,0.4275925925925925],[-0.04364583333333331,0.4012962962962964],[-0.036354166666666646,0.38796296296296295],[-0.027395833333333286,0.37166666666666676],[-0.02510416666666669,0.36055555555555563],[-0.021249999999999977,0.34888888888888886],[-0.019166666666666644,0.3514814814814814],[-0.02052083333333338,0.3509259259259259],[-0.013437499999999976,0.3346296296296297],[-0.007395833333333357,0.3103703703703704],[-0.007395833333333357,0.3103703703703704],[0.00604166666666662,0.27981481481481485],[0.00604166666666662,0.27981481481481485],[0.011354166666666643,0.26907407407407397],[0.011354166666666643,0.26907407407407397],[0.017708333333333333,0.2537037037037037],[0.017708333333333333,0.2537037037037037],[0.028437499999999952,0.22240740740740744],[0.028437499999999952,0.22240740740740744],[0.03916666666666669,0.20574074074074078],[0.03916666666666669,0.20574074074074078],[0.04802083333333336,0.2007407407407407],[0.05791666666666669,0.16666666666666666],[0.07374999999999995,0.13111111111111104],[0.07708333333333334,0.12481481481481477],[0.07708333333333334,0.12481481481481477],[0.08458333333333339,0.11148148148148157],[0.08499999999999991,0.10611111111111103],[0.08812499999999991,0.11185185185185181],[0.09395833333333338,0.11148148148148157],[0.08812499999999991,0.13111111111111104],[0.08812499999999991,0.13111111111111104],[0.09343750000000005,0.11574074074074074],[0.08937499999999995,0.10685185185185193],[0.09385416666666657,0.0977777777777777],[0.09572916666666677,0.09129629629629621],[0.08927083333333338,0.10055555555555547],[0.07864583333333333,0.11685185185185189],[0.07864583333333333,0.11685185185185189],[0.06187499999999998,0.1425925925925926],[0.06187499999999998,0.1425925925925926],[0.044270833333333336,0.16166666666666657],[0.030208333333333334,0.1633333333333334],[0.01593749999999995,0.18277777777777787],[0.0007291666666667141,0.19425925925925921],[0.0007291666666667141,0.19425925925925921],[0.011562500000000024,0.17629629629629637],[0.010416666666666666,0.17481481481481478],[0.013750000000000047,0.1725925925925927],[0.024166666666666715,0.15648148148148147],[0.020937500000000022,0.15407407407407417],[0.043229166666666666,0.12629629629629638],[0.05406249999999998,0.10277777777777777],[0.06135416666666664,0.09666666666666675],[0.06802083333333328,0.07462962962962955],[0.08312499999999995,0.05277777777777778],[0.08375000000000009,0.052962962962963],[0.08885416666666662,0.05185185185185185],[0.08781249999999995,0.030555555555555555],[0.0853125000000001,0.020740740740740823],[0.09677083333333343,0.0005555555555554713],[0.09677083333333343,0.0005555555555554713],[0.09541666666666657,-0.024814814814814772],[0.10260416666666666,-0.04722222222222222],[0.10260416666666666,-0.04722222222222222],[0.11281249999999995,-0.0809259259259259],[0.12156250000000005,-0.09981481481481477],[0.11593749999999996,-0.09259259259259259],[0.11593749999999996,-0.09259259259259259],[0.11552083333333343,-0.1051851851851852],[0.11552083333333343,-0.1051851851851852],[0.1165625000000001,-0.1270370370370371],[0.11677083333333324,-0.127962962962963],[0.11677083333333324,-0.127962962962963],[0.12052083333333338,-0.12388888888888884],[0.12385416666666677,-0.14833333333333337],[0.12197916666666657,-0.15759259259259265],[0.12302083333333323,-0.17407407407407408],[0.12239583333333333,-0.18333333333333332],[0.12239583333333333,-0.18333333333333332],[0.12770833333333323,-0.21240740740740738],[0.13395833333333323,-0.24074074074074073],[0.1349999999999999,-0.2681481481481482],[0.1349999999999999,-0.28185185185185185],[0.13781249999999995,-0.2953703703703704],[0.13854166666666667,-0.32537037037037037],[0.13937499999999994,-0.3188888888888889],[0.14270833333333333,-0.31444444444444447],[0.1460416666666667,-0.30999999999999994],[0.1490624999999999,-0.29814814814814816],[0.1564583333333334,-0.3109259259259259],[0.16291666666666677,-0.3244444444444444],[0.16458333333333333,-0.32611111111111113],[0.1658333333333334,-0.3322222222222222],[0.1634375000000001,-0.31722222222222224],[0.16104166666666658,-0.3022222222222222],[0.16020833333333329,-0.297037037037037],[0.159375,-0.2918518518518519],[0.159375,-0.2918518518518519],[0.1640625,-0.29981481481481476],[0.1640625,-0.29981481481481476],[0.16510416666666666,-0.3072222222222222],[0.16114583333333338,-0.28481481481481485],[0.1571875000000001,-0.26240740740740737],[0.15875000000000009,-0.24888888888888885],[0.1603125000000001,-0.23537037037037042],[0.1664583333333333,-0.24518518518518514],[0.17260416666666673,-0.255],[0.17760416666666667,-0.26370370370370366],[0.18260416666666662,-0.27240740740740743],[0.17625000000000005,-0.2681481481481482],[0.16760416666666675,-0.25999999999999995],[0.15958333333333338,-0.25703703703703706],[0.15583333333333324,-0.2561111111111111],[0.14791666666666667,-0.2505555555555556],[0.13875000000000004,-0.25],[0.13093750000000004,-0.2375925925925926],[0.12312500000000005,-0.22518518518518524],[0.11166666666666672,-0.22111111111111106],[0.10020833333333339,-0.21703703703703703],[0.09604166666666672,-0.21648148148148144],[0.09791666666666667,-0.22999999999999998],[0.09718749999999995,-0.23722222222222225],[0.0921875,-0.24240740740740738],[0.09208333333333343,-0.25],[0.08895833333333343,-0.26055555555555554],[0.0828125,-0.2807407407407408],[0.07666666666666658,-0.30092592592592593],[0.07197916666666657,-0.31425925925925924],[0.06729166666666657,-0.32759259259259255],[0.06229166666666662,-0.34296296296296297],[0.06229166666666662,-0.34296296296296297],[0.05645833333333338,-0.3527777777777778],[0.05645833333333338,-0.3527777777777778],[0.06135416666666664,-0.3635185185185185],[0.06427083333333337,-0.35648148148148145],[0.06114583333333338,-0.3427777777777778],[0.06114583333333338,-0.3427777777777778],[0.059375,-0.3212962962962963],[0.059375,-0.3212962962962963],[0.06281249999999995,-0.2983333333333334],[0.06270833333333338,-0.27814814814814814],[0.06291666666666665,-0.25092592592592594],[0.06312500000000003,-0.22370370370370374],[0.0609375,-0.19000000000000003],[0.058437500000000024,-0.15555555555555556],[0.049687500000000044,-0.11870370370370374],[0.042916666666666714,-0.09962962962962965],[0.04041666666666662,-0.08925925925925923],[0.04083333333333338,-0.0787037037037037]]","[[-0.13531249999999997,0.38555555555555565,0.00030000019074805095],[-0.13531249999999997,0.38555555555555565,0.05359999990463393],[-0.14031250000000003,0.3768518518518518,0.08020000028611207],[-0.14031250000000003,0.3768518518518518,0.08950000000000102],[-0.14281250000000004,0.372037037037037,0.11570000028611105],[-0.14281250000000004,0.372037037037037,0.12400000000000944],[-0.14968750000000006,0.36055555555555563,0.14890000009538085],[-0.14968750000000006,0.36055555555555563,0.15680000019074214],[-0.15885416666666666,0.3455555555555556,0.1837000002861089],[-0.15885416666666666,0.3455555555555556,0.19120000028611628],[-0.16135416666666663,0.3412962962962962,0.21540000009537152],[-0.16135416666666663,0.3412962962962962,0.22280000019074464],[-0.16062500000000005,0.3424074074074074,0.24870000028610662],[-0.16062500000000005,0.3424074074074074,0.25690000009537073],[-0.1610416666666667,0.3416666666666667,0.28209999990464496],[-0.1610416666666667,0.3416666666666667,0.291000000000011],[-0.1610416666666667,0.3416666666666667,0.3155000000000001],[-0.1610416666666667,0.3416666666666667,0.3230000000000075],[-0.15895833333333337,0.3446296296296297,0.34870000028611514],[-0.15895833333333337,0.3446296296296297,0.356099999904643],[-0.15552083333333327,0.35037037037037044,0.3820999999046393],[-0.15552083333333327,0.35037037037037044,0.39020000028611435],[-0.14750000000000002,0.36425925925925934,0.4153000001907401],[-0.14750000000000002,0.36425925925925934,0.4228000001907475],[-0.14249999999999996,0.37333333333333335,0.44950000000000045],[-0.14249999999999996,0.37333333333333335,0.45690000009537357],[-0.13291666666666668,0.3890740740740741,0.48200000000001353],[-0.13291666666666668,0.3890740740740741,0.489599999904641],[-0.12395833333333334,0.4035185185185185,0.5137000002861072],[-0.12395833333333334,0.4035185185185185,0.5210000000000008],[-0.12083333333333333,0.4088888888888888,0.5454000000953698],[-0.12083333333333333,0.4088888888888888,0.5545999999046387],[-0.12177083333333331,0.4075925925925926,0.5793000001907416],[-0.12177083333333331,0.4075925925925926,0.5870999999046376],[-0.11895833333333337,0.4124074074074075,0.6119000000953747],[-0.11895833333333337,0.4124074074074075,0.6194000000953679],[-0.12145833333333336,0.40851851851851856,0.6452000002861098],[-0.12145833333333336,0.40851851851851856,0.6522000002861148],[-0.12291666666666666,0.40666666666666673,0.6795999999046387],[-0.12291666666666666,0.40666666666666673,0.688599999904639],[-0.12062499999999995,0.4107407407407407,0.7118000001907347],[-0.12062499999999995,0.4107407407407407,0.7190999999046426],[-0.1264583333333333,0.4016666666666666,0.7454000000953727],[-0.1264583333333333,0.4016666666666666,0.7530999999046344],[-0.13031250000000003,0.3955555555555556,0.7774000000953691],[-0.13031250000000003,0.3955555555555556,0.7905000000000086],[-0.13708333333333336,0.3851851851851852,0.8160999999046368],[-0.13708333333333336,0.3851851851851852,0.8233000001907413],[-0.1336458333333333,0.3918518518518519,0.8443000001907421],[-0.1336458333333333,0.3918518518518519,0.8538000001907449],[-0.12687499999999996,0.40314814814814826,0.8825999999046417],[-0.12687499999999996,0.40314814814814826,0.8913000001907392],[-0.12000000000000005,0.4148148148148148,0.9225000000000136],[-0.12000000000000005,0.4148148148148148,0.9294000000953702],[-0.11281249999999995,0.42685185185185187,0.9433000001907459],[-0.10031249999999996,0.44759259259259265,0.9614000000953808],[-0.08729166666666661,0.46888888888888897,0.9770000000000039],[-0.07885416666666671,0.48277777777777786,0.9938000001907454],[-0.06104166666666669,0.5114814814814815,1.0100999999046394],[-0.049270833333333285,0.530925925925926,1.0292000002861101],[-0.033645833333333285,0.556111111111111,1.0437000002861083],[-0.026041666666666668,0.5677777777777778,1.0614000000953752],[-0.022916666666666665,0.5725925925925927,1.0804000000953806],[-0.021979166666666692,0.5744444444444445,1.0962000002861032],[-0.024583333333333356,0.5707407407407408,1.1100999999046337],[-0.027291666666666714,0.5666666666666667,1.126800000190741],[-0.0296875,0.5631481481481482,1.1458000001907465],[-0.034166666666666616,0.5605555555555556,1.160099999904645],[-0.041562499999999974,0.5535185185185185,1.1775999999046434],[-0.04364583333333331,0.555,1.1934000000953802],[-0.04791666666666667,0.5533333333333332,1.210000000000008],[-0.05333333333333338,0.5498148148148148,1.2267000002861153],[-0.059062500000000046,0.5448148148148149,1.244000000000014],[-0.060000000000000026,0.5462962962962963,1.2640999999046443],[-0.0609375,0.5477777777777777,1.2817000002861079],[-0.06395833333333331,0.5464814814814816,1.2970999999046455],[-0.06697916666666662,0.5451851851851851,1.31240000009538],[-0.0672916666666667,0.5433333333333333,1.3289000000953735],[-0.06760416666666665,0.5414814814814815,1.3435999999046402],[-0.07145833333333336,0.5337037037037038,1.3600000000000136],[-0.0703125,0.5338888888888889,1.3809000000953802],[-0.06989583333333335,0.5338888888888889,1.396099999904635],[-0.06916666666666664,0.5353703703703704,1.4114000000953695],[-0.07135416666666666,0.5322222222222222,1.4270000000000067],[-0.07354166666666669,0.5290740740740741,1.4434000000953802],[-0.07593749999999998,0.5237037037037037,1.460000000000008],[-0.07895833333333328,0.5175925925925926,1.4775000000000063],[-0.08125,0.5140740740740741,1.4934000000953773],[-0.08354166666666671,0.5105555555555557,1.5117000002861118],[-0.08635416666666665,0.5057407407407408,1.5305000000000035],[-0.08635416666666665,0.5057407407407408,1.5437000002861083],[-0.09416666666666665,0.49296296296296305,1.5600000000000023],[-0.09770833333333329,0.4868518518518518,1.5767000002861096],[-0.10093749999999997,0.4812962962962963,1.594599999904645],[-0.10125000000000005,0.48092592592592603,1.6099000000953794],[-0.1015625,0.48055555555555557,1.6267000002861067],[-0.1014583333333333,0.4824074074074074,1.6433000001907487],[-0.09885416666666665,0.4872222222222223,1.663400000095379],[-0.09885416666666665,0.4872222222222223,1.6767000002861039],[-0.09812500000000005,0.4883333333333334,1.693300000190746],[-0.09447916666666671,0.4946296296296297,1.710000000000008],[-0.08624999999999995,0.5053703703703704,1.7267000002861153],[-0.0780208333333333,0.5161111111111112,1.7432000002861088],[-0.07489583333333331,0.518148148148148,1.7600000000000051],[-0.07489583333333331,0.518148148148148,1.7767000002861124],[-0.07208333333333337,0.5196296296296297,1.7934000000953745],[-0.07208333333333337,0.5196296296296297,1.8100000000000023],[-0.06427083333333337,0.5290740740740741,1.8267000002861096],[-0.06218750000000005,0.5314814814814814,1.843200000286103],[-0.05927083333333331,0.5353703703703704,1.8600000000000136],[-0.058229166666666644,0.5370370370370371,1.8800000000000097],[-0.057187499999999974,0.5388888888888889,1.8962000002861146],[-0.059062500000000046,0.5355555555555557,1.910800000190747],[-0.06135416666666664,0.5337037037037038,1.9267000002861039],[-0.06625000000000002,0.5283333333333332,1.9454000000953755],[-0.06687500000000005,0.522962962962963,1.9603000001907418],[-0.06687500000000005,0.522962962962963,1.9770999999046381],[-0.06979166666666667,0.5153703703703703,1.9963000001907432],[-0.07572916666666671,0.5018518518518519,2.0100999999046394],[-0.07354166666666669,0.4922222222222221,2.0268000001907467],[-0.07354166666666669,0.4922222222222221,2.0460999999046408],[-0.07239583333333334,0.4837037037037038,2.060200000286116],[-0.07156250000000004,0.475,2.0785999999046396],[-0.07062499999999995,0.4681481481481481,2.0978000001907446],[-0.06437499999999995,0.44592592592592584,2.1120999999046433],[-0.06437499999999995,0.44592592592592584,2.1267000002861067],[-0.057604166666666616,0.43185185185185193,2.143500000000003],[-0.05239583333333329,0.4275925925925925,2.1628000001907424],[-0.04364583333333331,0.4012962962962964,2.177500000000009],[-0.036354166666666646,0.38796296296296295,2.1935000000000002],[-0.027395833333333286,0.37166666666666676,2.2128000001907395],[-0.02510416666666669,0.36055555555555563,2.2275999999046405],[-0.021249999999999977,0.34888888888888886,2.243599999904646],[-0.019166666666666644,0.3514814814814814,2.2600999999046394],[-0.02052083333333338,0.3509259259259259,2.2804000000953693],[-0.013437499999999976,0.3346296296296297,2.295500000000004],[-0.007395833333333357,0.3103703703703704,2.311300000190741],[-0.007395833333333357,0.3103703703703704,2.326900000095378],[0.00604166666666662,0.27981481481481485,2.346900000095374],[0.00604166666666662,0.27981481481481485,2.3600999999046337],[0.011354166666666643,0.26907407407407397,2.3770000000000095],[0.011354166666666643,0.26907407407407397,2.3992000002861147],[0.017708333333333333,0.2537037037037037,2.410099999904645],[0.017708333333333333,0.2537037037037037,2.4269000000953724],[0.028437499999999952,0.22240740740740744,2.44340000009538],[0.028437499999999952,0.22240740740740744,2.4657000002861054],[0.03916666666666669,0.20574074074074078,2.477099999904638],[0.03916666666666669,0.20574074074074078,2.4934000000953773],[0.04802083333333336,0.2007407407407407,2.5128000001907367],[0.05791666666666669,0.16666666666666666,2.5285999999046425],[0.07374999999999995,0.13111111111111104,2.543599999904643],[0.07708333333333334,0.12481481481481477,2.5667000002861045],[0.07708333333333334,0.12481481481481477,2.576900000095378],[0.08458333333333339,0.11148148148148157,2.593500000000006],[0.08499999999999991,0.10611111111111103,2.6099000000953794],[0.08812499999999991,0.11185185185185181,2.6288000001907363],[0.09395833333333338,0.11148148148148157,2.644599999904642],[0.08812499999999991,0.13111111111111104,2.6599000000953765],[0.08812499999999991,0.13111111111111104,2.680500000000009],[0.09343750000000005,0.11574074074074074,2.6935000000000002],[0.08937499999999995,0.10685185185185193,2.710000000000008],[0.09385416666666657,0.0977777777777777,2.7268000001907353],[0.09572916666666677,0.09129629629629621,2.7432000002861088],[0.08927083333333338,0.10055555555555547,2.759900000095371],[0.07864583333333333,0.11685185185185189,2.7804000000953693],[0.07864583333333333,0.11685185185185189,2.7942000002861107],[0.06187499999999998,0.1425925925925926,2.8100000000000023],[0.06187499999999998,0.1425925925925926,2.8267000002861096],[0.044270833333333336,0.16166666666666657,2.8433000001907374],[0.030208333333333334,0.1633333333333334,2.8600000000000136],[0.01593749999999995,0.18277777777777787,2.878300000190748],[0.0007291666666667141,0.19425925925925921,2.9010999999046447],[0.0007291666666667141,0.19425925925925921,2.9099000000953765],[0.011562500000000024,0.17629629629629637,2.926700000286104],[0.010416666666666666,0.17481481481481478,2.9440000000000026],[0.013750000000000047,0.1725925925925927,2.9600999999046422],[0.024166666666666715,0.15648148148148147,2.977000000000004],[0.020937500000000022,0.15407407407407417,2.996200000286109],[0.043229166666666666,0.12629629629629638,3.0122000002861142],[0.05406249999999998,0.10277777777777777,3.027200000286115],[0.06135416666666664,0.09666666666666675,3.0435000000000088],[0.06802083333333328,0.07462962962962955,3.0630000000000024],[0.08312499999999995,0.05277777777777778,3.079800000190744],[0.08375000000000009,0.052962962962963,3.0959000000953694],[0.08885416666666662,0.05185185185185185,3.1129000000953795],[0.08781249999999995,0.030555555555555555,3.1292000002861045],[0.0853125000000001,0.020740740740740823,3.143500000000003],[0.09677083333333343,0.0005555555555554713,3.163400000095379],[0.09677083333333343,0.0005555555555554713,3.1770000000000067],[0.09541666666666657,-0.024814814814814772,3.1935000000000002],[0.10260416666666666,-0.04722222222222222,3.210400000095376],[0.10260416666666666,-0.04722222222222222,3.229599999904636],[0.11281249999999995,-0.0809259259259259,3.2435000000000116],[0.12156250000000005,-0.09981481481481477,3.260300000190739],[0.11593749999999996,-0.09259259259259259,3.2834000000953694],[0.11593749999999996,-0.09259259259259259,3.2934000000953745],[0.11552083333333343,-0.1051851851851852,3.3100999999046365],[0.11552083333333343,-0.1051851851851852,3.326800000190744],[0.1165625000000001,-0.1270370370370371,3.3470000000000084],[0.11677083333333324,-0.127962962962963,3.3625000000000114],[0.11677083333333324,-0.127962962962963,3.3822000002861046],[0.12052083333333338,-0.12388888888888884,3.3955000000000126],[0.12385416666666677,-0.14833333333333337,3.410099999904645],[0.12197916666666657,-0.15759259259259265,3.4302000002861064],[0.12302083333333323,-0.17407407407407408,3.4473000001907366],[0.12239583333333333,-0.18333333333333332,3.4625000000000057],[0.12239583333333333,-0.18333333333333332,3.4780000000000086],[0.12770833333333323,-0.21240740740740738,3.493599999904646],[0.13395833333333323,-0.24074074074074073,3.5128000001907367],[0.1349999999999999,-0.2681481481481482,3.526900000095381],[0.1349999999999999,-0.28185185185185185,3.54330000019074],[0.13781249999999995,-0.2953703703703704,3.561300000190741],[0.13854166666666667,-0.32537037037037037,3.5767000002861096],[0.13937499999999994,-0.3188888888888889,3.5933000001907374],[0.14270833333333333,-0.31444444444444447,3.6099000000953794],[0.1460416666666667,-0.30999999999999994,3.629800000190741],[0.1490624999999999,-0.29814814814814816,3.6433000001907487],[0.1564583333333334,-0.3109259259259259,3.6599000000953765],[0.16291666666666677,-0.3244444444444444,3.676700000286104],[0.16458333333333333,-0.32611111111111113,3.693300000190746],[0.1658333333333334,-0.3322222222222222,3.7105000000000103],[0.1634375000000001,-0.31722222222222224,3.7285999999046453],[0.16104166666666658,-0.3022222222222222,3.7442000002861135],[0.16020833333333329,-0.297037037037037,3.7605000000000075],[0.159375,-0.2918518518518519,3.7822000002861103],[0.159375,-0.2918518518518519,3.7970999999046455],[0.1640625,-0.29981481481481476,3.8100000000000023],[0.1640625,-0.29981481481481476,3.8267000002861096],[0.16510416666666666,-0.3072222222222222,3.8434000000953716],[0.16114583333333338,-0.28481481481481485,3.8600000000000136],[0.1571875000000001,-0.26240740740740737,3.8767000002861067],[0.15875000000000009,-0.24888888888888885,3.8933000001907487],[0.1603125000000001,-0.23537037037037042,3.9099000000953765],[0.1664583333333333,-0.24518518518518514,3.9265000000000043],[0.17260416666666673,-0.255,3.943300000190746],[0.17760416666666667,-0.26370370370370366,3.9599000000953737],[0.18260416666666662,-0.27240740740740743,3.9765999999046358],[0.17625000000000005,-0.2681481481481482,3.993300000190743],[0.16760416666666675,-0.25999999999999995,4.010000000000005],[0.15958333333333338,-0.25703703703703706,4.026599999904633],[0.15583333333333324,-0.2561111111111111,4.04330000019074],[0.14791666666666667,-0.2505555555555556,4.062000000000012],[0.13875000000000004,-0.25,4.07670000028611],[0.13093750000000004,-0.2375925925925926,4.093500000000006],[0.12312500000000005,-0.22518518518518524,4.110700000286116],[0.11166666666666672,-0.22111111111111106,4.128200000286114],[0.10020833333333339,-0.21703703703703703,4.143300000190749],[0.09604166666666672,-0.21648148148148144,4.162900000095377],[0.09791666666666667,-0.22999999999999998,4.177400000095375],[0.09718749999999995,-0.23722222222222225,4.1935999999046345],[0.0921875,-0.24240740740740738,4.209900000095374],[0.09208333333333343,-0.25,4.2265000000000015],[0.08895833333333343,-0.26055555555555554,4.243400000095377],[0.0828125,-0.2807407407407408,4.261700000286112],[0.07666666666666658,-0.30092592592592593,4.279099999904645],[0.07197916666666657,-0.31425925925925924,4.293500000000009],[0.06729166666666657,-0.32759259259259255,4.31040000009537],[0.06229166666666662,-0.34296296296296297,4.331700000286105],[0.06229166666666662,-0.34296296296296297,4.343300000190737],[0.05645833333333338,-0.3527777777777778,4.360000000000014],[0.05645833333333338,-0.3527777777777778,4.376700000286107],[0.06135416666666664,-0.3635185185185185,4.393300000190749],[0.06427083333333337,-0.35648148148148145,4.41020000028611],[0.06114583333333338,-0.3427777777777778,4.4317000002861135],[0.06114583333333338,-0.3427777777777778,4.443200000286112],[0.059375,-0.3212962962962963,4.459900000095374],[0.059375,-0.3212962962962963,4.476599999904636],[0.06281249999999995,-0.2983333333333334,4.493300000190743],[0.06270833333333338,-0.27814814814814814,4.513400000095373],[0.06291666666666665,-0.25092592592592594,4.528400000095374],[0.06312500000000003,-0.22370370370370374,4.543500000000009],[0.0609375,-0.19000000000000003,4.559900000095368],[0.058437500000000024,-0.15555555555555556,4.5789000000953735],[0.049687500000000044,-0.11870370370370374,4.593400000095372],[0.042916666666666714,-0.09962962962962965,4.609900000095379],[0.04041666666666662,-0.08925925925925923,4.627400000095378],[0.04083333333333338,-0.0787037037037037,4.6458000001907465]]","[0.00030000019074805095,0.05359999990463393,0.08020000028611207,0.08950000000000102,0.11570000028611105,0.12400000000000944,0.14890000009538085,0.15680000019074214,0.1837000002861089,0.19120000028611628,0.21540000009537152,0.22280000019074464,0.24870000028610662,0.25690000009537073,0.28209999990464496,0.291000000000011,0.3155000000000001,0.3230000000000075,0.34870000028611514,0.356099999904643,0.3820999999046393,0.39020000028611435,0.4153000001907401,0.4228000001907475,0.44950000000000045,0.45690000009537357,0.48200000000001353,0.489599999904641,0.5137000002861072,0.5210000000000008,0.5454000000953698,0.5545999999046387,0.5793000001907416,0.5870999999046376,0.6119000000953747,0.6194000000953679,0.6452000002861098,0.6522000002861148,0.6795999999046387,0.688599999904639,0.7118000001907347,0.7190999999046426,0.7454000000953727,0.7530999999046344,0.7774000000953691,0.7905000000000086,0.8160999999046368,0.8233000001907413,0.8443000001907421,0.8538000001907449,0.8825999999046417,0.8913000001907392,0.9225000000000136,0.9294000000953702,0.9433000001907459,0.9614000000953808,0.9770000000000039,0.9938000001907454,1.0100999999046394,1.0292000002861101,1.0437000002861083,1.0614000000953752,1.0804000000953806,1.0962000002861032,1.1100999999046337,1.126800000190741,1.1458000001907465,1.160099999904645,1.1775999999046434,1.1934000000953802,1.210000000000008,1.2267000002861153,1.244000000000014,1.2640999999046443,1.2817000002861079,1.2970999999046455,1.31240000009538,1.3289000000953735,1.3435999999046402,1.3600000000000136,1.3809000000953802,1.396099999904635,1.4114000000953695,1.4270000000000067,1.4434000000953802,1.460000000000008,1.4775000000000063,1.4934000000953773,1.5117000002861118,1.5305000000000035,1.5437000002861083,1.5600000000000023,1.5767000002861096,1.594599999904645,1.6099000000953794,1.6267000002861067,1.6433000001907487,1.663400000095379,1.6767000002861039,1.693300000190746,1.710000000000008,1.7267000002861153,1.7432000002861088,1.7600000000000051,1.7767000002861124,1.7934000000953745,1.8100000000000023,1.8267000002861096,1.843200000286103,1.8600000000000136,1.8800000000000097,1.8962000002861146,1.910800000190747,1.9267000002861039,1.9454000000953755,1.9603000001907418,1.9770999999046381,1.9963000001907432,2.0100999999046394,2.0268000001907467,2.0460999999046408,2.060200000286116,2.0785999999046396,2.0978000001907446,2.1120999999046433,2.1267000002861067,2.143500000000003,2.1628000001907424,2.177500000000009,2.1935000000000002,2.2128000001907395,2.2275999999046405,2.243599999904646,2.2600999999046394,2.2804000000953693,2.295500000000004,2.311300000190741,2.326900000095378,2.346900000095374,2.3600999999046337,2.3770000000000095,2.3992000002861147,2.410099999904645,2.4269000000953724,2.44340000009538,2.4657000002861054,2.477099999904638,2.4934000000953773,2.5128000001907367,2.5285999999046425,2.543599999904643,2.5667000002861045,2.576900000095378,2.593500000000006,2.6099000000953794,2.6288000001907363,2.644599999904642,2.6599000000953765,2.680500000000009,2.6935000000000002,2.710000000000008,2.7268000001907353,2.7432000002861088,2.759900000095371,2.7804000000953693,2.7942000002861107,2.8100000000000023,2.8267000002861096,2.8433000001907374,2.8600000000000136,2.878300000190748,2.9010999999046447,2.9099000000953765,2.926700000286104,2.9440000000000026,2.9600999999046422,2.977000000000004,2.996200000286109,3.0122000002861142,3.027200000286115,3.0435000000000088,3.0630000000000024,3.079800000190744,3.0959000000953694,3.1129000000953795,3.1292000002861045,3.143500000000003,3.163400000095379,3.1770000000000067,3.1935000000000002,3.210400000095376,3.229599999904636,3.2435000000000116,3.260300000190739,3.2834000000953694,3.2934000000953745,3.3100999999046365,3.326800000190744,3.3470000000000084,3.3625000000000114,3.3822000002861046,3.3955000000000126,3.410099999904645,3.4302000002861064,3.4473000001907366,3.4625000000000057,3.4780000000000086,3.493599999904646,3.5128000001907367,3.526900000095381,3.54330000019074,3.561300000190741,3.5767000002861096,3.5933000001907374,3.6099000000953794,3.629800000190741,3.6433000001907487,3.6599000000953765,3.676700000286104,3.693300000190746,3.7105000000000103,3.7285999999046453,3.7442000002861135,3.7605000000000075,3.7822000002861103,3.7970999999046455,3.8100000000000023,3.8267000002861096,3.8434000000953716,3.8600000000000136,3.8767000002861067,3.8933000001907487,3.9099000000953765,3.9265000000000043,3.943300000190746,3.9599000000953737,3.9765999999046358,3.993300000190743,4.010000000000005,4.026599999904633,4.04330000019074,4.062000000000012,4.07670000028611,4.093500000000006,4.110700000286116,4.128200000286114,4.143300000190749,4.162900000095377,4.177400000095375,4.1935999999046345,4.209900000095374,4.2265000000000015,4.243400000095377,4.261700000286112,4.279099999904645,4.293500000000009,4.31040000009537,4.331700000286105,4.343300000190737,4.360000000000014,4.376700000286107,4.393300000190749,4.41020000028611,4.4317000002861135,4.443200000286112,4.459900000095374,4.476599999904636,4.493300000190743,4.513400000095373,4.528400000095374,4.543500000000009,4.559900000095368,4.5789000000953735,4.593400000095372,4.609900000095379,4.627400000095378,4.6458000001907465]","[1731903906558,1731903906602,1731903906628,1731903906638,1731903906664,1731903906672,1731903906697,1731903906705,1731903906732,1731903906739,1731903906764,1731903906771,1731903906797,1731903906805,1731903906830,1731903906839,1731903906864,1731903906871,1731903906897,1731903906904,1731903906930,1731903906938,1731903906963,1731903906971,1731903906998,1731903907005,1731903907030,1731903907038,1731903907062,1731903907069,1731903907094,1731903907103,1731903907128,1731903907135,1731903907160,1731903907168,1731903907193,1731903907200,1731903907228,1731903907237,1731903907260,1731903907267,1731903907294,1731903907301,1731903907326,1731903907339,1731903907364,1731903907371,1731903907392,1731903907402,1731903907431,1731903907439,1731903907471,1731903907478,1731903907491,1731903907510,1731903907525,1731903907542,1731903907558,1731903907577,1731903907592,1731903907610,1731903907629,1731903907644,1731903907658,1731903907675,1731903907694,1731903907708,1731903907726,1731903907742,1731903907758,1731903907775,1731903907792,1731903907812,1731903907830,1731903907845,1731903907861,1731903907877,1731903907892,1731903907908,1731903907929,1731903907944,1731903907960,1731903907975,1731903907992,1731903908008,1731903908026,1731903908042,1731903908060,1731903908079,1731903908092,1731903908108,1731903908125,1731903908143,1731903908158,1731903908175,1731903908191,1731903908212,1731903908225,1731903908242,1731903908258,1731903908275,1731903908291,1731903908308,1731903908325,1731903908342,1731903908358,1731903908375,1731903908391,1731903908408,1731903908428,1731903908444,1731903908459,1731903908475,1731903908494,1731903908508,1731903908525,1731903908544,1731903908558,1731903908575,1731903908594,1731903908608,1731903908627,1731903908646,1731903908660,1731903908675,1731903908692,1731903908711,1731903908726,1731903908742,1731903908761,1731903908776,1731903908792,1731903908808,1731903908829,1731903908844,1731903908859,1731903908875,1731903908895,1731903908908,1731903908925,1731903908947,1731903908958,1731903908975,1731903908992,1731903909014,1731903909025,1731903909042,1731903909061,1731903909077,1731903909092,1731903909115,1731903909125,1731903909142,1731903909158,1731903909177,1731903909193,1731903909208,1731903909229,1731903909242,1731903909258,1731903909275,1731903909291,1731903909308,1731903909329,1731903909342,1731903909358,1731903909375,1731903909391,1731903909408,1731903909426,1731903909449,1731903909458,1731903909475,1731903909492,1731903909508,1731903909525,1731903909544,1731903909560,1731903909575,1731903909592,1731903909611,1731903909628,1731903909644,1731903909661,1731903909677,1731903909692,1731903909712,1731903909725,1731903909742,1731903909759,1731903909778,1731903909792,1731903909808,1731903909832,1731903909842,1731903909858,1731903909875,1731903909895,1731903909911,1731903909930,1731903909944,1731903909958,1731903909978,1731903909995,1731903910011,1731903910026,1731903910042,1731903910061,1731903910075,1731903910092,1731903910110,1731903910125,1731903910142,1731903910158,1731903910178,1731903910191,1731903910208,1731903910225,1731903910241,1731903910259,1731903910277,1731903910292,1731903910309,1731903910330,1731903910345,1731903910358,1731903910375,1731903910392,1731903910408,1731903910425,1731903910441,1731903910458,1731903910475,1731903910491,1731903910508,1731903910525,1731903910542,1731903910558,1731903910575,1731903910591,1731903910610,1731903910625,1731903910642,1731903910659,1731903910676,1731903910692,1731903910711,1731903910726,1731903910742,1731903910758,1731903910775,1731903910792,1731903910810,1731903910827,1731903910842,1731903910859,1731903910880,1731903910891,1731903910908,1731903910925,1731903910942,1731903910958,1731903910980,1731903910991,1731903911008,1731903911025,1731903911041,1731903911062,1731903911077,1731903911092,1731903911108,1731903911127,1731903911142,1731903911158,1731903911176,1731903911194]","[[830.1,748.2],[830.1,748.2],[825.3,743.5],[825.3,743.5],[822.9,740.9],[822.9,740.9],[816.3,734.7],[816.3,734.7],[807.5,726.6],[807.5,726.6],[805.1,724.3],[805.1,724.3],[805.8,724.9],[805.8,724.9],[805.4,724.5],[805.4,724.5],[805.4,724.5],[805.4,724.5],[807.4,726.1],[807.4,726.1],[810.7,729.2],[810.7,729.2],[818.4,736.7],[818.4,736.7],[823.2,741.6],[823.2,741.6],[832.4,750.1],[832.4,750.1],[841,757.9],[841,757.9],[844,760.8],[844,760.8],[843.1,760.1],[843.1,760.1],[845.8,762.7],[845.8,762.7],[843.4,760.6],[843.4,760.6],[842,759.6],[842,759.6],[844.2,761.8],[844.2,761.8],[838.6,756.9],[838.6,756.9],[834.9,753.6],[834.9,753.6],[828.4,748],[828.4,748],[831.7,751.6],[831.7,751.6],[838.2,757.7],[838.2,757.7],[844.8,764],[844.8,764],[851.7,770.5],[863.7,781.7],[876.2,793.2],[884.3,800.7],[901.4,816.2],[912.7,826.7],[927.7,840.3],[935,846.6],[938,849.2],[938.9,850.2],[936.4,848.2],[933.8,846],[931.5,844.1],[927.2,842.7],[920.1,838.9],[918.1,839.7],[914,838.8],[908.8,836.9],[903.3,834.2],[902.4,835],[901.5,835.8],[898.6,835.1],[895.7,834.4],[895.4,833.4],[895.1,832.4],[891.4,828.2],[892.5,828.3],[892.9,828.3],[893.6,829.1],[891.5,827.4],[889.4,825.7],[887.1,822.8],[884.2,819.5],[882,817.6],[879.8,815.7],[877.1,813.1],[877.1,813.1],[869.6,806.2],[866.2,802.9],[863.1,799.9],[862.8,799.7],[862.5,799.5],[862.6,800.5],[865.1,803.1],[865.1,803.1],[865.8,803.7],[869.3,807.1],[877.2,812.9],[885.1,818.7],[888.1,819.8],[888.1,819.8],[890.8,820.6],[890.8,820.6],[898.3,825.7],[900.3,827],[903.1,829.1],[904.1,830],[905.1,831],[903.3,829.2],[901.1,828.2],[896.4,825.3],[895.8,822.4],[895.8,822.4],[893,818.3],[887.3,811],[889.4,805.8],[889.4,805.8],[890.5,801.2],[891.3,796.5],[892.2,792.8],[898.2,780.8],[898.2,780.8],[904.7,773.2],[909.7,770.9],[918.1,756.7],[925.1,749.5],[933.7,740.7],[935.9,734.7],[939.6,728.4],[941.6,729.8],[940.3,729.5],[947.1,720.7],[952.9,707.6],[952.9,707.6],[965.8,691.1],[965.8,691.1],[970.9,685.3],[970.9,685.3],[977,677],[977,677],[987.3,660.1],[987.3,660.1],[997.6,651.1],[997.6,651.1],[1006.1,648.4],[1015.6,630],[1030.8,610.8],[1034,607.4],[1034,607.4],[1041.2,600.2],[1041.6,597.3],[1044.6,600.4],[1050.2,600.2],[1044.6,610.8],[1044.6,610.8],[1049.7,602.5],[1045.8,597.7],[1050.1,592.8],[1051.9,589.3],[1045.7,594.3],[1035.5,603.1],[1035.5,603.1],[1019.4,617],[1019.4,617],[1002.5,627.3],[989,628.2],[975.3,638.7],[960.7,644.9],[960.7,644.9],[971.1,635.2],[970,634.4],[973.2,633.2],[983.2,624.5],[980.1,623.2],[1001.5,608.2],[1011.9,595.5],[1018.9,592.2],[1025.3,580.3],[1039.8,568.5],[1040.4,568.6],[1045.3,568],[1044.3,556.5],[1041.9,551.2],[1052.9,540.3],[1052.9,540.3],[1051.6,526.6],[1058.5,514.5],[1058.5,514.5],[1068.3,496.3],[1076.7,486.1],[1071.3,490],[1071.3,490],[1070.9,483.2],[1070.9,483.2],[1071.9,471.4],[1072.1,470.9],[1072.1,470.9],[1075.7,473.1],[1078.9,459.9],[1077.1,454.9],[1078.1,446],[1077.5,441],[1077.5,441],[1082.6,425.3],[1088.6,410],[1089.6,395.2],[1089.6,387.8],[1092.3,380.5],[1093,364.3],[1093.8,367.8],[1097,370.2],[1100.2,372.6],[1103.1,379],[1110.2,372.1],[1116.4,364.8],[1118,363.9],[1119.2,360.6],[1116.9,368.7],[1114.6,376.8],[1113.8,379.6],[1113,382.4],[1113,382.4],[1117.5,378.1],[1117.5,378.1],[1118.5,374.1],[1114.7,386.2],[1110.9,398.3],[1112.4,405.6],[1113.9,412.9],[1119.8,407.6],[1125.7,402.3],[1130.5,397.6],[1135.3,392.9],[1129.2,395.2],[1120.9,399.6],[1113.2,401.2],[1109.6,401.7],[1102,404.7],[1093.2,405],[1085.7,411.7],[1078.2,418.4],[1067.2,420.6],[1056.2,422.8],[1052.2,423.1],[1054,415.8],[1053.3,411.9],[1048.5,409.1],[1048.4,405],[1045.4,399.3],[1039.5,388.4],[1033.6,377.5],[1029.1,370.3],[1024.6,363.1],[1019.8,354.8],[1019.8,354.8],[1014.2,349.5],[1014.2,349.5],[1018.9,343.7],[1021.7,347.5],[1018.7,354.9],[1018.7,354.9],[1017,366.5],[1017,366.5],[1020.3,378.9],[1020.2,389.8],[1020.4,404.5],[1020.6,419.2],[1018.5,437.4],[1016.1,456],[1007.7,475.9],[1001.2,486.2],[998.8,491.8],[999.2,497.5]]","[-0.132282,0.39684600000000003]","[0.132282,0.39684600000000003]","[0.39684600000000003,0.39684600000000003]","[-0.39684600000000003,0.132282]","[-0.39684600000000003,-0.132282]","[-0.39684600000000003,-0.39684600000000003]","[-0.132282,0.132282]","[0.132282,0.132282]","[0.39684600000000003,0.132282]","[-0.132282,-0.132282]","[0.132282,-0.132282]","[0.39684600000000003,-0.132282]","[-0.132282,-0.39684600000000003]","[0.132282,-0.39684600000000003]","[0.39684600000000003,-0.39684600000000003]",0,0,0,0,1,1,Tablet,20,20,7,2,70,4,2,70,4
