inst1_resp.keys,inst1_resp.rt,calibrationMouse.x,calibrationMouse.y,calibrationMouse.leftButton,calibrationMouse.midButton,calibrationMouse.rightButton,calibrationClick.x,calibrationClick.y,calibrationClick.leftButton,calibrationClick.midButton,calibrationClick.rightButton,calibrationClick.clicked_name,trialsc.thisRepN,trialsc.thisTrialN,trialsc.thisN,trialsc.thisIndex,trialsc.ran,calibration_x,calibration_y,participant,session,date,expName,psychopyVersion,OS,frameRate,ScreenRes_pixels,Camera_pixels,mouse_2.x,mouse_2.y,mouse_2.leftButton,mouse_2.midButton,mouse_2.rightButton,mouse_2.time,mouse_2.clicked_name,mouse.x,mouse.y,mouse.leftButton,mouse.midButton,mouse.rightButton,mouse.time,mouse.clicked_name,Choice,Trial,TrialDuration,MOUSE_GAZE,ET_GAZE,ET_GAZE_x_T,time,unixTime,ET_GAZE_NF,Loc_Bus_label,Loc_Metro_label,Loc_RH_label,Loc_Cost_label,Loc_Travel_label,Loc_Comfort_label,Loc_Bus_cost,Loc_Metro_cost,Loc_RH_cost,Loc_Bus_travel,Loc_Metro_travel,Loc_RH_travel,Loc_Bus_comfort,Loc_Metro_comfort,Loc_RH_comfort,trials.thisRepN,trials.thisTrialN,trials.thisN,trials.thisIndex,trials.ran,Block,Device,RH_cost,RH_travel_time,RH_Comfort,metro_cost,metro_travel_time,metro_Comfort,Bus_cost,Bus_travel_time,Bus_Comfort
space,0.5945,-0.047916667,-0.211111111,1,0,0,-0.6625,0.337037037,1,0,0,calibration_square,0,0,0,3,1,-0.67,0.33,02,001,2024-11-26_11h36.06.733,Attention_exp_legacy,2023.1.0,Win32,60.24096386,,,,,,,,,,,,,,,,,,,,,,,,,,,,,,,,,,,,,,,,,,,,,,,,,,,,,,,,
,,,,,,,0.339583333,-0.3,1,0,0,,0,1,1,15,1,0.33,-0.33,02,001,2024-11-26_11h36.06.733,Attention_exp_legacy,2023.1.0,Win32,60.24096386,,,,,,,,,,,,,,,,,,,,,,,,,,,,,,,,,,,,,,,,,,,,,,,,,,,,,,,,
,,,,,,,-0.664583333,0.014814815,1,0,0,,0,2,2,2,1,-0.67,0,02,001,2024-11-26_11h36.06.733,Attention_exp_legacy,2023.1.0,Win32,60.24096386,,,,,,,,,,,,,,,,,,,,,,,,,,,,,,,,,,,,,,,,,,,,,,,,,,,,,,,,
,,,,,,,-0.671875,-0.331481481,1,0,0,calibration_square,0,3,3,1,1,-0.67,-0.33,02,001,2024-11-26_11h36.06.733,Attention_exp_legacy,2023.1.0,Win32,60.24096386,,,,,,,,,,,,,,,,,,,,,,,,,,,,,,,,,,,,,,,,,,,,,,,,,,,,,,,,
,,,,,,,0.657291667,0.681481481,1,0,0,,0,4,4,19,1,0.67,0.67,02,001,2024-11-26_11h36.06.733,Attention_exp_legacy,2023.1.0,Win32,60.24096386,,,,,,,,,,,,,,,,,,,,,,,,,,,,,,,,,,,,,,,,,,,,,,,,,,,,,,,,
,,,,,,,-0.341666667,0.014814815,1,0,0,,0,5,5,6,1,-0.33,0,02,001,2024-11-26_11h36.06.733,Attention_exp_legacy,2023.1.0,Win32,60.24096386,,,,,,,,,,,,,,,,,,,,,,,,,,,,,,,,,,,,,,,,,,,,,,,,,,,,,,,,
,,,,,,,0.653125,-0.637037037,1,0,0,,0,6,6,20,1,0.67,-0.67,02,001,2024-11-26_11h36.06.733,Attention_exp_legacy,2023.1.0,Win32,60.24096386,,,,,,,,,,,,,,,,,,,,,,,,,,,,,,,,,,,,,,,,,,,,,,,,,,,,,,,,
,,,,,,,0.001041667,-0.685185185,1,0,0,,0,7,7,9,1,0,-0.67,02,001,2024-11-26_11h36.06.733,Attention_exp_legacy,2023.1.0,Win32,60.24096386,,,,,,,,,,,,,,,,,,,,,,,,,,,,,,,,,,,,,,,,,,,,,,,,,,,,,,,,
,,,,,,,-0.010416667,0.32962963,1,0,0,,0,8,8,12,1,0,0.33,02,001,2024-11-26_11h36.06.733,Attention_exp_legacy,2023.1.0,Win32,60.24096386,,,,,,,,,,,,,,,,,,,,,,,,,,,,,,,,,,,,,,,,,,,,,,,,,,,,,,,,
,,,,,,,-0.354166667,0.640740741,1,0,0,,0,9,9,8,1,-0.33,0.67,02,001,2024-11-26_11h36.06.733,Attention_exp_legacy,2023.1.0,Win32,60.24096386,,,,,,,,,,,,,,,,,,,,,,,,,,,,,,,,,,,,,,,,,,,,,,,,,,,,,,,,
,,,,,,,0.321875,-0.672222222,1,0,0,calibration_square,0,10,10,14,1,0.33,-0.67,02,001,2024-11-26_11h36.06.733,Attention_exp_legacy,2023.1.0,Win32,60.24096386,,,,,,,,,,,,,,,,,,,,,,,,,,,,,,,,,,,,,,,,,,,,,,,,,,,,,,,,
,,,,,,,0.309375,0.661111111,1,0,0,,0,11,11,18,1,0.33,0.67,02,001,2024-11-26_11h36.06.733,Attention_exp_legacy,2023.1.0,Win32,60.24096386,,,,,,,,,,,,,,,,,,,,,,,,,,,,,,,,,,,,,,,,,,,,,,,,,,,,,,,,
,,,,,,,-0.004166667,0.661111111,1,0,0,calibration_square,0,12,12,13,1,0,0.67,02,001,2024-11-26_11h36.06.733,Attention_exp_legacy,2023.1.0,Win32,60.24096386,,,,,,,,,,,,,,,,,,,,,,,,,,,,,,,,,,,,,,,,,,,,,,,,,,,,,,,,
,,,,,,,-0.334375,-0.338888889,1,0,0,calibration_square,0,13,13,5,1,-0.33,-0.33,02,001,2024-11-26_11h36.06.733,Attention_exp_legacy,2023.1.0,Win32,60.24096386,,,,,,,,,,,,,,,,,,,,,,,,,,,,,,,,,,,,,,,,,,,,,,,,,,,,,,,,
,,,,,,,-0.005208333,0.064814815,1,0,0,,0,14,14,11,1,0,0,02,001,2024-11-26_11h36.06.733,Attention_exp_legacy,2023.1.0,Win32,60.24096386,,,,,,,,,,,,,,,,,,,,,,,,,,,,,,,,,,,,,,,,,,,,,,,,,,,,,,,,
,,,,,,,-0.634375,-0.681481481,1,0,0,,0,15,15,0,1,-0.67,-0.67,02,001,2024-11-26_11h36.06.733,Attention_exp_legacy,2023.1.0,Win32,60.24096386,,,,,,,,,,,,,,,,,,,,,,,,,,,,,,,,,,,,,,,,,,,,,,,,,,,,,,,,
,,,,,,,0.330208333,0.309259259,1,0,0,,0,16,16,17,1,0.33,0.33,02,001,2024-11-26_11h36.06.733,Attention_exp_legacy,2023.1.0,Win32,60.24096386,,,,,,,,,,,,,,,,,,,,,,,,,,,,,,,,,,,,,,,,,,,,,,,,,,,,,,,,
,,,,,,,0.004166667,-0.257407407,1,0,0,,0,17,17,10,1,0,-0.33,02,001,2024-11-26_11h36.06.733,Attention_exp_legacy,2023.1.0,Win32,60.24096386,,,,,,,,,,,,,,,,,,,,,,,,,,,,,,,,,,,,,,,,,,,,,,,,,,,,,,,,
,,,,,,,-0.314583333,0.355555556,1,0,0,,0,18,18,7,1,-0.33,0.33,02,001,2024-11-26_11h36.06.733,Attention_exp_legacy,2023.1.0,Win32,60.24096386,,,,,,,,,,,,,,,,,,,,,,,,,,,,,,,,,,,,,,,,,,,,,,,,,,,,,,,,
,,,,,,,0.2625,0.040740741,1,0,0,,0,19,19,16,1,0.33,0,02,001,2024-11-26_11h36.06.733,Attention_exp_legacy,2023.1.0,Win32,60.24096386,,,,,,,,,,,,,,,,,,,,,,,,,,,,,,,,,,,,,,,,,,,,,,,,,,,,,,,,
,,,,,,,-0.323958333,-0.662962963,1,0,0,calibration_square,0,20,20,4,1,-0.33,-0.67,02,001,2024-11-26_11h36.06.733,Attention_exp_legacy,2023.1.0,Win32,60.24096386,,,,,,,,,,,,,,,,,,,,,,,,,,,,,,,,,,,,,,,,,,,,,,,,,,,,,,,,
,,,,,,,,,,,,,,,,,,,,02,001,2024-11-26_11h36.06.733,Attention_exp_legacy,2023.1.0,Win32,60.24096386,"[1920,1080]","[640,480]",[-0.04479166666666667],[-0.48703703703703705],[1],[0],[0],[1.2131000000014893],"[""StartButton""]",[0.1625],[0.16111111111111112],[1],[0],[0],[5.762400000005961],"[""RH_label""]",RH_label,1,6.7865,"[[-0.35,0.3277777777777778],[-0.017708333333333333,0.4648148148148148],[0.0010416666666666667,0.4722222222222222],[0.0125,0.47962962962962963],[0.015625,0.48148148148148145],[0.015625,0.48148148148148145],[0.015625,0.48148148148148145],[0.010416666666666666,0.48148148148148145],[0.005208333333333333,0.47962962962962963],[-0.004166666666666667,0.4703703703703704],[-0.016666666666666666,0.45185185185185184],[-0.03125,0.43148148148148147],[-0.03229166666666667,0.40925925925925927],[-0.03125,0.39444444444444443],[-0.029166666666666667,0.37962962962962965],[-0.020833333333333332,0.3388888888888889],[-0.010416666666666666,0.3037037037037037],[0.015625,0.26851851851851855],[0.03958333333333333,0.23333333333333334],[0.04583333333333333,0.19444444444444445],[0.051041666666666666,0.16296296296296298],[0.053125,0.13518518518518519],[0.05520833333333333,0.11296296296296296],[0.05520833333333333,0.1037037037037037],[0.05520833333333333,0.09814814814814815],[0.05520833333333333,0.0962962962962963],[0.05520833333333333,0.0962962962962963],[0.05520833333333333,0.0962962962962963],[0.05520833333333333,0.0962962962962963],[0.05520833333333333,0.0962962962962963],[0.05520833333333333,0.0962962962962963],[0.05520833333333333,0.0962962962962963],[0.05520833333333333,0.0962962962962963],[0.05520833333333333,0.0962962962962963],[0.05625,0.09814814814814815],[0.057291666666666664,0.09814814814814815],[0.057291666666666664,0.10185185185185185],[0.059375,0.1037037037037037],[0.06041666666666667,0.10555555555555556],[0.06041666666666667,0.10555555555555556],[0.06145833333333333,0.10555555555555556],[0.0625,0.10925925925925926],[0.0625,0.10925925925925926],[0.0625,0.10925925925925926],[0.0625,0.10925925925925926],[0.0625,0.10925925925925926],[0.0625,0.10925925925925926],[0.0625,0.10925925925925926],[0.0625,0.10925925925925926],[0.0625,0.10925925925925926],[0.0625,0.10925925925925926],[0.0625,0.10925925925925926],[0.0625,0.10925925925925926],[0.0625,0.10925925925925926],[0.0625,0.10925925925925926],[0.0625,0.10925925925925926],[0.0625,0.10740740740740741],[0.0625,0.1],[0.0625,0.08148148148148149],[0.06666666666666667,0.06851851851851852],[0.07708333333333334,0.053703703703703705],[0.08645833333333333,0.040740740740740744],[0.09895833333333333,0.025925925925925925],[0.11458333333333333,0.011111111111111112],[0.13541666666666666,-0.005555555555555556],[0.14375,-0.011111111111111112],[0.14895833333333333,-0.018518518518518517],[0.15416666666666667,-0.025925925925925925],[0.15729166666666666,-0.03333333333333333],[0.15729166666666666,-0.03888888888888889],[0.15625,-0.05],[0.14375,-0.07037037037037037],[0.12395833333333334,-0.07592592592592592],[0.11458333333333333,-0.07962962962962963],[0.11458333333333333,-0.07962962962962963],[0.11458333333333333,-0.07962962962962963],[0.11458333333333333,-0.07962962962962963],[0.11458333333333333,-0.07962962962962963],[0.11458333333333333,-0.07962962962962963],[0.11458333333333333,-0.07962962962962963],[0.11458333333333333,-0.07962962962962963],[0.11458333333333333,-0.07962962962962963],[0.11458333333333333,-0.07962962962962963],[0.11458333333333333,-0.07962962962962963],[0.11458333333333333,-0.07962962962962963],[0.11458333333333333,-0.07962962962962963],[0.11458333333333333,-0.08333333333333333],[0.11458333333333333,-0.08333333333333333],[0.11458333333333333,-0.08333333333333333],[0.1125,-0.08333333333333333],[0.109375,-0.08148148148148149],[0.10520833333333333,-0.07222222222222222],[0.10208333333333333,-0.07037037037037037],[0.09791666666666667,-0.06481481481481481],[0.09479166666666666,-0.06296296296296296],[0.09479166666666666,-0.06111111111111111],[0.09479166666666666,-0.06111111111111111],[0.09479166666666666,-0.05925925925925926],[0.09479166666666666,-0.05925925925925926],[0.09479166666666666,-0.05925925925925926],[0.09479166666666666,-0.05925925925925926],[0.09479166666666666,-0.05925925925925926],[0.09479166666666666,-0.05740740740740741],[0.09479166666666666,-0.05555555555555555],[0.09479166666666666,-0.05555555555555555],[0.09479166666666666,-0.05185185185185185],[0.09479166666666666,-0.044444444444444446],[0.09583333333333334,-0.037037037037037035],[0.09791666666666667,-0.024074074074074074],[0.09791666666666667,-0.014814814814814815],[0.09791666666666667,-0.012962962962962963],[0.09791666666666667,-0.012962962962962963],[0.09791666666666667,-0.012962962962962963],[0.09791666666666667,-0.012962962962962963],[0.09791666666666667,-0.012962962962962963],[0.09791666666666667,-0.012962962962962963],[0.09791666666666667,-0.012962962962962963],[0.09791666666666667,-0.011111111111111112],[0.09791666666666667,-0.011111111111111112],[0.096875,-0.011111111111111112],[0.096875,-0.011111111111111112],[0.096875,-0.011111111111111112],[0.096875,-0.011111111111111112],[0.09583333333333334,-0.011111111111111112],[0.09583333333333334,-0.011111111111111112],[0.09583333333333334,-0.011111111111111112],[0.09583333333333334,-0.011111111111111112],[0.09583333333333334,-0.011111111111111112],[0.09583333333333334,-0.011111111111111112],[0.09583333333333334,-0.011111111111111112],[0.09583333333333334,-0.011111111111111112],[0.09791666666666667,-0.011111111111111112],[0.10208333333333333,-0.016666666666666666],[0.10625,-0.022222222222222223],[0.11041666666666666,-0.02962962962962963],[0.11458333333333333,-0.04259259259259259],[0.11458333333333333,-0.04814814814814815],[0.11770833333333333,-0.06111111111111111],[0.11875,-0.06851851851851852],[0.11979166666666667,-0.07592592592592592],[0.121875,-0.08518518518518518],[0.12291666666666666,-0.09259259259259259],[0.12395833333333334,-0.1],[0.12395833333333334,-0.1037037037037037],[0.12604166666666666,-0.1111111111111111],[0.12604166666666666,-0.12037037037037036],[0.12604166666666666,-0.12222222222222222],[0.12604166666666666,-0.12777777777777777],[0.12708333333333333,-0.13333333333333333],[0.12708333333333333,-0.1388888888888889],[0.128125,-0.1425925925925926],[0.128125,-0.15],[0.13020833333333334,-0.15185185185185185],[0.13020833333333334,-0.15555555555555556],[0.13125,-0.15925925925925927],[0.13125,-0.15925925925925927],[0.13333333333333333,-0.16111111111111112],[0.13333333333333333,-0.16111111111111112],[0.13645833333333332,-0.16111111111111112],[0.1375,-0.16111111111111112],[0.14166666666666666,-0.15925925925925927],[0.14375,-0.14629629629629629],[0.14479166666666668,-0.12407407407407407],[0.14479166666666668,-0.09444444444444444],[0.146875,-0.053703703703703705],[0.146875,-0.009259259259259259],[0.146875,0.03518518518518519],[0.146875,0.06111111111111111],[0.14791666666666667,0.07777777777777778],[0.14895833333333333,0.08333333333333333],[0.14895833333333333,0.08703703703703704],[0.14895833333333333,0.08888888888888889],[0.14895833333333333,0.09074074074074075],[0.14895833333333333,0.09259259259259259],[0.15104166666666666,0.1],[0.15520833333333334,0.10925925925925926],[0.15729166666666666,0.12037037037037036],[0.16041666666666668,0.12962962962962962],[0.16145833333333334,0.13333333333333333],[0.16145833333333334,0.13703703703703704],[0.1625,0.14444444444444443],[0.1625,0.1537037037037037],[0.1625,0.15925925925925927],[0.1625,0.16111111111111112],[0.1625,0.16111111111111112],[0.1625,0.16111111111111112],[0.1625,0.16111111111111112],[0.1625,0.16111111111111112],[0.1625,0.16111111111111112],[0.1625,0.16111111111111112],[0.1625,0.16111111111111112],[0.1625,0.16111111111111112],[0.1625,0.16111111111111112],[0.1625,0.16111111111111112],[0.1625,0.16111111111111112],[0.1625,0.16111111111111112],[0.1625,0.16111111111111112],[0.1625,0.16111111111111112],[0.1625,0.16111111111111112],[0.1625,0.16111111111111112],[0.1625,0.16111111111111112],[0.1625,0.16111111111111112],[0.1625,0.16111111111111112],[0.1625,0.16111111111111112],[0.1625,0.16111111111111112],[0.1625,0.16111111111111112],[0.1625,0.16111111111111112],[0.1625,0.16111111111111112],[0.1625,0.16111111111111112],[0.1625,0.16111111111111112],[0.1625,0.16111111111111112],[0.1625,0.16111111111111112],[0.1625,0.16111111111111112],[0.1625,0.16111111111111112],[0.1625,0.16111111111111112],[0.1625,0.16111111111111112],[0.1625,0.16111111111111112],[0.1625,0.16111111111111112],[0.1625,0.16111111111111112],[0.1625,0.16111111111111112],[0.1625,0.16111111111111112],[0.1625,0.16111111111111112],[0.1625,0.16111111111111112],[0.1625,0.16111111111111112],[0.1625,0.16111111111111112],[0.1625,0.16111111111111112],[0.1625,0.16111111111111112],[0.1625,0.16111111111111112],[0.1625,0.16111111111111112],[0.1625,0.16111111111111112],[0.1625,0.16111111111111112],[0.1625,0.16111111111111112],[0.1625,0.16111111111111112],[0.1625,0.16111111111111112],[0.1625,0.16111111111111112],[0.1625,0.16111111111111112],[0.1625,0.16111111111111112],[0.1625,0.16111111111111112],[0.1625,0.16111111111111112],[0.1625,0.16111111111111112],[0.1625,0.16111111111111112],[0.1625,0.16111111111111112],[0.1625,0.16111111111111112],[0.1625,0.16111111111111112],[0.1625,0.16111111111111112],[0.1625,0.16111111111111112],[0.1625,0.16111111111111112],[0.1625,0.16111111111111112],[0.1625,0.16111111111111112],[0.1625,0.16111111111111112],[0.1625,0.16111111111111112],[0.1625,0.16111111111111112],[0.1625,0.16111111111111112],[0.1625,0.16111111111111112],[0.1625,0.16111111111111112],[0.1625,0.16111111111111112],[0.1625,0.16111111111111112],[0.1625,0.16111111111111112],[0.1625,0.16111111111111112],[0.1625,0.16111111111111112],[0.1625,0.16111111111111112],[0.1625,0.16111111111111112],[0.1625,0.16111111111111112],[0.1625,0.16111111111111112],[0.1625,0.16111111111111112],[0.1625,0.16111111111111112],[0.1625,0.16111111111111112],[0.1625,0.16111111111111112],[0.1625,0.16111111111111112],[0.1625,0.16111111111111112],[0.1625,0.16111111111111112],[0.1625,0.16111111111111112],[0.1625,0.16111111111111112],[0.1625,0.16111111111111112],[0.1625,0.16111111111111112],[0.1625,0.16111111111111112],[0.1625,0.16111111111111112],[0.1625,0.16111111111111112],[0.1625,0.16111111111111112],[0.1625,0.16111111111111112],[0.1625,0.16111111111111112],[0.1625,0.16111111111111112],[0.1625,0.16111111111111112],[0.1625,0.16111111111111112],[0.1625,0.16111111111111112],[0.1625,0.16111111111111112],[0.1625,0.16111111111111112],[0.1625,0.16111111111111112],[0.1625,0.16111111111111112],[0.1625,0.16111111111111112],[0.1625,0.16111111111111112],[0.1625,0.16111111111111112],[0.1625,0.16111111111111112],[0.1625,0.16111111111111112],[0.1625,0.16111111111111112],[0.1625,0.16111111111111112],[0.1625,0.16111111111111112],[0.1625,0.16111111111111112],[0.1625,0.16111111111111112],[0.1625,0.16111111111111112],[0.1625,0.16111111111111112],[0.1625,0.16111111111111112],[0.1625,0.16111111111111112],[0.1625,0.16111111111111112],[0.1625,0.16111111111111112],[0.1625,0.16111111111111112],[0.1625,0.16111111111111112],[0.1625,0.16111111111111112],[0.1625,0.16111111111111112],[0.1625,0.16111111111111112],[0.1625,0.16111111111111112],[0.1625,0.16111111111111112],[0.1625,0.16111111111111112],[0.1625,0.16111111111111112],[0.1625,0.16111111111111112],[0.1625,0.16111111111111112],[0.1625,0.16111111111111112],[0.1625,0.16111111111111112],[0.1625,0.16111111111111112],[0.1625,0.16111111111111112],[0.1625,0.16111111111111112],[0.1625,0.16111111111111112],[0.1625,0.16111111111111112],[0.1625,0.16111111111111112],[0.1625,0.16111111111111112],[0.1625,0.16111111111111112],[0.1625,0.16111111111111112],[0.1625,0.16111111111111112],[0.1625,0.16111111111111112],[0.1625,0.16111111111111112],[0.1625,0.16111111111111112],[0.1625,0.16111111111111112],[0.1625,0.16111111111111112],[0.1625,0.16111111111111112],[0.1625,0.16111111111111112],[0.1625,0.16111111111111112],[0.1625,0.16111111111111112],[0.1625,0.16111111111111112],[0.1625,0.16111111111111112],[0.1625,0.16111111111111112],[0.1625,0.16111111111111112],[0.1625,0.16111111111111112],[0.1625,0.16111111111111112],[0.1625,0.16111111111111112],[0.1625,0.16111111111111112],[0.1625,0.16111111111111112],[0.1625,0.16111111111111112],[0.1625,0.16111111111111112],[0.1625,0.16111111111111112],[0.1625,0.16111111111111112],[0.1625,0.16111111111111112],[0.1625,0.16111111111111112],[0.1625,0.16111111111111112],[0.1625,0.16111111111111112],[0.1625,0.16111111111111112],[0.1625,0.16111111111111112],[0.1625,0.16111111111111112],[0.1625,0.16111111111111112],[0.1625,0.16111111111111112],[0.1625,0.16111111111111112],[0.1625,0.16111111111111112],[0.1625,0.16111111111111112],[0.1625,0.16111111111111112],[0.1625,0.16111111111111112],[0.1625,0.16111111111111112],[0.1625,0.16111111111111112],[0.1625,0.16111111111111112],[0.1625,0.16111111111111112],[0.1625,0.16111111111111112],[0.1625,0.16111111111111112],[0.1625,0.16111111111111112],[0.1625,0.16111111111111112],[0.1625,0.16111111111111112],[0.1625,0.16111111111111112],[0.1625,0.16111111111111112],[0.1625,0.16111111111111112],[0.1625,0.16111111111111112],[0.1625,0.16111111111111112],[0.1625,0.16111111111111112],[0.1625,0.16111111111111112],[0.1625,0.16111111111111112],[0.1625,0.16111111111111112],[0.1625,0.16111111111111112],[0.1625,0.16111111111111112],[0.1625,0.16111111111111112],[0.1625,0.16111111111111112],[0.1625,0.16111111111111112],[0.1625,0.16111111111111112],[0.1625,0.16111111111111112],[0.1625,0.16111111111111112],[0.1625,0.16111111111111112],[0.1625,0.16111111111111112],[0.1625,0.16111111111111112],[0.1625,0.16111111111111112],[0.1625,0.16111111111111112],[0.1625,0.16111111111111112],[0.1625,0.16111111111111112],[0.1625,0.16111111111111112],[0.1625,0.16111111111111112],[0.1625,0.16111111111111112],[0.1625,0.16111111111111112],[0.1625,0.16111111111111112],[0.1625,0.16111111111111112],[0.1625,0.16111111111111112],[0.1625,0.16111111111111112],[0.1625,0.16111111111111112],[0.1625,0.16111111111111112]]","[[-0.7039583333333332,0.27981481481481485],[-0.7039583333333332,0.27981481481481485],[-0.7167708333333334,0.2116666666666666],[-0.7167708333333334,0.2116666666666666],[-0.7057291666666666,0.15722222222222218],[-0.6494791666666667,0.08796296296296297],[-0.6519791666666667,0.040370370370370286],[-0.6555208333333333,-0.00722222222222218],[-0.6076041666666666,-0.0948148148148148],[-0.5632291666666667,-0.1235185185185185],[-0.5260416666666666,-0.13407407407407404],[-0.5260416666666666,-0.13407407407407404],[-0.521875,-0.15611111111111114],[-0.5126041666666666,-0.16629629629629633],[-0.45427083333333335,-0.23277777777777775],[-0.43510416666666674,-0.21722222222222223],[-0.4535416666666666,-0.17388888888888884],[-0.43322916666666667,-0.11574074074074074],[-0.3672916666666667,-0.1383333333333333],[-0.3497916666666666,-0.11833333333333329],[-0.2921875,-0.07777777777777778],[-0.2604166666666667,-0.08222222222222218],[-0.19520833333333332,-0.08148148148148149],[-0.12999999999999995,-0.08074074074074078],[-0.14010416666666667,0.037037037037037035],[-0.06854166666666663,0.007777777777777862],[0.009895833333333333,-0.03888888888888889],[0.009895833333333333,-0.03888888888888889],[0.026041666666666668,-0.05611111111111113],[0.042708333333333334,-0.027407407407407325],[0.03427083333333331,0.032407407407407406],[-0.004375000000000047,0.02166666666666675],[-0.004375000000000047,0.02166666666666675],[0.04041666666666662,0.0418518518518519],[0.06177083333333329,0.07351851851851861],[0.06177083333333329,0.07351851851851861],[0.096875,0.08981481481481482],[0.11166666666666672,0.001851851851851852],[0.10416666666666667,0.01444444444444436],[0.10416666666666667,0.01444444444444436],[0.11218750000000005,0.036481481481481566],[0.1443749999999999,0.03370370370370379],[0.13468749999999996,0.027222222222222307],[0.15052083333333333,-0.03518518518518519],[0.1478125000000001,-0.021296296296296296],[0.09760416666666671,-0.030000000000000086],[0.09760416666666671,-0.030000000000000086],[0.07625000000000005,-0.032037037037036954],[0.05249999999999998,-0.0257407407407407],[0.09177083333333323,-0.0012962962962963806],[0.09854166666666657,-0.020370370370370372],[0.0796875,-0.05277777777777778],[0.04864583333333338,-0.09259259259259259],[0.041562499999999974,-0.08574074074074076],[0.034895833333333334,-0.08740740740740739],[0.03687499999999998,-0.11537037037037039],[0.049270833333333285,-0.13148148148148148],[0.052291666666666715,-0.15499999999999997],[0.03833333333333329,-0.1588888888888889],[0.010104166666666714,-0.1537037037037037],[0.012187500000000047,-0.14722222222222223],[0.012187500000000047,-0.14722222222222223],[0.004791666666666691,-0.12888888888888894],[0.028437499999999952,-0.09833333333333337],[0.03458333333333338,-0.1175925925925926],[0.04593750000000003,-0.11092592592592589],[0.04760416666666671,-0.09351851851851851],[0.03937499999999995,-0.08629629629629634],[0.04458333333333329,-0.0940740740740741],[0.04458333333333329,-0.0940740740740741],[0.05333333333333338,-0.07629629629629628],[0.03604166666666669,-0.09703703703703699],[0.03604166666666669,-0.09703703703703699],[0.013541666666666667,-0.049074074074074076],[0.03083333333333336,-0.031111111111111027],[0.030104166666666644,-0.03685185185185181],[0.030104166666666644,-0.03685185185185181],[0.04562499999999995,-0.03796296296296296],[0.06041666666666667,-0.004444444444444402],[0.090625,0.013888888888888888],[0.10250000000000009,0.01907407407407399],[0.11270833333333338,0.02759259259259255],[0.13125,-0.045740740740740825],[0.18229166666666666,-0.0742592592592593],[0.21416666666666656,-0.1594444444444445],[0.24010416666666667,-0.19092592592592597],[0.24479166666666666,-0.2512962962962963],[0.24479166666666666,-0.2512962962962963],[0.23427083333333343,-0.24370370370370376],[0.21614583333333334,-0.24370370370370376],[0.20083333333333328,-0.25037037037037035],[0.18697916666666667,-0.24055555555555552],[0.18697916666666667,-0.24055555555555552],[0.17687499999999995,-0.23777777777777773],[0.15916666666666662,-0.18111111111111114],[0.15635416666666657,-0.15703703703703706],[0.12833333333333338,-0.127962962962963],[0.08020833333333334,-0.12074074074074072],[0.1009375000000001,-0.09870370370370372],[0.12197916666666657,-0.08648148148148146],[0.12864583333333332,-0.12462962962962965],[0.11927083333333334,-0.11388888888888889],[0.12447916666666667,-0.13444444444444448],[0.11395833333333343,-0.102962962962963],[0.12197916666666657,-0.09277777777777782],[0.10604166666666662,-0.047037037037036995],[0.10604166666666662,-0.047037037037036995],[0.12770833333333323,-0.01962962962962967],[0.14833333333333343,0.009444444444444486],[0.11520833333333323,0.04981481481481477],[0.08677083333333328,0.07166666666666675],[0.07479166666666662,0.08777777777777773],[0.0703125,0.06611111111111119],[0.07249999999999991,0.09537037037037037],[0.09322916666666667,0.06500000000000004],[0.08520833333333329,0.05962962962962971],[0.09031250000000005,-0.012777777777777735],[0.09031250000000005,-0.012777777777777735],[0.09375,-0.026481481481481398],[0.09375,-0.026481481481481398],[0.08510416666666672,-0.04888888888888885],[0.10031249999999996,-0.04333333333333329],[0.11947916666666672,-0.06574074074074074],[0.1319791666666667,-0.04407407407407399],[0.15291666666666662,-0.035740740740740656],[0.15895833333333323,-0.04018518518518527],[0.14166666666666666,-0.02833333333333325],[0.14166666666666666,-0.02833333333333325],[0.14895833333333333,-0.03925925925925934],[0.1330208333333334,0.016111111111111194],[0.12937500000000005,0.01444444444444436],[0.13093750000000004,0.018148148148148063],[0.1271874999999999,-0.004259259259259175],[0.11989583333333324,-0.020740740740740823],[0.12260416666666671,-0.03722222222222227],[0.12145833333333324,-0.053703703703703705],[0.12145833333333324,-0.053703703703703705],[0.1196875000000001,-0.05944444444444449],[0.1568749999999999,-0.056851851851851834],[0.175,-0.05759259259259263],[0.19104166666666675,-0.04462962962962967],[0.2111458333333334,-0.008333333333333333],[0.2319791666666667,0.018518518518518517],[0.2273958333333333,0.04388888888888897],[0.2353125000000001,0.07981481481481485],[0.24343750000000006,0.10611111111111103],[0.2365624999999999,0.12407407407407407],[0.23562500000000006,0.13629629629629633],[0.20520833333333333,0.11814814814814806],[0.17781250000000004,0.14055555555555552],[0.1877083333333334,0.1242592592592593],[0.1877083333333334,0.1242592592592593],[0.17083333333333334,0.10796296296296289],[0.15947916666666656,0.07703703703703708],[0.15010416666666657,0.06129629629629634],[0.15010416666666657,0.06129629629629634],[0.1492708333333333,0.03351851851851856],[0.15072916666666672,0.01777777777777782],[0.15,0.02907407407407416],[0.14656250000000004,0.03629629629629634],[0.16458333333333333,0.05611111111111103],[0.1632291666666667,0.035740740740740656],[0.15656249999999997,0.04870370370370362],[0.1580208333333334,0.049074074074074076],[0.14854166666666657,0.05481481481481486],[0.15583333333333324,0.06407407407407412],[0.15583333333333324,0.06407407407407412],[0.15822916666666675,0.0485185185185186],[0.13791666666666677,0.07370370370370362],[0.1404166666666666,0.09314814814814806],[0.1404166666666666,0.09314814814814806],[0.15135416666666662,0.06055555555555564],[0.1404166666666666,0.052407407407407326],[0.14989583333333342,0.04796296296296292],[0.14895833333333333,0.02555555555555547],[0.14802083333333324,0.0031481481481482323],[0.14802083333333324,0.0031481481481482323],[0.15270833333333325,-0.0418518518518519],[0.15177083333333338,-0.06648148148148143],[0.13927083333333337,-0.044444444444444446],[0.16354166666666667,-0.059999999999999956],[0.14427083333333332,-0.09833333333333337],[0.14427083333333332,-0.09833333333333337],[0.14718749999999994,-0.0940740740740741],[0.15031249999999996,-0.11888888888888886],[0.13645833333333332,-0.12074074074074072],[0.13645833333333332,-0.12074074074074072],[0.1404166666666666,-0.13333333333333333],[0.1375,-0.14148148148148143],[0.13947916666666677,-0.11870370370370374],[0.13947916666666677,-0.11870370370370374],[0.1319791666666667,-0.10111111111111115],[0.1319791666666667,-0.10111111111111115],[0.12416666666666672,-0.10314814814814813],[0.0900000000000001,-0.12018518518518514],[0.08052083333333329,-0.11240740740740739],[0.08052083333333329,-0.11240740740740739],[0.06218750000000005,-0.09203703703703701],[0.04552083333333338,-0.06925925925925921],[0.04781249999999997,-0.06129629629629634],[0.050625000000000024,-0.03611111111111111],[0.06031249999999998,-0.015370370370370286],[0.06031249999999998,-0.015370370370370286],[0.05406249999999998,0.005740740740740783],[0.07374999999999995,0.01314814814814819],[0.07843749999999995,0.022222222222222223],[0.11041666666666666,0.02759259259259255],[0.15104166666666666,0.03129629629629625],[0.17583333333333329,0.003703703703703704],[0.1961458333333333,-0.017592592592592594],[0.1961458333333333,-0.017592592592592594],[0.2178124999999999,-0.04796296296296292],[0.2178124999999999,-0.04796296296296292],[0.2189583333333334,-0.09314814814814817],[0.18499999999999991,-0.1051851851851852],[0.20677083333333332,-0.1264814814814815],[0.1890625,-0.12685185185185185],[0.1890625,-0.12685185185185185],[0.20187499999999994,-0.16018518518518518],[0.15239583333333329,-0.1698148148148148],[0.11427083333333338,-0.15185185185185185],[0.09447916666666671,-0.12981481481481486],[0.06895833333333339,-0.11092592592592589],[0.057500000000000044,-0.08888888888888889],[0.03447916666666669,-0.0257407407407407],[0.07510416666666657,-0.015555555555555513],[0.065625,0.005000000000000084],[0.065625,0.005000000000000084],[0.08093750000000005,0.01629629629629621],[0.06989583333333324,0.07185185185185176],[0.11010416666666671,0.10740740740740741],[0.121875,0.11907407407407399],[0.11729166666666657,0.14370370370370375],[0.1290625000000001,0.21296296296296297],[0.1474999999999999,0.2890740740740741],[0.16906249999999995,0.3229629629629629],[0.14479166666666668,0.43555555555555564],[0.10416666666666667,0.5414814814814815],[0.07322916666666662,0.6035185185185185],[0.08312499999999995,0.64],[0.109375,0.7248148148148148],[0.13031249999999991,0.7822222222222222],[0.15885416666666666,0.8468518518518517],[0.12552083333333333,0.8257407407407407],[0.07302083333333324,0.8088888888888888],[0.03270833333333331,0.8003703703703705],[0.0034374999999999527,0.702962962962963],[0.0034374999999999527,0.702962962962963],[-0.005208333333333333,0.6198148148148149],[-0.005416666666666714,0.5125925925925925],[-0.06020833333333329,0.4503703703703705],[-0.1373958333333333,0.35907407407407405],[-0.1373958333333333,0.35907407407407405],[-0.18458333333333338,0.2572222222222222],[-0.24083333333333337,0.14962962962962956],[-0.22395833333333334,0.0911111111111112],[-0.21000000000000002,0.027407407407407325],[-0.20708333333333329,-0.02814814814814823],[-0.1970833333333334,-0.04388888888888897],[-0.18187500000000004,-0.07851851851851847],[-0.17697916666666663,-0.07407407407407407],[-0.16124999999999995,-0.1],[-0.16124999999999995,-0.1],[-0.1578125,-0.14833333333333337],[-0.14072916666666668,-0.13907407407407413],[-0.13385416666666666,-0.1507407407407407],[-0.13645833333333332,-0.12092592592592595],[-0.13645833333333332,-0.12092592592592595],[-0.15677083333333333,-0.09388888888888887],[-0.1436458333333333,-0.07166666666666664],[-0.1264583333333333,-0.07388888888888885],[-0.1123958333333333,-0.09388888888888887],[-0.1123958333333333,-0.09388888888888887],[-0.10666666666666665,-0.1],[-0.09937499999999998,-0.10185185185185185],[-0.08333333333333333,-0.09870370370370372],[-0.08354166666666671,-0.11314814814814819],[-0.0672916666666667,-0.07518518518518523],[-0.0672916666666667,-0.07518518518518523],[-0.04833333333333331,-0.08907407407407411],[-0.04833333333333331,-0.08907407407407411],[-0.02510416666666669,-0.10499999999999998],[-0.03229166666666667,-0.14629629629629629],[-0.051145833333333356,-0.1624074074074074],[-0.05697916666666671,-0.15111111111111114],[-0.06499999999999997,-0.13537037037037042],[-0.05364583333333333,-0.13370370370370369],[-0.04229166666666669,-0.13203703703703706],[-0.0390625,-0.13388888888888892],[-0.040625,-0.16870370370370374],[-0.046875,-0.19907407407407407],[-0.03968750000000002,-0.22462962962962965],[-0.027187500000000024,-0.22388888888888886],[0.0007291666666667141,-0.24018518518518517],[0.019166666666666644,-0.24981481481481477],[0.03760416666666669,-0.2594444444444445],[0.03760416666666669,-0.2594444444444445],[0.04708333333333338,-0.2607407407407408],[0.046875,-0.26648148148148143],[0.049791666666666616,-0.27444444444444444],[0.05385416666666672,-0.2777777777777778],[0.05333333333333338,-0.272037037037037],[0.05333333333333338,-0.272037037037037],[0.0515625,-0.2601851851851852],[0.04656250000000005,-0.22999999999999998],[0.03583333333333331,-0.21796296296296294],[0.030312500000000023,-0.19444444444444445],[0.02000000000000005,-0.18888888888888888],[-0.00604166666666662,-0.15611111111111114],[-0.03104166666666662,-0.14592592592592596],[-0.06656249999999998,-0.14444444444444443],[-0.10322916666666669,-0.14759259259259258],[-0.15249999999999997,-0.14648148148148152],[-0.20052083333333334,-0.1514814814814815],[-0.24812500000000004,-0.19370370370370374],[-0.2703125,-0.21500000000000005],[-0.3228125,-0.27166666666666667],[-0.3228125,-0.27166666666666667],[-0.37052083333333335,-0.3103703703703704],[-0.39302083333333326,-0.35407407407407404],[-0.4110416666666667,-0.3542592592592593],[-0.4170833333333333,-0.3327777777777778],[-0.43854166666666666,-0.30888888888888894],[-0.43989583333333326,-0.29500000000000004],[-0.4163541666666667,-0.26481481481481484],[-0.38562500000000005,-0.222037037037037],[-0.3780208333333333,-0.17],[-0.3614583333333333,-0.0955555555555556],[-0.34489583333333335,-0.02111111111111107],[-0.34489583333333335,-0.02111111111111107],[-0.3289583333333333,0.031111111111111027],[-0.30885416666666665,0.0668518518518519],[-0.30885416666666665,0.0668518518518519],[-0.29874999999999996,0.102962962962963],[-0.2626041666666667,0.09666666666666675],[-0.23395833333333335,0.09611111111111106],[-0.22312500000000005,0.08055555555555556],[-0.228125,0.07407407407407407],[-0.2404166666666666,0.07814814814814823],[-0.2233333333333333,0.050370370370370454],[-0.1907291666666667,0.008888888888888804],[-0.1851041666666667,-0.0235185185185186],[-0.17062499999999994,-0.06296296296296296],[-0.17062499999999994,-0.06296296296296296],[-0.1476041666666667,-0.11574074074074074],[-0.13697916666666668,-0.12537037037037035],[-0.13697916666666668,-0.12537037037037035],[-0.12999999999999995,-0.12759259259259256],[-0.12687499999999996,-0.13222222222222219],[-0.10958333333333338,-0.14388888888888887],[-0.08083333333333335,-0.15796296296296297],[-0.07708333333333334,-0.167037037037037],[-0.07708333333333334,-0.167037037037037],[-0.07052083333333338,-0.1638888888888889],[-0.02833333333333338,-0.16351851851851854],[0.004062499999999977,-0.1638888888888889],[0.014895833333333285,-0.1557407407407408],[0.027499999999999976,-0.1507407407407407],[0.04458333333333329,-0.1624074074074074],[0.05645833333333338,-0.16518518518518516],[0.05645833333333338,-0.16518518518518516],[0.0743750000000001,-0.1757407407407407],[0.06906249999999996,-0.18074074074074079],[0.07322916666666662,-0.16870370370370374],[0.06510416666666667,-0.17240740740740745],[0.03697916666666667,-0.18370370370370367],[0.022916666666666665,-0.1705555555555556],[0.022916666666666665,-0.1705555555555556],[0.04885416666666664,-0.15555555555555556],[0.057291666666666664,-0.12444444444444443],[0.06437499999999995,-0.12240740740740745],[0.06437499999999995,-0.12240740740740745],[0.0734375,-0.12814814814814812],[0.07979166666666657,-0.12444444444444443],[0.096875,-0.12851851851851848],[0.11666666666666667,-0.12777777777777777],[0.11666666666666667,-0.12777777777777777],[0.14114583333333333,-0.11962962962962967],[0.14177083333333323,-0.11462962962962958],[0.14354166666666662,-0.12222222222222222],[0.115625,-0.14648148148148152],[0.12135416666666667,-0.1896296296296296],[0.12135416666666667,-0.1896296296296296],[0.11031250000000009,-0.14962962962962964],[0.10718750000000009,-0.1544444444444444],[0.10072916666666672,-0.1609259259259259],[0.10072916666666672,-0.1609259259259259],[0.09833333333333343,-0.1655555555555555],[0.09385416666666657,-0.18203703703703705],[0.07208333333333337,-0.1868518518518518],[0.09020833333333324,-0.19037037037037038],[0.07270833333333329,-0.1557407407407408],[0.07270833333333329,-0.1557407407407408],[0.05697916666666671,-0.11666666666666667],[0.026250000000000048,-0.09851851851851849],[0.01895833333333338,-0.13333333333333333],[0.001979166666666643,-0.10462962962962963],[-0.014999999999999977,-0.07592592592592592],[-0.028437499999999952,-0.07592592592592592],[-0.03979166666666671,-0.06407407407407412],[-0.04895833333333333,-0.03944444444444436],[-0.04791666666666667,-0.01444444444444436],[-0.04791666666666667,-0.01444444444444436],[-0.025520833333333333,-0.03166666666666671],[-0.011249999999999953,-0.042407407407407366],[0.015416666666666618,-0.04148148148148144],[0.015416666666666618,-0.04148148148148144]]","[[-0.7039583333333332,0.27981481481481485,0.000399999998506928],[-0.7039583333333332,0.27981481481481485,0.055800000004467165],[-0.7167708333333334,0.2116666666666666,0.05960000000148824],[-0.7167708333333334,0.2116666666666666,0.07000000000000028],[-0.7057291666666666,0.15722222222222218,0.08680000000446597],[-0.6494791666666667,0.08796296296296297,0.10649999999999693],[-0.6519791666666667,0.040370370370370286,0.12130000000446728],[-0.6555208333333333,-0.00722222222222218,0.13960000000148653],[-0.6076041666666666,-0.0948148148148148,0.15570000000298023],[-0.5632291666666667,-0.1235185185185185,0.1702000000029784],[-0.5260416666666666,-0.13407407407407404,0.19200000000000017],[-0.5260416666666666,-0.13407407407407404,0.20330000000446802],[-0.521875,-0.15611111111111114,0.22010000000148722],[-0.5126041666666666,-0.16629629629629633,0.23680000000447166],[-0.45427083333333335,-0.23277777777777775,0.25780000000447245],[-0.43510416666666674,-0.21722222222222223,0.2728999999985078],[-0.4535416666666666,-0.17388888888888884,0.28949999999999676],[-0.43322916666666667,-0.11574074074074074,0.30749999999999744],[-0.3672916666666667,-0.1383333333333333,0.3228000000044702],[-0.3497916666666666,-0.11833333333333329,0.33710000000149165],[-0.2921875,-0.07777777777777778,0.35860000000148773],[-0.2604166666666667,-0.08222222222222218,0.37299999999999756],[-0.19520833333333332,-0.08148148148148149,0.3901000000014889],[-0.12999999999999995,-0.08074074074074078,0.40470000000298256],[-0.14010416666666667,0.037037037037037035,0.4239999999999995],[-0.06854166666666663,0.007777777777777862,0.4399999999999977],[0.009895833333333333,-0.03888888888888889,0.45649999999999835],[0.009895833333333333,-0.03888888888888889,0.4698999999985105],[0.026041666666666668,-0.05611111111111113,0.48660000000148784],[0.042708333333333334,-0.027407407407407325,0.5031000000014885],[0.03427083333333331,0.032407407407407406,0.5233000000044683],[-0.004375000000000047,0.02166666666666675,0.5367000000029805],[-0.004375000000000047,0.02166666666666675,0.554000000000002],[0.04041666666666662,0.0418518518518519,0.5700000000000003],[0.06177083333333329,0.07351851851851861,0.593800000004471],[0.06177083333333329,0.07351851851851861,0.6032000000029782],[0.096875,0.08981481481481482,0.6199999999999974],[0.11166666666666672,0.001851851851851852,0.6367000000029819],[0.10416666666666667,0.01444444444444436,0.6568000000044663],[0.10416666666666667,0.01444444444444436,0.6698999999985062],[0.11218750000000005,0.036481481481481566,0.6869999999999976],[0.1443749999999999,0.03370370370370379,0.7033999999985099],[0.13468749999999996,0.027222222222222307,0.7198000000044686],[0.15052083333333333,-0.03518518518518519,0.7364999999999995],[0.1478125000000001,-0.021296296296296296,0.7532000000029768],[0.09760416666666671,-0.030000000000000086,0.7737000000029823],[0.09760416666666671,-0.030000000000000086,0.7866000000014921],[0.07625000000000005,-0.032037037037036954,0.8032000000029811],[0.05249999999999998,-0.0257407407407407,0.8211000000014863],[0.09177083333333323,-0.0012962962962963806,0.8365000000000009],[0.09854166666666657,-0.020370370370370372,0.8564999999999969],[0.0796875,-0.05277777777777778,0.8701000000014858],[0.04864583333333338,-0.09259259259259259,0.8901000000014889],[0.041562499999999974,-0.08574074074074076,0.9046000000014871],[0.034895833333333334,-0.08740740740740739,0.9198000000044715],[0.03687499999999998,-0.11537037037037039,0.9387000000029815],[0.049270833333333285,-0.13148148148148148,0.9567000000029822],[0.052291666666666715,-0.15499999999999997,0.9738000000044664],[0.03833333333333329,-0.1588888888888889,0.9893000000044694],[0.010104166666666714,-0.1537037037037037,1.003399999998507],[0.012187500000000047,-0.14722222222222223,1.024000000000001],[0.012187500000000047,-0.14722222222222223,1.0367000000029805],[0.004791666666666691,-0.12888888888888894,1.0533999999985113],[0.028437499999999952,-0.09833333333333337,1.069899999998512],[0.03458333333333338,-0.1175925925925926,1.0917000000029802],[0.04593750000000003,-0.11092592592592589,1.1071000000014877],[0.04760416666666671,-0.09351851851851851,1.1217000000029813],[0.03937499999999995,-0.08629629629629634,1.1367000000029819],[0.04458333333333329,-0.0940740740740741,1.160100000001492],[0.04458333333333329,-0.0940740740740741,1.1700000000000017],[0.05333333333333338,-0.07629629629629628,1.186700000002979],[0.03604166666666669,-0.09703703703703699,1.2033999999985099],[0.03604166666666669,-0.09703703703703699,1.2227000000029804],[0.013541666666666667,-0.049074074074074076,1.2366000000014878],[0.03083333333333336,-0.031111111111111027,1.2537000000029792],[0.030104166666666644,-0.03685185185185181,1.2736000000014869],[0.030104166666666644,-0.03685185185185181,1.2864999999999966],[0.04562499999999995,-0.03796296296296296,1.3033000000044694],[0.06041666666666667,-0.004444444444444402,1.3223999999985097],[0.090625,0.013888888888888888,1.3366000000014893],[0.10250000000000009,0.01907407407407399,1.356800000004469],[0.11270833333333338,0.02759259259259255,1.372300000004472],[0.13125,-0.045740740740740825,1.389700000002982],[0.18229166666666666,-0.0742592592592593,1.4044999999999987],[0.21416666666666656,-0.1594444444444445,1.42010000000149],[0.24010416666666667,-0.19092592592592597,1.4403999999985118],[0.24479166666666666,-0.2512962962962963,1.4594999999999985],[0.24479166666666666,-0.2512962962962963,1.4698999999985105],[0.23427083333333343,-0.24370370370370376,1.4866000000014878],[0.21614583333333334,-0.24370370370370376,1.5033000000044723],[0.20083333333333328,-0.25037037037037035,1.5249999999999986],[0.18697916666666667,-0.24055555555555552,1.5396000000014922],[0.18697916666666667,-0.24055555555555552,1.5552000000029764],[0.17687499999999995,-0.23777777777777773,1.5700000000000003],[0.15916666666666662,-0.18111111111111114,1.592100000001487],[0.15635416666666657,-0.15703703703703706,1.6063000000044667],[0.12833333333333338,-0.127962962962963,1.6199999999999974],[0.08020833333333334,-0.12074074074074072,1.6400000000000006],[0.1009375000000001,-0.09870370370370372,1.6562000000029755],[0.12197916666666657,-0.08648148148148146,1.6702000000029784],[0.12864583333333332,-0.12462962962962965,1.6899999999999977],[0.11927083333333334,-0.11388888888888889,1.7031000000014913],[0.12447916666666667,-0.13444444444444448,1.722600000001492],[0.11395833333333343,-0.102962962962963,1.7370000000000019],[0.12197916666666657,-0.09277777777777782,1.7531000000014885],[0.10604166666666662,-0.047037037037036995,1.7748000000044684],[0.10604166666666662,-0.047037037037036995,1.7867000000029805],[0.12770833333333323,-0.01962962962962967,1.8033999999985113],[0.14833333333333343,0.009444444444444486,1.8207000000029794],[0.11520833333333323,0.04981481481481477,1.8403999999985103],[0.08677083333333328,0.07166666666666675,1.856899999998511],[0.07479166666666662,0.08777777777777773,1.8733999999985116],[0.0703125,0.06611111111111119,1.8911000000014866],[0.07249999999999991,0.09537037037037037,1.9066000000014895],[0.09322916666666667,0.06500000000000004,1.9253000000044693],[0.08520833333333329,0.05962962962962971,1.9399999999999977],[0.09031250000000005,-0.012777777777777735,1.9557000000029774],[0.09031250000000005,-0.012777777777777735,1.9738000000044664],[0.09375,-0.026481481481481398,1.9897000000029763],[0.09375,-0.026481481481481398,2.003399999998507],[0.08510416666666672,-0.04888888888888885,2.019800000004466],[0.10031249999999996,-0.04333333333333329,2.0363999999985083],[0.11947916666666672,-0.06574074074074074,2.0531000000014856],[0.1319791666666667,-0.04407407407407399,2.072100000001491],[0.15291666666666662,-0.035740740740740656,2.0908999999985056],[0.15895833333333323,-0.04018518518518527,2.106800000004469],[0.14166666666666666,-0.02833333333333325,2.1225000000000023],[0.14166666666666666,-0.02833333333333325,2.136499999999998],[0.14895833333333333,-0.03925925925925934,2.1532000000029825],[0.1330208333333334,0.016111111111111194,2.1698000000044715],[0.12937500000000005,0.01444444444444436,2.189700000002979],[0.13093750000000004,0.018148148148148063,2.2061000000014914],[0.1271874999999999,-0.004259259259259175,2.2228000000044688],[0.11989583333333324,-0.020740740740740823,2.2371000000014902],[0.12260416666666671,-0.03722222222222227,2.2533000000044723],[0.12145833333333324,-0.053703703703703705,2.2742000000029776],[0.12145833333333324,-0.053703703703703705,2.2868999999985107],[0.1196875000000001,-0.05944444444444449,2.3033999999985113],[0.1568749999999999,-0.056851851851851834,2.3200000000000003],[0.175,-0.05759259259259263,2.341600000001492],[0.19104166666666675,-0.04462962962962967,2.357200000002976],[0.2111458333333334,-0.008333333333333333,2.372399999998507],[0.2319791666666667,0.018518518518518517,2.3928000000044705],[0.2273958333333333,0.04388888888888897,2.4058000000044686],[0.2353125000000001,0.07981481481481485,2.4213000000044715],[0.24343750000000006,0.10611111111111103,2.4398000000044675],[0.2365624999999999,0.12407407407407407,2.4555000000000007],[0.23562500000000006,0.13629629629629633,2.4698999999985105],[0.20520833333333333,0.11814814814814806,2.4886000000014903],[0.17781250000000004,0.14055555555555552,2.5033000000044723],[0.1877083333333334,0.1242592592592593,2.52470000000298],[0.1877083333333334,0.1242592592592593,2.536600000001492],[0.17083333333333334,0.10796296296296289,2.553600000001488],[0.15947916666666656,0.07703703703703708,2.572300000004468],[0.15010416666666657,0.06129629629629634,2.592800000004466],[0.15010416666666657,0.06129629629629634,2.60310000000149],[0.1492708333333333,0.03351851851851856,2.6199999999999974],[0.15072916666666672,0.01777777777777782,2.6363999999985097],[0.15,0.02907407407407416,2.6557000000029802],[0.14656250000000004,0.03629629629629634,2.6703000000044668],[0.16458333333333333,0.05611111111111103,2.6898999999985094],[0.1632291666666667,0.035740740740740656,2.7066000000014867],[0.15656249999999997,0.04870370370370362,2.722999999999999],[0.1580208333333334,0.049074074074074076,2.7387000000029786],[0.14854166666666657,0.05481481481481486,2.7533000000044723],[0.15583333333333324,0.06407407407407412,2.77470000000298],[0.15583333333333324,0.06407407407407412,2.7867000000029805],[0.15822916666666675,0.0485185185185186,2.8033000000044694],[0.13791666666666677,0.07370370370370362,2.8223999999985097],[0.1404166666666666,0.09314814814814806,2.842899999998508],[0.1404166666666666,0.09314814814814806,2.8533000000044666],[0.15135416666666662,0.06055555555555564,2.8699999999999974],[0.1404166666666666,0.052407407407407326,2.891200000002982],[0.14989583333333342,0.04796296296296292,2.906100000001487],[0.14895833333333333,0.02555555555555547,2.9239999999999995],[0.14802083333333324,0.0031481481481482323,2.942],[0.14802083333333324,0.0031481481481482323,2.953300000004468],[0.15270833333333325,-0.0418518518518519,2.9698999999985105],[0.15177083333333338,-0.06648148148148143,2.988999999999997],[0.13927083333333337,-0.044444444444444446,3.0079999999999956],[0.16354166666666667,-0.059999999999999956,3.0222000000029823],[0.14427083333333332,-0.09833333333333337,3.036600000001492],[0.14427083333333332,-0.09833333333333337,3.0561000000014857],[0.14718749999999994,-0.0940740740740741,3.0701000000014886],[0.15031249999999996,-0.11888888888888886,3.086899999998508],[0.13645833333333332,-0.12074074074074072,3.106899999998511],[0.13645833333333332,-0.12074074074074072,3.119700000002979],[0.1404166666666666,-0.13333333333333333,3.1366000000014864],[0.1375,-0.14148148148148143,3.1569999999999965],[0.13947916666666677,-0.11870370370370374,3.1757000000029763],[0.13947916666666677,-0.11870370370370374,3.186700000002979],[0.1319791666666667,-0.10111111111111115,3.2032000000029797],[0.1319791666666667,-0.10111111111111115,3.2198000000044686],[0.12416666666666672,-0.10314814814814813,3.2364999999999995],[0.0900000000000001,-0.12018518518518514,3.253399999998507],[0.08052083333333329,-0.11240740740740739,3.273600000001487],[0.08052083333333329,-0.11240740740740739,3.2864999999999966],[0.06218750000000005,-0.09203703703703701,3.3031000000014856],[0.04552083333333338,-0.06925925925925921,3.32280000000447],[0.04781249999999997,-0.06129629629629634,3.336500000000001],[0.050625000000000024,-0.03611111111111111,3.3566000000014924],[0.06031249999999998,-0.015370370370370286,3.371600000001486],[0.06031249999999998,-0.015370370370370286,3.3866000000014864],[0.05406249999999998,0.005740740740740783,3.403100000001487],[0.07374999999999995,0.01314814814814819,3.4198000000044715],[0.07843749999999995,0.022222222222222223,3.440100000001486],[0.11041666666666666,0.02759259259259255,3.4553999999985052],[0.15104166666666666,0.03129629629629625,3.470100000001487],[0.17583333333333329,0.003703703703703704,3.4893999999985112],[0.1961458333333333,-0.017592592592592594,3.5091000000014887],[0.1961458333333333,-0.017592592592592594,3.5197000000029774],[0.2178124999999999,-0.04796296296296292,3.536600000001492],[0.2178124999999999,-0.04796296296296292,3.5533000000044694],[0.2189583333333334,-0.09314814814814817,3.569899999998512],[0.18499999999999991,-0.1051851851851852,3.5878000000044707],[0.20677083333333332,-0.1264814814814815,3.606899999998511],[0.1890625,-0.12685185185185185,3.6233000000044697],[0.1890625,-0.12685185185185185,3.636499999999998],[0.20187499999999994,-0.16018518518518518,3.6532000000029825],[0.15239583333333329,-0.1698148148148148,3.6698000000044715],[0.11427083333333338,-0.15185185185185185,3.6908000000044723],[0.09447916666666671,-0.12981481481481486,3.7064999999999984],[0.06895833333333339,-0.11092592592592589,3.7235000000000014],[0.057500000000000044,-0.08888888888888889,3.7383000000044717],[0.03447916666666669,-0.0257407407407407,3.7534999999999954],[0.07510416666666657,-0.015555555555555513,3.7737000000029823],[0.065625,0.005000000000000084,3.7893999999985084],[0.065625,0.005000000000000084,3.8031000000014856],[0.08093750000000005,0.01629629629629621,3.81980000000447],[0.06989583333333324,0.07185185185185176,3.8363999999985055],[0.11010416666666671,0.10740740740740741,3.8569999999999993],[0.121875,0.11907407407407399,3.872300000004472],[0.11729166666666657,0.14370370370370375,3.889499999999998],[0.1290625000000001,0.21296296296296297,3.903500000000001],[0.1474999999999999,0.2890740740740741,3.9198999999985062],[0.16906249999999995,0.3229629629629629,3.9403999999985118],[0.14479166666666668,0.43555555555555564,3.9566000000014867],[0.10416666666666667,0.5414814814814815,3.9723000000044664],[0.07322916666666662,0.6035185185185185,3.990000000000002],[0.08312499999999995,0.64,4.0045],[0.109375,0.7248148148148148,4.023300000004468],[0.13031249999999991,0.7822222222222222,4.0390000000000015],[0.15885416666666666,0.8468518518518517,4.055800000004467],[0.12552083333333333,0.8257407407407407,4.0703000000044725],[0.07302083333333324,0.8088888888888888,4.086500000000001],[0.03270833333333331,0.8003703703703705,4.106999999999999],[0.0034374999999999527,0.702962962962963,4.123100000001486],[0.0034374999999999527,0.702962962962963,4.13639999999851],[-0.005208333333333333,0.6198148148148149,4.1532000000029825],[-0.005416666666666714,0.5125925925925925,4.169700000002976],[-0.06020833333333329,0.4503703703703705,4.190100000001486],[-0.1373958333333333,0.35907407407407405,4.204499999999996],[-0.1373958333333333,0.35907407407407405,4.219800000004469],[-0.18458333333333338,0.2572222222222222,4.236399999998511],[-0.24083333333333337,0.14962962962962956,4.257600000001489],[-0.22395833333333334,0.0911111111111112,4.274100000001489],[-0.21000000000000002,0.027407407407407325,4.289800000004469],[-0.20708333333333329,-0.02814814814814823,4.306600000001488],[-0.1970833333333334,-0.04388888888888897,4.322300000004468],[-0.18187500000000004,-0.07851851851851847,4.336500000000001],[-0.17697916666666663,-0.07407407407407407,4.357200000002976],[-0.16124999999999995,-0.1,4.372600000001491],[-0.16124999999999995,-0.1,4.386700000002982],[-0.1578125,-0.14833333333333337,4.403100000001487],[-0.14072916666666668,-0.13907407407407413,4.4198000000044715],[-0.13385416666666666,-0.1507407407407407,4.44030000000447],[-0.13645833333333332,-0.12092592592592595,4.455999999999996],[-0.13645833333333332,-0.12092592592592595,4.46970000000298],[-0.15677083333333333,-0.09388888888888887,4.4864999999999995],[-0.1436458333333333,-0.07166666666666664,4.5031000000014885],[-0.1264583333333333,-0.07388888888888885,4.523300000004468],[-0.1123958333333333,-0.09388888888888887,4.537200000002976],[-0.1123958333333333,-0.09388888888888887,4.553100000001486],[-0.10666666666666665,-0.1,4.56980000000447],[-0.09937499999999998,-0.10185185185185185,4.586600000001489],[-0.08333333333333333,-0.09870370370370372,4.606499999999997],[-0.08354166666666671,-0.11314814814814819,4.62330000000447],[-0.0672916666666667,-0.07518518518518523,4.641399999998505],[-0.0672916666666667,-0.07518518518518523,4.6532000000029825],[-0.04833333333333331,-0.08907407407407411,4.669899999998506],[-0.04833333333333331,-0.08907407407407411,4.686600000001491],[-0.02510416666666669,-0.10499999999999998,4.703100000001491],[-0.03229166666666667,-0.14629629629629629,4.720399999998506],[-0.051145833333333356,-0.1624074074074074,4.7364999999999995],[-0.05697916666666671,-0.15111111111111114,4.7545],[-0.06499999999999997,-0.13537037037037042,4.774000000000001],[-0.05364583333333333,-0.13370370370370369,4.789899999998511],[-0.04229166666666669,-0.13203703703703706,4.8063000000044696],[-0.0390625,-0.13388888888888892,4.822100000001491],[-0.040625,-0.16870370370370374,4.8363999999985055],[-0.046875,-0.19907407407407407,4.856800000004469],[-0.03968750000000002,-0.22462962962962965,4.871100000001491],[-0.027187500000000024,-0.22388888888888886,4.890300000004466],[0.0007291666666667141,-0.24018518518518517,4.905800000004469],[0.019166666666666644,-0.24981481481481477,4.9239999999999995],[0.03760416666666669,-0.2594444444444445,4.940899999998507],[0.03760416666666669,-0.2594444444444445,4.95320000000298],[0.04708333333333338,-0.2607407407407408,4.969800000004469],[0.046875,-0.26648148148148143,4.988999999999997],[0.049791666666666616,-0.27444444444444444,5.003300000004472],[0.05385416666666672,-0.2777777777777778,5.02320000000298],[0.05333333333333338,-0.272037037037037,5.038499999999999],[0.05333333333333338,-0.272037037037037,5.053100000001486],[0.0515625,-0.2601851851851852,5.069700000002982],[0.04656250000000005,-0.22999999999999998,5.0907000000029825],[0.03583333333333331,-0.21796296296296294,5.107100000001488],[0.030312500000000023,-0.19444444444444445,5.122100000001488],[0.02000000000000005,-0.18888888888888888,5.136600000001486],[-0.00604166666666662,-0.15611111111111114,5.156100000001487],[-0.03104166666666662,-0.14592592592592596,5.1698000000044715],[-0.06656249999999998,-0.14444444444444443,5.1902000000029815],[-0.10322916666666669,-0.14759259259259258,5.205399999998505],[-0.15249999999999997,-0.14648148148148152,5.222399999998508],[-0.20052083333333334,-0.1514814814814815,5.236399999998511],[-0.24812500000000004,-0.19370370370370374,5.2531000000014885],[-0.2703125,-0.21500000000000005,5.273600000001487],[-0.3228125,-0.27166666666666667,5.289700000002981],[-0.3228125,-0.27166666666666667,5.303100000001486],[-0.37052083333333335,-0.3103703703703704,5.319899999998512],[-0.39302083333333326,-0.35407407407407404,5.3363999999985055],[-0.4110416666666667,-0.3542592592592593,5.356899999998511],[-0.4170833333333333,-0.3327777777777778,5.372800000004467],[-0.43854166666666666,-0.30888888888888894,5.390600000001491],[-0.43989583333333326,-0.29500000000000004,5.40570000000298],[-0.4163541666666667,-0.26481481481481484,5.421100000001488],[-0.38562500000000005,-0.222037037037037,5.4406000000014885],[-0.3780208333333333,-0.17,5.456899999998505],[-0.3614583333333333,-0.0955555555555556,5.473100000001487],[-0.34489583333333335,-0.02111111111111107,5.490600000001486],[-0.34489583333333335,-0.02111111111111107,5.5031000000014885],[-0.3289583333333333,0.031111111111111027,5.519800000004466],[-0.30885416666666665,0.0668518518518519,5.536499999999997],[-0.30885416666666665,0.0668518518518519,5.553200000002981],[-0.29874999999999996,0.102962962962963,5.56980000000447],[-0.2626041666666667,0.09666666666666675,5.586700000002978],[-0.23395833333333335,0.09611111111111106,5.606899999998511],[-0.22312500000000005,0.08055555555555556,5.622],[-0.228125,0.07407407407407407,5.63639999999851],[-0.2404166666666666,0.07814814814814823,5.654600000001487],[-0.2233333333333333,0.050370370370370454,5.669899999998506],[-0.1907291666666667,0.008888888888888804,5.689999999999998],[-0.1851041666666667,-0.0235185185185186,5.704499999999996],[-0.17062499999999994,-0.06296296296296296,5.72210000000149],[-0.17062499999999994,-0.06296296296296296,5.740399999998509],[-0.1476041666666667,-0.11574074074074074,5.758200000002979],[-0.13697916666666668,-0.12537037037037035,5.773700000002982],[-0.13697916666666668,-0.12537037037037035,5.786399999998508],[-0.12999999999999995,-0.12759259259259256,5.803100000001486],[-0.12687499999999996,-0.13222222222222219,5.8203000000044725],[-0.10958333333333338,-0.14388888888888887,5.836500000000001],[-0.08083333333333335,-0.15796296296296297,5.856499999999997],[-0.07708333333333334,-0.167037037037037,5.869700000002979],[-0.07708333333333334,-0.167037037037037,5.886499999999998],[-0.07052083333333338,-0.1638888888888889,5.903100000001487],[-0.02833333333333338,-0.16351851851851854,5.9198000000044715],[0.004062499999999977,-0.1638888888888889,5.93880000000447],[0.014895833333333285,-0.1557407407407408,5.954600000001491],[0.027499999999999976,-0.1507407407407407,5.969800000004469],[0.04458333333333329,-0.1624074074074074,5.986399999998511],[0.05645833333333338,-0.16518518518518516,6.003200000002977],[0.05645833333333338,-0.16518518518518516,6.019800000004466],[0.0743750000000001,-0.1757407407407407,6.036399999998508],[0.06906249999999996,-0.18074074074074079,6.056100000001486],[0.07322916666666662,-0.16870370370370374,6.06980000000447],[0.06510416666666667,-0.17240740740740745,6.088100000001489],[0.03697916666666667,-0.18370370370370367,6.106499999999997],[0.022916666666666665,-0.1705555555555556,6.121600000001486],[0.022916666666666665,-0.1705555555555556,6.13639999999851],[0.04885416666666664,-0.15555555555555556,6.153100000001487],[0.057291666666666664,-0.12444444444444443,6.169899999998506],[0.06437499999999995,-0.12240740740740745,6.189700000002979],[0.06437499999999995,-0.12240740740740745,6.203100000001491],[0.0734375,-0.12814814814814812,6.219800000004469],[0.07979166666666657,-0.12444444444444443,6.236300000004469],[0.096875,-0.12851851851851848,6.2531000000014885],[0.11666666666666667,-0.12777777777777777,6.272100000001487],[0.11666666666666667,-0.12777777777777777,6.286499999999997],[0.14114583333333333,-0.11962962962962967,6.303200000002981],[0.14177083333333323,-0.11462962962962958,6.322899999998512],[0.14354166666666662,-0.12222222222222222,6.33739999999851],[0.115625,-0.14648148148148152,6.356899999998511],[0.12135416666666667,-0.1896296296296296,6.3714999999999975],[0.12135416666666667,-0.1896296296296296,6.386499999999998],[0.11031250000000009,-0.14962962962962964,6.403100000001487],[0.10718750000000009,-0.1544444444444444,6.419899999998506],[0.10072916666666672,-0.1609259259259259,6.440800000004472],[0.10072916666666672,-0.1609259259259259,6.453100000001491],[0.09833333333333343,-0.1655555555555555,6.469800000004469],[0.09385416666666657,-0.18203703703703705,6.488500000000002],[0.07208333333333337,-0.1868518518518518,6.5031000000014885],[0.09020833333333324,-0.19037037037037038,6.522700000002978],[0.07270833333333329,-0.1557407407407408,6.536399999998508],[0.07270833333333329,-0.1557407407407408,6.5535],[0.05697916666666671,-0.11666666666666667,6.56980000000447],[0.026250000000000048,-0.09851851851851849,6.5863999999985055],[0.01895833333333338,-0.13333333333333333,6.605499999999999],[0.001979166666666643,-0.10462962962962963,6.621200000002979],[-0.014999999999999977,-0.07592592592592592,6.63639999999851],[-0.028437499999999952,-0.07592592592592592,6.654600000001487],[-0.03979166666666671,-0.06407407407407412,6.669700000002976],[-0.04895833333333333,-0.03944444444444436,6.69030000000447],[-0.04791666666666667,-0.01444444444444436,6.703100000001491],[-0.04791666666666667,-0.01444444444444436,6.71970000000298],[-0.025520833333333333,-0.03166666666666671,6.7364999999999995],[-0.011249999999999953,-0.042407407407407366,6.7531000000014885],[0.015416666666666618,-0.04148148148148144,6.773700000002982],[0.015416666666666618,-0.04148148148148144,6.786499999999997]]","[0.000399999998506928,0.055800000004467165,0.05960000000148824,0.07000000000000028,0.08680000000446597,0.10649999999999693,0.12130000000446728,0.13960000000148653,0.15570000000298023,0.1702000000029784,0.19200000000000017,0.20330000000446802,0.22010000000148722,0.23680000000447166,0.25780000000447245,0.2728999999985078,0.28949999999999676,0.30749999999999744,0.3228000000044702,0.33710000000149165,0.35860000000148773,0.37299999999999756,0.3901000000014889,0.40470000000298256,0.4239999999999995,0.4399999999999977,0.45649999999999835,0.4698999999985105,0.48660000000148784,0.5031000000014885,0.5233000000044683,0.5367000000029805,0.554000000000002,0.5700000000000003,0.593800000004471,0.6032000000029782,0.6199999999999974,0.6367000000029819,0.6568000000044663,0.6698999999985062,0.6869999999999976,0.7033999999985099,0.7198000000044686,0.7364999999999995,0.7532000000029768,0.7737000000029823,0.7866000000014921,0.8032000000029811,0.8211000000014863,0.8365000000000009,0.8564999999999969,0.8701000000014858,0.8901000000014889,0.9046000000014871,0.9198000000044715,0.9387000000029815,0.9567000000029822,0.9738000000044664,0.9893000000044694,1.003399999998507,1.024000000000001,1.0367000000029805,1.0533999999985113,1.069899999998512,1.0917000000029802,1.1071000000014877,1.1217000000029813,1.1367000000029819,1.160100000001492,1.1700000000000017,1.186700000002979,1.2033999999985099,1.2227000000029804,1.2366000000014878,1.2537000000029792,1.2736000000014869,1.2864999999999966,1.3033000000044694,1.3223999999985097,1.3366000000014893,1.356800000004469,1.372300000004472,1.389700000002982,1.4044999999999987,1.42010000000149,1.4403999999985118,1.4594999999999985,1.4698999999985105,1.4866000000014878,1.5033000000044723,1.5249999999999986,1.5396000000014922,1.5552000000029764,1.5700000000000003,1.592100000001487,1.6063000000044667,1.6199999999999974,1.6400000000000006,1.6562000000029755,1.6702000000029784,1.6899999999999977,1.7031000000014913,1.722600000001492,1.7370000000000019,1.7531000000014885,1.7748000000044684,1.7867000000029805,1.8033999999985113,1.8207000000029794,1.8403999999985103,1.856899999998511,1.8733999999985116,1.8911000000014866,1.9066000000014895,1.9253000000044693,1.9399999999999977,1.9557000000029774,1.9738000000044664,1.9897000000029763,2.003399999998507,2.019800000004466,2.0363999999985083,2.0531000000014856,2.072100000001491,2.0908999999985056,2.106800000004469,2.1225000000000023,2.136499999999998,2.1532000000029825,2.1698000000044715,2.189700000002979,2.2061000000014914,2.2228000000044688,2.2371000000014902,2.2533000000044723,2.2742000000029776,2.2868999999985107,2.3033999999985113,2.3200000000000003,2.341600000001492,2.357200000002976,2.372399999998507,2.3928000000044705,2.4058000000044686,2.4213000000044715,2.4398000000044675,2.4555000000000007,2.4698999999985105,2.4886000000014903,2.5033000000044723,2.52470000000298,2.536600000001492,2.553600000001488,2.572300000004468,2.592800000004466,2.60310000000149,2.6199999999999974,2.6363999999985097,2.6557000000029802,2.6703000000044668,2.6898999999985094,2.7066000000014867,2.722999999999999,2.7387000000029786,2.7533000000044723,2.77470000000298,2.7867000000029805,2.8033000000044694,2.8223999999985097,2.842899999998508,2.8533000000044666,2.8699999999999974,2.891200000002982,2.906100000001487,2.9239999999999995,2.942,2.953300000004468,2.9698999999985105,2.988999999999997,3.0079999999999956,3.0222000000029823,3.036600000001492,3.0561000000014857,3.0701000000014886,3.086899999998508,3.106899999998511,3.119700000002979,3.1366000000014864,3.1569999999999965,3.1757000000029763,3.186700000002979,3.2032000000029797,3.2198000000044686,3.2364999999999995,3.253399999998507,3.273600000001487,3.2864999999999966,3.3031000000014856,3.32280000000447,3.336500000000001,3.3566000000014924,3.371600000001486,3.3866000000014864,3.403100000001487,3.4198000000044715,3.440100000001486,3.4553999999985052,3.470100000001487,3.4893999999985112,3.5091000000014887,3.5197000000029774,3.536600000001492,3.5533000000044694,3.569899999998512,3.5878000000044707,3.606899999998511,3.6233000000044697,3.636499999999998,3.6532000000029825,3.6698000000044715,3.6908000000044723,3.7064999999999984,3.7235000000000014,3.7383000000044717,3.7534999999999954,3.7737000000029823,3.7893999999985084,3.8031000000014856,3.81980000000447,3.8363999999985055,3.8569999999999993,3.872300000004472,3.889499999999998,3.903500000000001,3.9198999999985062,3.9403999999985118,3.9566000000014867,3.9723000000044664,3.990000000000002,4.0045,4.023300000004468,4.0390000000000015,4.055800000004467,4.0703000000044725,4.086500000000001,4.106999999999999,4.123100000001486,4.13639999999851,4.1532000000029825,4.169700000002976,4.190100000001486,4.204499999999996,4.219800000004469,4.236399999998511,4.257600000001489,4.274100000001489,4.289800000004469,4.306600000001488,4.322300000004468,4.336500000000001,4.357200000002976,4.372600000001491,4.386700000002982,4.403100000001487,4.4198000000044715,4.44030000000447,4.455999999999996,4.46970000000298,4.4864999999999995,4.5031000000014885,4.523300000004468,4.537200000002976,4.553100000001486,4.56980000000447,4.586600000001489,4.606499999999997,4.62330000000447,4.641399999998505,4.6532000000029825,4.669899999998506,4.686600000001491,4.703100000001491,4.720399999998506,4.7364999999999995,4.7545,4.774000000000001,4.789899999998511,4.8063000000044696,4.822100000001491,4.8363999999985055,4.856800000004469,4.871100000001491,4.890300000004466,4.905800000004469,4.9239999999999995,4.940899999998507,4.95320000000298,4.969800000004469,4.988999999999997,5.003300000004472,5.02320000000298,5.038499999999999,5.053100000001486,5.069700000002982,5.0907000000029825,5.107100000001488,5.122100000001488,5.136600000001486,5.156100000001487,5.1698000000044715,5.1902000000029815,5.205399999998505,5.222399999998508,5.236399999998511,5.2531000000014885,5.273600000001487,5.289700000002981,5.303100000001486,5.319899999998512,5.3363999999985055,5.356899999998511,5.372800000004467,5.390600000001491,5.40570000000298,5.421100000001488,5.4406000000014885,5.456899999998505,5.473100000001487,5.490600000001486,5.5031000000014885,5.519800000004466,5.536499999999997,5.553200000002981,5.56980000000447,5.586700000002978,5.606899999998511,5.622,5.63639999999851,5.654600000001487,5.669899999998506,5.689999999999998,5.704499999999996,5.72210000000149,5.740399999998509,5.758200000002979,5.773700000002982,5.786399999998508,5.803100000001486,5.8203000000044725,5.836500000000001,5.856499999999997,5.869700000002979,5.886499999999998,5.903100000001487,5.9198000000044715,5.93880000000447,5.954600000001491,5.969800000004469,5.986399999998511,6.003200000002977,6.019800000004466,6.036399999998508,6.056100000001486,6.06980000000447,6.088100000001489,6.106499999999997,6.121600000001486,6.13639999999851,6.153100000001487,6.169899999998506,6.189700000002979,6.203100000001491,6.219800000004469,6.236300000004469,6.2531000000014885,6.272100000001487,6.286499999999997,6.303200000002981,6.322899999998512,6.33739999999851,6.356899999998511,6.3714999999999975,6.386499999999998,6.403100000001487,6.419899999998506,6.440800000004472,6.453100000001491,6.469800000004469,6.488500000000002,6.5031000000014885,6.522700000002978,6.536399999998508,6.5535,6.56980000000447,6.5863999999985055,6.605499999999999,6.621200000002979,6.63639999999851,6.654600000001487,6.669700000002976,6.69030000000447,6.703100000001491,6.71970000000298,6.7364999999999995,6.7531000000014885,6.773700000002982,6.786499999999997]","[1732592202720,1732592202764,1732592202768,1732592202778,1732592202795,1732592202815,1732592202830,1732592202848,1732592202864,1732592202878,1732592202900,1732592202911,1732592202928,1732592202945,1732592202966,1732592202981,1732592202998,1732592203016,1732592203031,1732592203045,1732592203067,1732592203081,1732592203098,1732592203113,1732592203132,1732592203148,1732592203165,1732592203178,1732592203195,1732592203211,1732592203231,1732592203245,1732592203262,1732592203278,1732592203302,1732592203311,1732592203328,1732592203345,1732592203365,1732592203378,1732592203395,1732592203412,1732592203428,1732592203445,1732592203461,1732592203482,1732592203495,1732592203511,1732592203529,1732592203545,1732592203565,1732592203578,1732592203598,1732592203613,1732592203628,1732592203647,1732592203665,1732592203682,1732592203697,1732592203712,1732592203732,1732592203745,1732592203762,1732592203778,1732592203800,1732592203815,1732592203830,1732592203845,1732592203868,1732592203878,1732592203895,1732592203912,1732592203931,1732592203945,1732592203962,1732592203982,1732592203995,1732592204011,1732592204031,1732592204045,1732592204065,1732592204081,1732592204098,1732592204113,1732592204128,1732592204149,1732592204168,1732592204178,1732592204195,1732592204212,1732592204233,1732592204248,1732592204263,1732592204278,1732592204300,1732592204314,1732592204328,1732592204348,1732592204364,1732592204378,1732592204398,1732592204411,1732592204431,1732592204445,1732592204461,1732592204483,1732592204495,1732592204512,1732592204529,1732592204549,1732592204565,1732592204582,1732592204599,1732592204615,1732592204634,1732592204648,1732592204664,1732592204682,1732592204698,1732592204712,1732592204728,1732592204745,1732592204761,1732592204780,1732592204799,1732592204815,1732592204831,1732592204845,1732592204861,1732592204878,1732592204898,1732592204914,1732592204931,1732592204945,1732592204961,1732592204982,1732592204995,1732592205012,1732592205028,1732592205050,1732592205065,1732592205081,1732592205101,1732592205114,1732592205130,1732592205148,1732592205164,1732592205178,1732592205197,1732592205211,1732592205233,1732592205245,1732592205262,1732592205281,1732592205301,1732592205311,1732592205328,1732592205345,1732592205364,1732592205379,1732592205398,1732592205415,1732592205431,1732592205447,1732592205462,1732592205483,1732592205495,1732592205512,1732592205531,1732592205551,1732592205562,1732592205578,1732592205599,1732592205614,1732592205632,1732592205650,1732592205661,1732592205678,1732592205697,1732592205716,1732592205730,1732592205745,1732592205764,1732592205778,1732592205795,1732592205815,1732592205828,1732592205845,1732592205865,1732592205884,1732592205895,1732592205911,1732592205928,1732592205945,1732592205962,1732592205982,1732592205995,1732592206011,1732592206031,1732592206045,1732592206065,1732592206080,1732592206095,1732592206111,1732592206128,1732592206148,1732592206164,1732592206178,1732592206198,1732592206217,1732592206228,1732592206245,1732592206262,1732592206278,1732592206296,1732592206315,1732592206331,1732592206345,1732592206361,1732592206378,1732592206399,1732592206415,1732592206432,1732592206447,1732592206462,1732592206482,1732592206498,1732592206511,1732592206528,1732592206545,1732592206565,1732592206580,1732592206598,1732592206612,1732592206628,1732592206649,1732592206665,1732592206681,1732592206698,1732592206713,1732592206732,1732592206747,1732592206764,1732592206779,1732592206795,1732592206815,1732592206831,1732592206845,1732592206861,1732592206878,1732592206898,1732592206913,1732592206928,1732592206945,1732592206966,1732592206982,1732592206998,1732592207015,1732592207030,1732592207045,1732592207065,1732592207081,1732592207095,1732592207111,1732592207128,1732592207148,1732592207164,1732592207178,1732592207195,1732592207211,1732592207231,1732592207245,1732592207261,1732592207278,1732592207295,1732592207315,1732592207331,1732592207350,1732592207361,1732592207378,1732592207395,1732592207411,1732592207429,1732592207445,1732592207463,1732592207482,1732592207498,1732592207515,1732592207530,1732592207545,1732592207565,1732592207579,1732592207599,1732592207614,1732592207632,1732592207649,1732592207661,1732592207678,1732592207697,1732592207711,1732592207731,1732592207747,1732592207761,1732592207778,1732592207799,1732592207815,1732592207830,1732592207845,1732592207864,1732592207878,1732592207898,1732592207914,1732592207931,1732592207945,1732592207961,1732592207982,1732592207998,1732592208011,1732592208028,1732592208045,1732592208065,1732592208081,1732592208099,1732592208114,1732592208129,1732592208149,1732592208165,1732592208181,1732592208199,1732592208211,1732592208228,1732592208245,1732592208261,1732592208278,1732592208295,1732592208315,1732592208330,1732592208345,1732592208363,1732592208378,1732592208398,1732592208413,1732592208430,1732592208449,1732592208466,1732592208482,1732592208495,1732592208511,1732592208529,1732592208545,1732592208565,1732592208578,1732592208595,1732592208611,1732592208628,1732592208647,1732592208663,1732592208678,1732592208695,1732592208711,1732592208728,1732592208745,1732592208764,1732592208778,1732592208796,1732592208815,1732592208830,1732592208845,1732592208861,1732592208878,1732592208898,1732592208911,1732592208928,1732592208945,1732592208961,1732592208980,1732592208995,1732592209011,1732592209031,1732592209046,1732592209065,1732592209080,1732592209095,1732592209112,1732592209128,1732592209149,1732592209162,1732592209178,1732592209197,1732592209212,1732592209231,1732592209245,1732592209262,1732592209278,1732592209295,1732592209314,1732592209330,1732592209345,1732592209363,1732592209378,1732592209399,1732592209412,1732592209428,1732592209445,1732592209462,1732592209482,1732592209495]","[[284.2,691.1],[284.2,691.1],[271.9,654.3],[271.9,654.3],[282.5,624.9],[336.5,587.5],[334.1,561.8],[330.7,536.1],[376.7,488.8],[419.3,473.3],[455,467.6],[455,467.6],[459,455.7],[467.9,450.2],[523.9,414.3],[542.3,422.7],[524.6,446.1],[544.1,477.5],[607.4,465.3],[624.2,476.1],[679.5,498],[710,495.6],[772.6,496],[835.2,496.4],[825.5,560],[894.2,544.2],[969.5,519],[969.5,519],[985,509.7],[1001,525.2],[992.9,557.5],[955.8,551.7],[955.8,551.7],[998.8,562.6],[1019.3,579.7],[1019.3,579.7],[1053,588.5],[1067.2,541],[1060,547.8],[1060,547.8],[1067.7,559.7],[1098.6,558.2],[1089.3,554.7],[1104.5,521],[1101.9,528.5],[1053.7,523.8],[1053.7,523.8],[1033.2,522.7],[1010.4,526.1],[1048.1,539.3],[1054.6,529],[1036.5,511.5],[1006.7,490],[999.9,493.7],[993.5,492.8],[995.4,477.7],[1007.3,469],[1010.2,456.3],[996.8,454.2],[969.7,457],[971.7,460.5],[971.7,460.5],[964.6,470.4],[987.3,486.9],[993.2,476.5],[1004.1,480.1],[1005.7,489.5],[997.8,493.4],[1002.8,489.2],[1002.8,489.2],[1011.2,498.8],[994.6,487.6],[994.6,487.6],[973,513.5],[989.6,523.2],[988.9,520.1],[988.9,520.1],[1003.8,519.5],[1018,537.6],[1047,547.5],[1058.4,550.3],[1068.2,554.9],[1086,515.3],[1135,499.9],[1165.6,453.9],[1190.5,436.9],[1195,404.3],[1195,404.3],[1184.9,408.4],[1167.5,408.4],[1152.8,404.8],[1139.5,410.1],[1139.5,410.1],[1129.8,411.6],[1112.8,442.2],[1110.1,455.2],[1083.2,470.9],[1037,474.8],[1056.9,486.7],[1077.1,493.3],[1083.5,472.7],[1074.5,478.5],[1079.5,467.4],[1069.4,484.4],[1077.1,489.9],[1061.8,514.6],[1061.8,514.6],[1082.6,529.4],[1102.4,545.1],[1070.6,566.9],[1043.3,578.7],[1031.8,587.4],[1027.5,575.7],[1029.6,591.5],[1049.5,575.1],[1041.8,572.2],[1046.7,533.1],[1046.7,533.1],[1050,525.7],[1050,525.7],[1041.7,513.6],[1056.3,516.6],[1074.7,504.5],[1086.7,516.2],[1106.8,520.7],[1112.6,518.3],[1096,524.7],[1096,524.7],[1103,518.8],[1087.7,548.7],[1084.2,547.8],[1085.7,549.8],[1082.1,537.7],[1075.1,528.8],[1077.7,519.9],[1076.6,511],[1076.6,511],[1074.9,507.9],[1110.6,509.3],[1128,508.9],[1143.4,515.9],[1162.7,535.5],[1182.7,550],[1178.3,563.7],[1185.9,583.1],[1193.7,597.3],[1187.1,607],[1186.2,613.6],[1157,603.8],[1130.7,615.9],[1140.2,607.1],[1140.2,607.1],[1124,598.3],[1113.1,581.6],[1104.1,573.1],[1104.1,573.1],[1103.3,558.1],[1104.7,549.6],[1104,555.7],[1100.7,559.6],[1118,570.3],[1116.7,559.3],[1110.3,566.3],[1111.7,566.5],[1102.6,569.6],[1109.6,574.6],[1109.6,574.6],[1111.9,566.2],[1092.4,579.8],[1094.8,590.3],[1094.8,590.3],[1105.3,572.7],[1094.8,568.3],[1103.9,565.9],[1103,553.8],[1102.1,541.7],[1102.1,541.7],[1106.6,517.4],[1105.7,504.1],[1093.7,516],[1117,507.6],[1098.5,486.9],[1098.5,486.9],[1101.3,489.2],[1104.3,475.8],[1091,474.8],[1091,474.8],[1094.8,468],[1092,463.6],[1093.9,475.9],[1093.9,475.9],[1086.7,485.4],[1086.7,485.4],[1079.2,484.3],[1046.4,475.1],[1037.3,479.3],[1037.3,479.3],[1019.7,490.3],[1003.7,502.6],[1005.9,506.9],[1008.6,520.5],[1017.9,531.7],[1017.9,531.7],[1011.9,543.1],[1030.8,547.1],[1035.3,552],[1066,554.9],[1105,556.9],[1128.8,542],[1148.3,530.5],[1148.3,530.5],[1169.1,514.1],[1169.1,514.1],[1170.2,489.7],[1137.6,483.2],[1158.5,471.7],[1141.5,471.5],[1141.5,471.5],[1153.8,453.5],[1106.3,448.3],[1069.7,458],[1050.7,469.9],[1026.2,480.1],[1015.2,492],[993.1,526.1],[1032.1,531.6],[1023,542.7],[1023,542.7],[1037.7,548.8],[1027.1,578.8],[1065.7,598],[1077,604.3],[1072.6,617.6],[1083.9,655],[1101.6,696.1],[1122.3,714.4],[1099,775.2],[1060,832.4],[1030.3,865.9],[1039.8,885.6],[1065,931.4],[1085.1,962.4],[1112.5,997.3],[1080.5,985.9],[1030.1,976.8],[991.4,972.2],[963.3,919.6],[963.3,919.6],[955,874.7],[954.8,816.8],[902.2,783.2],[828.1,733.9],[828.1,733.9],[782.8,678.9],[728.8,620.8],[745,589.2],[758.4,554.8],[761.2,524.8],[770.8,516.3],[785.4,497.6],[790.1,500],[805.2,486],[805.2,486],[808.5,459.9],[824.9,464.9],[831.5,458.6],[829,474.7],[829,474.7],[809.5,489.3],[822.1,501.3],[838.6,500.1],[852.1,489.3],[852.1,489.3],[857.6,486],[864.6,485],[880,486.7],[879.8,478.9],[895.4,499.4],[895.4,499.4],[913.6,491.9],[913.6,491.9],[935.9,483.3],[929,461],[910.9,452.3],[905.3,458.4],[897.6,466.9],[908.5,467.8],[919.4,468.7],[922.5,467.7],[921,448.9],[915,432.5],[921.9,418.7],[933.9,419.1],[960.7,410.3],[978.4,405.1],[996.1,399.9],[996.1,399.9],[1005.2,399.2],[1005,396.1],[1007.8,391.8],[1011.7,390],[1011.2,393.1],[1011.2,393.1],[1009.5,399.5],[1004.7,415.8],[994.4,422.3],[989.1,435],[979.2,438],[954.2,455.7],[930.2,461.2],[896.1,462],[860.9,460.3],[813.6,460.9],[767.5,458.2],[721.8,435.4],[700.5,423.9],[650.1,393.3],[650.1,393.3],[604.3,372.4],[582.7,348.8],[565.4,348.7],[559.6,360.3],[539,373.2],[537.7,380.7],[560.3,397],[589.8,420.1],[597.1,448.2],[613,488.4],[628.9,528.6],[628.9,528.6],[644.2,556.8],[663.5,576.1],[663.5,576.1],[673.2,595.6],[707.9,592.2],[735.4,591.9],[745.8,583.5],[741,580],[729.2,582.2],[745.6,567.2],[776.9,544.8],[782.3,527.3],[796.2,506],[796.2,506],[818.3,477.5],[828.5,472.3],[828.5,472.3],[835.2,471.1],[838.2,468.6],[854.8,462.3],[882.4,454.7],[886,449.8],[886,449.8],[892.3,451.5],[932.8,451.7],[963.9,451.5],[974.3,455.9],[986.4,458.6],[1002.8,452.3],[1014.2,450.8],[1014.2,450.8],[1031.4,445.1],[1026.3,442.4],[1030.3,448.9],[1022.5,446.9],[995.5,440.8],[982,447.9],[982,447.9],[1006.9,456],[1015,472.8],[1021.8,473.9],[1021.8,473.9],[1030.5,470.8],[1036.6,472.8],[1053,470.6],[1072,471],[1072,471],[1095.5,475.4],[1096.1,478.1],[1097.8,474],[1071,460.9],[1076.5,437.6],[1076.5,437.6],[1065.9,459.2],[1062.9,456.6],[1056.7,453.1],[1056.7,453.1],[1054.4,450.6],[1050.1,441.7],[1029.2,439.1],[1046.6,437.2],[1029.8,455.9],[1029.8,455.9],[1014.7,477],[985.2,486.8],[978.2,468],[961.9,483.5],[945.6,499],[932.7,499],[921.8,505.4],[913,518.7],[914,532.2],[914,532.2],[935.5,522.9],[949.2,517.1],[974.8,517.6],[974.8,517.6]]","[-0.056692,0.170076]","[0.056692,0.170076]","[0.170076,0.170076]","[-0.170076,-0.170076]","[-0.170076,-0.056692]","[-0.170076,0.056692]","[-0.056692,-0.170076]","[0.056692,-0.170076]","[0.170076,-0.170076]","[-0.056692,-0.056692]","[0.056692,-0.056692]","[0.170076,-0.056692]","[-0.056692,0.056692]","[0.056692,0.056692]","[0.170076,0.056692]",0,0,0,0,1,2,Smartphone,15,20,8,3,70,4,3,60,4
