inst1_resp.keys,inst1_resp.rt,calibrationMouse.x,calibrationMouse.y,calibrationMouse.leftButton,calibrationMouse.midButton,calibrationMouse.rightButton,calibrationClick.x,calibrationClick.y,calibrationClick.leftButton,calibrationClick.midButton,calibrationClick.rightButton,calibrationClick.clicked_name,trialsc.thisRepN,trialsc.thisTrialN,trialsc.thisN,trialsc.thisIndex,trialsc.ran,calibration_x,calibration_y,participant,session,date,expName,psychopyVersion,OS,frameRate,ScreenRes_pixels,Camera_pixels,mouse_2.x,mouse_2.y,mouse_2.leftButton,mouse_2.midButton,mouse_2.rightButton,mouse_2.time,mouse_2.clicked_name,mouse.x,mouse.y,mouse.leftButton,mouse.midButton,mouse.rightButton,mouse.time,mouse.clicked_name,Choice,Trial,TrialDuration,MOUSE_GAZE,ET_GAZE,ET_GAZE_x_T,time,unixTime,ET_GAZE_NF,Loc_Bus_label,Loc_Metro_label,Loc_RH_label,Loc_Cost_label,Loc_Travel_label,Loc_Comfort_label,Loc_Bus_cost,Loc_Metro_cost,Loc_RH_cost,Loc_Bus_travel,Loc_Metro_travel,Loc_RH_travel,Loc_Bus_comfort,Loc_Metro_comfort,Loc_RH_comfort,trials.thisRepN,trials.thisTrialN,trials.thisN,trials.thisIndex,trials.ran,Block,Device,RH_cost,RH_travel_time,RH_Comfort,metro_cost,metro_travel_time,metro_Comfort,Bus_cost,Bus_travel_time,Bus_Comfort
space,1.1811,0.002083333,-0.190740741,1,0,0,-0.00625,0.674074074,1,0,0,calibration_square,0,0,0,13,1,0,0.67,49,001,2024-11-27_15h12.07.138,Attention_exp_legacy,2023.1.0,Win32,59.88023952,,,,,,,,,,,,,,,,,,,,,,,,,,,,,,,,,,,,,,,,,,,,,,,,,,,,,,,,
,,,,,,,0.669791667,-0.675925926,1,0,0,calibration_square,0,1,1,20,1,0.67,-0.67,49,001,2024-11-27_15h12.07.138,Attention_exp_legacy,2023.1.0,Win32,59.88023952,,,,,,,,,,,,,,,,,,,,,,,,,,,,,,,,,,,,,,,,,,,,,,,,,,,,,,,,
,,,,,,,0.686458333,0.664814815,1,0,0,,0,2,2,19,1,0.67,0.67,49,001,2024-11-27_15h12.07.138,Attention_exp_legacy,2023.1.0,Win32,59.88023952,,,,,,,,,,,,,,,,,,,,,,,,,,,,,,,,,,,,,,,,,,,,,,,,,,,,,,,,
,,,,,,,-0.336458333,-0.683333333,1,0,0,,0,3,3,4,1,-0.33,-0.67,49,001,2024-11-27_15h12.07.138,Attention_exp_legacy,2023.1.0,Win32,59.88023952,,,,,,,,,,,,,,,,,,,,,,,,,,,,,,,,,,,,,,,,,,,,,,,,,,,,,,,,
,,,,,,,-0.670833333,0.35,1,0,0,,0,4,4,3,1,-0.67,0.33,49,001,2024-11-27_15h12.07.138,Attention_exp_legacy,2023.1.0,Win32,59.88023952,,,,,,,,,,,,,,,,,,,,,,,,,,,,,,,,,,,,,,,,,,,,,,,,,,,,,,,,
,,,,,,,0.339583333,0.331481481,1,0,0,calibration_square,0,5,5,17,1,0.33,0.33,49,001,2024-11-27_15h12.07.138,Attention_exp_legacy,2023.1.0,Win32,59.88023952,,,,,,,,,,,,,,,,,,,,,,,,,,,,,,,,,,,,,,,,,,,,,,,,,,,,,,,,
,,,,,,,-0.016666667,-0.340740741,1,0,0,,0,6,6,10,1,0,-0.33,49,001,2024-11-27_15h12.07.138,Attention_exp_legacy,2023.1.0,Win32,59.88023952,,,,,,,,,,,,,,,,,,,,,,,,,,,,,,,,,,,,,,,,,,,,,,,,,,,,,,,,
,,,,,,,-0.357291667,-0.355555556,1,0,0,,0,7,7,5,1,-0.33,-0.33,49,001,2024-11-27_15h12.07.138,Attention_exp_legacy,2023.1.0,Win32,59.88023952,,,,,,,,,,,,,,,,,,,,,,,,,,,,,,,,,,,,,,,,,,,,,,,,,,,,,,,,
,,,,,,,-0.669791667,-0.003703704,1,0,0,calibration_square,0,8,8,2,1,-0.67,0,49,001,2024-11-27_15h12.07.138,Attention_exp_legacy,2023.1.0,Win32,59.88023952,,,,,,,,,,,,,,,,,,,,,,,,,,,,,,,,,,,,,,,,,,,,,,,,,,,,,,,,
,,,,,,,-0.35625,0.7,1,0,0,,0,9,9,8,1,-0.33,0.67,49,001,2024-11-27_15h12.07.138,Attention_exp_legacy,2023.1.0,Win32,59.88023952,,,,,,,,,,,,,,,,,,,,,,,,,,,,,,,,,,,,,,,,,,,,,,,,,,,,,,,,
,,,,,,,0.320833333,-0.664814815,1,0,0,calibration_square,0,10,10,14,1,0.33,-0.67,49,001,2024-11-27_15h12.07.138,Attention_exp_legacy,2023.1.0,Win32,59.88023952,,,,,,,,,,,,,,,,,,,,,,,,,,,,,,,,,,,,,,,,,,,,,,,,,,,,,,,,
,,,,,,,0.346875,-0.009259259,1,0,0,,0,11,11,16,1,0.33,0,49,001,2024-11-27_15h12.07.138,Attention_exp_legacy,2023.1.0,Win32,59.88023952,,,,,,,,,,,,,,,,,,,,,,,,,,,,,,,,,,,,,,,,,,,,,,,,,,,,,,,,
,,,,,,,-0.325,0.307407407,1,0,0,,0,12,12,7,1,-0.33,0.33,49,001,2024-11-27_15h12.07.138,Attention_exp_legacy,2023.1.0,Win32,59.88023952,,,,,,,,,,,,,,,,,,,,,,,,,,,,,,,,,,,,,,,,,,,,,,,,,,,,,,,,
,,,,,,,0.327083333,0.666666667,1,0,0,calibration_square,0,13,13,18,1,0.33,0.67,49,001,2024-11-27_15h12.07.138,Attention_exp_legacy,2023.1.0,Win32,59.88023952,,,,,,,,,,,,,,,,,,,,,,,,,,,,,,,,,,,,,,,,,,,,,,,,,,,,,,,,
,,,,,,,0.017708333,-0.664814815,1,0,0,,0,14,14,9,1,0,-0.67,49,001,2024-11-27_15h12.07.138,Attention_exp_legacy,2023.1.0,Win32,59.88023952,,,,,,,,,,,,,,,,,,,,,,,,,,,,,,,,,,,,,,,,,,,,,,,,,,,,,,,,
,,,,,,,-0.676041667,-0.322222222,1,0,0,calibration_square,0,15,15,1,1,-0.67,-0.33,49,001,2024-11-27_15h12.07.138,Attention_exp_legacy,2023.1.0,Win32,59.88023952,,,,,,,,,,,,,,,,,,,,,,,,,,,,,,,,,,,,,,,,,,,,,,,,,,,,,,,,
,,,,,,,-0.023958333,0.040740741,1,0,0,,0,16,16,11,1,0,0,49,001,2024-11-27_15h12.07.138,Attention_exp_legacy,2023.1.0,Win32,59.88023952,,,,,,,,,,,,,,,,,,,,,,,,,,,,,,,,,,,,,,,,,,,,,,,,,,,,,,,,
,,,,,,,0.353125,-0.355555556,1,0,0,,0,17,17,15,1,0.33,-0.33,49,001,2024-11-27_15h12.07.138,Attention_exp_legacy,2023.1.0,Win32,59.88023952,,,,,,,,,,,,,,,,,,,,,,,,,,,,,,,,,,,,,,,,,,,,,,,,,,,,,,,,
,,,,,,,-0.314583333,-0.018518519,1,0,0,,0,18,18,6,1,-0.33,0,49,001,2024-11-27_15h12.07.138,Attention_exp_legacy,2023.1.0,Win32,59.88023952,,,,,,,,,,,,,,,,,,,,,,,,,,,,,,,,,,,,,,,,,,,,,,,,,,,,,,,,
,,,,,,,-0.016666667,0.338888889,1,0,0,,0,19,19,12,1,0,0.33,49,001,2024-11-27_15h12.07.138,Attention_exp_legacy,2023.1.0,Win32,59.88023952,,,,,,,,,,,,,,,,,,,,,,,,,,,,,,,,,,,,,,,,,,,,,,,,,,,,,,,,
,,,,,,,-0.689583333,-0.696296296,1,0,0,,0,20,20,0,1,-0.67,-0.67,49,001,2024-11-27_15h12.07.138,Attention_exp_legacy,2023.1.0,Win32,59.88023952,,,,,,,,,,,,,,,,,,,,,,,,,,,,,,,,,,,,,,,,,,,,,,,,,,,,,,,,
,,,,,,,,,,,,,,,,,,,,49,001,2024-11-27_15h12.07.138,Attention_exp_legacy,2023.1.0,Win32,59.88023952,"[1920,1080]","[640,480]",[0.04479166666666667],[-0.5092592592592593],[1],[0],[0],[3.9770999999940386],"[""StartButton""]",[0.041666666666666664],[0.1685185185185185],[1],[0],[0],[2.870400000005958],"[""Metro_label""]",Metro_label,1,3.8805,"[[0.04479166666666667,-0.5092592592592593],[0.04479166666666667,-0.5092592592592593],[0.04479166666666667,-0.5092592592592593],[0.04479166666666667,-0.5092592592592593],[0.04479166666666667,-0.5092592592592593],[0.04479166666666667,-0.5092592592592593],[0.04479166666666667,-0.5092592592592593],[0.04479166666666667,-0.5092592592592593],[0.04479166666666667,-0.5092592592592593],[0.04479166666666667,-0.5092592592592593],[0.04479166666666667,-0.5092592592592593],[0.04479166666666667,-0.5092592592592593],[0.04479166666666667,-0.5092592592592593],[0.04479166666666667,-0.5092592592592593],[0.04479166666666667,-0.5092592592592593],[0.04479166666666667,-0.5092592592592593],[0.04479166666666667,-0.5092592592592593],[0.04479166666666667,-0.5092592592592593],[0.04479166666666667,-0.5092592592592593],[0.04479166666666667,-0.5092592592592593],[0.04479166666666667,-0.5092592592592593],[0.04479166666666667,-0.5092592592592593],[0.04479166666666667,-0.5092592592592593],[0.04479166666666667,-0.5092592592592593],[0.04479166666666667,-0.5092592592592593],[0.04479166666666667,-0.5092592592592593],[0.04479166666666667,-0.5092592592592593],[0.04479166666666667,-0.5092592592592593],[0.04479166666666667,-0.5092592592592593],[0.04479166666666667,-0.5092592592592593],[0.04479166666666667,-0.5092592592592593],[0.04479166666666667,-0.5092592592592593],[0.04479166666666667,-0.5092592592592593],[0.04479166666666667,-0.5092592592592593],[0.04479166666666667,-0.5092592592592593],[0.04479166666666667,-0.5092592592592593],[0.04479166666666667,-0.5092592592592593],[0.04479166666666667,-0.5092592592592593],[0.04479166666666667,-0.5092592592592593],[0.04479166666666667,-0.5092592592592593],[0.04479166666666667,-0.5092592592592593],[0.04479166666666667,-0.5092592592592593],[0.04479166666666667,-0.5092592592592593],[0.04479166666666667,-0.5092592592592593],[0.04479166666666667,-0.5092592592592593],[0.04479166666666667,-0.5092592592592593],[0.04479166666666667,-0.5092592592592593],[0.04479166666666667,-0.5092592592592593],[0.04479166666666667,-0.5092592592592593],[0.04479166666666667,-0.5092592592592593],[0.04479166666666667,-0.5092592592592593],[0.04479166666666667,-0.5092592592592593],[0.04479166666666667,-0.5092592592592593],[0.04479166666666667,-0.5092592592592593],[0.04479166666666667,-0.5092592592592593],[0.04479166666666667,-0.5092592592592593],[0.04479166666666667,-0.5092592592592593],[0.04479166666666667,-0.5092592592592593],[0.04479166666666667,-0.5092592592592593],[0.04479166666666667,-0.5092592592592593],[0.04479166666666667,-0.5092592592592593],[0.04479166666666667,-0.5092592592592593],[0.04479166666666667,-0.5092592592592593],[0.04479166666666667,-0.5092592592592593],[0.04479166666666667,-0.5092592592592593],[0.04479166666666667,-0.5092592592592593],[0.04479166666666667,-0.5092592592592593],[0.04479166666666667,-0.5092592592592593],[0.04479166666666667,-0.5092592592592593],[0.04479166666666667,-0.5092592592592593],[0.04479166666666667,-0.5092592592592593],[0.04479166666666667,-0.5092592592592593],[0.04479166666666667,-0.5092592592592593],[0.04479166666666667,-0.5092592592592593],[0.04479166666666667,-0.5092592592592593],[0.04479166666666667,-0.5092592592592593],[0.04479166666666667,-0.5092592592592593],[0.04479166666666667,-0.5092592592592593],[0.04479166666666667,-0.5092592592592593],[0.04479166666666667,-0.5092592592592593],[0.04479166666666667,-0.5092592592592593],[0.04479166666666667,-0.5092592592592593],[0.04479166666666667,-0.5092592592592593],[0.04479166666666667,-0.5092592592592593],[0.04479166666666667,-0.5092592592592593],[0.04479166666666667,-0.5092592592592593],[0.04479166666666667,-0.5092592592592593],[0.04479166666666667,-0.5092592592592593],[0.04479166666666667,-0.5092592592592593],[0.04479166666666667,-0.5092592592592593],[0.04479166666666667,-0.5092592592592593],[0.04479166666666667,-0.5092592592592593],[0.04479166666666667,-0.5092592592592593],[0.04479166666666667,-0.5092592592592593],[0.04479166666666667,-0.5092592592592593],[0.04479166666666667,-0.5092592592592593],[0.04479166666666667,-0.5092592592592593],[0.04479166666666667,-0.5092592592592593],[0.04479166666666667,-0.5092592592592593],[0.04479166666666667,-0.5092592592592593],[0.04479166666666667,-0.5092592592592593],[0.04479166666666667,-0.5092592592592593],[0.04479166666666667,-0.5092592592592593],[0.04479166666666667,-0.5092592592592593],[0.04479166666666667,-0.5092592592592593],[0.04479166666666667,-0.5092592592592593],[0.04479166666666667,-0.5092592592592593],[0.04479166666666667,-0.5092592592592593],[0.04479166666666667,-0.5092592592592593],[0.04479166666666667,-0.5092592592592593],[0.04479166666666667,-0.5092592592592593],[0.04479166666666667,-0.5092592592592593],[0.04479166666666667,-0.5092592592592593],[0.04479166666666667,-0.5092592592592593],[0.04479166666666667,-0.5092592592592593],[0.04479166666666667,-0.5092592592592593],[0.04479166666666667,-0.5092592592592593],[0.04479166666666667,-0.5092592592592593],[0.04479166666666667,-0.5092592592592593],[0.04479166666666667,-0.5092592592592593],[0.04479166666666667,-0.5092592592592593],[0.04479166666666667,-0.5092592592592593],[0.04479166666666667,-0.5092592592592593],[0.04479166666666667,-0.5092592592592593],[0.04479166666666667,-0.5092592592592593],[0.04479166666666667,-0.5092592592592593],[0.04479166666666667,-0.5092592592592593],[0.04479166666666667,-0.5092592592592593],[0.04479166666666667,-0.5092592592592593],[0.04479166666666667,-0.5092592592592593],[0.04479166666666667,-0.5092592592592593],[0.04479166666666667,-0.5092592592592593],[0.04479166666666667,-0.5092592592592593],[0.04479166666666667,-0.5092592592592593],[0.04479166666666667,-0.5092592592592593],[0.04479166666666667,-0.5092592592592593],[0.04479166666666667,-0.5092592592592593],[0.04479166666666667,-0.5092592592592593],[0.04479166666666667,-0.5055555555555555],[0.04479166666666667,-0.4888888888888889],[0.04479166666666667,-0.4703703703703704],[0.046875,-0.4111111111111111],[0.046875,-0.3648148148148148],[0.046875,-0.29814814814814816],[0.042708333333333334,-0.20925925925925926],[0.03854166666666667,-0.15555555555555556],[0.036458333333333336,-0.12222222222222222],[0.03333333333333333,-0.09074074074074075],[0.03125,-0.06296296296296296],[0.029166666666666667,-0.03333333333333333],[0.028125,-0.024074074074074074],[0.028125,-0.007407407407407408],[0.028125,0.022222222222222223],[0.028125,0.04259259259259259],[0.028125,0.05555555555555555],[0.028125,0.06481481481481481],[0.029166666666666667,0.07037037037037037],[0.029166666666666667,0.07777777777777778],[0.03229166666666667,0.09074074074074075],[0.03333333333333333,0.09814814814814815],[0.035416666666666666,0.11296296296296296],[0.036458333333333336,0.11851851851851852],[0.0375,0.12222222222222222],[0.0375,0.12777777777777777],[0.03854166666666667,0.12962962962962962],[0.03958333333333333,0.1388888888888889],[0.040625,0.15],[0.041666666666666664,0.15925925925925927],[0.041666666666666664,0.1648148148148148],[0.041666666666666664,0.1685185185185185],[0.041666666666666664,0.1685185185185185],[0.041666666666666664,0.1685185185185185],[0.041666666666666664,0.1685185185185185],[0.041666666666666664,0.1685185185185185],[0.041666666666666664,0.1685185185185185],[0.041666666666666664,0.1685185185185185],[0.041666666666666664,0.1685185185185185],[0.041666666666666664,0.1685185185185185],[0.041666666666666664,0.1685185185185185],[0.041666666666666664,0.1685185185185185],[0.041666666666666664,0.1685185185185185],[0.041666666666666664,0.1685185185185185],[0.041666666666666664,0.1685185185185185],[0.041666666666666664,0.1685185185185185],[0.041666666666666664,0.1685185185185185],[0.041666666666666664,0.1685185185185185],[0.041666666666666664,0.1685185185185185],[0.041666666666666664,0.1685185185185185],[0.041666666666666664,0.1685185185185185],[0.041666666666666664,0.1685185185185185],[0.041666666666666664,0.1685185185185185],[0.041666666666666664,0.1685185185185185],[0.041666666666666664,0.1685185185185185],[0.041666666666666664,0.1685185185185185],[0.041666666666666664,0.1685185185185185],[0.041666666666666664,0.1685185185185185],[0.041666666666666664,0.1685185185185185],[0.041666666666666664,0.1685185185185185],[0.041666666666666664,0.1685185185185185],[0.041666666666666664,0.1685185185185185],[0.041666666666666664,0.1685185185185185],[0.041666666666666664,0.1685185185185185],[0.041666666666666664,0.1685185185185185],[0.041666666666666664,0.1685185185185185],[0.041666666666666664,0.1685185185185185],[0.041666666666666664,0.1685185185185185],[0.041666666666666664,0.1685185185185185],[0.041666666666666664,0.1685185185185185],[0.041666666666666664,0.1685185185185185],[0.041666666666666664,0.1685185185185185],[0.041666666666666664,0.1685185185185185],[0.041666666666666664,0.1685185185185185],[0.041666666666666664,0.1685185185185185],[0.041666666666666664,0.1685185185185185],[0.041666666666666664,0.1685185185185185],[0.041666666666666664,0.1685185185185185],[0.041666666666666664,0.1685185185185185],[0.041666666666666664,0.1685185185185185],[0.041666666666666664,0.1685185185185185],[0.041666666666666664,0.1685185185185185],[0.041666666666666664,0.1685185185185185],[0.041666666666666664,0.1685185185185185],[0.041666666666666664,0.1685185185185185],[0.041666666666666664,0.1685185185185185],[0.041666666666666664,0.1685185185185185],[0.041666666666666664,0.1685185185185185],[0.041666666666666664,0.1685185185185185],[0.041666666666666664,0.1685185185185185],[0.041666666666666664,0.1685185185185185],[0.041666666666666664,0.1685185185185185],[0.041666666666666664,0.1685185185185185],[0.041666666666666664,0.1685185185185185]]","[[-0.043229166666666666,-0.09148148148148144],[-0.043229166666666666,-0.09148148148148144],[-0.015104166666666667,-0.12259259259259257],[-0.018020833333333285,-0.15092592592592594],[-0.020937500000000022,-0.17925925925925928],[-0.021458333333333357,-0.19740740740740745],[-0.025,-0.207962962962963],[-0.0234375,-0.21148148148148146],[-0.022291666666666644,-0.21425925925925923],[-0.01885416666666669,-0.21703703703703703],[-0.01885416666666669,-0.21703703703703703],[-0.015416666666666618,-0.2198148148148148],[-0.02312500000000005,-0.20629629629629626],[-0.02312500000000005,-0.20629629629629626],[-0.02791666666666662,-0.2094444444444445],[-0.008645833333333287,-0.22870370370370371],[0.010625000000000048,-0.2479629629629629],[0.03125,-0.27092592592592596],[0.03125,-0.27092592592592596],[0.051874999999999956,-0.29388888888888887],[0.07635416666666663,-0.33370370370370367],[0.07604166666666666,-0.3640740740740741],[0.059687499999999956,-0.37462962962962965],[0.03458333333333338,-0.392037037037037],[0.035312499999999976,-0.4142592592592592],[0.014479166666666644,-0.43148148148148147],[0.014479166666666644,-0.43148148148148147],[-0.007604166666666619,-0.4148148148148148],[-0.018229166666666668,-0.40370370370370373],[-0.059583333333333384,-0.38],[-0.059583333333333384,-0.38],[-0.10093749999999997,-0.3562962962962963],[-0.1640625,-0.3274074074074074],[-0.20239583333333327,-0.307962962962963],[-0.23447916666666668,-0.28777777777777774],[-0.25197916666666664,-0.252962962962963],[-0.2694791666666667,-0.21814814814814817],[-0.2869791666666667,-0.2014814814814815],[-0.30447916666666663,-0.18481481481481485],[-0.33093750000000005,-0.1544444444444444],[-0.3341666666666666,-0.13796296296296295],[-0.3246875000000001,-0.11166666666666669],[-0.3012500000000001,-0.09796296296296292],[-0.28187500000000004,-0.05259259259259255],[-0.2759375,-0.025],[-0.28500000000000003,-0.003888888888888931],[-0.28500000000000003,-0.003888888888888931],[-0.2984375,0.02555555555555547],[-0.29104166666666664,0.06777777777777783],[-0.2905208333333333,0.09981481481481477],[-0.2924999999999999,0.12370370370370362],[-0.2924999999999999,0.12370370370370362],[-0.28125,0.15037037037037046],[-0.28250000000000003,0.15777777777777785],[-0.28364583333333326,0.1725925925925927],[-0.28093750000000006,0.16592592592592598],[-0.28093750000000006,0.16592592592592598],[-0.2782291666666667,0.15925925925925927],[-0.2773958333333333,0.13555555555555565],[-0.24656250000000005,0.1346296296296297],[-0.24104166666666665,0.14074074074074075],[-0.22489583333333332,0.14092592592592595],[-0.20874999999999996,0.1411111111111112],[-0.20604166666666662,0.13203703703703695],[-0.20093749999999996,0.14462962962962966],[-0.1998958333333333,0.17796296296296302],[-0.1998958333333333,0.17796296296296302],[-0.19864583333333338,0.20111111111111116],[-0.19010416666666666,0.222037037037037],[-0.1883333333333333,0.24759259259259267],[-0.1883333333333333,0.24759259259259267],[-0.1970833333333334,0.25259259259259254],[-0.16791666666666671,0.25925925925925924],[-0.16124999999999995,0.27018518518518514],[-0.15135416666666662,0.28648148148148156],[-0.12093750000000002,0.3118518518518518],[-0.10010416666666669,0.30685185185185193],[-0.07291666666666667,0.2890740740740741],[-0.07291666666666667,0.2890740740740741],[-0.03354166666666671,0.28351851851851856],[-0.03354166666666671,0.28351851851851856],[-0.019375000000000024,0.2681481481481481],[0.019895833333333356,0.26962962962962966],[0.05510416666666664,0.2844444444444445],[0.058958333333333356,0.2638888888888889],[0.08114583333333343,0.21907407407407398],[0.09083333333333338,0.19666666666666674],[0.10260416666666666,0.19944444444444454],[0.10135416666666662,0.20759259259259263],[0.11447916666666676,0.23055555555555557],[0.11447916666666676,0.23055555555555557],[0.11541666666666663,0.2412962962962962],[0.12333333333333343,0.25574074074074077],[0.1478125000000001,0.25629629629629624],[0.16124999999999995,0.23296296296296287],[0.16885416666666658,0.24314814814814806],[0.17687499999999995,0.28944444444444434],[0.1896874999999999,0.32111111111111107],[0.18489583333333334,0.3212962962962963],[0.19458333333333327,0.3453703703703704],[0.1883333333333333,0.3416666666666667],[0.1883333333333333,0.3416666666666667],[0.18718750000000003,0.3514814814814814],[0.2091666666666666,0.36018518518518516],[0.20729166666666668,0.37703703703703706],[0.20541666666666672,0.39388888888888896],[0.19395833333333337,0.39888888888888885],[0.18250000000000005,0.4038888888888889],[0.1828125,0.41],[0.17833333333333337,0.4198148148148149],[0.18875000000000006,0.418888888888889],[0.2040625000000001,0.4335185185185186],[0.18218750000000009,0.42851851851851847],[0.1415625000000001,0.41092592592592586],[0.1009375000000001,0.3933333333333333],[0.06177083333333329,0.40796296296296286],[0.06177083333333329,0.40796296296296286],[0.04125000000000002,0.42666666666666664],[0.02322916666666662,0.4403703703703703],[0.0046875,0.4364814814814816],[0.0046875,0.4364814814814816],[-0.013854166666666619,0.43259259259259264],[-0.041770833333333354,0.43629629629629635],[-0.04854166666666669,0.43499999999999994],[-0.03979166666666671,0.4125925925925925],[-0.01604166666666664,0.415925925925926],[0.010208333333333286,0.42296296296296293],[0.030416666666666713,0.40907407407407403],[0.034166666666666616,0.37240740740740746],[0.051874999999999956,0.3635185185185184],[0.06458333333333334,0.35],[0.07729166666666672,0.33648148148148155],[0.07729166666666672,0.33648148148148155],[0.08083333333333324,0.3087037037037038],[0.07802083333333343,0.29370370370370374],[0.07802083333333343,0.29314814814814805],[0.07802083333333343,0.29314814814814805],[0.06958333333333329,0.28888888888888886],[0.06239583333333331,0.2855555555555556],[0.06239583333333331,0.2855555555555556],[0.06083333333333331,0.2683333333333333],[0.06083333333333331,0.2683333333333333],[0.07291666666666667,0.287962962962963],[0.040625,0.2833333333333333],[0.006562499999999953,0.28666666666666657],[-0.036145833333333384,0.2675925925925926],[-0.036145833333333384,0.2675925925925926],[-0.051145833333333356,0.26351851851851843],[-0.07145833333333336,0.2455555555555556],[-0.07791666666666662,0.24592592592592585],[-0.07791666666666662,0.24592592592592585],[-0.07781250000000005,0.22870370370370371],[-0.11322916666666671,0.21962962962962967],[-0.14968750000000006,0.2131481481481482],[-0.1688541666666667,0.20833333333333334],[-0.13833333333333328,0.24777777777777768],[-0.0936458333333333,0.2757407407407407],[-0.03677083333333329,0.26740740740740737],[0.0015625,0.25037037037037047],[0.030416666666666713,0.23944444444444435],[0.052291666666666715,0.22481481481481477],[0.052291666666666715,0.22481481481481477],[0.06197916666666667,0.20462962962962963],[0.09479166666666666,0.15611111111111103],[0.1203125,0.1088888888888888],[0.14312500000000009,0.10907407407407403],[0.14312500000000009,0.10907407407407403],[0.14416666666666675,0.06648148148148143],[0.115625,-0.025370370370370456],[0.115625,-0.025370370370370456],[0.08875000000000005,-0.027777777777777776],[0.08104166666666662,-0.024629629629629547],[0.07333333333333343,-0.021481481481481525],[0.06302083333333333,-0.018333333333333292],[0.06302083333333333,-0.018333333333333292],[0.042708333333333334,-0.021481481481481525],[0.03104166666666662,-0.009074074074074031],[0.03104166666666662,-0.009074074074074031],[0.03854166666666667,0.005000000000000084],[0.04760416666666671,-0.02814814814814823],[0.06510416666666667,-0.052222222222222205],[0.09520833333333342,-0.055740740740740785],[0.12010416666666662,-0.09000000000000004],[0.11541666666666663,-0.06944444444444445],[0.11072916666666661,-0.04888888888888885],[0.11031250000000009,-0.013703703703703662],[0.12552083333333333,0.05092592592592592],[0.1493750000000001,0.10722222222222218],[0.16135416666666677,0.16055555555555565],[0.19208333333333344,0.21129629629629634],[0.21437499999999995,0.252962962962963],[0.18697916666666667,0.2507407407407407],[0.15958333333333338,0.2485185185185186],[0.15958333333333338,0.2485185185185186],[0.17625000000000005,0.24222222222222214],[0.18604166666666658,0.23777777777777773],[0.18604166666666658,0.23777777777777773],[0.20104166666666667,0.2168518518518519],[0.22468750000000004,0.22888888888888892],[0.22468750000000004,0.22888888888888892],[0.19854166666666656,0.1868518518518518],[0.17072916666666677,0.13499999999999995],[0.17072916666666677,0.13499999999999995],[0.12458333333333324,0.07407407407407407],[0.06979166666666667,0.004629629629629629],[0.10760416666666663,0.07185185185185176],[0.10760416666666663,0.07185185185185176],[0.1252083333333334,0.10444444444444441],[0.10322916666666657,0.07388888888888885],[0.08020833333333334,0.03833333333333342],[0.07052083333333338,0.020370370370370372],[0.035416666666666666,-0.045740740740740825],[0.041458333333333285,-0.04944444444444453],[0.051041666666666666,-0.02296296296296292],[0.05541666666666671,-0.006296296296296254],[0.06749999999999995,0.017407407407407365],[0.06749999999999995,0.017407407407407365],[0.03864583333333336,-0.011666666666666582],[0.01875,0.0005555555555554713],[0.016562499999999977,0.012407407407407492],[0.016562499999999977,0.012407407407407492],[0.022291666666666644,0.027407407407407325],[0.021979166666666692,0.02296296296296292],[0.021458333333333357,0.018518518518518517],[0.020937500000000022,0.014074074074074116],[0.018437500000000048,-0.010925925925925884],[0.022708333333333285,-0.022777777777777692],[0.02791666666666662,-0.03314814814814811],[0.043437500000000046,-0.02370370370370362],[0.07802083333333343,-0.000925925925925926],[0.10083333333333329,0.02907407407407416],[0.10614583333333343,0.06925925925925921]]","[[-0.043229166666666666,-0.09148148148148144,0.00030000001192576065],[-0.043229166666666666,-0.09148148148148144,0.04880000001192286],[-0.015104166666666667,-0.12259259259259257,0.05980000001192565],[-0.018020833333333285,-0.15092592592592594,0.0765000000000029],[-0.020937500000000022,-0.17925925925925928,0.09730000001191996],[-0.021458333333333357,-0.19740740740740745,0.11320000001788344],[-0.025,-0.207962962962963,0.1303000000119212],[-0.0234375,-0.21148148148148146,0.1460000000000008],[-0.022291666666666644,-0.21425925925925923,0.16480000001192252],[-0.01885416666666669,-0.21703703703703703,0.1816000000238418],[-0.01885416666666669,-0.21703703703703703,0.19320000001788173],[-0.015416666666666618,-0.2198148148148148,0.20980000001192423],[-0.02312500000000005,-0.20629629629629626,0.23070000001788316],[-0.02312500000000005,-0.20629629629629626,0.24310000002384413],[-0.02791666666666662,-0.2094444444444445,0.2598000000119214],[-0.008645833333333287,-0.22870370370370371,0.2773000000119197],[0.010625000000000048,-0.2479629629629629,0.2938000000119203],[0.03125,-0.27092592592592596,0.31120000001788384],[0.03125,-0.27092592592592596,0.3266000000238449],[0.051874999999999956,-0.29388888888888887,0.3432000000178803],[0.07635416666666663,-0.33370370370370367,0.3631000000238416],[0.07604166666666666,-0.3640740740740741,0.3803000000119212],[0.059687499999999956,-0.37462962962962965,0.39630000001192656],[0.03458333333333338,-0.392037037037037,0.41130000001192],[0.035312499999999976,-0.4142592592592592,0.43130000001192315],[0.014479166666666644,-0.43148148148148147,0.44570000001788657],[0.014479166666666644,-0.43148148148148147,0.4598000000119242],[-0.007604166666666619,-0.4148148148148148,0.4765000000000015],[-0.018229166666666668,-0.40370370370370373,0.493200000017886],[-0.059583333333333384,-0.38,0.5138000000119263],[-0.059583333333333384,-0.38,0.5264999999999986],[-0.10093749999999997,-0.3562962962962963,0.5431000000238413],[-0.1640625,-0.3274074074074074,0.5623000000119234],[-0.20239583333333327,-0.307962962962963,0.5783000000119216],[-0.23447916666666668,-0.28777777777777774,0.5974000000059618],[-0.25197916666666664,-0.252962962962963,0.612700000017881],[-0.2694791666666667,-0.21814814814814817,0.6302000000178865],[-0.2869791666666667,-0.2014814814814815,0.6469000000059637],[-0.30447916666666663,-0.18481481481481485,0.6649999999999991],[-0.33093750000000005,-0.1544444444444444,0.6813000000119231],[-0.3341666666666666,-0.13796296296296295,0.6973000000119214],[-0.3246875000000001,-0.11166666666666669,0.7136000000238454],[-0.3012500000000001,-0.09796296296296292,0.730000000000004],[-0.28187500000000004,-0.05259259259259255,0.7482000000178815],[-0.2759375,-0.025,0.7647000000178821],[-0.28500000000000003,-0.003888888888888931,0.7797000000178826],[-0.28500000000000003,-0.003888888888888931,0.7932000000178832],[-0.2984375,0.02555555555555547,0.8099000000059604],[-0.29104166666666664,0.06777777777777783,0.8265000000000029],[-0.2905208333333333,0.09981481481481477,0.8471000000238433],[-0.2924999999999999,0.12370370370370362,0.8628000000119229],[-0.2924999999999999,0.12370370370370362,0.8768000000119258],[-0.28125,0.15037037037037046,0.8931000000238427],[-0.28250000000000003,0.15777777777777785,0.9117000000178805],[-0.28364583333333326,0.1725925925925927,0.9308000000119208],[-0.28093750000000006,0.16592592592592598,0.9463000000119237],[-0.28093750000000006,0.16592592592592598,0.9597000000178824],[-0.2782291666666667,0.15925925925925927,0.9764000000059596],[-0.2773958333333333,0.13555555555555565,0.9939999999999998],[-0.24656250000000005,0.1346296296296297,1.0097000000178866],[-0.24104166666666665,0.14074074074074075,1.0306000000238456],[-0.22489583333333332,0.14092592592592595,1.047200000017881],[-0.20874999999999996,0.1411111111111112,1.0637000000178816],[-0.20604166666666662,0.13203703703703695,1.0791000000238427],[-0.20093749999999996,0.14462962962962966,1.0985000000000014],[-0.1998958333333333,0.17796296296296302,1.11340000000596],[-0.1998958333333333,0.17796296296296302,1.1265],[-0.19864583333333338,0.20111111111111116,1.1431000000238427],[-0.19010416666666666,0.222037037037037,1.15980000001192],[-0.1883333333333333,0.24759259259259267,1.1806000000238441],[-0.1883333333333333,0.24759259259259267,1.1932000000178817],[-0.1970833333333334,0.25259259259259254,1.2098000000119242],[-0.16791666666666671,0.25925925925925924,1.230000000000004],[-0.16124999999999995,0.27018518518518514,1.2444000000059603],[-0.15135416666666662,0.28648148148148156,1.2645000000000053],[-0.12093750000000002,0.3118518518518518,1.2799000000059593],[-0.10010416666666669,0.30685185185185193,1.2970000000000041],[-0.07291666666666667,0.2890740740740741,1.3152000000178816],[-0.07291666666666667,0.2890740740740741,1.3392000000178825],[-0.03354166666666671,0.28351851851851856,1.3538000000119226],[-0.03354166666666671,0.28351851851851856,1.3654000000059625],[-0.019375000000000024,0.2681481481481481,1.3764000000059653],[0.019895833333333356,0.26962962962962966,1.3939000000059636],[0.05510416666666664,0.2844444444444445,1.40980000001192],[0.058958333333333356,0.2638888888888889,1.4304000000059602],[0.08114583333333343,0.21907407407407398,1.4436000000238423],[0.09083333333333338,0.19666666666666674,1.463800000011922],[0.10260416666666666,0.19944444444444454,1.4794000000059597],[0.10135416666666662,0.20759259259259263,1.4946000000238442],[0.11447916666666676,0.23055555555555557,1.513900000005961],[0.11447916666666676,0.23055555555555557,1.5264999999999986],[0.11541666666666663,0.2412962962962962,1.5432000000178832],[0.12333333333333343,0.25574074074074077,1.5631000000238444],[0.1478125000000001,0.25629629629629624,1.576600000023845],[0.16124999999999995,0.23296296296296287,1.5932000000178803],[0.16885416666666658,0.24314814814814806,1.611200000017881],[0.17687499999999995,0.28944444444444434,1.6299000000059607],[0.1896874999999999,0.32111111111111107,1.6445000000000007],[0.18489583333333334,0.3212962962962963,1.6597000000178852],[0.19458333333333327,0.3453703703703704,1.6801000000238417],[0.1883333333333333,0.3416666666666667,1.696100000023847],[0.1883333333333333,0.3416666666666667,1.7098000000119242],[0.18718750000000003,0.3514814814814814,1.7265000000000015],[0.2091666666666666,0.36018518518518516,1.7433000000119208],[0.20729166666666668,0.37703703703703706,1.7598000000119214],[0.20541666666666672,0.39388888888888896,1.7766000000238407],[0.19395833333333337,0.39888888888888885,1.7932000000178832],[0.18250000000000005,0.4038888888888889,1.8097000000178838],[0.1828125,0.41,1.826500000000003],[0.17833333333333337,0.4198148148148149,1.8431000000238456],[0.18875000000000006,0.418888888888889,1.8599999999999994],[0.2040625000000001,0.4335185185185186,1.876600000023842],[0.18218750000000009,0.42851851851851847,1.895900000005966],[0.1415625000000001,0.41092592592592586,1.9099000000059618],[0.1009375000000001,0.3933333333333333,1.930700000017886],[0.06177083333333329,0.40796296296296286,1.946000000000005],[0.06177083333333329,0.40796296296296286,1.9598000000119242],[0.04125000000000002,0.42666666666666664,1.9765000000000015],[0.02322916666666662,0.4403703703703703,1.993200000017886],[0.0046875,0.4364814814814816,2.0135000000000005],[0.0046875,0.4364814814814816,2.0264999999999986],[-0.013854166666666619,0.43259259259259264,2.0431000000238413],[-0.041770833333333354,0.43629629629629635,2.0615000000000023],[-0.04854166666666669,0.43499999999999994,2.076700000017887],[-0.03979166666666671,0.4125925925925925,2.0932000000178803],[-0.01604166666666664,0.415925925925926,2.110300000011925],[0.010208333333333286,0.42296296296296293,2.1264000000059653],[0.030416666666666713,0.40907407407407403,2.1431000000238427],[0.034166666666666616,0.37240740740740746,2.15980000001192],[0.051874999999999956,0.3635185185185184,2.1764000000059625],[0.06458333333333334,0.35,2.1936000000238423],[0.07729166666666672,0.33648148148148155,2.2098000000119242],[0.07729166666666672,0.33648148148148155,2.2265000000000015],[0.08083333333333324,0.3087037037037038,2.243200000017886],[0.07802083333333343,0.29370370370370374,2.2637000000178844],[0.07802083333333343,0.29314814814814805,2.2791000000238455],[0.07802083333333343,0.29314814814814805,2.293300000011925],[0.06958333333333329,0.28888888888888886,2.3098000000119256],[0.06239583333333331,0.2855555555555556,2.3347000000178824],[0.06239583333333331,0.2855555555555556,2.3447000000178804],[0.06083333333333331,0.2683333333333333,2.3602000000178833],[0.06083333333333331,0.2683333333333333,2.376600000023842],[0.07291666666666667,0.287962962962963,2.3964000000059613],[0.040625,0.2833333333333333,2.409900000005962],[0.006562499999999953,0.28666666666666657,2.4310000000000045],[-0.036145833333333384,0.2675925925925926,2.4466000000238424],[-0.036145833333333384,0.2675925925925926,2.460000000000001],[-0.051145833333333356,0.26351851851851843,2.4767000000178854],[-0.07145833333333336,0.2455555555555556,2.4934000000059626],[-0.07791666666666662,0.24592592592592585,2.5150000000000006],[-0.07791666666666662,0.24592592592592585,2.5267000000178825],[-0.07781250000000005,0.22870370370370371,2.543300000011925],[-0.11322916666666671,0.21962962962962967,2.562600000023842],[-0.14968750000000006,0.2131481481481482,2.578900000005966],[-0.1688541666666667,0.20833333333333334,2.5971000000238433],[-0.13833333333333328,0.24777777777777768,2.612000000000002],[-0.0936458333333333,0.2757407407407407,2.630600000023847],[-0.03677083333333329,0.26740740740740737,2.6456000000238404],[0.0015625,0.25037037037037047,2.6602000000178805],[0.030416666666666713,0.23944444444444435,2.6766000000238463],[0.052291666666666715,0.22481481481481477,2.6994000000059657],[0.052291666666666715,0.22481481481481477,2.709900000005966],[0.06197916666666667,0.20462962962962963,2.7267000000178854],[0.09479166666666666,0.15611111111111103,2.744600000023844],[0.1203125,0.1088888888888888,2.764700000017882],[0.14312500000000009,0.10907407407407403,2.7794999999999987],[0.14312500000000009,0.10907407407407403,2.793300000011925],[0.14416666666666675,0.06648148148148143,2.8099000000059604],[0.115625,-0.025370370370370456,2.832800000011922],[0.115625,-0.025370370370370456,2.843499999999999],[0.08875000000000005,-0.027777777777777776,2.8599000000059647],[0.08104166666666662,-0.024629629629629547,2.879800000011926],[0.07333333333333343,-0.021481481481481525,2.896600000023845],[0.06302083333333333,-0.018333333333333292,2.916800000011925],[0.06302083333333333,-0.018333333333333292,2.9265000000000043],[0.042708333333333334,-0.021481481481481525,2.943100000023847],[0.03104166666666662,-0.009074074074074031,2.959900000005966],[0.03104166666666662,-0.009074074074074031,2.9803000000119226],[0.03854166666666667,0.005000000000000084,2.993200000017886],[0.04760416666666671,-0.02814814814814823,3.0098000000119214],[0.06510416666666667,-0.052222222222222205,3.030900000005964],[0.09520833333333342,-0.055740740740740785,3.0461000000238414],[0.12010416666666662,-0.09000000000000004,3.0624000000059652],[0.11541666666666663,-0.06944444444444445,3.076600000023845],[0.11072916666666661,-0.04888888888888885,3.093300000011922],[0.11031250000000009,-0.013703703703703662,3.1129999999999995],[0.12552083333333333,0.05092592592592592,3.130300000011921],[0.1493750000000001,0.10722222222222218,3.1469000000059637],[0.16135416666666677,0.16055555555555565,3.1647000000178807],[0.19208333333333344,0.21129629629629634,3.1803000000119255],[0.21437499999999995,0.252962962962963,3.1963000000119237],[0.18697916666666667,0.2507407407407407,3.213000000000001],[0.15958333333333338,0.2485185185185186,3.230800000011925],[0.15958333333333338,0.2485185185185186,3.243100000023844],[0.17625000000000005,0.24222222222222214,3.2598000000119214],[0.18604166666666658,0.23777777777777773,3.279300000011922],[0.18604166666666658,0.23777777777777773,3.293200000017883],[0.20104166666666667,0.2168518518518519,3.3098000000119256],[0.22468750000000004,0.22888888888888892,3.3322000000178846],[0.22468750000000004,0.22888888888888892,3.3431000000238456],[0.19854166666666656,0.1868518518518518,3.359800000011923],[0.17072916666666677,0.13499999999999995,3.376600000023842],[0.17072916666666677,0.13499999999999995,3.3931000000238427],[0.12458333333333324,0.07407407407407407,3.409700000017885],[0.06979166666666667,0.004629629629629629,3.4312000000178813],[0.10760416666666663,0.07185185185185176,3.446200000017882],[0.10760416666666663,0.07185185185185176,3.4598000000119242],[0.1252083333333334,0.10444444444444441,3.4765000000000015],[0.10322916666666657,0.07388888888888885,3.4936000000238465],[0.08020833333333334,0.03833333333333342,3.514000000000003],[0.07052083333333338,0.020370370370370372,3.530000000000001],[0.035416666666666666,-0.045740740740740825,3.5461000000238414],[0.041458333333333285,-0.04944444444444453,3.5630000000000024],[0.051041666666666666,-0.02296296296296292,3.5778000000119263],[0.05541666666666671,-0.006296296296296254,3.5931000000238456],[0.06749999999999995,0.017407407407407365,3.611300000011923],[0.06749999999999995,0.017407407407407365,3.6265],[0.03864583333333336,-0.011666666666666582,3.6431000000238427],[0.01875,0.0005555555555554713,3.66130000001192],[0.016562499999999977,0.012407407407407492,3.680500000000002],[0.016562499999999977,0.012407407407407492,3.693100000023847],[0.022291666666666644,0.027407407407407325,3.7098000000119242],[0.021979166666666692,0.02296296296296292,3.7302000000178808],[0.021458333333333357,0.018518518518518517,3.7449000000059627],[0.020937500000000022,0.014074074074074116,3.764100000023845],[0.018437500000000048,-0.010925925925925884,3.779300000011922],[0.022708333333333285,-0.022777777777777692,3.796300000011925],[0.02791666666666662,-0.03314814814814811,3.8122000000178815],[0.043437500000000046,-0.02370370370370362,3.831900000005966],[0.07802083333333343,-0.000925925925925926,3.8478000000119224],[0.10083333333333329,0.02907407407407416,3.8639000000059625],[0.10614583333333343,0.06925925925925921,3.880500000000005]]","[0.00030000001192576065,0.04880000001192286,0.05980000001192565,0.0765000000000029,0.09730000001191996,0.11320000001788344,0.1303000000119212,0.1460000000000008,0.16480000001192252,0.1816000000238418,0.19320000001788173,0.20980000001192423,0.23070000001788316,0.24310000002384413,0.2598000000119214,0.2773000000119197,0.2938000000119203,0.31120000001788384,0.3266000000238449,0.3432000000178803,0.3631000000238416,0.3803000000119212,0.39630000001192656,0.41130000001192,0.43130000001192315,0.44570000001788657,0.4598000000119242,0.4765000000000015,0.493200000017886,0.5138000000119263,0.5264999999999986,0.5431000000238413,0.5623000000119234,0.5783000000119216,0.5974000000059618,0.612700000017881,0.6302000000178865,0.6469000000059637,0.6649999999999991,0.6813000000119231,0.6973000000119214,0.7136000000238454,0.730000000000004,0.7482000000178815,0.7647000000178821,0.7797000000178826,0.7932000000178832,0.8099000000059604,0.8265000000000029,0.8471000000238433,0.8628000000119229,0.8768000000119258,0.8931000000238427,0.9117000000178805,0.9308000000119208,0.9463000000119237,0.9597000000178824,0.9764000000059596,0.9939999999999998,1.0097000000178866,1.0306000000238456,1.047200000017881,1.0637000000178816,1.0791000000238427,1.0985000000000014,1.11340000000596,1.1265,1.1431000000238427,1.15980000001192,1.1806000000238441,1.1932000000178817,1.2098000000119242,1.230000000000004,1.2444000000059603,1.2645000000000053,1.2799000000059593,1.2970000000000041,1.3152000000178816,1.3392000000178825,1.3538000000119226,1.3654000000059625,1.3764000000059653,1.3939000000059636,1.40980000001192,1.4304000000059602,1.4436000000238423,1.463800000011922,1.4794000000059597,1.4946000000238442,1.513900000005961,1.5264999999999986,1.5432000000178832,1.5631000000238444,1.576600000023845,1.5932000000178803,1.611200000017881,1.6299000000059607,1.6445000000000007,1.6597000000178852,1.6801000000238417,1.696100000023847,1.7098000000119242,1.7265000000000015,1.7433000000119208,1.7598000000119214,1.7766000000238407,1.7932000000178832,1.8097000000178838,1.826500000000003,1.8431000000238456,1.8599999999999994,1.876600000023842,1.895900000005966,1.9099000000059618,1.930700000017886,1.946000000000005,1.9598000000119242,1.9765000000000015,1.993200000017886,2.0135000000000005,2.0264999999999986,2.0431000000238413,2.0615000000000023,2.076700000017887,2.0932000000178803,2.110300000011925,2.1264000000059653,2.1431000000238427,2.15980000001192,2.1764000000059625,2.1936000000238423,2.2098000000119242,2.2265000000000015,2.243200000017886,2.2637000000178844,2.2791000000238455,2.293300000011925,2.3098000000119256,2.3347000000178824,2.3447000000178804,2.3602000000178833,2.376600000023842,2.3964000000059613,2.409900000005962,2.4310000000000045,2.4466000000238424,2.460000000000001,2.4767000000178854,2.4934000000059626,2.5150000000000006,2.5267000000178825,2.543300000011925,2.562600000023842,2.578900000005966,2.5971000000238433,2.612000000000002,2.630600000023847,2.6456000000238404,2.6602000000178805,2.6766000000238463,2.6994000000059657,2.709900000005966,2.7267000000178854,2.744600000023844,2.764700000017882,2.7794999999999987,2.793300000011925,2.8099000000059604,2.832800000011922,2.843499999999999,2.8599000000059647,2.879800000011926,2.896600000023845,2.916800000011925,2.9265000000000043,2.943100000023847,2.959900000005966,2.9803000000119226,2.993200000017886,3.0098000000119214,3.030900000005964,3.0461000000238414,3.0624000000059652,3.076600000023845,3.093300000011922,3.1129999999999995,3.130300000011921,3.1469000000059637,3.1647000000178807,3.1803000000119255,3.1963000000119237,3.213000000000001,3.230800000011925,3.243100000023844,3.2598000000119214,3.279300000011922,3.293200000017883,3.3098000000119256,3.3322000000178846,3.3431000000238456,3.359800000011923,3.376600000023842,3.3931000000238427,3.409700000017885,3.4312000000178813,3.446200000017882,3.4598000000119242,3.4765000000000015,3.4936000000238465,3.514000000000003,3.530000000000001,3.5461000000238414,3.5630000000000024,3.5778000000119263,3.5931000000238456,3.611300000011923,3.6265,3.6431000000238427,3.66130000001192,3.680500000000002,3.693100000023847,3.7098000000119242,3.7302000000178808,3.7449000000059627,3.764100000023845,3.779300000011922,3.796300000011925,3.8122000000178815,3.831900000005966,3.8478000000119224,3.8639000000059625,3.880500000000005]","[1732691566568,1732691566608,1732691566619,1732691566635,1732691566656,1732691566672,1732691566689,1732691566705,1732691566724,1732691566740,1732691566752,1732691566769,1732691566789,1732691566802,1732691566819,1732691566836,1732691566853,1732691566870,1732691566885,1732691566902,1732691566922,1732691566939,1732691566955,1732691566970,1732691566990,1732691567004,1732691567019,1732691567035,1732691567052,1732691567073,1732691567085,1732691567102,1732691567121,1732691567137,1732691567156,1732691567171,1732691567189,1732691567206,1732691567224,1732691567240,1732691567256,1732691567272,1732691567289,1732691567307,1732691567324,1732691567338,1732691567352,1732691567369,1732691567385,1732691567406,1732691567423,1732691567437,1732691567453,1732691567471,1732691567491,1732691567506,1732691567520,1732691567536,1732691567554,1732691567569,1732691567590,1732691567607,1732691567623,1732691567639,1732691567658,1732691567673,1732691567686,1732691567703,1732691567720,1732691567740,1732691567753,1732691567770,1732691567790,1732691567804,1732691567824,1732691567840,1732691567857,1732691567875,1732691567899,1732691567914,1732691567925,1732691567936,1732691567954,1732691567969,1732691567990,1732691568003,1732691568023,1732691568039,1732691568054,1732691568074,1732691568086,1732691568103,1732691568123,1732691568136,1732691568153,1732691568171,1732691568190,1732691568204,1732691568219,1732691568240,1732691568256,1732691568270,1732691568286,1732691568303,1732691568320,1732691568336,1732691568353,1732691568369,1732691568386,1732691568403,1732691568420,1732691568436,1732691568456,1732691568470,1732691568490,1732691568506,1732691568520,1732691568536,1732691568553,1732691568573,1732691568586,1732691568603,1732691568621,1732691568636,1732691568653,1732691568670,1732691568686,1732691568703,1732691568719,1732691568736,1732691568753,1732691568769,1732691568786,1732691568803,1732691568823,1732691568839,1732691568853,1732691568870,1732691568894,1732691568904,1732691568920,1732691568936,1732691568956,1732691568970,1732691568991,1732691569006,1732691569020,1732691569036,1732691569053,1732691569075,1732691569086,1732691569103,1732691569122,1732691569139,1732691569157,1732691569172,1732691569190,1732691569205,1732691569220,1732691569236,1732691569259,1732691569270,1732691569286,1732691569304,1732691569324,1732691569339,1732691569353,1732691569370,1732691569393,1732691569403,1732691569420,1732691569440,1732691569456,1732691569477,1732691569486,1732691569503,1732691569520,1732691569540,1732691569553,1732691569569,1732691569591,1732691569606,1732691569622,1732691569636,1732691569653,1732691569673,1732691569690,1732691569707,1732691569724,1732691569740,1732691569756,1732691569773,1732691569791,1732691569803,1732691569820,1732691569839,1732691569853,1732691569869,1732691569892,1732691569903,1732691569920,1732691569936,1732691569953,1732691569969,1732691569991,1732691570006,1732691570020,1732691570036,1732691570053,1732691570074,1732691570090,1732691570106,1732691570123,1732691570138,1732691570153,1732691570171,1732691570186,1732691570203,1732691570221,1732691570240,1732691570253,1732691570269,1732691570290,1732691570305,1732691570324,1732691570339,1732691570356,1732691570372,1732691570392,1732691570408,1732691570424,1732691570440]","[[918.5,490.6],[918.5,490.6],[945.5,473.8],[942.7,458.5],[939.9,443.2],[939.4,433.4],[936,427.7],[937.5,425.8],[938.6,424.3],[941.9,422.8],[941.9,422.8],[945.2,421.3],[937.8,428.6],[937.8,428.6],[933.2,426.9],[951.7,416.5],[970.2,406.1],[990,393.7],[990,393.7],[1009.8,381.3],[1033.3,359.8],[1033,343.4],[1017.3,337.7],[993.2,328.3],[993.9,316.3],[973.9,307],[973.9,307],[952.7,316],[942.5,322],[902.8,334.8],[902.8,334.8],[863.1,347.6],[802.5,363.2],[765.7,373.7],[734.9,384.6],[718.1,403.4],[701.3,422.2],[684.5,431.2],[667.7,440.2],[642.3,456.6],[639.2,465.5],[648.3,479.7],[670.8,487.1],[689.4,511.6],[695.1,526.5],[686.4,537.9],[686.4,537.9],[673.5,553.8],[680.6,576.6],[681.1,593.9],[679.2,606.8],[679.2,606.8],[690,621.2],[688.8,625.2],[687.7,633.2],[690.3,629.6],[690.3,629.6],[692.9,626],[693.7,613.2],[723.3,612.7],[728.6,616],[744.1,616.1],[759.6,616.2],[762.2,611.3],[767.1,618.1],[768.1,636.1],[768.1,636.1],[769.3,648.6],[777.5,659.9],[779.2,673.7],[779.2,673.7],[770.8,676.4],[798.8,680],[805.2,685.9],[814.7,694.7],[843.9,708.4],[863.9,705.7],[890,696.1],[890,696.1],[927.8,693.1],[927.8,693.1],[941.4,684.8],[979.1,685.6],[1012.9,693.6],[1016.6,682.5],[1037.9,658.3],[1047.2,646.2],[1058.5,647.7],[1057.3,652.1],[1069.9,664.5],[1069.9,664.5],[1070.8,670.3],[1078.4,678.1],[1101.9,678.4],[1114.8,665.8],[1122.1,671.3],[1129.8,696.3],[1142.1,713.4],[1137.5,713.5],[1146.8,726.5],[1140.8,724.5],[1140.8,724.5],[1139.7,729.8],[1160.8,734.5],[1159,743.6],[1157.2,752.7],[1146.2,755.4],[1135.2,758.1],[1135.5,761.4],[1131.2,766.7],[1141.2,766.2],[1155.9,774.1],[1134.9,771.4],[1095.9,761.9],[1056.9,752.4],[1019.3,760.3],[1019.3,760.3],[999.6,770.4],[982.3,777.8],[964.5,775.7],[964.5,775.7],[946.7,773.6],[919.9,775.6],[913.4,774.9],[921.8,762.8],[944.6,764.6],[969.8,768.4],[989.2,760.9],[992.8,741.1],[1009.8,736.3],[1022,729],[1034.2,721.7],[1034.2,721.7],[1037.6,706.7],[1034.9,698.6],[1034.9,698.3],[1034.9,698.3],[1026.8,696],[1019.9,694.2],[1019.9,694.2],[1018.4,684.9],[1018.4,684.9],[1030,695.5],[999,693],[966.3,694.8],[925.3,684.5],[925.3,684.5],[910.9,682.3],[891.4,672.6],[885.2,672.8],[885.2,672.8],[885.3,663.5],[851.3,658.6],[816.3,655.1],[797.9,652.5],[827.2,673.8],[870.1,688.9],[924.7,684.4],[961.5,675.2],[989.2,669.3],[1010.2,661.4],[1010.2,661.4],[1019.5,650.5],[1051,624.3],[1075.5,598.8],[1097.4,598.9],[1097.4,598.9],[1098.4,575.9],[1071,526.3],[1071,526.3],[1045.2,525],[1037.8,526.7],[1030.4,528.4],[1020.5,530.1],[1020.5,530.1],[1001,528.4],[989.8,535.1],[989.8,535.1],[997,542.7],[1005.7,524.8],[1022.5,511.8],[1051.4,509.9],[1075.3,491.4],[1070.8,502.5],[1066.3,513.6],[1065.9,532.6],[1080.5,567.5],[1103.4,597.9],[1114.9,626.7],[1144.4,654.1],[1165.8,676.6],[1139.5,675.4],[1113.2,674.2],[1113.2,674.2],[1129.2,670.8],[1138.6,668.4],[1138.6,668.4],[1153,657.1],[1175.7,663.6],[1175.7,663.6],[1150.6,640.9],[1123.9,612.9],[1123.9,612.9],[1079.6,580],[1027,542.5],[1063.3,578.8],[1063.3,578.8],[1080.2,596.4],[1059.1,579.9],[1037,560.7],[1027.7,551],[994,515.3],[999.8,513.3],[1009,527.6],[1013.2,536.6],[1024.8,549.4],[1024.8,549.4],[997.1,533.7],[978,540.3],[975.9,546.7],[975.9,546.7],[981.4,554.8],[981.1,552.4],[980.6,550],[980.1,547.6],[977.7,534.1],[981.8,527.7],[986.8,522.1],[1001.7,527.2],[1034.9,539.5],[1056.8,555.7],[1061.9,577.4]]","[-0.056692,0.170076]","[0.056692,0.170076]","[0.170076,0.170076]","[-0.170076,-0.056692]","[-0.170076,0.056692]","[-0.170076,-0.170076]","[-0.056692,-0.056692]","[0.056692,-0.056692]","[0.170076,-0.056692]","[-0.056692,0.056692]","[0.056692,0.056692]","[0.170076,0.056692]","[-0.056692,-0.170076]","[0.056692,-0.170076]","[0.170076,-0.170076]",0,0,0,0,1,3,Smartphone,25,40,9,1,50,4,1,60,5
