inst1_resp.keys,inst1_resp.rt,calibrationMouse.x,calibrationMouse.y,calibrationMouse.leftButton,calibrationMouse.midButton,calibrationMouse.rightButton,calibrationClick.x,calibrationClick.y,calibrationClick.leftButton,calibrationClick.midButton,calibrationClick.rightButton,trialsc.thisRepN,trialsc.thisTrialN,trialsc.thisN,trialsc.thisIndex,trialsc.ran,calibration_x,calibration_y,participant,session,date,expName,psychopyVersion,OS,frameRate,calibrationClick.clicked_name,ScreenRes_pixels,Camera_pixels,mouse_2.x,mouse_2.y,mouse_2.leftButton,mouse_2.midButton,mouse_2.rightButton,mouse_2.time,mouse_2.clicked_name,mouse.x,mouse.y,mouse.leftButton,mouse.midButton,mouse.rightButton,mouse.time,mouse.clicked_name,Choice,Trial,TrialDuration,MOUSE_GAZE,ET_GAZE,ET_GAZE_x_T,time,unixTime,ET_GAZE_NF,Loc_Bus_label,Loc_Metro_label,Loc_RH_label,Loc_Cost_label,Loc_Travel_label,Loc_Comfort_label,Loc_Bus_cost,Loc_Metro_cost,Loc_RH_cost,Loc_Bus_travel,Loc_Metro_travel,Loc_RH_travel,Loc_Bus_comfort,Loc_Metro_comfort,Loc_RH_comfort,trials.thisRepN,trials.thisTrialN,trials.thisN,trials.thisIndex,trials.ran,Block,Device,RH_cost,RH_travel_time,RH_Comfort,metro_cost,metro_travel_time,metro_Comfort,Bus_cost,Bus_travel_time,Bus_Comfort
space,1.4141,0.146875,-0.162962963,1,0,0,-0.332291667,-0.687037037,1,0,0,0,0,0,4,1,-0.33,-0.67,39,001,2024-11-27_15h15.17.807,Attention_exp_legacy,2023.1.0,Win32,59.88023952,,,,,,,,,,,,,,,,,,,,,,,,,,,,,,,,,,,,,,,,,,,,,,,,,,,,,,,,,
,,,,,,,0.333333333,-0.333333333,1,0,0,0,1,1,15,1,0.33,-0.33,39,001,2024-11-27_15h15.17.807,Attention_exp_legacy,2023.1.0,Win32,59.88023952,calibration_square,,,,,,,,,,,,,,,,,,,,,,,,,,,,,,,,,,,,,,,,,,,,,,,,,,,,,,,,
,,,,,,,0.00625,0.325925926,1,0,0,0,2,2,12,1,0,0.33,39,001,2024-11-27_15h15.17.807,Attention_exp_legacy,2023.1.0,Win32,59.88023952,calibration_square,,,,,,,,,,,,,,,,,,,,,,,,,,,,,,,,,,,,,,,,,,,,,,,,,,,,,,,,
,,,,,,,-0.333333333,0.337037037,1,0,0,0,3,3,7,1,-0.33,0.33,39,001,2024-11-27_15h15.17.807,Attention_exp_legacy,2023.1.0,Win32,59.88023952,calibration_square,,,,,,,,,,,,,,,,,,,,,,,,,,,,,,,,,,,,,,,,,,,,,,,,,,,,,,,,
,,,,,,,0.33125,0.333333333,1,0,0,0,4,4,17,1,0.33,0.33,39,001,2024-11-27_15h15.17.807,Attention_exp_legacy,2023.1.0,Win32,59.88023952,calibration_square,,,,,,,,,,,,,,,,,,,,,,,,,,,,,,,,,,,,,,,,,,,,,,,,,,,,,,,,
,,,,,,,0,0.666666667,1,0,0,0,5,5,13,1,0,0.67,39,001,2024-11-27_15h15.17.807,Attention_exp_legacy,2023.1.0,Win32,59.88023952,calibration_square,,,,,,,,,,,,,,,,,,,,,,,,,,,,,,,,,,,,,,,,,,,,,,,,,,,,,,,,
,,,,,,,0.333333333,0.67962963,1,0,0,0,6,6,18,1,0.33,0.67,39,001,2024-11-27_15h15.17.807,Attention_exp_legacy,2023.1.0,Win32,59.88023952,calibration_square,,,,,,,,,,,,,,,,,,,,,,,,,,,,,,,,,,,,,,,,,,,,,,,,,,,,,,,,
,,,,,,,-0.325,0.675925926,1,0,0,0,7,7,8,1,-0.33,0.67,39,001,2024-11-27_15h15.17.807,Attention_exp_legacy,2023.1.0,Win32,59.88023952,calibration_square,,,,,,,,,,,,,,,,,,,,,,,,,,,,,,,,,,,,,,,,,,,,,,,,,,,,,,,,
,,,,,,,0.002083333,-0.009259259,1,0,0,0,8,8,11,1,0,0,39,001,2024-11-27_15h15.17.807,Attention_exp_legacy,2023.1.0,Win32,59.88023952,calibration_square,,,,,,,,,,,,,,,,,,,,,,,,,,,,,,,,,,,,,,,,,,,,,,,,,,,,,,,,
,,,,,,,-0.667708333,0.331481481,1,0,0,0,9,9,3,1,-0.67,0.33,39,001,2024-11-27_15h15.17.807,Attention_exp_legacy,2023.1.0,Win32,59.88023952,calibration_square,,,,,,,,,,,,,,,,,,,,,,,,,,,,,,,,,,,,,,,,,,,,,,,,,,,,,,,,
,,,,,,,-0.288541667,-0.335185185,1,0,0,0,10,10,5,1,-0.33,-0.33,39,001,2024-11-27_15h15.17.807,Attention_exp_legacy,2023.1.0,Win32,59.88023952,,,,,,,,,,,,,,,,,,,,,,,,,,,,,,,,,,,,,,,,,,,,,,,,,,,,,,,,,
,,,,,,,-0.673958333,-0.692592593,1,0,0,0,11,11,0,1,-0.67,-0.67,39,001,2024-11-27_15h15.17.807,Attention_exp_legacy,2023.1.0,Win32,59.88023952,,,,,,,,,,,,,,,,,,,,,,,,,,,,,,,,,,,,,,,,,,,,,,,,,,,,,,,,,
,,,,,,,-0.672916667,0.005555556,1,0,0,0,12,12,2,1,-0.67,0,39,001,2024-11-27_15h15.17.807,Attention_exp_legacy,2023.1.0,Win32,59.88023952,calibration_square,,,,,,,,,,,,,,,,,,,,,,,,,,,,,,,,,,,,,,,,,,,,,,,,,,,,,,,,
,,,,,,,-0.00625,-0.333333333,1,0,0,0,13,13,10,1,0,-0.33,39,001,2024-11-27_15h15.17.807,Attention_exp_legacy,2023.1.0,Win32,59.88023952,calibration_square,,,,,,,,,,,,,,,,,,,,,,,,,,,,,,,,,,,,,,,,,,,,,,,,,,,,,,,,
,,,,,,,-0.316666667,-0.011111111,1,0,0,0,14,14,6,1,-0.33,0,39,001,2024-11-27_15h15.17.807,Attention_exp_legacy,2023.1.0,Win32,59.88023952,,,,,,,,,,,,,,,,,,,,,,,,,,,,,,,,,,,,,,,,,,,,,,,,,,,,,,,,,
,,,,,,,0.330208333,-0.655555556,1,0,0,0,15,15,14,1,0.33,-0.67,39,001,2024-11-27_15h15.17.807,Attention_exp_legacy,2023.1.0,Win32,59.88023952,,,,,,,,,,,,,,,,,,,,,,,,,,,,,,,,,,,,,,,,,,,,,,,,,,,,,,,,,
,,,,,,,0.660416667,-0.65,1,0,0,0,16,16,20,1,0.67,-0.67,39,001,2024-11-27_15h15.17.807,Attention_exp_legacy,2023.1.0,Win32,59.88023952,,,,,,,,,,,,,,,,,,,,,,,,,,,,,,,,,,,,,,,,,,,,,,,,,,,,,,,,,
,,,,,,,-0.661458333,-0.307407407,1,0,0,0,17,17,1,1,-0.67,-0.33,39,001,2024-11-27_15h15.17.807,Attention_exp_legacy,2023.1.0,Win32,59.88023952,,,,,,,,,,,,,,,,,,,,,,,,,,,,,,,,,,,,,,,,,,,,,,,,,,,,,,,,,
,,,,,,,-0.003125,-0.666666667,1,0,0,0,18,18,9,1,0,-0.67,39,001,2024-11-27_15h15.17.807,Attention_exp_legacy,2023.1.0,Win32,59.88023952,calibration_square,,,,,,,,,,,,,,,,,,,,,,,,,,,,,,,,,,,,,,,,,,,,,,,,,,,,,,,,
,,,,,,,0.333333333,0.016666667,1,0,0,0,19,19,16,1,0.33,0,39,001,2024-11-27_15h15.17.807,Attention_exp_legacy,2023.1.0,Win32,59.88023952,,,,,,,,,,,,,,,,,,,,,,,,,,,,,,,,,,,,,,,,,,,,,,,,,,,,,,,,,
,,,,,,,0.683333333,0.662962963,1,0,0,0,20,20,19,1,0.67,0.67,39,001,2024-11-27_15h15.17.807,Attention_exp_legacy,2023.1.0,Win32,59.88023952,,,,,,,,,,,,,,,,,,,,,,,,,,,,,,,,,,,,,,,,,,,,,,,,,,,,,,,,,
,,,,,,,,,,,,,,,,,,,39,001,2024-11-27_15h15.17.807,Attention_exp_legacy,2023.1.0,Win32,59.88023952,,"[1920,1080]","[640,480]",[0.005208333333333333],[-0.4981481481481482],[1],[0],[0],[5.47980000001192],"[""StartButton""]",[0.115625],[0.42962962962962964],[1],[0],[0],[3.767000000000003],"[""Metro_label""]",Metro_label,1,4.7908,"[[0.11666666666666667,-0.011111111111111112],[0.11666666666666667,-0.011111111111111112],[0.11666666666666667,-0.011111111111111112],[0.11666666666666667,-0.011111111111111112],[0.11666666666666667,-0.011111111111111112],[0.11666666666666667,-0.011111111111111112],[0.11666666666666667,-0.011111111111111112],[0.11666666666666667,-0.011111111111111112],[0.11666666666666667,-0.011111111111111112],[0.11666666666666667,-0.011111111111111112],[0.11666666666666667,-0.011111111111111112],[0.11666666666666667,-0.011111111111111112],[0.11666666666666667,-0.011111111111111112],[0.11666666666666667,-0.011111111111111112],[0.11666666666666667,-0.011111111111111112],[0.11666666666666667,-0.011111111111111112],[0.11666666666666667,-0.011111111111111112],[0.11666666666666667,-0.011111111111111112],[0.11666666666666667,-0.011111111111111112],[0.11666666666666667,-0.011111111111111112],[0.11666666666666667,-0.011111111111111112],[0.11666666666666667,-0.011111111111111112],[0.11666666666666667,-0.011111111111111112],[0.11666666666666667,-0.011111111111111112],[0.11666666666666667,-0.011111111111111112],[0.11666666666666667,-0.011111111111111112],[0.11666666666666667,-0.011111111111111112],[0.11666666666666667,-0.011111111111111112],[0.11666666666666667,-0.011111111111111112],[0.11666666666666667,-0.011111111111111112],[0.11666666666666667,-0.011111111111111112],[0.11666666666666667,-0.011111111111111112],[0.11666666666666667,-0.011111111111111112],[0.11666666666666667,-0.011111111111111112],[0.11666666666666667,-0.011111111111111112],[0.11666666666666667,-0.011111111111111112],[0.11666666666666667,-0.011111111111111112],[0.11666666666666667,-0.011111111111111112],[0.11666666666666667,-0.011111111111111112],[0.11666666666666667,-0.011111111111111112],[0.11666666666666667,-0.011111111111111112],[0.11666666666666667,-0.011111111111111112],[0.11666666666666667,-0.011111111111111112],[0.11666666666666667,-0.011111111111111112],[0.11666666666666667,-0.011111111111111112],[0.11666666666666667,-0.011111111111111112],[0.11666666666666667,-0.011111111111111112],[0.11666666666666667,-0.011111111111111112],[0.11666666666666667,-0.011111111111111112],[0.11666666666666667,-0.011111111111111112],[0.11666666666666667,-0.011111111111111112],[0.11666666666666667,-0.011111111111111112],[0.11666666666666667,-0.011111111111111112],[0.11666666666666667,-0.011111111111111112],[0.11666666666666667,-0.011111111111111112],[0.11666666666666667,-0.011111111111111112],[0.11666666666666667,-0.011111111111111112],[0.11666666666666667,-0.011111111111111112],[0.11666666666666667,-0.011111111111111112],[0.11666666666666667,-0.011111111111111112],[0.11666666666666667,-0.011111111111111112],[0.11666666666666667,-0.011111111111111112],[0.11666666666666667,-0.011111111111111112],[0.11666666666666667,-0.011111111111111112],[0.11666666666666667,-0.011111111111111112],[0.11666666666666667,-0.011111111111111112],[0.11666666666666667,-0.011111111111111112],[0.11666666666666667,-0.011111111111111112],[0.11666666666666667,-0.011111111111111112],[0.11666666666666667,-0.011111111111111112],[0.11666666666666667,-0.011111111111111112],[0.11666666666666667,-0.011111111111111112],[0.11666666666666667,-0.011111111111111112],[0.11666666666666667,-0.011111111111111112],[0.11666666666666667,-0.011111111111111112],[0.11666666666666667,-0.011111111111111112],[0.11666666666666667,-0.011111111111111112],[0.11666666666666667,-0.011111111111111112],[0.11666666666666667,-0.011111111111111112],[0.11666666666666667,-0.011111111111111112],[0.11666666666666667,-0.011111111111111112],[0.11666666666666667,-0.011111111111111112],[0.11666666666666667,-0.011111111111111112],[0.11666666666666667,-0.011111111111111112],[0.11666666666666667,-0.011111111111111112],[0.11666666666666667,-0.011111111111111112],[0.11666666666666667,-0.011111111111111112],[0.11666666666666667,-0.011111111111111112],[0.11666666666666667,-0.011111111111111112],[0.11666666666666667,-0.011111111111111112],[0.11666666666666667,-0.011111111111111112],[0.11666666666666667,-0.011111111111111112],[0.11666666666666667,-0.011111111111111112],[0.11666666666666667,-0.011111111111111112],[0.11666666666666667,-0.011111111111111112],[0.11666666666666667,-0.011111111111111112],[0.11666666666666667,-0.011111111111111112],[0.11666666666666667,-0.011111111111111112],[0.11666666666666667,-0.011111111111111112],[0.11666666666666667,-0.011111111111111112],[0.11666666666666667,-0.011111111111111112],[0.11666666666666667,-0.011111111111111112],[0.11666666666666667,-0.011111111111111112],[0.11666666666666667,-0.011111111111111112],[0.11666666666666667,-0.011111111111111112],[0.11666666666666667,-0.011111111111111112],[0.11666666666666667,-0.011111111111111112],[0.11666666666666667,-0.011111111111111112],[0.11666666666666667,-0.011111111111111112],[0.11666666666666667,-0.011111111111111112],[0.11666666666666667,-0.011111111111111112],[0.11666666666666667,-0.011111111111111112],[0.11666666666666667,-0.011111111111111112],[0.11666666666666667,-0.011111111111111112],[0.11666666666666667,-0.011111111111111112],[0.11666666666666667,-0.011111111111111112],[0.11666666666666667,-0.011111111111111112],[0.11666666666666667,-0.011111111111111112],[0.11666666666666667,-0.011111111111111112],[0.11666666666666667,-0.011111111111111112],[0.11666666666666667,-0.011111111111111112],[0.11666666666666667,-0.011111111111111112],[0.11666666666666667,-0.011111111111111112],[0.11666666666666667,-0.011111111111111112],[0.11666666666666667,-0.011111111111111112],[0.11666666666666667,-0.011111111111111112],[0.11666666666666667,-0.011111111111111112],[0.11666666666666667,-0.011111111111111112],[0.11666666666666667,-0.011111111111111112],[0.11666666666666667,-0.011111111111111112],[0.11666666666666667,-0.011111111111111112],[0.11666666666666667,-0.011111111111111112],[0.11666666666666667,-0.011111111111111112],[0.11666666666666667,-0.011111111111111112],[0.11666666666666667,-0.011111111111111112],[0.11666666666666667,-0.011111111111111112],[0.11666666666666667,-0.011111111111111112],[0.11666666666666667,-0.011111111111111112],[0.11666666666666667,-0.011111111111111112],[0.11666666666666667,-0.011111111111111112],[0.11666666666666667,-0.011111111111111112],[0.11666666666666667,-0.011111111111111112],[0.11666666666666667,-0.011111111111111112],[0.11666666666666667,-0.011111111111111112],[0.11666666666666667,-0.011111111111111112],[0.11666666666666667,-0.011111111111111112],[0.11666666666666667,-0.011111111111111112],[0.11666666666666667,-0.005555555555555556],[0.11770833333333333,0.016666666666666666],[0.11875,0.04814814814814815],[0.121875,0.06111111111111111],[0.12395833333333334,0.09074074074074075],[0.128125,0.1425925925925926],[0.13020833333333334,0.17407407407407408],[0.13229166666666667,0.1925925925925926],[0.13229166666666667,0.24074074074074073],[0.13229166666666667,0.26851851851851855],[0.13229166666666667,0.2962962962962963],[0.13125,0.32222222222222224],[0.13020833333333334,0.34629629629629627],[0.12708333333333333,0.3685185185185185],[0.12291666666666666,0.387037037037037],[0.121875,0.4],[0.11875,0.40925925925925927],[0.11875,0.4148148148148148],[0.11875,0.4185185185185185],[0.11770833333333333,0.42407407407407405],[0.11666666666666667,0.42777777777777776],[0.115625,0.42962962962962964],[0.115625,0.42962962962962964],[0.115625,0.42962962962962964],[0.115625,0.42962962962962964],[0.115625,0.42962962962962964],[0.115625,0.42962962962962964],[0.115625,0.42962962962962964],[0.115625,0.42962962962962964],[0.115625,0.42962962962962964],[0.115625,0.42962962962962964],[0.115625,0.42962962962962964],[0.115625,0.42962962962962964],[0.115625,0.42962962962962964],[0.115625,0.42962962962962964],[0.115625,0.42962962962962964],[0.115625,0.42962962962962964],[0.115625,0.42962962962962964],[0.115625,0.42962962962962964],[0.115625,0.42962962962962964],[0.115625,0.42962962962962964],[0.115625,0.42962962962962964],[0.115625,0.42962962962962964],[0.115625,0.42962962962962964],[0.115625,0.42962962962962964],[0.115625,0.42962962962962964],[0.115625,0.42962962962962964],[0.115625,0.42962962962962964],[0.115625,0.42962962962962964],[0.115625,0.42962962962962964],[0.115625,0.42962962962962964],[0.115625,0.42962962962962964],[0.115625,0.42962962962962964],[0.115625,0.42962962962962964],[0.115625,0.42962962962962964],[0.115625,0.42962962962962964],[0.115625,0.42962962962962964],[0.115625,0.42962962962962964],[0.115625,0.42962962962962964],[0.115625,0.42962962962962964],[0.115625,0.42962962962962964],[0.115625,0.42962962962962964],[0.115625,0.42962962962962964],[0.115625,0.42962962962962964],[0.115625,0.42962962962962964],[0.115625,0.42962962962962964],[0.115625,0.42962962962962964],[0.115625,0.42962962962962964],[0.115625,0.42962962962962964],[0.115625,0.42962962962962964],[0.115625,0.42962962962962964],[0.115625,0.42962962962962964],[0.115625,0.42962962962962964],[0.115625,0.42962962962962964],[0.115625,0.42962962962962964],[0.115625,0.42962962962962964],[0.115625,0.42962962962962964],[0.115625,0.42962962962962964],[0.115625,0.42962962962962964],[0.115625,0.42962962962962964],[0.115625,0.42962962962962964],[0.115625,0.42962962962962964],[0.115625,0.42962962962962964],[0.115625,0.42962962962962964],[0.115625,0.42962962962962964],[0.115625,0.42962962962962964],[0.115625,0.42962962962962964],[0.115625,0.42962962962962964],[0.115625,0.42962962962962964],[0.115625,0.42962962962962964],[0.115625,0.42962962962962964],[0.115625,0.42962962962962964],[0.115625,0.42962962962962964],[0.115625,0.42962962962962964],[0.115625,0.42962962962962964],[0.115625,0.42962962962962964],[0.115625,0.42962962962962964],[0.115625,0.42962962962962964],[0.115625,0.42962962962962964],[0.115625,0.42962962962962964],[0.115625,0.42962962962962964],[0.115625,0.42962962962962964],[0.115625,0.42962962962962964],[0.115625,0.42962962962962964],[0.115625,0.42962962962962964],[0.115625,0.42962962962962964],[0.115625,0.42962962962962964],[0.115625,0.42962962962962964],[0.115625,0.42962962962962964],[0.115625,0.42962962962962964],[0.115625,0.42962962962962964],[0.115625,0.42962962962962964],[0.115625,0.42962962962962964],[0.115625,0.42962962962962964],[0.115625,0.42962962962962964],[0.115625,0.42962962962962964],[0.115625,0.42962962962962964],[0.115625,0.42962962962962964],[0.115625,0.42962962962962964],[0.115625,0.42962962962962964],[0.115625,0.42962962962962964],[0.115625,0.42962962962962964],[0.115625,0.42962962962962964],[0.115625,0.42962962962962964],[0.115625,0.42962962962962964],[0.115625,0.42962962962962964],[0.115625,0.42962962962962964],[0.115625,0.42962962962962964],[0.115625,0.42962962962962964],[0.115625,0.42962962962962964],[0.115625,0.42962962962962964],[0.115625,0.42962962962962964],[0.115625,0.42962962962962964],[0.115625,0.42962962962962964],[0.115625,0.42962962962962964],[0.115625,0.42962962962962964],[0.115625,0.42962962962962964],[0.115625,0.42962962962962964],[0.115625,0.42962962962962964],[0.115625,0.42962962962962964]]","[[0.1710416666666667,-0.2455555555555556],[0.1710416666666667,-0.2455555555555556],[0.1710416666666667,-0.2455555555555556],[0.1662499999999999,-0.2551851851851852],[0.175,-0.26296296296296295],[0.17999999999999997,-0.2837037037037037],[0.16739583333333338,-0.29148148148148145],[0.15927083333333342,-0.31351851851851853],[0.15927083333333342,-0.31351851851851853],[0.16479166666666673,-0.33666666666666667],[0.19020833333333323,-0.3464814814814815],[0.2055208333333333,-0.3611111111111111],[0.2131249999999999,-0.3738888888888888],[0.19114583333333332,-0.37296296296296294],[0.1728125000000001,-0.3925925925925926],[0.17374999999999996,-0.4007407407407407],[0.16052083333333325,-0.3809259259259259],[0.16052083333333325,-0.3809259259259259],[0.15427083333333325,-0.36370370370370364],[0.1521874999999999,-0.352962962962963],[0.12395833333333334,-0.3718518518518519],[0.09989583333333343,-0.40259259259259256],[0.07583333333333328,-0.4251851851851852],[0.06614583333333333,-0.44814814814814813],[0.06197916666666667,-0.47074074074074074],[0.05802083333333338,-0.4746296296296296],[0.05802083333333338,-0.4746296296296296],[0.033854166666666664,-0.5018518518518519],[0.004270833333333357,-0.4968518518518519],[-0.030520833333333285,-0.48574074074074075],[-0.030520833333333285,-0.48574074074074075],[-0.10010416666666669,-0.4535185185185185],[-0.13937499999999994,-0.3809259259259259],[-0.17135416666666667,-0.3025925925925925],[-0.22281249999999997,-0.23425925925925925],[-0.2778125000000001,-0.16833333333333328],[-0.33354166666666674,-0.1557407407407408],[-0.3892708333333334,-0.14314814814814816],[-0.4444791666666667,-0.12037037037037036],[-0.4690625,-0.14092592592592595],[-0.4560416666666666,-0.1705555555555556],[-0.4560416666666666,-0.1705555555555556],[-0.4361458333333334,-0.20722222222222217],[-0.43635416666666665,-0.26222222222222225],[-0.4613541666666666,-0.30537037037037035],[-0.466875,-0.3466666666666666],[-0.466875,-0.3466666666666666],[-0.4623958333333333,-0.39388888888888884],[-0.41854166666666665,-0.38555555555555554],[-0.37468750000000006,-0.3772222222222222],[-0.3423958333333334,-0.3881481481481482],[-0.3173958333333334,-0.402962962962963],[-0.3226041666666667,-0.3725925925925926],[-0.31,-0.34333333333333327],[-0.2934375000000001,-0.3131481481481482],[-0.26135416666666667,-0.27999999999999997],[-0.22927083333333337,-0.24685185185185188],[-0.22927083333333337,-0.24685185185185188],[-0.20364583333333333,-0.20537037037037034],[-0.21885416666666668,-0.18629629629629635],[-0.2634375,-0.14500000000000002],[-0.2942708333333333,-0.08907407407407411],[-0.2942708333333333,-0.08907407407407411],[-0.32395833333333335,-0.03462962962962971],[-0.3476041666666667,0.012777777777777735],[-0.37124999999999997,0.06018518518518518],[-0.37218749999999995,0.11629629629629622],[-0.37218749999999995,0.11629629629629622],[-0.3711458333333333,0.15185185185185185],[-0.37614583333333335,0.17240740740740745],[-0.3890625,0.1911111111111112],[-0.4053125,0.22962962962962963],[-0.4053125,0.22962962962962963],[-0.32135416666666666,0.25462962962962965],[-0.2263541666666666,0.2857407407407407],[-0.13250000000000003,0.3183333333333333],[-0.0733333333333333,0.32981481481481484],[-0.01416666666666669,0.3412962962962962],[0.04802083333333336,0.2996296296296295],[0.09812500000000005,0.27037037037037037],[0.12770833333333323,0.2601851851851852],[0.16520833333333323,0.2518518518518518],[0.22104166666666672,0.2611111111111111],[0.20604166666666662,0.2616666666666666],[0.17697916666666677,0.23259259259259263],[0.14791666666666667,0.2035185185185185],[0.1430208333333333,0.17037037037037037],[0.13812499999999991,0.13722222222222227],[0.12750000000000009,0.16314814814814818],[0.12895833333333329,0.1766666666666666],[0.12895833333333329,0.1766666666666666],[0.146875,0.15],[0.17604166666666668,0.14055555555555552],[0.1868750000000001,0.11351851851851844],[0.19375,0.075],[0.20364583333333333,0.059999999999999956],[0.18979166666666672,0.032407407407407406],[0.1712500000000001,-0.0025925925925925505],[0.18010416666666676,-0.007592592592592635],[0.17572916666666671,-0.046481481481481526],[0.17927083333333324,-0.08462962962962961],[0.1803124999999999,-0.09000000000000004],[0.1701041666666666,-0.11259259259259262],[0.15166666666666656,-0.13703703703703704],[0.13718750000000005,-0.15],[0.12270833333333328,-0.16296296296296298],[0.11677083333333324,-0.1655555555555555],[0.11083333333333342,-0.16814814814814816],[0.07916666666666666,-0.22685185185185186],[0.044062499999999956,-0.2574074074074074],[0.011562500000000024,-0.26481481481481484],[-0.008333333333333333,-0.26888888888888884],[-0.008333333333333333,-0.26888888888888884],[-0.040625,-0.2683333333333333],[-0.052187500000000026,-0.28277777777777774],[-0.06375000000000004,-0.2972222222222222],[-0.06541666666666662,-0.27518518518518525],[-0.06541666666666662,-0.27518518518518525],[-0.051874999999999956,-0.25092592592592594],[-0.03260416666666662,-0.22962962962962963],[0.004062499999999977,-0.1925925925925926],[0.049374999999999974,-0.15777777777777777],[0.06885416666666658,-0.14648148148148152],[0.08885416666666662,-0.13148148148148148],[0.11541666666666663,-0.1366666666666667],[0.10770833333333343,-0.09259259259259259],[0.1,-0.0485185185185186],[0.08239583333333324,-0.04092592592592597],[0.07104166666666671,-0.01907407407407399],[0.05395833333333329,0.005740740740740783],[0.016145833333333335,0.023333333333333376],[-0.02166666666666662,0.04092592592592597],[-0.05541666666666671,0.05907407407407403],[-0.08968750000000002,0.07351851851851861],[-0.09302083333333329,0.10333333333333325],[-0.07458333333333336,0.1007407407407407],[-0.07458333333333336,0.1007407407407407],[-0.07385416666666664,0.09648148148148153],[-0.08427083333333331,0.10981481481481473],[-0.10093749999999997,0.1088888888888888],[-0.11312500000000002,0.11999999999999991],[-0.12364583333333339,0.14870370370370362],[-0.12708333333333333,0.16296296296296298],[-0.11927083333333334,0.17629629629629637],[-0.07677083333333339,0.19444444444444445],[-0.07677083333333339,0.19444444444444445],[-0.07645833333333331,0.2014814814814814],[-0.07645833333333331,0.2014814814814814],[-0.059583333333333384,0.19722222222222222],[-0.01895833333333338,0.21962962962962967],[-0.01895833333333338,0.21962962962962967],[0.024166666666666715,0.1896296296296296],[0.05697916666666671,0.15925925925925927],[0.0853125000000001,0.11685185185185189],[0.0853125000000001,0.11685185185185189],[0.12979166666666658,0.07962962962962963],[0.18239583333333323,0.040370370370370286],[0.2146874999999999,0.015000000000000043],[0.20604166666666662,-0.018888888888888972],[0.21541666666666662,-0.05944444444444449],[0.19500000000000003,-0.09000000000000004],[0.19500000000000003,-0.09000000000000004],[0.17822916666666658,-0.15388888888888894],[0.1818749999999999,-0.1787037037037037],[0.18260416666666662,-0.18870370370370365],[0.18260416666666662,-0.18870370370370365],[0.19656250000000006,-0.22518518518518524],[0.19656250000000006,-0.22518518518518524],[0.18416666666666662,-0.24833333333333338],[0.18416666666666662,-0.24833333333333338],[0.17739583333333328,-0.23870370370370367],[0.19093749999999995,-0.24296296296296294],[0.203125,-0.2131481481481482],[0.19041666666666662,-0.1816666666666667],[0.19635416666666666,-0.16018518518518518],[0.20520833333333333,-0.11851851851851852],[0.20895833333333325,-0.09666666666666665],[0.2259375000000001,-0.08925925925925923],[0.23562500000000006,-0.024074074074074074],[0.2555208333333333,0.022592592592592678],[0.22770833333333323,0.001851851851851852],[0.19989583333333344,-0.018888888888888972],[0.18895833333333342,-0.062037037037037036],[0.20791666666666658,-0.08499999999999996],[0.22125000000000009,-0.10648148148148148],[0.22197916666666656,-0.1398148148148148],[0.22197916666666656,-0.1398148148148148],[0.23093750000000005,-0.14388888888888887],[0.21687500000000004,-0.14666666666666664],[0.196875,-0.18074074074074079],[0.18677083333333327,-0.21648148148148144],[0.20354166666666676,-0.20111111111111116],[0.2265625,-0.19685185185185186],[0.24031250000000004,-0.20055555555555557],[0.25364583333333335,-0.22740740740740742],[0.2671875,-0.24444444444444444],[0.2671875,-0.24444444444444444],[0.2847916666666668,-0.26648148148148143],[0.2921875,-0.2992592592592593],[0.2921875,-0.2992592592592593],[0.2998958333333334,-0.31203703703703706],[0.3076041666666666,-0.3248148148148148],[0.32666666666666655,-0.3483333333333334],[0.34572916666666675,-0.3718518518518519],[0.34572916666666675,-0.3718518518518519],[0.3532291666666666,-0.37296296296296294],[0.35218749999999993,-0.36259259259259263],[0.34562499999999996,-0.33296296296296296],[0.34562499999999996,-0.33296296296296296],[0.33583333333333343,-0.2933333333333333],[0.3310416666666666,-0.25203703703703706],[0.3310416666666666,-0.25203703703703706],[0.3226041666666667,-0.2131481481481482],[0.3329166666666666,-0.18851851851851853],[0.3352083333333333,-0.18833333333333332],[0.3352083333333333,-0.18833333333333332],[0.3203125,-0.16740740740740737],[0.3203125,-0.16740740740740737],[0.3054166666666667,-0.14648148148148152],[0.22364583333333338,-0.14333333333333328],[0.14333333333333323,-0.12777777777777777],[0.058749999999999976,-0.10537037037037032],[-0.01083333333333331,-0.09611111111111106],[-0.10197916666666665,-0.08962962962962959],[-0.19416666666666665,-0.08370370370370368],[-0.2829166666666667,-0.08722222222222227],[-0.2829166666666667,-0.08722222222222227],[-0.36177083333333326,-0.06777777777777783],[-0.43562500000000004,-0.06851851851851852],[-0.5046875,-0.049074074074074076],[-0.4940625,-0.03833333333333342],[-0.4763541666666667,-0.0514814814814814],[-0.45281250000000006,-0.06962962962962967],[-0.3977083333333333,-0.11592592592592597],[-0.3164583333333333,-0.1594444444444445],[-0.2352083333333333,-0.202962962962963],[-0.16749999999999995,-0.22370370370370374],[-0.16749999999999995,-0.22370370370370374],[-0.1016666666666667,-0.24296296296296294],[-0.02510416666666669,-0.29074074074074074],[0.03218749999999997,-0.30999999999999994],[0.10510416666666676,-0.34444444444444444],[0.1837500000000001,-0.3646296296296296],[0.1837500000000001,-0.3646296296296296],[0.2538541666666667,-0.372037037037037],[0.28239583333333323,-0.26240740740740737],[0.2972916666666668,-0.14944444444444444],[0.28968749999999993,-0.04425925925925922],[0.2961458333333333,0.04055555555555551],[0.3026041666666667,0.12537037037037047],[0.26687500000000003,0.2131481481481482],[0.23510416666666673,0.2868518518518518],[0.22104166666666672,0.38425925925925924],[0.1962500000000001,0.46351851851851844],[0.1453125,0.5385185185185184],[0.109375,0.5307407407407407],[0.109375,0.5307407407407407],[0.07864583333333333,0.5131481481481482],[0.0912499999999999,0.5179629629629631],[0.08770833333333337,0.4911111111111112],[0.08781249999999995,0.41333333333333344],[0.12270833333333328,0.42018518518518516],[0.16458333333333333,0.35407407407407415],[0.1794791666666666,0.3168518518518519],[0.18135416666666657,0.24833333333333338],[0.2107291666666666,0.16055555555555565],[0.22135416666666666,0.07777777777777778],[0.22135416666666666,0.07777777777777778],[0.2195833333333333,-0.0012962962962963806],[0.2118750000000001,-0.09518518518518514],[0.2118750000000001,-0.09518518518518514],[0.23239583333333325,-0.15407407407407406],[0.26197916666666665,-0.18666666666666668],[0.28125,-0.2668518518518519],[0.2890625,-0.3001851851851852],[0.2890625,-0.3001851851851852],[0.2743750000000001,-0.35648148148148145],[0.2743750000000001,-0.35648148148148145],[0.28104166666666663,-0.37833333333333335],[0.29885416666666675,-0.3685185185185185],[0.3037499999999999,-0.3411111111111111],[0.3037499999999999,-0.3411111111111111],[0.31583333333333335,-0.30759259259259264],[0.3132291666666667,-0.2911111111111111],[0.2904166666666666,-0.285],[0.2548958333333334,-0.2542592592592593],[0.2548958333333334,-0.2542592592592593]]","[[0.1710416666666667,-0.2455555555555556,0.00019999998807662678],[0.1710416666666667,-0.2455555555555556,0.0519999999999996],[0.1710416666666667,-0.2455555555555556,0.057399999976155414],[0.1662499999999999,-0.2551851851851852,0.07409999999403993],[0.175,-0.26296296296296295,0.09169999998807299],[0.17999999999999997,-0.2837037037037037,0.1109999999999971],[0.16739583333333338,-0.29148148148148145,0.12579999998211377],[0.15927083333333342,-0.31351851851851853,0.14429999998211684],[0.15927083333333342,-0.31351851851851853,0.1615999999940385],[0.16479166666666673,-0.33666666666666667,0.1795999999940392],[0.19020833333333323,-0.3464814814814815,0.1933999999761582],[0.2055208333333333,-0.3611111111111111,0.20749999999999602],[0.2131249999999999,-0.3738888888888888,0.2240999999940385],[0.19114583333333332,-0.37296296296296294,0.24079999998211576],[0.1728125000000001,-0.3925925925925926,0.2576999999880769],[0.17374999999999996,-0.4007407407407407,0.2765999999940334],[0.16052083333333325,-0.3809259259259259,0.2912999999821153],[0.16052083333333325,-0.3809259259259259,0.30749999999999744],[0.15427083333333325,-0.36370370370370364,0.32409999999403993],[0.1521874999999999,-0.352962962962963,0.3456999999880779],[0.12395833333333334,-0.3718518518518519,0.36019999998807606],[0.09989583333333343,-0.40259259259259256,0.3754999999999953],[0.07583333333333328,-0.4251851851851852,0.3919999999999959],[0.06614583333333333,-0.44814814814814813,0.40739999997615683],[0.06197916666666667,-0.47074074074074074,0.42409999999403425],[0.05802083333333338,-0.4746296296296296,0.4440999999940374],[0.05802083333333338,-0.4746296296296296,0.457499999999996],[0.033854166666666664,-0.5018518518518519,0.4741999999880733],[0.004270833333333357,-0.4968518518518519,0.4906999999880739],[-0.030520833333333285,-0.48574074074074075,0.5075000000000003],[-0.030520833333333285,-0.48574074074074075,0.5240999999940357],[-0.10010416666666669,-0.4535185185185185,0.5407999999821129],[-0.13937499999999994,-0.3809259259259259,0.5603999999761555],[-0.17135416666666667,-0.3025925925925925,0.5743999999761584],[-0.22281249999999997,-0.23425925925925925,0.5906999999880753],[-0.2778125000000001,-0.16833333333333328,0.6099999999999994],[-0.33354166666666674,-0.1557407407407408,0.624199999988079],[-0.3892708333333334,-0.14314814814814816,0.644199999988075],[-0.4444791666666667,-0.12037037037037036,0.6591999999880755],[-0.4690625,-0.14092592592592595,0.6740999999940342],[-0.4560416666666666,-0.1705555555555556,0.6931999999880745],[-0.4560416666666666,-0.1705555555555556,0.707399999976154],[-0.4361458333333334,-0.20722222222222217,0.7240999999940385],[-0.43635416666666665,-0.26222222222222225,0.7409999999999997],[-0.4613541666666666,-0.30537037037037035,0.7573999999761583],[-0.466875,-0.3466666666666666,0.7763999999761566],[-0.466875,-0.3466666666666666,0.7907999999821129],[-0.4623958333333333,-0.39388888888888884,0.8075999999940393],[-0.41854166666666665,-0.38555555555555554,0.8240999999940399],[-0.37468750000000006,-0.3772222222222222,0.8407999999821172],[-0.3423958333333334,-0.3881481481481482,0.8601999999880761],[-0.3173958333333334,-0.402962962962963,0.8744999999999976],[-0.3226041666666667,-0.3725925925925926,0.8922999999821144],[-0.31,-0.34333333333333327,0.9074999999999989],[-0.2934375000000001,-0.3131481481481482,0.9240999999940342],[-0.26135416666666667,-0.27999999999999997,0.9435000000000002],[-0.22927083333333337,-0.24685185185185188,0.957499999999996],[-0.22927083333333337,-0.24685185185185188,0.9741999999880733],[-0.20364583333333333,-0.20537037037037034,0.9907999999821158],[-0.21885416666666668,-0.18629629629629635,1.0073999999761583],[-0.2634375,-0.14500000000000002,1.0259999999999962],[-0.2942708333333333,-0.08907407407407411,1.040799999982113],[-0.2942708333333333,-0.08907407407407411,1.0573999999761554],[-0.32395833333333335,-0.03462962962962971,1.07409999999404],[-0.3476041666666667,0.012777777777777735,1.0948999999761568],[-0.37124999999999997,0.06018518518518518,1.1099999999999994],[-0.37218749999999995,0.11629629629629622,1.124099999994037],[-0.37218749999999995,0.11629629629629622,1.1407999999821143],[-0.3711458333333333,0.15185185185185185,1.1573999999761568],[-0.37614583333333335,0.17240740740740745,1.1740999999940342],[-0.3890625,0.1911111111111112,1.1926999999880792],[-0.4053125,0.22962962962962963,1.207399999976154],[-0.4053125,0.22962962962962963,1.2239999999999966],[-0.32135416666666666,0.25462962962962965,1.2407999999821158],[-0.2263541666666666,0.2857407407407407,1.2575000000000003],[-0.13250000000000003,0.3183333333333333,1.2765999999940334],[-0.0733333333333333,0.32981481481481484,1.2906999999880782],[-0.01416666666666669,0.3412962962962962,1.3074999999999974],[0.04802083333333336,0.2996296296296295,1.3265999999940377],[0.09812500000000005,0.27037037037037037,1.346299999982115],[0.12770833333333323,0.2601851851851852,1.360299999982118],[0.16520833333333323,0.2518518518518518,1.3754999999999953],[0.22104166666666672,0.2611111111111111,1.3907999999821143],[0.20604166666666662,0.2616666666666666,1.4073999999761568],[0.17697916666666677,0.23259259259259263,1.4240999999940342],[0.14791666666666667,0.2035185185185185,1.4432999999821163],[0.1430208333333333,0.17037037037037037,1.457399999976154],[0.13812499999999991,0.13722222222222227,1.4740999999940385],[0.12750000000000009,0.16314814814814818,1.4911999999880763],[0.12895833333333329,0.1766666666666666,1.5073999999761583],[0.12895833333333329,0.1766666666666666,1.5241999999880775],[0.146875,0.15,1.5408999999761548],[0.17604166666666668,0.14055555555555552,1.5588999999761555],[0.1868750000000001,0.11351851851851844,1.57409999999404],[0.19375,0.075,1.5906999999880753],[0.20364583333333333,0.059999999999999956,1.609499999999997],[0.18979166666666672,0.032407407407407406,1.6239999999999952],[0.1712500000000001,-0.0025925925925925505,1.644199999988075],[0.18010416666666676,-0.007592592592592635,1.6599999999999966],[0.17572916666666671,-0.046481481481481526,1.6779999999999973],[0.17927083333333324,-0.08462962962962961,1.694499999999998],[0.1803124999999999,-0.09000000000000004,1.7101999999880775],[0.1701041666666666,-0.11259259259259262,1.7242999999821151],[0.15166666666666656,-0.13703703703703704,1.7430999999940369],[0.13718750000000005,-0.15,1.7580999999940374],[0.12270833333333328,-0.16296296296296298,1.7773999999761543],[0.11677083333333324,-0.1655555555555555,1.7921999999880782],[0.11083333333333342,-0.16814814814814816,1.8084999999999951],[0.07916666666666666,-0.22685185185185186,1.82409999999404],[0.044062499999999956,-0.2574074074074074,1.840999999999994],[0.011562500000000024,-0.26481481481481484,1.8596999999880737],[-0.008333333333333333,-0.26888888888888884,1.874099999994037],[-0.008333333333333333,-0.26888888888888884,1.8909999999999982],[-0.040625,-0.2683333333333333,1.9073999999761568],[-0.052187500000000026,-0.28277777777777774,1.9239999999999995],[-0.06375000000000004,-0.2972222222222222,1.9435000000000002],[-0.06541666666666662,-0.27518518518518525,1.958999999999996],[-0.06541666666666662,-0.27518518518518525,1.9740999999940385],[-0.051874999999999956,-0.25092592592592594,1.9908999999761576],[-0.03260416666666662,-0.22962962962962963,2.0075000000000003],[0.004062499999999977,-0.1925925925925926,2.0273999999761543],[0.049374999999999974,-0.15777777777777777,2.044699999988076],[0.06885416666666658,-0.14648148148148152,2.0596999999880765],[0.08885416666666662,-0.13148148148148148,2.075499999999998],[0.11541666666666663,-0.1366666666666667,2.0911999999880777],[0.10770833333333343,-0.09259259259259259,2.1104999999999947],[0.1,-0.0485185185185186,2.124099999994037],[0.08239583333333324,-0.04092592592592597,2.1407999999821143],[0.07104166666666671,-0.01907407407407399,2.1577999999821174],[0.05395833333333329,0.005740740740740783,2.1740999999940342],[0.016145833333333335,0.023333333333333376,2.1940999999940374],[-0.02166666666666662,0.04092592592592597,2.2110999999940333],[-0.05541666666666671,0.05907407407407403,2.226799999982113],[-0.08968750000000002,0.07351851851851861,2.242199999988074],[-0.09302083333333329,0.10333333333333325,2.261399999976156],[-0.07458333333333336,0.1007407407407407,2.2778999999761567],[-0.07458333333333336,0.1007407407407407,2.290699999988078],[-0.07385416666666664,0.09648148148148153,2.3073999999761554],[-0.08427083333333331,0.10981481481481473,2.325399999976156],[-0.10093749999999997,0.1088888888888888,2.340799999982117],[-0.11312500000000002,0.11999999999999991,2.3603999999761527],[-0.12364583333333339,0.14870370370370362,2.378],[-0.12708333333333333,0.16296296296296298,2.3943999999761587],[-0.11927083333333334,0.17629629629629637,2.410399999976157],[-0.07677083333333339,0.19444444444444445,2.4293999999761553],[-0.07677083333333339,0.19444444444444445,2.4406999999880767],[-0.07645833333333331,0.2014814814814814,2.457499999999996],[-0.07645833333333331,0.2014814814814814,2.477599999994034],[-0.059583333333333384,0.19722222222222222,2.4910999999940344],[-0.01895833333333338,0.21962962962962967,2.5117999999821166],[-0.01895833333333338,0.21962962962962967,2.5311999999880754],[0.024166666666666715,0.1896296296296296,2.540999999999997],[0.05697916666666671,0.15925925925925927,2.5604999999999976],[0.0853125000000001,0.11685185185185189,2.581099999994038],[0.0853125000000001,0.11685185185185189,2.590899999976152],[0.12979166666666658,0.07962962962962963,2.6076999999880783],[0.18239583333333323,0.040370370370370286,2.6244999999999976],[0.2146874999999999,0.015000000000000043,2.6438999999761563],[0.20604166666666662,-0.018888888888888972,2.6600999999940385],[0.21541666666666662,-0.05944444444444449,2.6778999999761552],[0.19500000000000003,-0.09000000000000004,2.6976999999880746],[0.19500000000000003,-0.09000000000000004,2.707599999994038],[0.17822916666666658,-0.15388888888888894,2.724299999982115],[0.1818749999999999,-0.1787037037037037,2.7410999999940344],[0.18260416666666662,-0.18870370370370365,2.7627999999821142],[0.18260416666666662,-0.18870370370370365,2.774399999976154],[0.19656250000000006,-0.22518518518518524,2.7912999999821153],[0.19656250000000006,-0.22518518518518524,2.8075999999940393],[0.18416666666666662,-0.24833333333333338,2.8275999999940353],[0.18416666666666662,-0.24833333333333338,2.840799999982117],[0.17739583333333328,-0.23870370370370367,2.8574999999999946],[0.19093749999999995,-0.24296296296296294,2.8781999999880767],[0.203125,-0.2131481481481482,2.8951999999880798],[0.19041666666666662,-0.1816666666666667,2.911099999994036],[0.19635416666666666,-0.16018518518518518,2.9278999999761552],[0.20520833333333333,-0.11851851851851852,2.944399999976156],[0.20895833333333325,-0.09666666666666665,2.9586999999880774],[0.2259375000000001,-0.08925925925925923,2.9755999999940386],[0.23562500000000006,-0.024074074074074074,2.9932999999821135],[0.2555208333333333,0.022592592592592678,3.007599999994035],[0.22770833333333323,0.001851851851851852,3.026899999976152],[0.19989583333333344,-0.018888888888888972,3.0426999999880735],[0.18895833333333342,-0.062037037037037036,3.0605999999940394],[0.20791666666666658,-0.08499999999999996,3.0765999999940377],[0.22125000000000009,-0.10648148148148148,3.094699999988073],[0.22197916666666656,-0.1398148148148148,3.1111999999880737],[0.22197916666666656,-0.1398148148148148,3.124099999994037],[0.23093750000000005,-0.14388888888888887,3.1407999999821143],[0.21687500000000004,-0.14666666666666664,3.157399999976157],[0.196875,-0.18074074074074079,3.1739999999999995],[0.18677083333333327,-0.21648148148148144,3.193699999988077],[0.20354166666666676,-0.20111111111111116,3.2116999999880775],[0.2265625,-0.19685185185185186,3.226799999982113],[0.24031250000000004,-0.20055555555555557,3.243099999994037],[0.25364583333333335,-0.22740740740740742,3.2575000000000003],[0.2671875,-0.24444444444444444,3.2780999999940335],[0.2671875,-0.24444444444444444,3.290799999982113],[0.2847916666666668,-0.26648148148148143,3.3073999999761554],[0.2921875,-0.2992592592592593,3.323999999999998],[0.2921875,-0.2992592592592593,3.3406999999880753],[0.2998958333333334,-0.31203703703703706,3.3573999999761526],[0.3076041666666666,-0.3248148148148148,3.3739999999999952],[0.32666666666666655,-0.3483333333333334,3.3947999999821192],[0.34572916666666675,-0.3718518518518519,3.413499999999999],[0.34572916666666675,-0.3718518518518519,3.4240999999940342],[0.3532291666666666,-0.37296296296296294,3.4406999999880767],[0.35218749999999993,-0.36259259259259263,3.457499999999996],[0.34562499999999996,-0.33296296296296296,3.4739999999999966],[0.34562499999999996,-0.33296296296296296,3.490699999988074],[0.33583333333333343,-0.2933333333333333,3.5079999999999956],[0.3310416666666666,-0.25203703703703706,3.5274999999999963],[0.3310416666666666,-0.25203703703703706,3.540799999982113],[0.3226041666666667,-0.2131481481481482,3.5573999999761554],[0.3329166666666666,-0.18851851851851853,3.5757999999821166],[0.3352083333333333,-0.18833333333333332,3.596399999976157],[0.3352083333333333,-0.18833333333333332,3.6074999999999946],[0.3203125,-0.16740740740740737,3.6239999999999952],[0.3203125,-0.16740740740740737,3.6407999999821143],[0.3054166666666667,-0.14648148148148152,3.657399999976157],[0.22364583333333338,-0.14333333333333328,3.6740999999940342],[0.14333333333333323,-0.12777777777777777,3.6946999999880745],[0.058749999999999976,-0.10537037037037032,3.7116999999880775],[-0.01083333333333331,-0.09611111111111106,3.726799999982113],[-0.10197916666666665,-0.08962962962962959,3.7439999999999998],[-0.19416666666666665,-0.08370370370370368,3.762899999976156],[-0.2829166666666667,-0.08722222222222227,3.778299999982117],[-0.2829166666666667,-0.08722222222222227,3.790799999982113],[-0.36177083333333326,-0.06777777777777783,3.8074999999999974],[-0.43562500000000004,-0.06851851851851852,3.823999999999998],[-0.5046875,-0.049074074074074076,3.8411999999880777],[-0.4940625,-0.03833333333333342,3.8597999999821155],[-0.4763541666666667,-0.0514814814814814,3.8744999999999976],[-0.45281250000000006,-0.06962962962962967,3.8923999999761563],[-0.3977083333333333,-0.11592592592592597,3.907299999982115],[-0.3164583333333333,-0.1594444444444445,3.928099999994039],[-0.2352083333333333,-0.202962962962963,3.9440999999940374],[-0.16749999999999995,-0.22370370370370374,3.958899999976154],[-0.16749999999999995,-0.22370370370370374,3.9740999999940385],[-0.1016666666666667,-0.24296296296296294,3.9907999999821158],[-0.02510416666666669,-0.29074074074074074,4.007599999994035],[0.03218749999999997,-0.30999999999999994,4.027199999988078],[0.10510416666666676,-0.34444444444444444,4.043599999994036],[0.1837500000000001,-0.3646296296296296,4.070799999982114],[0.1837500000000001,-0.3646296296296296,4.082199999988077],[0.2538541666666667,-0.372037037037037,4.0958999999761545],[0.28239583333333323,-0.26240740740740737,4.1106999999880784],[0.2972916666666668,-0.14944444444444444,4.125399999976153],[0.28968749999999993,-0.04425925925925922,4.140899999976156],[0.2961458333333333,0.04055555555555551,4.157399999976157],[0.3026041666666667,0.12537037037037047,4.1739999999999995],[0.26687500000000003,0.2131481481481482,4.193299999982116],[0.23510416666666673,0.2868518518518518,4.208799999982119],[0.22104166666666672,0.38425925925925924,4.225599999994039],[0.1962500000000001,0.46351851851851844,4.240799999982116],[0.1453125,0.5385185185185184,4.257299999982116],[0.109375,0.5307407407407407,4.276999999999994],[0.109375,0.5307407407407407,4.290799999982113],[0.07864583333333333,0.5131481481481482,4.307399999976155],[0.0912499999999999,0.5179629629629631,4.32409999999404],[0.08770833333333337,0.4911111111111112,4.340699999988075],[0.08781249999999995,0.41333333333333344,4.360099999994034],[0.12270833333333328,0.42018518518518516,4.374299999982114],[0.16458333333333333,0.35407407407407415,4.39219999998808],[0.1794791666666666,0.3168518518518519,4.407399999976157],[0.18135416666666657,0.24833333333333338,4.4239999999999995],[0.2107291666666666,0.16055555555555565,4.4438999999761535],[0.22135416666666666,0.07777777777777778,4.45769999998808],[0.22135416666666666,0.07777777777777778,4.4740999999940385],[0.2195833333333333,-0.0012962962962963806,4.490799999982116],[0.2118750000000001,-0.09518518518518514,4.507799999982119],[0.2118750000000001,-0.09518518518518514,4.525599999994036],[0.23239583333333325,-0.15407407407407406,4.540799999982113],[0.26197916666666665,-0.18666666666666668,4.557499999999997],[0.28125,-0.2668518518518519,4.577199999988075],[0.2890625,-0.3001851851851852,4.595799999982113],[0.2890625,-0.3001851851851852,4.607399999976153],[0.2743750000000001,-0.35648148148148145,4.624099999994037],[0.2743750000000001,-0.35648148148148145,4.640799999982114],[0.28104166666666663,-0.37833333333333335,4.657399999976157],[0.29885416666666675,-0.3685185185185185,4.674099999994034],[0.3037499999999999,-0.3411111111111111,4.693699999988077],[0.3037499999999999,-0.3411111111111111,4.707399999976154],[0.31583333333333335,-0.30759259259259264,4.7240999999940385],[0.3132291666666667,-0.2911111111111111,4.740899999976158],[0.2904166666666666,-0.285,4.757399999976158],[0.2548958333333334,-0.2542592592592593,4.776299999982115],[0.2548958333333334,-0.2542592592592593,4.790799999982113]]","[0.00019999998807662678,0.0519999999999996,0.057399999976155414,0.07409999999403993,0.09169999998807299,0.1109999999999971,0.12579999998211377,0.14429999998211684,0.1615999999940385,0.1795999999940392,0.1933999999761582,0.20749999999999602,0.2240999999940385,0.24079999998211576,0.2576999999880769,0.2765999999940334,0.2912999999821153,0.30749999999999744,0.32409999999403993,0.3456999999880779,0.36019999998807606,0.3754999999999953,0.3919999999999959,0.40739999997615683,0.42409999999403425,0.4440999999940374,0.457499999999996,0.4741999999880733,0.4906999999880739,0.5075000000000003,0.5240999999940357,0.5407999999821129,0.5603999999761555,0.5743999999761584,0.5906999999880753,0.6099999999999994,0.624199999988079,0.644199999988075,0.6591999999880755,0.6740999999940342,0.6931999999880745,0.707399999976154,0.7240999999940385,0.7409999999999997,0.7573999999761583,0.7763999999761566,0.7907999999821129,0.8075999999940393,0.8240999999940399,0.8407999999821172,0.8601999999880761,0.8744999999999976,0.8922999999821144,0.9074999999999989,0.9240999999940342,0.9435000000000002,0.957499999999996,0.9741999999880733,0.9907999999821158,1.0073999999761583,1.0259999999999962,1.040799999982113,1.0573999999761554,1.07409999999404,1.0948999999761568,1.1099999999999994,1.124099999994037,1.1407999999821143,1.1573999999761568,1.1740999999940342,1.1926999999880792,1.207399999976154,1.2239999999999966,1.2407999999821158,1.2575000000000003,1.2765999999940334,1.2906999999880782,1.3074999999999974,1.3265999999940377,1.346299999982115,1.360299999982118,1.3754999999999953,1.3907999999821143,1.4073999999761568,1.4240999999940342,1.4432999999821163,1.457399999976154,1.4740999999940385,1.4911999999880763,1.5073999999761583,1.5241999999880775,1.5408999999761548,1.5588999999761555,1.57409999999404,1.5906999999880753,1.609499999999997,1.6239999999999952,1.644199999988075,1.6599999999999966,1.6779999999999973,1.694499999999998,1.7101999999880775,1.7242999999821151,1.7430999999940369,1.7580999999940374,1.7773999999761543,1.7921999999880782,1.8084999999999951,1.82409999999404,1.840999999999994,1.8596999999880737,1.874099999994037,1.8909999999999982,1.9073999999761568,1.9239999999999995,1.9435000000000002,1.958999999999996,1.9740999999940385,1.9908999999761576,2.0075000000000003,2.0273999999761543,2.044699999988076,2.0596999999880765,2.075499999999998,2.0911999999880777,2.1104999999999947,2.124099999994037,2.1407999999821143,2.1577999999821174,2.1740999999940342,2.1940999999940374,2.2110999999940333,2.226799999982113,2.242199999988074,2.261399999976156,2.2778999999761567,2.290699999988078,2.3073999999761554,2.325399999976156,2.340799999982117,2.3603999999761527,2.378,2.3943999999761587,2.410399999976157,2.4293999999761553,2.4406999999880767,2.457499999999996,2.477599999994034,2.4910999999940344,2.5117999999821166,2.5311999999880754,2.540999999999997,2.5604999999999976,2.581099999994038,2.590899999976152,2.6076999999880783,2.6244999999999976,2.6438999999761563,2.6600999999940385,2.6778999999761552,2.6976999999880746,2.707599999994038,2.724299999982115,2.7410999999940344,2.7627999999821142,2.774399999976154,2.7912999999821153,2.8075999999940393,2.8275999999940353,2.840799999982117,2.8574999999999946,2.8781999999880767,2.8951999999880798,2.911099999994036,2.9278999999761552,2.944399999976156,2.9586999999880774,2.9755999999940386,2.9932999999821135,3.007599999994035,3.026899999976152,3.0426999999880735,3.0605999999940394,3.0765999999940377,3.094699999988073,3.1111999999880737,3.124099999994037,3.1407999999821143,3.157399999976157,3.1739999999999995,3.193699999988077,3.2116999999880775,3.226799999982113,3.243099999994037,3.2575000000000003,3.2780999999940335,3.290799999982113,3.3073999999761554,3.323999999999998,3.3406999999880753,3.3573999999761526,3.3739999999999952,3.3947999999821192,3.413499999999999,3.4240999999940342,3.4406999999880767,3.457499999999996,3.4739999999999966,3.490699999988074,3.5079999999999956,3.5274999999999963,3.540799999982113,3.5573999999761554,3.5757999999821166,3.596399999976157,3.6074999999999946,3.6239999999999952,3.6407999999821143,3.657399999976157,3.6740999999940342,3.6946999999880745,3.7116999999880775,3.726799999982113,3.7439999999999998,3.762899999976156,3.778299999982117,3.790799999982113,3.8074999999999974,3.823999999999998,3.8411999999880777,3.8597999999821155,3.8744999999999976,3.8923999999761563,3.907299999982115,3.928099999994039,3.9440999999940374,3.958899999976154,3.9740999999940385,3.9907999999821158,4.007599999994035,4.027199999988078,4.043599999994036,4.070799999982114,4.082199999988077,4.0958999999761545,4.1106999999880784,4.125399999976153,4.140899999976156,4.157399999976157,4.1739999999999995,4.193299999982116,4.208799999982119,4.225599999994039,4.240799999982116,4.257299999982116,4.276999999999994,4.290799999982113,4.307399999976155,4.32409999999404,4.340699999988075,4.360099999994034,4.374299999982114,4.39219999998808,4.407399999976157,4.4239999999999995,4.4438999999761535,4.45769999998808,4.4740999999940385,4.490799999982116,4.507799999982119,4.525599999994036,4.540799999982113,4.557499999999997,4.577199999988075,4.595799999982113,4.607399999976153,4.624099999994037,4.640799999982114,4.657399999976157,4.674099999994034,4.693699999988077,4.707399999976154,4.7240999999940385,4.740899999976158,4.757399999976158,4.776299999982115,4.790799999982113]","[1732691758406,1732691758447,1732691758452,1732691758469,1732691758487,1732691758506,1732691758521,1732691758539,1732691758557,1732691758574,1732691758588,1732691758602,1732691758619,1732691758636,1732691758653,1732691758671,1732691758686,1732691758702,1732691758719,1732691758741,1732691758755,1732691758770,1732691758787,1732691758802,1732691758819,1732691758839,1732691758852,1732691758869,1732691758886,1732691758902,1732691758919,1732691758936,1732691758955,1732691758969,1732691758986,1732691759005,1732691759019,1732691759039,1732691759054,1732691759069,1732691759088,1732691759102,1732691759119,1732691759136,1732691759152,1732691759171,1732691759186,1732691759202,1732691759219,1732691759236,1732691759255,1732691759269,1732691759287,1732691759302,1732691759319,1732691759338,1732691759352,1732691759369,1732691759386,1732691759402,1732691759421,1732691759436,1732691759452,1732691759469,1732691759490,1732691759505,1732691759519,1732691759536,1732691759552,1732691759569,1732691759588,1732691759602,1732691759619,1732691759636,1732691759652,1732691759671,1732691759686,1732691759702,1732691759721,1732691759741,1732691759755,1732691759770,1732691759786,1732691759802,1732691759819,1732691759838,1732691759852,1732691759869,1732691759886,1732691759902,1732691759919,1732691759936,1732691759954,1732691759969,1732691759986,1732691760004,1732691760019,1732691760039,1732691760055,1732691760073,1732691760089,1732691760105,1732691760119,1732691760138,1732691760153,1732691760172,1732691760187,1732691760203,1732691760219,1732691760236,1732691760255,1732691760269,1732691760286,1732691760302,1732691760319,1732691760338,1732691760354,1732691760369,1732691760386,1732691760402,1732691760422,1732691760440,1732691760455,1732691760470,1732691760486,1732691760505,1732691760519,1732691760536,1732691760553,1732691760569,1732691760589,1732691760606,1732691760622,1732691760637,1732691760656,1732691760673,1732691760686,1732691760702,1732691760720,1732691760736,1732691760755,1732691760773,1732691760789,1732691760805,1732691760824,1732691760836,1732691760852,1732691760872,1732691760886,1732691760907,1732691760926,1732691760936,1732691760955,1732691760976,1732691760986,1732691761003,1732691761019,1732691761039,1732691761055,1732691761073,1732691761093,1732691761102,1732691761119,1732691761136,1732691761158,1732691761169,1732691761186,1732691761202,1732691761222,1732691761236,1732691761252,1732691761273,1732691761290,1732691761306,1732691761323,1732691761339,1732691761354,1732691761371,1732691761388,1732691761403,1732691761422,1732691761438,1732691761455,1732691761471,1732691761490,1732691761506,1732691761519,1732691761536,1732691761552,1732691761569,1732691761589,1732691761607,1732691761622,1732691761638,1732691761652,1732691761673,1732691761686,1732691761702,1732691761719,1732691761736,1732691761752,1732691761769,1732691761790,1732691761808,1732691761819,1732691761836,1732691761852,1732691761869,1732691761886,1732691761904,1732691761923,1732691761937,1732691761953,1732691761972,1732691761992,1732691762003,1732691762020,1732691762037,1732691762053,1732691762070,1732691762091,1732691762108,1732691762123,1732691762140,1732691762159,1732691762174,1732691762187,1732691762203,1732691762220,1732691762237,1732691762256,1732691762270,1732691762288,1732691762303,1732691762324,1732691762340,1732691762355,1732691762370,1732691762387,1732691762403,1732691762423,1732691762439,1732691762467,1732691762478,1732691762492,1732691762507,1732691762521,1732691762537,1732691762553,1732691762570,1732691762589,1732691762605,1732691762621,1732691762637,1732691762653,1732691762673,1732691762687,1732691762703,1732691762720,1732691762737,1732691762756,1732691762770,1732691762788,1732691762803,1732691762820,1732691762840,1732691762853,1732691762870,1732691762887,1732691762904,1732691762921,1732691762937,1732691762953,1732691762973,1732691762992,1732691763003,1732691763020,1732691763037,1732691763053,1732691763070,1732691763089,1732691763103,1732691763120,1732691763137,1732691763153,1732691763172,1732691763187]","[[1124.2,407.4],[1124.2,407.4],[1124.2,407.4],[1119.6,402.2],[1128,398],[1132.8,386.8],[1120.7,382.6],[1112.9,370.7],[1112.9,370.7],[1118.2,358.2],[1142.6,352.9],[1157.3,345],[1164.6,338.1],[1143.5,338.6],[1125.9,328],[1126.8,323.6],[1114.1,334.3],[1114.1,334.3],[1108.1,343.6],[1106.1,349.4],[1079,339.2],[1055.9,322.6],[1032.8,310.4],[1023.5,298],[1019.5,285.8],[1015.7,283.7],[1015.7,283.7],[992.5,269],[964.1,271.7],[930.7,277.7],[930.7,277.7],[863.9,295.1],[826.2,334.3],[795.5,376.6],[746.1,413.5],[693.3,449.1],[639.8,455.9],[586.3,462.7],[533.3,475],[509.7,463.9],[522.2,447.9],[522.2,447.9],[541.3,428.1],[541.1,398.4],[517.1,375.1],[511.8,352.8],[511.8,352.8],[516.1,327.3],[558.2,331.8],[600.3,336.3],[631.3,330.4],[655.3,322.4],[650.3,338.8],[662.4,354.6],[678.3,370.9],[709.1,388.8],[739.9,406.7],[739.9,406.7],[764.5,429.1],[749.9,439.4],[707.1,461.7],[677.5,491.9],[677.5,491.9],[649,521.3],[626.3,546.9],[603.6,572.5],[602.7,602.8],[602.7,602.8],[603.7,622],[598.9,633.1],[586.5,643.2],[570.9,664],[570.9,664],[651.5,677.5],[742.7,694.3],[832.8,711.9],[889.6,718.1],[946.4,724.3],[1006.1,701.8],[1054.2,686],[1082.6,680.5],[1118.6,676],[1172.2,681],[1157.8,681.3],[1129.9,665.6],[1102,649.9],[1097.3,632],[1092.6,614.1],[1082.4,628.1],[1083.8,635.4],[1083.8,635.4],[1101,621],[1129,615.9],[1139.4,601.3],[1146,580.5],[1155.5,572.4],[1142.2,557.5],[1124.4,538.6],[1132.9,535.9],[1128.7,514.9],[1132.1,494.3],[1133.1,491.4],[1123.3,479.2],[1105.6,466],[1091.7,459],[1077.8,452],[1072.1,450.6],[1066.4,449.2],[1036,417.5],[1002.3,401],[971.1,397],[952,394.8],[952,394.8],[921,395.1],[909.9,387.3],[898.8,379.5],[897.2,391.4],[897.2,391.4],[910.2,404.5],[928.7,416],[963.9,436],[1007.4,454.8],[1026.1,460.9],[1045.3,469],[1070.8,466.2],[1063.4,490],[1056,513.8],[1039.1,517.9],[1028.2,529.7],[1011.8,543.1],[975.5,552.6],[939.2,562.1],[906.8,571.9],[873.9,579.7],[870.7,595.8],[888.4,594.4],[888.4,594.4],[889.1,592.1],[879.1,599.3],[863.1,598.8],[851.4,604.8],[841.3,620.3],[838,628],[845.5,635.2],[886.3,645],[886.3,645],[886.6,648.8],[886.6,648.8],[902.8,646.5],[941.8,658.6],[941.8,658.6],[983.2,642.4],[1014.7,626],[1041.9,603.1],[1041.9,603.1],[1084.6,583],[1135.1,561.8],[1166.1,548.1],[1157.8,529.8],[1166.8,507.9],[1147.2,491.4],[1147.2,491.4],[1131.1,456.9],[1134.6,443.5],[1135.3,438.1],[1135.3,438.1],[1148.7,418.4],[1148.7,418.4],[1136.8,405.9],[1136.8,405.9],[1130.3,411.1],[1143.3,408.8],[1155,424.9],[1142.8,441.9],[1148.5,453.5],[1157,476],[1160.6,487.8],[1176.9,491.8],[1186.2,527],[1205.3,552.2],[1178.6,541],[1151.9,529.8],[1141.4,506.5],[1159.6,494.1],[1172.4,482.5],[1173.1,464.5],[1173.1,464.5],[1181.7,462.3],[1168.2,460.8],[1149,442.4],[1139.3,423.1],[1155.4,431.4],[1177.5,433.7],[1190.7,431.7],[1203.5,417.2],[1216.5,408],[1216.5,408],[1233.4,396.1],[1240.5,378.4],[1240.5,378.4],[1247.9,371.5],[1255.3,364.6],[1273.6,351.9],[1291.9,339.2],[1291.9,339.2],[1299.1,338.6],[1298.1,344.2],[1291.8,360.2],[1291.8,360.2],[1282.4,381.6],[1277.8,403.9],[1277.8,403.9],[1269.7,424.9],[1279.6,438.2],[1281.8,438.3],[1281.8,438.3],[1267.5,449.6],[1267.5,449.6],[1253.2,460.9],[1174.7,462.6],[1097.6,471],[1016.4,483.1],[949.6,488.1],[862.1,491.6],[773.6,494.8],[688.4,492.9],[688.4,492.9],[612.7,503.4],[541.8,503],[475.5,513.5],[485.7,519.3],[502.7,512.2],[525.3,502.4],[578.2,477.4],[656.2,453.9],[734.2,430.4],[799.2,419.2],[799.2,419.2],[862.4,408.8],[935.9,383],[990.9,372.6],[1060.9,354],[1136.4,343.1],[1136.4,343.1],[1203.7,339.1],[1231.1,398.3],[1245.4,459.3],[1238.1,516.1],[1244.3,561.9],[1250.5,607.7],[1216.2,655.1],[1185.7,694.9],[1172.2,747.5],[1148.4,790.3],[1099.5,830.8],[1065,826.6],[1065,826.6],[1035.5,817.1],[1047.6,819.7],[1044.2,805.2],[1044.3,763.2],[1077.8,766.9],[1118,731.2],[1132.3,711.1],[1134.1,674.1],[1162.3,626.7],[1172.5,582],[1172.5,582],[1170.8,539.3],[1163.4,488.6],[1163.4,488.6],[1183.1,456.8],[1211.5,439.2],[1230,395.9],[1237.5,377.9],[1237.5,377.9],[1223.4,347.5],[1223.4,347.5],[1229.8,335.7],[1246.9,341],[1251.6,355.8],[1251.6,355.8],[1263.2,373.9],[1260.7,382.8],[1238.8,386.1],[1204.7,402.7],[1204.7,402.7]]","[-0.142,0.42599999999999993]","[0.142,0.42599999999999993]","[0.42599999999999993,0.42599999999999993]","[-0.42599999999999993,-0.142]","[-0.42599999999999993,-0.42599999999999993]","[-0.42599999999999993,0.142]","[-0.142,-0.142]","[0.142,-0.142]","[0.42599999999999993,-0.142]","[-0.142,-0.42599999999999993]","[0.142,-0.42599999999999993]","[0.42599999999999993,-0.42599999999999993]","[-0.142,0.142]","[0.142,0.142]","[0.42599999999999993,0.142]",0,0,0,0,1,4,Laptop,25,20,8,1,60,4,1,60,3
,,,,,,,,,,,,,,,,,,,39,001,2024-11-27_15h15.17.807,Attention_exp_legacy,2023.1.0,Win32,59.88023952,,,,,,,,,,,[0.109375],[0.42407407407407405],[1],[0],[0],[2.1800999999940416],"[""Metro_label""]",Metro_label,2,3.1996,"[[0.109375,0.42592592592592593],[0.109375,0.42592592592592593],[0.109375,0.42592592592592593],[0.109375,0.42592592592592593],[0.109375,0.42592592592592593],[0.109375,0.42592592592592593],[0.109375,0.42592592592592593],[0.109375,0.42592592592592593],[0.109375,0.42592592592592593],[0.109375,0.42592592592592593],[0.109375,0.42592592592592593],[0.109375,0.42592592592592593],[0.109375,0.42592592592592593],[0.109375,0.42592592592592593],[0.109375,0.42592592592592593],[0.109375,0.42592592592592593],[0.109375,0.42592592592592593],[0.109375,0.42592592592592593],[0.109375,0.42592592592592593],[0.109375,0.42592592592592593],[0.109375,0.42592592592592593],[0.109375,0.42592592592592593],[0.109375,0.42592592592592593],[0.109375,0.42592592592592593],[0.109375,0.42592592592592593],[0.109375,0.42592592592592593],[0.109375,0.42592592592592593],[0.109375,0.42592592592592593],[0.109375,0.42592592592592593],[0.109375,0.42592592592592593],[0.109375,0.42592592592592593],[0.109375,0.42592592592592593],[0.109375,0.42592592592592593],[0.109375,0.42592592592592593],[0.109375,0.42592592592592593],[0.109375,0.42592592592592593],[0.109375,0.42592592592592593],[0.109375,0.42592592592592593],[0.109375,0.42592592592592593],[0.109375,0.42592592592592593],[0.109375,0.42592592592592593],[0.109375,0.42592592592592593],[0.109375,0.42592592592592593],[0.109375,0.42592592592592593],[0.109375,0.42592592592592593],[0.109375,0.42592592592592593],[0.109375,0.42592592592592593],[0.109375,0.42592592592592593],[0.109375,0.42592592592592593],[0.109375,0.42592592592592593],[0.109375,0.42592592592592593],[0.109375,0.42592592592592593],[0.109375,0.42592592592592593],[0.109375,0.42592592592592593],[0.109375,0.42592592592592593],[0.109375,0.42592592592592593],[0.109375,0.42592592592592593],[0.109375,0.42592592592592593],[0.109375,0.42592592592592593],[0.109375,0.42592592592592593],[0.109375,0.42592592592592593],[0.109375,0.42592592592592593],[0.109375,0.42592592592592593],[0.109375,0.42592592592592593],[0.109375,0.42592592592592593],[0.109375,0.42592592592592593],[0.109375,0.42592592592592593],[0.109375,0.42592592592592593],[0.109375,0.42592592592592593],[0.109375,0.42592592592592593],[0.109375,0.42592592592592593],[0.109375,0.42592592592592593],[0.109375,0.42592592592592593],[0.109375,0.42592592592592593],[0.109375,0.42592592592592593],[0.109375,0.42592592592592593],[0.109375,0.42592592592592593],[0.109375,0.42592592592592593],[0.109375,0.42592592592592593],[0.109375,0.42592592592592593],[0.109375,0.42592592592592593],[0.109375,0.42592592592592593],[0.109375,0.42592592592592593],[0.109375,0.42592592592592593],[0.109375,0.42592592592592593],[0.109375,0.42592592592592593],[0.109375,0.42592592592592593],[0.109375,0.42592592592592593],[0.109375,0.42592592592592593],[0.109375,0.42592592592592593],[0.109375,0.42592592592592593],[0.109375,0.42592592592592593],[0.109375,0.42592592592592593],[0.109375,0.42592592592592593],[0.109375,0.42592592592592593],[0.109375,0.42592592592592593],[0.109375,0.42592592592592593],[0.109375,0.42592592592592593],[0.109375,0.42592592592592593],[0.109375,0.42407407407407405],[0.109375,0.42407407407407405],[0.109375,0.42407407407407405],[0.109375,0.42407407407407405],[0.109375,0.42407407407407405],[0.109375,0.42407407407407405],[0.109375,0.42407407407407405],[0.109375,0.42407407407407405],[0.109375,0.42407407407407405],[0.109375,0.42407407407407405],[0.109375,0.42407407407407405],[0.109375,0.42407407407407405],[0.109375,0.42407407407407405],[0.109375,0.42407407407407405],[0.109375,0.42407407407407405],[0.109375,0.42407407407407405],[0.109375,0.42407407407407405],[0.109375,0.42407407407407405],[0.109375,0.42407407407407405],[0.109375,0.42407407407407405],[0.109375,0.42407407407407405],[0.109375,0.42407407407407405],[0.109375,0.42407407407407405],[0.109375,0.42407407407407405],[0.109375,0.42407407407407405],[0.109375,0.42407407407407405],[0.109375,0.42407407407407405],[0.109375,0.42407407407407405],[0.109375,0.42407407407407405],[0.109375,0.42407407407407405],[0.109375,0.42407407407407405],[0.109375,0.42407407407407405],[0.109375,0.42407407407407405],[0.109375,0.42407407407407405],[0.109375,0.42407407407407405],[0.109375,0.42407407407407405],[0.109375,0.42407407407407405],[0.109375,0.42407407407407405],[0.109375,0.42407407407407405],[0.109375,0.42407407407407405],[0.109375,0.42407407407407405],[0.109375,0.42407407407407405],[0.109375,0.42407407407407405],[0.109375,0.42407407407407405],[0.109375,0.42407407407407405],[0.109375,0.42407407407407405],[0.109375,0.42407407407407405],[0.109375,0.42407407407407405],[0.109375,0.42407407407407405],[0.109375,0.42407407407407405],[0.109375,0.42407407407407405],[0.109375,0.42407407407407405],[0.109375,0.42407407407407405],[0.109375,0.42407407407407405],[0.109375,0.42407407407407405],[0.109375,0.42407407407407405],[0.109375,0.42407407407407405],[0.109375,0.42407407407407405],[0.109375,0.42407407407407405],[0.109375,0.42407407407407405],[0.109375,0.42407407407407405],[0.109375,0.42407407407407405],[0.109375,0.42407407407407405],[0.109375,0.42407407407407405],[0.109375,0.42407407407407405],[0.109375,0.42407407407407405],[0.109375,0.42407407407407405],[0.109375,0.42407407407407405],[0.109375,0.42407407407407405],[0.109375,0.42407407407407405],[0.109375,0.42407407407407405],[0.109375,0.42407407407407405],[0.109375,0.42407407407407405],[0.109375,0.42407407407407405],[0.109375,0.42407407407407405],[0.109375,0.42407407407407405],[0.109375,0.42407407407407405],[0.109375,0.42407407407407405],[0.109375,0.42407407407407405],[0.109375,0.42407407407407405],[0.109375,0.42407407407407405],[0.109375,0.42407407407407405],[0.109375,0.42407407407407405],[0.109375,0.42407407407407405],[0.109375,0.42407407407407405],[0.109375,0.42407407407407405],[0.109375,0.42407407407407405],[0.109375,0.42407407407407405],[0.109375,0.42407407407407405],[0.109375,0.42407407407407405],[0.109375,0.42407407407407405],[0.109375,0.42407407407407405],[0.109375,0.42407407407407405],[0.109375,0.42407407407407405]]","[[0.25020833333333337,-0.49074074074074076],[0.25447916666666665,-0.6048148148148148],[0.27281250000000007,-0.7744444444444444],[0.2709374999999999,-0.7537037037037037],[0.25416666666666665,-0.7044444444444444],[0.27927083333333325,-0.659074074074074],[0.2453125,-0.6246296296296296],[0.24416666666666675,-0.5757407407407407],[0.24416666666666675,-0.5757407407407407],[0.2537499999999999,-0.5612962962962963],[0.2537499999999999,-0.5612962962962963],[0.27395833333333336,-0.5512962962962963],[0.2778125000000001,-0.46703703703703703],[0.2671875,-0.4318518518518518],[0.2704166666666666,-0.36796296296296294],[0.27531249999999996,-0.38185185185185183],[0.27979166666666655,-0.40611111111111114],[0.27979166666666655,-0.40611111111111114],[0.2704166666666666,-0.45314814814814813],[0.2842708333333334,-0.45629629629629626],[0.2842708333333334,-0.45629629629629626],[0.2883333333333333,-0.4733333333333334],[0.29052083333333345,-0.5109259259259259],[0.2693749999999999,-0.5061111111111112],[0.2693749999999999,-0.5061111111111112],[0.22802083333333342,-0.5644444444444444],[0.22270833333333329,-0.5922222222222222],[0.2224999999999999,-0.5964814814814815],[0.2241666666666667,-0.6244444444444445],[0.2241666666666667,-0.6244444444444445],[0.23479166666666676,-0.6046296296296296],[0.20583333333333323,-0.6166666666666667],[0.16177083333333328,-0.6359259259259259],[0.115625,-0.6177777777777779],[0.06979166666666667,-0.5703703703703704],[0.03864583333333336,-0.562962962962963],[0.014791666666666713,-0.529074074074074],[-0.043229166666666666,-0.5161111111111111],[-0.043229166666666666,-0.5161111111111111],[-0.10197916666666665,-0.4987037037037037],[-0.10197916666666665,-0.4987037037037037],[-0.15135416666666662,-0.4751851851851852],[-0.190625,-0.5112962962962964],[-0.190625,-0.5112962962962964],[-0.16333333333333327,-0.44518518518518513],[-0.16333333333333327,-0.44518518518518513],[-0.16614583333333333,-0.4124074074074074],[-0.12781250000000005,-0.42000000000000004],[-0.08427083333333331,-0.43],[-0.04645833333333336,-0.42388888888888887],[-0.008645833333333287,-0.4177777777777778],[0.04125000000000002,-0.3957407407407407],[0.08677083333333328,-0.4016666666666666],[0.1478125000000001,-0.3566666666666667],[0.153125,-0.267037037037037],[0.15208333333333332,-0.2644444444444445],[0.15104166666666666,-0.2183333333333333],[0.13020833333333334,-0.1618518518518518],[0.13020833333333334,-0.1618518518518518],[0.11989583333333324,-0.10499999999999998],[0.10395833333333329,-0.07314814814814814],[0.09031250000000005,-0.03685185185185181],[0.084375,0.0014814814814813973],[0.06531250000000005,0.04407407407407399],[0.06531250000000005,0.04407407407407399],[0.030520833333333285,0.05388888888888893],[0.022812499999999975,0.038703703703703664],[-0.0171875,0.07592592592592592],[-0.0171875,0.07592592592592592],[-0.023958333333333335,0.06814814814814807],[-0.0375,0.07166666666666675],[-0.05416666666666667,0.08129629629629626],[-0.06145833333333333,0.10185185185185185],[-0.08614583333333338,0.1398148148148148],[-0.11083333333333331,0.17777777777777778],[-0.09010416666666667,0.2411111111111112],[-0.07833333333333338,0.2796296296296296],[-0.06760416666666665,0.3096296296296297],[-0.04822916666666662,0.32259259259259265],[-0.009583333333333381,0.3814814814814815],[-0.009583333333333381,0.3814814814814815],[0.02374999999999995,0.42296296296296293],[0.04677083333333331,0.4662962962962962],[0.05239583333333329,0.48259259259259263],[0.07312500000000005,0.4770370370370371],[0.08145833333333338,0.49166666666666664],[0.057500000000000044,0.4766666666666666],[0.03312499999999995,0.4766666666666666],[0.03312499999999995,0.4766666666666666],[0.010000000000000024,0.4816666666666667],[0.010000000000000024,0.4816666666666667],[-0.013125000000000024,0.4866666666666666],[-0.058333333333333334,0.44074074074074077],[-0.10291666666666661,0.4024074074074073],[-0.15041666666666664,0.35055555555555545],[-0.1875,0.33611111111111114],[-0.2141666666666667,0.32166666666666677],[-0.22291666666666668,0.2712962962962963],[-0.23166666666666663,0.22092592592592583],[-0.23166666666666663,0.22092592592592583],[-0.19979166666666662,0.16796296296296304],[-0.14958333333333335,0.14907407407407408],[-0.10697916666666671,0.11907407407407399],[-0.10697916666666671,0.11907407407407399],[-0.05364583333333333,0.1235185185185186],[0.005312500000000024,0.10611111111111103],[0.06489583333333329,0.0962962962962963],[0.12895833333333329,0.07537037037037045],[0.18260416666666662,0.0544444444444444],[0.18260416666666662,0.0544444444444444],[0.21593749999999995,0.07666666666666662],[0.21593749999999995,0.07666666666666662],[0.25791666666666657,0.08814814814814818],[0.25791666666666657,0.08814814814814818],[0.2752083333333334,0.07481481481481478],[0.30270833333333325,0.020555555555555598],[0.3398958333333333,-0.02833333333333325],[0.3711458333333333,-0.09981481481481477],[0.3961458333333333,-0.15703703703703706],[0.4055208333333333,-0.2074074074074074],[0.41739583333333335,-0.25703703703703706],[0.4317708333333333,-0.2581481481481481],[0.4609375,-0.2866666666666667],[0.4609375,-0.2866666666666667],[0.4873958333333334,-0.3374074074074074],[0.4929166666666667,-0.3472222222222222],[0.4783333333333334,-0.33666666666666667],[0.4588541666666667,-0.29444444444444445],[0.43125,-0.23592592592592587],[0.3963541666666667,-0.16277777777777774],[0.3963541666666667,-0.16277777777777774],[0.3770833333333333,-0.09648148148148153],[0.3770833333333333,-0.09648148148148153],[0.34833333333333344,-0.04814814814814815],[0.3224999999999999,-0.06851851851851852],[0.2926041666666668,-0.07981481481481485],[0.25677083333333334,-0.05814814814814811],[0.25677083333333334,-0.05814814814814811],[0.23885416666666662,-0.034999999999999955],[0.20906250000000004,-0.03314814814814811],[0.19645833333333323,-0.0544444444444444],[0.16885416666666658,-0.05351851851851848],[0.15343749999999995,-0.059814814814814835],[0.15343749999999995,-0.059814814814814835],[0.13322916666666676,-0.055740740740740785],[0.1040625000000001,-0.029814814814814856],[0.0853125000000001,0.020740740740740823],[0.09427083333333333,0.02296296296296292],[0.10322916666666657,0.025185185185185227],[0.10322916666666657,0.025185185185185227],[0.11541666666666663,0.02833333333333325],[0.10906250000000005,0.03759259259259251],[0.08833333333333329,0.04407407407407399],[0.12958333333333344,0.006296296296296254],[0.16593749999999996,-0.03888888888888889],[0.16593749999999996,-0.03888888888888889],[0.21364583333333323,-0.13944444444444445],[0.21364583333333323,-0.13944444444444445],[0.28125,-0.24351851851851852],[0.34479166666666666,-0.3520370370370371],[0.3736458333333334,-0.4103703703703704],[0.3785416666666668,-0.4335185185185186],[0.37687499999999996,-0.4809259259259259],[0.37687499999999996,-0.4809259259259259],[0.3967708333333334,-0.4383333333333333],[0.3967708333333334,-0.4383333333333333],[0.40083333333333326,-0.442037037037037],[0.3609375,-0.4235185185185185],[0.3210416666666667,-0.40499999999999997],[0.2730208333333332,-0.33351851851851855],[0.22354166666666658,-0.26240740740740737],[0.16541666666666663,-0.17703703703703708],[0.11833333333333323,-0.10259259259259255],[0.10614583333333343,-0.06851851851851852],[0.09635416666666667,-0.06018518518518518],[0.10833333333333334,-0.09259259259259259],[0.13083333333333325,-0.08907407407407411],[0.15187499999999995,-0.0948148148148148],[0.17291666666666666,-0.10055555555555558],[0.17291666666666666,-0.10055555555555558],[0.19479166666666667,-0.1425925925925926],[0.20177083333333337,-0.13703703703703704],[0.20562500000000009,-0.14574074074074073],[0.1943749999999999,-0.13907407407407413],[0.17437500000000009,-0.14907407407407408],[0.17437500000000009,-0.14907407407407408],[0.15458333333333343,-0.09611111111111106],[0.12666666666666657,-0.09518518518518514],[0.12572916666666673,-0.07703703703703708],[0.12625000000000006,-0.03814814814814819],[0.12625000000000006,-0.03814814814814819],[0.1267708333333334,0.0007407407407406986],[0.12166666666666662,0.060370370370370414]]","[[0.25020833333333337,-0.49074074074074076,0.0001999999880837322],[0.25447916666666665,-0.6048148148148148,0.01940000000596598],[0.27281250000000007,-0.7744444444444444,0.03900000000000148],[0.2709374999999999,-0.7537037037037037,0.052699999988078616],[0.25416666666666665,-0.7044444444444444,0.06900000000000261],[0.27927083333333325,-0.659074074074074,0.08619999998808225],[0.2453125,-0.6246296296296296,0.10240000000596439],[0.24416666666666675,-0.5757407407407407,0.12180000001192326],[0.24416666666666675,-0.5757407407407407,0.13309999999404454],[0.2537499999999999,-0.5612962962962963,0.14969999998807992],[0.2537499999999999,-0.5612962962962963,0.16630000001192258],[0.27395833333333336,-0.5512962962962963,0.18299999999999983],[0.2778125000000001,-0.46703703703703703,0.19990000000596098],[0.2671875,-0.4318518518518518,0.2196999999880802],[0.2704166666666666,-0.36796296296296294,0.23700000000000188],[0.27531249999999996,-0.38185185185185183,0.2525999999940396],[0.27979166666666655,-0.40611111111111114,0.2698000000119265],[0.27979166666666655,-0.40611111111111114,0.2831999999880779],[0.2704166666666666,-0.45314814814814813,0.29980000001192053],[0.2842708333333334,-0.45629629629629626,0.31659999999403965],[0.2842708333333334,-0.45629629629629626,0.3330000000000055],[0.2883333333333333,-0.4733333333333334,0.34969999998808277],[0.29052083333333345,-0.5109259259259259,0.3666999999880787],[0.2693749999999999,-0.5061111111111112,0.3861999999880794],[0.2693749999999999,-0.5061111111111112,0.3996999999880799],[0.22802083333333342,-0.5644444444444444,0.4163000000119226],[0.22270833333333329,-0.5922222222222222,0.43340000000596035],[0.2224999999999999,-0.5964814814814815,0.4496999999880842],[0.2241666666666667,-0.6244444444444445,0.46930000001191985],[0.2241666666666667,-0.6244444444444445,0.48309999999403885],[0.23479166666666676,-0.6046296296296296,0.4995999999940395],[0.20583333333333323,-0.6166666666666667,0.5165000000000006],[0.16177083333333328,-0.6359259259259259,0.5330000000000013],[0.115625,-0.6177777777777779,0.5519999999999996],[0.06979166666666667,-0.5703703703703704,0.568000000000005],[0.03864583333333336,-0.562962962962963,0.5858000000119219],[0.014791666666666713,-0.529074074074074,0.6030999999940434],[-0.043229166666666666,-0.5161111111111111,0.6214000000059627],[-0.043229166666666666,-0.5161111111111111,0.6330999999940445],[-0.10197916666666665,-0.4987037037037037,0.6496999999880799],[-0.10197916666666665,-0.4987037037037037,0.6664000000059644],[-0.15135416666666662,-0.4751851851851852,0.6829999999999998],[-0.190625,-0.5112962962962964,0.7044000000059611],[-0.190625,-0.5112962962962964,0.7171999999880825],[-0.16333333333333327,-0.44518518518518513,0.7330999999940389],[-0.16333333333333327,-0.44518518518518513,0.7496999999880813],[-0.16614583333333333,-0.4124074074074074,0.7664000000059659],[-0.12781250000000005,-0.42000000000000004,0.7833000000119199],[-0.08427083333333331,-0.43,0.8023000000119254],[-0.04645833333333336,-0.42388888888888887,0.8168000000119235],[-0.008645833333333287,-0.4177777777777778,0.8331999999880821],[0.04125000000000002,-0.3957407407407407,0.8495999999940409],[0.08677083333333328,-0.4016666666666666,0.8663000000119254],[0.1478125000000001,-0.3566666666666667,0.8865000000000052],[0.153125,-0.267037037037037,0.903599999994043],[0.15208333333333332,-0.2644444444444445,0.9203000000119204],[0.15104166666666666,-0.2183333333333333,0.936699999988079],[0.13020833333333334,-0.1618518518518518,0.955199999988082],[0.13020833333333334,-0.1618518518518518,0.9663000000119197],[0.11989583333333324,-0.10499999999999998,0.9830000000000041],[0.10395833333333329,-0.07314814814814814,1.0013000000119234],[0.09031250000000005,-0.03685185185185181,1.0175999999940402],[0.084375,0.0014814814814813973,1.0330000000000013],[0.06531250000000005,0.04407407407407399,1.053400000005965],[0.06531250000000005,0.04407407407407399,1.0663000000119212],[0.030520833333333285,0.05388888888888893,1.0830000000000055],[0.022812499999999975,0.038703703703703664,1.1020000000000039],[-0.0171875,0.07592592592592592,1.1215000000000046],[-0.0171875,0.07592592592592592,1.1329000000059608],[-0.023958333333333335,0.06814814814814807,1.1495999999940452],[-0.0375,0.07166666666666675,1.1704000000059622],[-0.05416666666666667,0.08129629629629626,1.1863000000119257],[-0.06145833333333333,0.10185185185185185,1.2055000000000007],[-0.08614583333333338,0.1398148148148148,1.2196999999880802],[-0.11083333333333331,0.17777777777777778,1.2346999999880808],[-0.09010416666666667,0.2411111111111112,1.2510999999940395],[-0.07833333333333338,0.2796296296296296,1.266300000011924],[-0.06760416666666665,0.3096296296296297,1.2873000000119248],[-0.04822916666666662,0.32259259259259265,1.303300000011923],[-0.009583333333333381,0.3814814814814815,1.318800000011926],[-0.009583333333333381,0.3814814814814815,1.3330000000000055],[0.02374999999999995,0.42296296296296293,1.3496999999880828],[0.04677083333333331,0.4662962962962962,1.366599999994044],[0.05239583333333329,0.48259259259259263,1.3865000000000052],[0.07312500000000005,0.4770370370370371,1.4033000000119245],[0.08145833333333338,0.49166666666666664,1.4191999999880807],[0.057500000000000044,0.4766666666666666,1.4355000000000047],[0.03312499999999995,0.4766666666666666,1.455400000005966],[0.03312499999999995,0.4766666666666666,1.4664000000059616],[0.010000000000000024,0.4816666666666667,1.483000000000004],[0.010000000000000024,0.4816666666666667,1.4995999999940395],[-0.013125000000000024,0.4866666666666666,1.516300000011924],[-0.058333333333333334,0.44074074074074077,1.53330000001192],[-0.10291666666666661,0.4024074074074073,1.5519999999999996],[-0.15041666666666664,0.35055555555555545,1.5678000000119212],[-0.1875,0.33611111111111114,1.5863000000119243],[-0.2141666666666667,0.32166666666666677,1.601900000005962],[-0.22291666666666668,0.2712962962962963,1.6215000000000046],[-0.23166666666666663,0.22092592592592583,1.6368000000119238],[-0.23166666666666663,0.22092592592592583,1.6524000000059615],[-0.19979166666666662,0.16796296296296304,1.6663000000119226],[-0.14958333333333335,0.14907407407407408,1.6855999999940394],[-0.10697916666666671,0.11907407407407399,1.7040000000000006],[-0.10697916666666671,0.11907407407407399,1.7164000000059616],[-0.05364583333333333,0.1235185185185186,1.7330999999940389],[0.005312500000000024,0.10611111111111103,1.7529000000059654],[0.06489583333333329,0.0962962962962963,1.7693000000119241],[0.12895833333333329,0.07537037037037045,1.7881999999880804],[0.18260416666666662,0.0544444444444444,1.8035999999940415],[0.18260416666666662,0.0544444444444444,1.8163000000119212],[0.21593749999999995,0.07666666666666662,1.8330999999940403],[0.21593749999999995,0.07666666666666662,1.8498000000119248],[0.25791666666666657,0.08814814814814818,1.8664000000059602],[0.25791666666666657,0.08814814814814818,1.8831999999880793],[0.2752083333333334,0.07481481481481478,1.89969999998808],[0.30270833333333325,0.020555555555555598,1.918199999988083],[0.3398958333333333,-0.02833333333333325,1.9344000000059651],[0.3711458333333333,-0.09981481481481477,1.9495999999940423],[0.3961458333333333,-0.15703703703703706,1.9695999999940383],[0.4055208333333333,-0.2074074074074074,1.9860000000000042],[0.41739583333333335,-0.25703703703703706,2.003300000011926],[0.4317708333333333,-0.2581481481481481,2.019300000011924],[0.4609375,-0.2866666666666667,2.038800000011925],[0.4609375,-0.2866666666666667,2.0495999999940437],[0.4873958333333334,-0.3374074074074074,2.066300000011921],[0.4929166666666667,-0.3472222222222222,2.083300000011924],[0.4783333333333334,-0.33666666666666667,2.100199999988078],[0.4588541666666667,-0.29444444444444445,2.120300000011923],[0.43125,-0.23592592592592587,2.136500000000005],[0.3963541666666667,-0.16277777777777774,2.1510000000000034],[0.3963541666666667,-0.16277777777777774,2.1663000000119226],[0.3770833333333333,-0.09648148148148153,2.183],[0.3770833333333333,-0.09648148148148153,2.199800000011926],[0.34833333333333344,-0.04814814814814815,2.2163000000119197],[0.3224999999999999,-0.06851851851851852,2.233000000000004],[0.2926041666666668,-0.07981481481481485,2.2511999999880814],[0.25677083333333334,-0.05814814814814811,2.270099999994045],[0.25677083333333334,-0.05814814814814811,2.2830000000000013],[0.23885416666666662,-0.034999999999999955,2.2998000000119205],[0.20906250000000004,-0.03314814814814811,2.317699999988079],[0.19645833333333323,-0.0544444444444444,2.3370000000000033],[0.16885416666666658,-0.05351851851851848,2.3530000000000015],[0.15343749999999995,-0.059814814814814835,2.3724000000059604],[0.15343749999999995,-0.059814814814814835,2.3830000000000027],[0.13322916666666676,-0.055740740740740785,2.39969999998808],[0.1040625000000001,-0.029814814814814856,2.4193000000119227],[0.0853125000000001,0.020740740740740823,2.434400000005965],[0.09427083333333333,0.02296296296296292,2.449800000011926],[0.10322916666666657,0.025185185185185227,2.469900000005964],[0.10322916666666657,0.025185185185185227,2.483000000000004],[0.11541666666666663,0.02833333333333325,2.4995999999940395],[0.10906250000000005,0.03759259259259251,2.5186999999880797],[0.08833333333333329,0.04407407407407399,2.533199999988078],[0.12958333333333344,0.006296296296296254,2.552599999994044],[0.16593749999999996,-0.03888888888888889,2.5715000000000003],[0.16593749999999996,-0.03888888888888889,2.5908000000119245],[0.21364583333333323,-0.13944444444444445,2.608800000011925],[0.21364583333333323,-0.13944444444444445,2.6161999999880834],[0.28125,-0.24351851851851852,2.6330000000000027],[0.34479166666666666,-0.3520370370370371,2.64969999998808],[0.3736458333333334,-0.4103703703703704,2.66990000000596],[0.3785416666666668,-0.4335185185185186,2.6846999999880836],[0.37687499999999996,-0.4809259259259259,2.699800000011926],[0.37687499999999996,-0.4809259259259259,2.7164000000059616],[0.3967708333333334,-0.4383333333333333,2.7333000000119227],[0.3967708333333334,-0.4383333333333333,2.7495999999940395],[0.40083333333333326,-0.442037037037037,2.766300000011924],[0.3609375,-0.4235185185185185,2.7829000000059594],[0.3210416666666667,-0.40499999999999997,2.80240000000596],[0.2730208333333332,-0.33351851851851855,2.816300000011921],[0.22354166666666658,-0.26240740740740737,2.8330000000000055],[0.16541666666666663,-0.17703703703703708,2.849599999994041],[0.11833333333333323,-0.10259259259259255,2.8661999999880834],[0.10614583333333343,-0.06851851851851852,2.885800000011926],[0.09635416666666667,-0.06018518518518518,2.89969999998808],[0.10833333333333334,-0.09259259259259259,2.9163000000119226],[0.13083333333333325,-0.08907407407407411,2.933],[0.15187499999999995,-0.0948148148148148,2.9495999999940423],[0.17291666666666666,-0.10055555555555558,2.9694000000059617],[0.17291666666666666,-0.10055555555555558,2.9829000000059622],[0.19479166666666667,-0.1425925925925926,2.9996999999880813],[0.20177083333333337,-0.13703703703703704,3.016199999988082],[0.20562500000000009,-0.14574074074074073,3.0329000000059594],[0.1943749999999999,-0.13907407407407413,3.051699999988081],[0.17437500000000009,-0.14907407407407408,3.0668000000119235],[0.17437500000000009,-0.14907407407407408,3.0830999999940403],[0.15458333333333343,-0.09611111111111106,3.0996999999880828],[0.12666666666666657,-0.09518518518518514,3.1163000000119254],[0.12572916666666673,-0.07703703703703708,3.135699999988084],[0.12625000000000006,-0.03814814814814819,3.149599999994045],[0.12625000000000006,-0.03814814814814819,3.1663000000119226],[0.1267708333333334,0.0007407407407406986,3.183],[0.12166666666666662,0.060370370370370414,3.1995999999940423]]","[0.0001999999880837322,0.01940000000596598,0.03900000000000148,0.052699999988078616,0.06900000000000261,0.08619999998808225,0.10240000000596439,0.12180000001192326,0.13309999999404454,0.14969999998807992,0.16630000001192258,0.18299999999999983,0.19990000000596098,0.2196999999880802,0.23700000000000188,0.2525999999940396,0.2698000000119265,0.2831999999880779,0.29980000001192053,0.31659999999403965,0.3330000000000055,0.34969999998808277,0.3666999999880787,0.3861999999880794,0.3996999999880799,0.4163000000119226,0.43340000000596035,0.4496999999880842,0.46930000001191985,0.48309999999403885,0.4995999999940395,0.5165000000000006,0.5330000000000013,0.5519999999999996,0.568000000000005,0.5858000000119219,0.6030999999940434,0.6214000000059627,0.6330999999940445,0.6496999999880799,0.6664000000059644,0.6829999999999998,0.7044000000059611,0.7171999999880825,0.7330999999940389,0.7496999999880813,0.7664000000059659,0.7833000000119199,0.8023000000119254,0.8168000000119235,0.8331999999880821,0.8495999999940409,0.8663000000119254,0.8865000000000052,0.903599999994043,0.9203000000119204,0.936699999988079,0.955199999988082,0.9663000000119197,0.9830000000000041,1.0013000000119234,1.0175999999940402,1.0330000000000013,1.053400000005965,1.0663000000119212,1.0830000000000055,1.1020000000000039,1.1215000000000046,1.1329000000059608,1.1495999999940452,1.1704000000059622,1.1863000000119257,1.2055000000000007,1.2196999999880802,1.2346999999880808,1.2510999999940395,1.266300000011924,1.2873000000119248,1.303300000011923,1.318800000011926,1.3330000000000055,1.3496999999880828,1.366599999994044,1.3865000000000052,1.4033000000119245,1.4191999999880807,1.4355000000000047,1.455400000005966,1.4664000000059616,1.483000000000004,1.4995999999940395,1.516300000011924,1.53330000001192,1.5519999999999996,1.5678000000119212,1.5863000000119243,1.601900000005962,1.6215000000000046,1.6368000000119238,1.6524000000059615,1.6663000000119226,1.6855999999940394,1.7040000000000006,1.7164000000059616,1.7330999999940389,1.7529000000059654,1.7693000000119241,1.7881999999880804,1.8035999999940415,1.8163000000119212,1.8330999999940403,1.8498000000119248,1.8664000000059602,1.8831999999880793,1.89969999998808,1.918199999988083,1.9344000000059651,1.9495999999940423,1.9695999999940383,1.9860000000000042,2.003300000011926,2.019300000011924,2.038800000011925,2.0495999999940437,2.066300000011921,2.083300000011924,2.100199999988078,2.120300000011923,2.136500000000005,2.1510000000000034,2.1663000000119226,2.183,2.199800000011926,2.2163000000119197,2.233000000000004,2.2511999999880814,2.270099999994045,2.2830000000000013,2.2998000000119205,2.317699999988079,2.3370000000000033,2.3530000000000015,2.3724000000059604,2.3830000000000027,2.39969999998808,2.4193000000119227,2.434400000005965,2.449800000011926,2.469900000005964,2.483000000000004,2.4995999999940395,2.5186999999880797,2.533199999988078,2.552599999994044,2.5715000000000003,2.5908000000119245,2.608800000011925,2.6161999999880834,2.6330000000000027,2.64969999998808,2.66990000000596,2.6846999999880836,2.699800000011926,2.7164000000059616,2.7333000000119227,2.7495999999940395,2.766300000011924,2.7829000000059594,2.80240000000596,2.816300000011921,2.8330000000000055,2.849599999994041,2.8661999999880834,2.885800000011926,2.89969999998808,2.9163000000119226,2.933,2.9495999999940423,2.9694000000059617,2.9829000000059622,2.9996999999880813,3.016199999988082,3.0329000000059594,3.051699999988081,3.0668000000119235,3.0830999999940403,3.0996999999880828,3.1163000000119254,3.135699999988084,3.149599999994045,3.1663000000119226,3.183,3.1995999999940423]","[1732691764206,1732691764223,1732691764242,1732691764256,1732691764272,1732691764290,1732691764306,1732691764325,1732691764337,1732691764353,1732691764370,1732691764387,1732691764403,1732691764423,1732691764441,1732691764456,1732691764473,1732691764487,1732691764503,1732691764520,1732691764536,1732691764553,1732691764570,1732691764590,1732691764603,1732691764620,1732691764637,1732691764653,1732691764673,1732691764687,1732691764703,1732691764720,1732691764736,1732691764756,1732691764772,1732691764789,1732691764807,1732691764825,1732691764837,1732691764853,1732691764870,1732691764887,1732691764908,1732691764921,1732691764937,1732691764953,1732691764970,1732691764987,1732691765006,1732691765020,1732691765037,1732691765053,1732691765070,1732691765090,1732691765107,1732691765124,1732691765140,1732691765159,1732691765170,1732691765187,1732691765205,1732691765221,1732691765236,1732691765257,1732691765270,1732691765287,1732691765306,1732691765325,1732691765337,1732691765353,1732691765374,1732691765390,1732691765409,1732691765423,1732691765438,1732691765455,1732691765470,1732691765491,1732691765507,1732691765522,1732691765537,1732691765553,1732691765570,1732691765590,1732691765607,1732691765623,1732691765639,1732691765659,1732691765670,1732691765687,1732691765703,1732691765720,1732691765737,1732691765755,1732691765771,1732691765790,1732691765805,1732691765825,1732691765840,1732691765856,1732691765870,1732691765889,1732691765907,1732691765920,1732691765937,1732691765956,1732691765973,1732691765992,1732691766007,1732691766020,1732691766037,1732691766053,1732691766070,1732691766087,1732691766103,1732691766122,1732691766138,1732691766153,1732691766173,1732691766189,1732691766207,1732691766223,1732691766242,1732691766253,1732691766270,1732691766287,1732691766304,1732691766324,1732691766340,1732691766354,1732691766370,1732691766387,1732691766403,1732691766420,1732691766437,1732691766455,1732691766474,1732691766486,1732691766503,1732691766521,1732691766540,1732691766557,1732691766576,1732691766587,1732691766603,1732691766623,1732691766638,1732691766653,1732691766673,1732691766687,1732691766703,1732691766722,1732691766737,1732691766756,1732691766775,1732691766794,1732691766812,1732691766820,1732691766836,1732691766853,1732691766873,1732691766888,1732691766903,1732691766920,1732691766937,1732691766953,1732691766970,1732691766986,1732691767006,1732691767020,1732691767036,1732691767053,1732691767070,1732691767089,1732691767103,1732691767120,1732691767136,1732691767153,1732691767173,1732691767186,1732691767203,1732691767220,1732691767236,1732691767255,1732691767270,1732691767287,1732691767303,1732691767320,1732691767339,1732691767353,1732691767370,1732691767387,1732691767403]","[[1200.2,275],[1204.3,213.4],[1221.9,121.8],[1220.1,133],[1204,159.6],[1228.1,184.1],[1195.5,202.7],[1194.4,229.1],[1194.4,229.1],[1203.6,236.9],[1203.6,236.9],[1223,242.3],[1226.7,287.8],[1216.5,306.8],[1219.6,341.3],[1224.3,333.8],[1228.6,320.7],[1228.6,320.7],[1219.6,295.3],[1232.9,293.6],[1232.9,293.6],[1236.8,284.4],[1238.9,264.1],[1218.6,266.7],[1218.6,266.7],[1178.9,235.2],[1173.8,220.2],[1173.6,217.9],[1175.2,202.8],[1175.2,202.8],[1185.4,213.5],[1157.6,207],[1115.3,196.6],[1071,206.4],[1027,232],[997.1,236],[974.2,254.3],[918.5,261.3],[918.5,261.3],[862.1,270.7],[862.1,270.7],[814.7,283.4],[777,263.9],[777,263.9],[803.2,299.6],[803.2,299.6],[800.5,317.3],[837.3,313.2],[879.1,307.8],[915.4,311.1],[951.7,314.4],[999.6,326.3],[1043.3,323.1],[1101.9,347.4],[1107,395.8],[1106,397.2],[1105,422.1],[1085,452.6],[1085,452.6],[1075.1,483.3],[1059.8,500.5],[1046.7,520.1],[1041,540.8],[1022.7,563.8],[1022.7,563.8],[989.3,569.1],[981.9,560.9],[943.5,581],[943.5,581],[937,576.8],[924,578.7],[908,583.9],[901,595],[877.3,615.5],[853.6,636],[873.5,670.2],[884.8,691],[895.1,707.2],[913.7,714.2],[950.8,746],[950.8,746],[982.8,768.4],[1004.9,791.8],[1010.3,800.6],[1030.2,797.6],[1038.2,805.5],[1015.2,797.4],[991.8,797.4],[991.8,797.4],[969.6,800.1],[969.6,800.1],[947.4,802.8],[904,778],[861.2,757.3],[815.6,729.3],[780,721.5],[754.4,713.7],[746,686.5],[737.6,659.3],[737.6,659.3],[768.2,630.7],[816.4,620.5],[857.3,604.3],[857.3,604.3],[908.5,606.7],[965.1,597.3],[1022.3,592],[1083.8,580.7],[1135.3,569.4],[1135.3,569.4],[1167.3,581.4],[1167.3,581.4],[1207.6,587.6],[1207.6,587.6],[1224.2,580.4],[1250.6,551.1],[1286.3,524.7],[1316.3,486.1],[1340.3,455.2],[1349.3,428],[1360.7,401.2],[1374.5,400.6],[1402.5,385.2],[1402.5,385.2],[1427.9,357.8],[1433.2,352.5],[1419.2,358.2],[1400.5,381],[1374,412.6],[1340.5,452.1],[1340.5,452.1],[1322,487.9],[1322,487.9],[1294.4,514],[1269.6,503],[1240.9,496.9],[1206.5,508.6],[1206.5,508.6],[1189.3,521.1],[1160.7,522.1],[1148.6,510.6],[1122.1,511.1],[1107.3,507.7],[1107.3,507.7],[1087.9,509.9],[1059.9,523.9],[1041.9,551.2],[1050.5,552.4],[1059.1,553.6],[1059.1,553.6],[1070.8,555.3],[1064.7,560.3],[1044.8,563.8],[1084.4,543.4],[1119.3,519],[1119.3,519],[1165.1,464.7],[1165.1,464.7],[1230,408.5],[1291,349.9],[1318.7,318.4],[1323.4,305.9],[1321.8,280.3],[1321.8,280.3],[1340.9,303.3],[1340.9,303.3],[1344.8,301.3],[1306.5,311.3],[1268.2,321.3],[1222.1,359.9],[1174.6,398.3],[1118.8,444.4],[1073.6,484.6],[1061.9,503],[1052.5,507.5],[1064,490],[1085.6,491.9],[1105.8,488.8],[1126,485.7],[1126,485.7],[1147,463],[1153.7,466],[1157.4,461.3],[1146.6,464.9],[1127.4,459.5],[1127.4,459.5],[1108.4,488.1],[1081.6,488.6],[1080.7,498.4],[1081.2,519.4],[1081.2,519.4],[1081.7,540.4],[1076.8,572.6]]","[-0.142,0.42599999999999993]","[0.142,0.42599999999999993]","[0.42599999999999993,0.42599999999999993]","[-0.42599999999999993,-0.142]","[-0.42599999999999993,0.142]","[-0.42599999999999993,-0.42599999999999993]","[-0.142,-0.142]","[0.142,-0.142]","[0.42599999999999993,-0.142]","[-0.142,0.142]","[0.142,0.142]","[0.42599999999999993,0.142]","[-0.142,-0.42599999999999993]","[0.142,-0.42599999999999993]","[0.42599999999999993,-0.42599999999999993]",0,1,1,1,1,4,Laptop,20,40,8,2,70,4,2,70,5
