inst1_resp.keys,inst1_resp.rt,calibrationMouse.x,calibrationMouse.y,calibrationMouse.leftButton,calibrationMouse.midButton,calibrationMouse.rightButton,calibrationClick.x,calibrationClick.y,calibrationClick.leftButton,calibrationClick.midButton,calibrationClick.rightButton,calibrationClick.clicked_name,trialsc.thisRepN,trialsc.thisTrialN,trialsc.thisN,trialsc.thisIndex,trialsc.ran,calibration_x,calibration_y,participant,session,date,expName,psychopyVersion,OS,frameRate,ScreenRes_pixels,Camera_pixels,mouse_2.x,mouse_2.y,mouse_2.leftButton,mouse_2.midButton,mouse_2.rightButton,mouse_2.time,mouse_2.clicked_name,mouse.x,mouse.y,mouse.leftButton,mouse.midButton,mouse.rightButton,mouse.time,mouse.clicked_name,Choice,Trial,TrialDuration,MOUSE_GAZE,ET_GAZE,ET_GAZE_x_T,time,unixTime,ET_GAZE_NF,Loc_Bus_label,Loc_Metro_label,Loc_RH_label,Loc_Cost_label,Loc_Travel_label,Loc_Comfort_label,Loc_Bus_cost,Loc_Metro_cost,Loc_RH_cost,Loc_Bus_travel,Loc_Metro_travel,Loc_RH_travel,Loc_Bus_comfort,Loc_Metro_comfort,Loc_RH_comfort,trials.thisRepN,trials.thisTrialN,trials.thisN,trials.thisIndex,trials.ran,Block,Device,RH_cost,RH_travel_time,RH_Comfort,metro_cost,metro_travel_time,metro_Comfort,Bus_cost,Bus_travel_time,Bus_Comfort
space,0.569,-0.051041667,-0.340740741,1,0,0,0.670833333,0.662962963,1,0,0,calibration_square,0,0,0,19,1,0.67,0.67,36,001,2024-11-26_11h39.04.611,Attention_exp_legacy,2023.1.0,Win32,59.88023952,,,,,,,,,,,,,,,,,,,,,,,,,,,,,,,,,,,,,,,,,,,,,,,,,,,,,,,,
,,,,,,,0.332291667,0.009259259,1,0,0,calibration_square,0,1,1,16,1,0.33,0,36,001,2024-11-26_11h39.04.611,Attention_exp_legacy,2023.1.0,Win32,59.88023952,,,,,,,,,,,,,,,,,,,,,,,,,,,,,,,,,,,,,,,,,,,,,,,,,,,,,,,,
,,,,,,,-0.346875,-0.661111111,1,0,0,,0,2,2,4,1,-0.33,-0.67,36,001,2024-11-26_11h39.04.611,Attention_exp_legacy,2023.1.0,Win32,59.88023952,,,,,,,,,,,,,,,,,,,,,,,,,,,,,,,,,,,,,,,,,,,,,,,,,,,,,,,,
,,,,,,,-0.698958333,-0.346296296,1,0,0,,0,3,3,1,1,-0.67,-0.33,36,001,2024-11-26_11h39.04.611,Attention_exp_legacy,2023.1.0,Win32,59.88023952,,,,,,,,,,,,,,,,,,,,,,,,,,,,,,,,,,,,,,,,,,,,,,,,,,,,,,,,
,,,,,,,0.327083333,0.346296296,1,0,0,,0,4,4,17,1,0.33,0.33,36,001,2024-11-26_11h39.04.611,Attention_exp_legacy,2023.1.0,Win32,59.88023952,,,,,,,,,,,,,,,,,,,,,,,,,,,,,,,,,,,,,,,,,,,,,,,,,,,,,,,,
,,,,,,,0.011458333,-0.659259259,1,0,0,,0,5,5,9,1,0,-0.67,36,001,2024-11-26_11h39.04.611,Attention_exp_legacy,2023.1.0,Win32,59.88023952,,,,,,,,,,,,,,,,,,,,,,,,,,,,,,,,,,,,,,,,,,,,,,,,,,,,,,,,
,,,,,,,0.004166667,0.651851852,1,0,0,,0,6,6,13,1,0,0.67,36,001,2024-11-26_11h39.04.611,Attention_exp_legacy,2023.1.0,Win32,59.88023952,,,,,,,,,,,,,,,,,,,,,,,,,,,,,,,,,,,,,,,,,,,,,,,,,,,,,,,,
,,,,,,,-0.31875,0.325925926,1,0,0,,0,7,7,7,1,-0.33,0.33,36,001,2024-11-26_11h39.04.611,Attention_exp_legacy,2023.1.0,Win32,59.88023952,,,,,,,,,,,,,,,,,,,,,,,,,,,,,,,,,,,,,,,,,,,,,,,,,,,,,,,,
,,,,,,,0.653125,-0.674074074,1,0,0,,0,8,8,20,1,0.67,-0.67,36,001,2024-11-26_11h39.04.611,Attention_exp_legacy,2023.1.0,Win32,59.88023952,,,,,,,,,,,,,,,,,,,,,,,,,,,,,,,,,,,,,,,,,,,,,,,,,,,,,,,,
,,,,,,,0.002083333,-0.351851852,1,0,0,,0,9,9,10,1,0,-0.33,36,001,2024-11-26_11h39.04.611,Attention_exp_legacy,2023.1.0,Win32,59.88023952,,,,,,,,,,,,,,,,,,,,,,,,,,,,,,,,,,,,,,,,,,,,,,,,,,,,,,,,
,,,,,,,0.308333333,0.631481481,1,0,0,,0,10,10,18,1,0.33,0.67,36,001,2024-11-26_11h39.04.611,Attention_exp_legacy,2023.1.0,Win32,59.88023952,,,,,,,,,,,,,,,,,,,,,,,,,,,,,,,,,,,,,,,,,,,,,,,,,,,,,,,,
,,,,,,,0.348958333,-0.674074074,1,0,0,,0,11,11,14,1,0.33,-0.67,36,001,2024-11-26_11h39.04.611,Attention_exp_legacy,2023.1.0,Win32,59.88023952,,,,,,,,,,,,,,,,,,,,,,,,,,,,,,,,,,,,,,,,,,,,,,,,,,,,,,,,
,,,,,,,-0.326041667,-0.348148148,1,0,0,,0,12,12,5,1,-0.33,-0.33,36,001,2024-11-26_11h39.04.611,Attention_exp_legacy,2023.1.0,Win32,59.88023952,,,,,,,,,,,,,,,,,,,,,,,,,,,,,,,,,,,,,,,,,,,,,,,,,,,,,,,,
,,,,,,,0.319791667,-0.292592593,1,0,0,,0,13,13,15,1,0.33,-0.33,36,001,2024-11-26_11h39.04.611,Attention_exp_legacy,2023.1.0,Win32,59.88023952,,,,,,,,,,,,,,,,,,,,,,,,,,,,,,,,,,,,,,,,,,,,,,,,,,,,,,,,
,,,,,,,-0.682291667,-0.668518519,1,0,0,,0,14,14,0,1,-0.67,-0.67,36,001,2024-11-26_11h39.04.611,Attention_exp_legacy,2023.1.0,Win32,59.88023952,,,,,,,,,,,,,,,,,,,,,,,,,,,,,,,,,,,,,,,,,,,,,,,,,,,,,,,,
,,,,,,,-0.351041667,-0.009259259,1,0,0,,0,15,15,6,1,-0.33,0,36,001,2024-11-26_11h39.04.611,Attention_exp_legacy,2023.1.0,Win32,59.88023952,,,,,,,,,,,,,,,,,,,,,,,,,,,,,,,,,,,,,,,,,,,,,,,,,,,,,,,,
,,,,,,,-0.385416667,0.631481481,1,0,0,,0,16,16,8,1,-0.33,0.67,36,001,2024-11-26_11h39.04.611,Attention_exp_legacy,2023.1.0,Win32,59.88023952,,,,,,,,,,,,,,,,,,,,,,,,,,,,,,,,,,,,,,,,,,,,,,,,,,,,,,,,
,,,,,,,-0.659375,0.046296296,1,0,0,,0,17,17,2,1,-0.67,0,36,001,2024-11-26_11h39.04.611,Attention_exp_legacy,2023.1.0,Win32,59.88023952,,,,,,,,,,,,,,,,,,,,,,,,,,,,,,,,,,,,,,,,,,,,,,,,,,,,,,,,
,,,,,,,-0.695833333,0.340740741,1,0,0,,0,18,18,3,1,-0.67,0.33,36,001,2024-11-26_11h39.04.611,Attention_exp_legacy,2023.1.0,Win32,59.88023952,,,,,,,,,,,,,,,,,,,,,,,,,,,,,,,,,,,,,,,,,,,,,,,,,,,,,,,,
,,,,,,,0.027083333,0.003703704,1,0,0,,0,19,19,11,1,0,0,36,001,2024-11-26_11h39.04.611,Attention_exp_legacy,2023.1.0,Win32,59.88023952,,,,,,,,,,,,,,,,,,,,,,,,,,,,,,,,,,,,,,,,,,,,,,,,,,,,,,,,
,,,,,,,-0.001041667,0.362962963,1,0,0,,0,20,20,12,1,0,0.33,36,001,2024-11-26_11h39.04.611,Attention_exp_legacy,2023.1.0,Win32,59.88023952,,,,,,,,,,,,,,,,,,,,,,,,,,,,,,,,,,,,,,,,,,,,,,,,,,,,,,,,
,,,,,,,,,,,,,,,,,,,,36,001,2024-11-26_11h39.04.611,Attention_exp_legacy,2023.1.0,Win32,59.88023952,"[1920,1080]","[640,480]",[-0.03229166666666667],[-0.48148148148148145],[1],[0],[0],[1.0429999999999993],"[""StartButton""]",[0.3614583333333333],[0.4166666666666667],[1],[0],[0],[5.198600000001491],"[""RH_label""]",RH_label,1,6.2103,"[[-1,-0.9981481481481481],[-1,-0.9981481481481481],[-1,-0.9981481481481481],[-1,-0.9981481481481481],[-1,-0.9981481481481481],[-1,-0.9981481481481481],[-1,-0.9981481481481481],[-1,-0.9981481481481481],[-1,-0.9981481481481481],[-1,-0.9981481481481481],[-1,-0.9981481481481481],[-1,-0.9981481481481481],[-1,-0.9981481481481481],[-1,-0.9981481481481481],[-1,-0.9981481481481481],[-1,-0.9981481481481481],[-1,-0.9981481481481481],[-1,-0.9981481481481481],[-1,-0.9981481481481481],[-1,-0.9981481481481481],[-1,-0.9981481481481481],[-1,-0.9981481481481481],[-1,-0.9981481481481481],[-1,-0.9981481481481481],[-1,-0.9981481481481481],[-1,-0.9981481481481481],[-1,-0.9981481481481481],[-1,-0.9981481481481481],[-1,-0.9981481481481481],[-1,-0.9981481481481481],[-1,-0.9981481481481481],[-1,-0.9981481481481481],[-1,-0.9981481481481481],[-1,-0.9981481481481481],[-1,-0.9981481481481481],[-1,-0.9981481481481481],[-1,-0.9981481481481481],[-1,-0.9981481481481481],[-1,-0.9981481481481481],[-1,-0.9981481481481481],[-1,-0.9981481481481481],[-1,-0.9981481481481481],[-1,-0.9981481481481481],[-1,-0.9981481481481481],[-1,-0.9981481481481481],[-1,-0.9981481481481481],[-1,-0.9981481481481481],[-1,-0.9981481481481481],[-1,-0.9981481481481481],[-1,-0.9981481481481481],[-1,-0.9981481481481481],[-1,-0.9981481481481481],[-1,-0.9981481481481481],[-1,-0.9981481481481481],[-1,-0.9981481481481481],[-1,-0.9981481481481481],[-1,-0.9981481481481481],[-1,-0.9981481481481481],[-1,-0.9981481481481481],[-1,-0.9981481481481481],[-1,-0.9981481481481481],[-1,-0.9981481481481481],[-1,-0.9981481481481481],[-1,-0.9981481481481481],[-1,-0.9981481481481481],[-1,-0.9981481481481481],[-1,-0.9981481481481481],[-1,-0.9981481481481481],[-1,-0.9981481481481481],[-1,-0.9981481481481481],[-1,-0.9981481481481481],[-1,-0.9981481481481481],[-1,-0.9981481481481481],[-0.978125,-0.9703703703703703],[-0.9,-0.8648148148148148],[-0.8791666666666667,-0.8333333333333334],[-0.8583333333333333,-0.7962962962962963],[-0.8458333333333333,-0.762962962962963],[-0.84375,-0.7611111111111111],[-0.8364583333333333,-0.7444444444444445],[-0.8239583333333333,-0.725925925925926],[-0.790625,-0.7],[-0.7333333333333333,-0.6444444444444445],[-0.653125,-0.5722222222222222],[-0.5395833333333333,-0.4888888888888889],[-0.5052083333333334,-0.46111111111111114],[-0.45729166666666665,-0.42592592592592593],[-0.421875,-0.3888888888888889],[-0.4041666666666667,-0.37037037037037035],[-0.39375,-0.3611111111111111],[-0.3802083333333333,-0.3592592592592593],[-0.36770833333333336,-0.3592592592592593],[-0.36770833333333336,-0.3592592592592593],[-0.36770833333333336,-0.3592592592592593],[-0.36770833333333336,-0.3592592592592593],[-0.36770833333333336,-0.35185185185185186],[-0.36875,-0.3425925925925926],[-0.3729166666666667,-0.32407407407407407],[-0.37916666666666665,-0.32222222222222224],[-0.390625,-0.34074074074074073],[-0.4083333333333333,-0.45925925925925926],[-0.41458333333333336,-0.5166666666666667],[-0.41458333333333336,-0.5166666666666667],[-0.41458333333333336,-0.5166666666666667],[-0.41458333333333336,-0.5166666666666667],[-0.41458333333333336,-0.5166666666666667],[-0.41458333333333336,-0.5166666666666667],[-0.41458333333333336,-0.5166666666666667],[-0.41458333333333336,-0.5166666666666667],[-0.41458333333333336,-0.5166666666666667],[-0.41458333333333336,-0.5166666666666667],[-0.41458333333333336,-0.5166666666666667],[-0.41458333333333336,-0.5166666666666667],[-0.41458333333333336,-0.5166666666666667],[-0.41458333333333336,-0.5166666666666667],[-0.41458333333333336,-0.5166666666666667],[-0.41458333333333336,-0.5166666666666667],[-0.41458333333333336,-0.5166666666666667],[-0.41458333333333336,-0.5166666666666667],[-0.41458333333333336,-0.5166666666666667],[-0.41458333333333336,-0.5166666666666667],[-0.41458333333333336,-0.5166666666666667],[-0.41458333333333336,-0.5166666666666667],[-0.41458333333333336,-0.5166666666666667],[-0.41458333333333336,-0.5166666666666667],[-0.41458333333333336,-0.5166666666666667],[-0.41458333333333336,-0.5166666666666667],[-0.41458333333333336,-0.5166666666666667],[-0.41458333333333336,-0.5166666666666667],[-0.41458333333333336,-0.5166666666666667],[-0.41458333333333336,-0.5166666666666667],[-0.41458333333333336,-0.5166666666666667],[-0.41458333333333336,-0.5166666666666667],[-0.41458333333333336,-0.5166666666666667],[-0.41458333333333336,-0.5166666666666667],[-0.41458333333333336,-0.5166666666666667],[-0.41458333333333336,-0.5166666666666667],[-0.41458333333333336,-0.5166666666666667],[-0.41458333333333336,-0.5166666666666667],[-0.41458333333333336,-0.5166666666666667],[-0.41458333333333336,-0.5166666666666667],[-0.41458333333333336,-0.5166666666666667],[-0.41458333333333336,-0.5166666666666667],[-0.41458333333333336,-0.5166666666666667],[-0.41458333333333336,-0.5166666666666667],[-0.41458333333333336,-0.5166666666666667],[-0.41458333333333336,-0.5166666666666667],[-0.41458333333333336,-0.5166666666666667],[-0.41458333333333336,-0.5166666666666667],[-0.41458333333333336,-0.5166666666666667],[-0.41458333333333336,-0.5166666666666667],[-0.4197916666666667,-0.5148148148148148],[-0.434375,-0.512962962962963],[-0.43854166666666666,-0.512962962962963],[-0.440625,-0.512962962962963],[-0.440625,-0.512962962962963],[-0.440625,-0.512962962962963],[-0.44166666666666665,-0.512962962962963],[-0.44166666666666665,-0.512962962962963],[-0.44166666666666665,-0.512962962962963],[-0.44479166666666664,-0.48703703703703705],[-0.4510416666666667,-0.4666666666666667],[-0.459375,-0.4351851851851852],[-0.46145833333333336,-0.42407407407407405],[-0.4583333333333333,-0.40370370370370373],[-0.45,-0.3851851851851852],[-0.43645833333333334,-0.3611111111111111],[-0.4125,-0.3388888888888889],[-0.3927083333333333,-0.31296296296296294],[-0.3729166666666667,-0.3037037037037037],[-0.365625,-0.2962962962962963],[-0.35833333333333334,-0.29074074074074074],[-0.35520833333333335,-0.2851851851851852],[-0.35208333333333336,-0.2796296296296296],[-0.3489583333333333,-0.2740740740740741],[-0.3458333333333333,-0.26481481481481484],[-0.3458333333333333,-0.26296296296296295],[-0.3458333333333333,-0.26296296296296295],[-0.3458333333333333,-0.26296296296296295],[-0.3458333333333333,-0.26296296296296295],[-0.3458333333333333,-0.26296296296296295],[-0.3458333333333333,-0.26296296296296295],[-0.3458333333333333,-0.26296296296296295],[-0.3458333333333333,-0.26296296296296295],[-0.3458333333333333,-0.26296296296296295],[-0.3458333333333333,-0.26296296296296295],[-0.3458333333333333,-0.26296296296296295],[-0.3458333333333333,-0.26296296296296295],[-0.3458333333333333,-0.26296296296296295],[-0.3458333333333333,-0.26296296296296295],[-0.3458333333333333,-0.27037037037037037],[-0.346875,-0.2759259259259259],[-0.346875,-0.2759259259259259],[-0.346875,-0.2759259259259259],[-0.346875,-0.2759259259259259],[-0.346875,-0.2777777777777778],[-0.35520833333333335,-0.2851851851851852],[-0.3729166666666667,-0.29444444444444445],[-0.38333333333333336,-0.3037037037037037],[-0.3875,-0.3074074074074074],[-0.38958333333333334,-0.3074074074074074],[-0.390625,-0.3055555555555556],[-0.390625,-0.3055555555555556],[-0.390625,-0.3055555555555556],[-0.390625,-0.3055555555555556],[-0.390625,-0.3055555555555556],[-0.390625,-0.3055555555555556],[-0.390625,-0.3055555555555556],[-0.390625,-0.3055555555555556],[-0.390625,-0.3055555555555556],[-0.390625,-0.3055555555555556],[-0.390625,-0.3055555555555556],[-0.390625,-0.3055555555555556],[-0.390625,-0.3055555555555556],[-0.390625,-0.3055555555555556],[-0.390625,-0.3055555555555556],[-0.390625,-0.3055555555555556],[-0.390625,-0.3055555555555556],[-0.390625,-0.3055555555555556],[-0.390625,-0.3055555555555556],[-0.390625,-0.3055555555555556],[-0.390625,-0.3055555555555556],[-0.38958333333333334,-0.3037037037037037],[-0.38958333333333334,-0.3],[-0.38645833333333335,-0.29074074074074074],[-0.3854166666666667,-0.28703703703703703],[-0.37916666666666665,-0.28703703703703703],[-0.375,-0.28703703703703703],[-0.3729166666666667,-0.28703703703703703],[-0.371875,-0.28703703703703703],[-0.371875,-0.28703703703703703],[-0.371875,-0.28703703703703703],[-0.371875,-0.28703703703703703],[-0.371875,-0.28703703703703703],[-0.371875,-0.28703703703703703],[-0.371875,-0.28703703703703703],[-0.371875,-0.28703703703703703],[-0.371875,-0.28703703703703703],[-0.371875,-0.28703703703703703],[-0.371875,-0.28703703703703703],[-0.371875,-0.28703703703703703],[-0.365625,-0.28703703703703703],[-0.33125,-0.2722222222222222],[-0.265625,-0.23148148148148148],[-0.13541666666666666,-0.16296296296296298],[-0.09270833333333334,-0.1425925925925926],[-0.0020833333333333333,-0.08888888888888889],[0.09479166666666666,-0.011111111111111112],[0.12708333333333333,0.014814814814814815],[0.14375,0.02962962962962963],[0.146875,0.03333333333333333],[0.146875,0.03333333333333333],[0.146875,0.03333333333333333],[0.146875,0.03518518518518519],[0.15625,0.05555555555555555],[0.16145833333333334,0.06481481481481481],[0.17291666666666666,0.08518518518518518],[0.2,0.11851851851851852],[0.221875,0.14444444444444443],[0.246875,0.1685185185185185],[0.26875,0.1925925925925926],[0.284375,0.21296296296296297],[0.28958333333333336,0.21666666666666667],[0.29375,0.22037037037037038],[0.29375,0.22037037037037038],[0.29791666666666666,0.2222222222222222],[0.309375,0.2351851851851852],[0.33229166666666665,0.25],[0.3375,0.2537037037037037],[0.34791666666666665,0.26296296296296295],[0.37083333333333335,0.2777777777777778],[0.38645833333333335,0.29259259259259257],[0.396875,0.3055555555555556],[0.40208333333333335,0.31666666666666665],[0.4041666666666667,0.32037037037037036],[0.4041666666666667,0.32222222222222224],[0.4041666666666667,0.32222222222222224],[0.4041666666666667,0.32222222222222224],[0.4041666666666667,0.32407407407407407],[0.4041666666666667,0.32407407407407407],[0.4,0.32592592592592595],[0.39479166666666665,0.3333333333333333],[0.3885416666666667,0.35185185185185186],[0.38333333333333336,0.37222222222222223],[0.37916666666666665,0.387037037037037],[0.3770833333333333,0.39444444444444443],[0.3770833333333333,0.3962962962962963],[0.3770833333333333,0.3962962962962963],[0.3770833333333333,0.3962962962962963],[0.3770833333333333,0.3962962962962963],[0.375,0.39814814814814814],[0.375,0.39814814814814814],[0.375,0.4],[0.37395833333333334,0.4],[0.3729166666666667,0.40185185185185185],[0.371875,0.40370370370370373],[0.3697916666666667,0.4074074074074074],[0.36875,0.40925925925925927],[0.365625,0.4111111111111111],[0.3625,0.4148148148148148],[0.3614583333333333,0.4166666666666667],[0.3614583333333333,0.4166666666666667],[0.3614583333333333,0.4166666666666667],[0.3614583333333333,0.4166666666666667],[0.3614583333333333,0.4166666666666667],[0.3614583333333333,0.4166666666666667],[0.3614583333333333,0.4166666666666667],[0.3614583333333333,0.4166666666666667],[0.3614583333333333,0.4166666666666667],[0.3614583333333333,0.4166666666666667],[0.3614583333333333,0.4166666666666667],[0.3614583333333333,0.4166666666666667],[0.3614583333333333,0.4166666666666667],[0.3614583333333333,0.4166666666666667],[0.3614583333333333,0.4166666666666667],[0.3614583333333333,0.4166666666666667],[0.3614583333333333,0.4166666666666667],[0.3614583333333333,0.4166666666666667],[0.3614583333333333,0.4166666666666667],[0.3614583333333333,0.4166666666666667],[0.3614583333333333,0.4166666666666667],[0.3614583333333333,0.4166666666666667],[0.3614583333333333,0.4166666666666667],[0.3614583333333333,0.4166666666666667],[0.3614583333333333,0.4166666666666667],[0.3614583333333333,0.4166666666666667],[0.3614583333333333,0.4166666666666667],[0.3614583333333333,0.4166666666666667],[0.3614583333333333,0.4166666666666667],[0.3614583333333333,0.4166666666666667],[0.3614583333333333,0.4166666666666667],[0.3614583333333333,0.4166666666666667],[0.3614583333333333,0.4166666666666667],[0.3614583333333333,0.4166666666666667],[0.3614583333333333,0.4166666666666667],[0.3614583333333333,0.4166666666666667],[0.3614583333333333,0.4166666666666667],[0.3614583333333333,0.4166666666666667],[0.359375,0.4166666666666667],[0.359375,0.4166666666666667],[0.359375,0.4166666666666667],[0.359375,0.4166666666666667],[0.359375,0.4166666666666667],[0.359375,0.4166666666666667],[0.359375,0.4166666666666667],[0.35520833333333335,0.4166666666666667],[0.35,0.4166666666666667],[0.33958333333333335,0.40925925925925927],[0.33229166666666665,0.3925925925925926],[0.328125,0.387037037037037],[0.32083333333333336,0.37222222222222223],[0.315625,0.3685185185185185],[0.3104166666666667,0.36666666666666664],[0.30833333333333335,0.36666666666666664],[0.3072916666666667,0.3648148148148148],[0.303125,0.362962962962963],[0.303125,0.362962962962963],[0.30104166666666665,0.3611111111111111],[0.296875,0.3592592592592593],[0.29270833333333335,0.35555555555555557],[0.28854166666666664,0.3537037037037037],[0.28020833333333334,0.34629629629629627],[0.26875,0.337037037037037],[0.24479166666666666,0.29444444444444445],[0.21979166666666666,0.23148148148148148],[0.21145833333333333,0.2111111111111111],[0.20729166666666668,0.19814814814814816],[0.20416666666666666,0.18703703703703703],[0.203125,0.1814814814814815],[0.20208333333333334,0.17777777777777778],[0.20104166666666667,0.17222222222222222],[0.20104166666666667,0.17037037037037037]]","[[0.32833333333333337,0.2551851851851851],[0.32833333333333337,0.2551851851851851],[0.32833333333333337,0.2551851851851851],[0.28968749999999993,0.2862962962962963],[0.29635416666666664,0.26666666666666666],[0.29635416666666664,0.26666666666666666],[0.31260416666666657,0.2716666666666668],[0.27760416666666665,0.2831481481481481],[0.24656250000000005,0.2640740740740741],[0.20760416666666662,0.26666666666666666],[0.16854166666666662,0.27759259259259256],[0.16885416666666658,0.2727777777777777],[0.1502083333333334,0.2935185185185185],[0.14677083333333343,0.2770370370370371],[0.13614583333333338,0.2733333333333334],[0.13614583333333338,0.2733333333333334],[0.11052083333333323,0.32518518518518524],[0.09291666666666672,0.35999999999999993],[0.06437499999999995,0.3475925925925927],[0.04552083333333338,0.3375925925925925],[0.09645833333333324,0.34740740740740744],[0.1625,0.3875925925925925],[0.1506249999999999,0.4287037037037037],[0.13427083333333342,0.4681481481481481],[0.15166666666666656,0.49166666666666664],[0.1603125000000001,0.5003703703703705],[0.19031250000000005,0.4987037037037036],[0.2,0.5098148148148147],[0.25125000000000003,0.5116666666666666],[0.30833333333333335,0.5342592592592592],[0.27104166666666674,0.537962962962963],[0.27104166666666674,0.537962962962963],[0.22614583333333324,0.5585185185185185],[0.23187499999999991,0.5659259259259259],[0.25510416666666674,0.5685185185185185],[0.23666666666666672,0.5962962962962963],[0.23666666666666672,0.5962962962962963],[0.20427083333333323,0.5781481481481482],[0.17604166666666668,0.6116666666666666],[0.1814583333333334,0.6292592592592592],[0.1603125000000001,0.6451851851851852],[0.1603125000000001,0.6451851851851852],[0.10145833333333343,0.6753703703703705],[0.09364583333333343,0.6875925925925925],[0.06270833333333338,0.6705555555555556],[0.06270833333333338,0.6705555555555556],[0.04583333333333333,0.6757407407407408],[0.011041666666666691,0.6718518518518518],[-0.004791666666666691,0.6422222222222221],[-0.021354166666666667,0.6579629629629629],[-0.06156250000000003,0.5920370370370371],[-0.06156250000000003,0.5920370370370371],[-0.10093749999999997,0.5487037037037036],[-0.1319791666666667,0.48814814814814816],[-0.14614583333333328,0.4235185185185186],[-0.12749999999999997,0.3538888888888889],[-0.1414583333333333,0.2748148148148148],[-0.1376041666666667,0.18370370370370379],[-0.12791666666666662,0.16407407407407412],[-0.08041666666666672,0.14814814814814814],[-0.04666666666666662,0.10666666666666672],[-0.0034374999999999527,0.07518518518518523],[0.01739583333333338,-0.0301851851851851],[0.030104166666666644,-0.03518518518518519],[0.030104166666666644,-0.03518518518518519],[0.06927083333333334,-0.06981481481481479],[0.06854166666666663,-0.07462962962962966],[0.06854166666666663,-0.07462962962962966],[0.11604166666666677,-0.08796296296296297],[0.16791666666666671,-0.07240740740740745],[0.22156250000000005,-0.09740740740740746],[0.20895833333333325,-0.14740740740740746],[0.2140625,-0.16666666666666666],[0.21916666666666676,-0.18592592592592588],[0.153125,-0.03333333333333333],[0.153125,-0.03333333333333333],[0.11145833333333334,0.06870370370370374],[0.0109375,0.11999999999999991],[-0.09093749999999995,0.16833333333333328],[-0.19270833333333334,0.2272222222222223],[-0.19270833333333334,0.2272222222222223],[-0.32541666666666663,0.30462962962962964],[-0.428125,0.35055555555555545],[-0.49447916666666664,0.4346296296296297],[-0.6391666666666667,0.5122222222222222],[-0.7688541666666667,0.5874074074074075],[-0.7529166666666666,0.5235185185185186],[-0.7529166666666666,0.5235185185185186],[-0.8028125,0.46166666666666656],[-0.7865625,0.48870370370370364],[-0.8329166666666666,0.515],[-0.8329166666666666,0.515],[-0.7405208333333333,0.5151851851851853],[-0.708125,0.37407407407407406],[-0.7340625000000001,0.3949999999999999],[-0.76,0.415925925925926],[-0.6493749999999999,0.4081481481481481],[-0.5621875000000001,0.43740740740740747],[-0.4810416666666667,0.3881481481481482],[-0.4810416666666667,0.3881481481481482],[-0.3923958333333334,0.3140740740740741],[-0.3775,0.28407407407407403],[-0.31677083333333333,0.22666666666666663],[-0.38125,0.20462962962962963],[-0.41302083333333334,0.33055555555555555],[-0.41302083333333334,0.33055555555555555],[-0.4405208333333333,0.30925925925925923],[-0.47291666666666665,0.277962962962963],[-0.5641666666666667,0.2698148148148149],[-0.6469791666666667,0.2270370370370371],[-0.8216666666666667,0.2892592592592593],[-0.8216666666666667,0.2892592592592593],[-0.9639583333333334,0.3761111111111112],[-0.9569791666666667,0.44611111111111107],[-0.9625,0.5142592592592593],[-0.9680208333333333,0.5464814814814816],[-0.9680208333333333,0.5464814814814816],[-0.9994791666666667,0.4868518518518518],[-1.0129166666666667,0.3012962962962964],[-1.0311458333333332,0.15407407407407417],[-1.0201041666666666,0.042407407407407366],[-1.0655208333333333,-0.05592592592592591],[-1.0655208333333333,-0.05592592592592591],[-0.9995833333333334,-0.08703703703703704],[-0.9995833333333334,-0.08703703703703704],[-0.970625,-0.07555555555555557],[-1.0276041666666667,-0.10722222222222218],[-1.0747916666666666,-0.0940740740740741],[-1.1096875,-0.07962962962962963],[-1.1060416666666666,0.026666666666666623],[-1.0804166666666668,0.20574074074074078],[-1.0804166666666668,0.20574074074074078],[-1.0310416666666666,0.3640740740740741],[-1.019375,0.49499999999999994],[-0.9236458333333334,0.6355555555555557],[-0.9236458333333334,0.6355555555555557],[-0.9011458333333333,0.7014814814814814],[-0.8510416666666667,0.7031481481481482],[-0.7948958333333334,0.6927777777777778],[-0.7188541666666667,0.6611111111111111],[-0.6716666666666666,0.6427777777777778],[-0.6716666666666666,0.6427777777777778],[-0.6240625000000001,0.5512962962962964],[-0.5928125000000001,0.5333333333333333],[-0.5595833333333334,0.4872222222222223],[-0.5279166666666667,0.4327777777777779],[-0.5279166666666667,0.4327777777777779],[-0.5240625,0.3512962962962964],[-0.5364583333333334,0.23703703703703705],[-0.5203125,0.1648148148148148],[-0.5134375,0.05555555555555555],[-0.5134375,0.05555555555555555],[-0.5209375,0.013333333333333417],[-0.5209375,0.013333333333333417],[-0.5347916666666667,-0.004629629629629629],[-0.525625,0.00851851851851856],[-0.5038541666666666,0.042407407407407366],[-0.5054166666666666,0.0955555555555556],[-0.5085416666666667,0.11407407407407412],[-0.5307291666666667,0.1537037037037037],[-0.5221875,0.2205555555555556],[-0.5221875,0.2205555555555556],[-0.5159375,0.293888888888889],[-0.5552083333333333,0.3816666666666667],[-0.6213541666666667,0.29888888888888887],[-0.6213541666666667,0.29888888888888887],[-0.6089583333333334,0.3133333333333334],[-0.5910416666666667,0.3111111111111111],[-0.594375,0.26500000000000007],[-0.5875,0.2301851851851851],[-0.5850000000000001,0.205925925925926],[-0.5850000000000001,0.205925925925926],[-0.5471874999999999,0.1935185185185185],[-0.5191666666666667,0.18851851851851845],[-0.5239583333333333,0.14611111111111108],[-0.5239583333333333,0.14611111111111108],[-0.4565624999999999,0.15185185185185185],[-0.34614583333333326,0.277962962962963],[-0.30499999999999994,0.28407407407407403],[-0.26937500000000003,0.30685185185185193],[-0.2297916666666667,0.32444444444444454],[-0.1944791666666667,0.3435185185185185],[-0.15635416666666668,0.3485185185185186],[-0.1342708333333333,0.32462962962962955],[-0.12510416666666668,0.33648148148148155],[-0.1,0.3588888888888888],[-0.10885416666666667,0.3168518518518519],[-0.10885416666666667,0.3168518518518519],[-0.11989583333333335,0.26444444444444437],[-0.13218749999999999,0.20796296296296288],[-0.11458333333333333,0.1537037037037037],[-0.14645833333333336,0.1418518518518519],[-0.16739583333333338,0.03148148148148148],[-0.1970833333333334,-0.00722222222222218],[-0.20364583333333333,-0.009629629629629714],[-0.19604166666666673,-0.08611111111111111],[-0.20249999999999999,-0.12370370370370372],[-0.23020833333333332,-0.1618518518518518],[-0.25906250000000003,-0.1896296296296296],[-0.2960416666666667,-0.18611111111111112],[-0.3477083333333333,-0.16148148148148145],[-0.34052083333333333,-0.1361111111111111],[-0.3733333333333333,-0.0477777777777777],[-0.3571875,0.03814814814814819],[-0.3803125,0.10925925925925926],[-0.4069791666666667,0.21962962962962967],[-0.43302083333333335,0.23666666666666658],[-0.43302083333333335,0.23666666666666658],[-0.45125000000000004,0.3079629629629629],[-0.44468749999999996,0.4270370370370371],[-0.3428125,0.5611111111111111],[-0.26197916666666665,0.6553703703703704],[-0.18854166666666666,0.7037037037037037],[-0.07552083333333333,0.768148148148148],[0.004791666666666691,0.7766666666666666],[0.08895833333333343,0.8125925925925925],[0.16020833333333329,0.8555555555555555],[0.16020833333333329,0.8555555555555555],[0.2439583333333334,0.9512962962962964],[0.3224999999999999,1.0338888888888889],[0.3727083333333333,1.0594444444444442],[0.3302083333333333,1.045],[0.29177083333333326,1.0366666666666666],[0.29177083333333326,1.0366666666666666],[0.23208333333333328,1.0298148148148147],[0.16416666666666657,1.0068518518518519],[0.08041666666666672,0.9462962962962963],[0.008958333333333356,0.8368518518518518],[-0.04708333333333338,0.7846296296296297],[-0.10260416666666666,0.735],[-0.10260416666666666,0.735],[-0.12166666666666662,0.5955555555555556],[-0.16739583333333338,0.5022222222222223],[-0.2045833333333333,0.4131481481481482],[-0.23833333333333329,0.2640740740740741],[-0.24104166666666665,0.1398148148148148],[-0.2570833333333333,0.10999999999999996],[-0.25499999999999995,0.14962962962962956],[-0.22062499999999996,0.227962962962963],[-0.2635416666666667,0.11629629629629622],[-0.2778125000000001,0.0418518518518519],[-0.32302083333333337,0.0838888888888888],[-0.32302083333333337,0.0838888888888888],[-0.3172916666666667,0.08277777777777787],[-0.34656250000000005,-0.001851851851851852],[-0.34656250000000005,-0.001851851851851852],[-0.3502083333333334,0.016851851851851896],[-0.3696875,0.04055555555555551],[-0.34406249999999994,0.07777777777777778],[-0.34406249999999994,0.07777777777777778],[-0.30093749999999997,0.07888888888888893],[-0.28458333333333335,0.02833333333333325],[-0.28458333333333335,0.02833333333333325],[-0.1829166666666667,0.06870370370370374],[-0.184375,0.04518518518518514],[-0.184375,0.04518518518518514],[-0.1788541666666667,-0.002407407407407323],[-0.18645833333333334,-0.027777777777777776],[-0.10302083333333331,-0.003333333333333249],[-0.046875,-0.01185185185185181],[0.02677083333333338,-0.028703703703703703],[0.02677083333333338,-0.028703703703703703],[0.06770833333333333,-0.1294444444444444],[0.06854166666666663,-0.1948148148148148],[0.01583333333333338,-0.25759259259259265],[0.01583333333333338,-0.25759259259259265],[-0.022291666666666644,-0.27240740740740743],[-0.021875,-0.2551851851851852],[-0.021458333333333357,-0.22388888888888886],[-0.028125,-0.2294444444444444],[-0.02052083333333338,-0.22518518518518524],[-0.02052083333333338,-0.22518518518518524],[-0.034687499999999954,-0.22240740740740744],[-0.035208333333333286,-0.1983333333333334],[-0.01583333333333338,-0.22166666666666665],[0.052187500000000026,-0.25574074074074077],[0.1788541666666667,-0.20425925925925928],[0.27802083333333344,-0.16870370370370374],[0.35041666666666677,-0.18259259259259264],[0.35041666666666677,-0.18259259259259264],[0.4283333333333334,-0.18870370370370365],[0.5107291666666666,-0.172037037037037],[0.5438541666666665,-0.11481481481481481],[0.5881249999999999,-0.11425925925925924],[0.5881249999999999,-0.11425925925925924],[0.5870833333333333,-0.14055555555555552],[0.5386458333333333,-0.09277777777777782],[0.4930208333333333,-0.07388888888888885],[0.4247916666666666,-0.12037037037037036],[0.35656249999999995,-0.1668518518518519],[0.38406250000000003,-0.18796296296296297],[0.38406250000000003,-0.18796296296296297],[0.41395833333333343,-0.16166666666666668],[0.4400000000000001,-0.14759259259259258],[0.45364583333333336,-0.15129629629629626],[0.42135416666666664,-0.14314814814814816],[0.3950000000000001,-0.16629629629629633],[0.42604166666666665,-0.23296296296296298],[0.42604166666666665,-0.23296296296296298],[0.43854166666666666,-0.14777777777777779],[0.4523958333333333,-0.11851851851851852],[0.4662499999999999,-0.08925925925925923],[0.42458333333333326,-0.10018518518518522],[0.38333333333333336,-0.102962962962963],[0.36083333333333345,-0.12759259259259256],[0.32791666666666663,-0.15759259259259265],[0.32791666666666663,-0.15759259259259265],[0.31968750000000007,-0.17703703703703708],[0.3198958333333332,-0.16055555555555553],[0.29020833333333323,-0.1272222222222222],[0.2508333333333333,-0.19592592592592595],[0.2508333333333333,-0.19592592592592595],[0.22208333333333338,-0.21851851851851853],[0.18875000000000006,-0.25092592592592594],[0.18156249999999996,-0.2205555555555556],[0.18156249999999996,-0.2205555555555556],[0.14249999999999996,-0.32388888888888884],[0.08468749999999996,-0.4053703703703703],[0.03770833333333338,-0.4727777777777778],[0.06187499999999998,-0.4703703703703704],[0.08552083333333324,-0.46111111111111114],[0.08552083333333324,-0.46111111111111114],[0.1171875,-0.44962962962962966],[0.14874999999999997,-0.4475925925925926],[0.16854166666666662,-0.4477777777777778],[0.1929166666666667,-0.4381481481481482],[0.1929166666666667,-0.4381481481481482],[0.22427083333333328,-0.3875925925925926],[0.2734375,-0.3212962962962963],[0.3226041666666667,-0.255],[0.3558333333333332,-0.2257407407407407],[0.3558333333333332,-0.2257407407407407],[0.33791666666666675,-0.23277777777777775],[0.3567708333333333,-0.24574074074074073],[0.3559375000000001,-0.23555555555555555],[0.3545833333333334,-0.22537037037037036],[0.3545833333333334,-0.22537037037037036],[0.36875,-0.1992592592592593],[0.3445833333333333,-0.21888888888888886],[0.3568749999999999,-0.28481481481481485],[0.37479166666666663,-0.30462962962962964],[0.37479166666666663,-0.30462962962962964],[0.39729166666666677,-0.32685185185185184],[0.4027083333333332,-0.3292592592592593],[0.42302083333333323,-0.2655555555555555],[0.42302083333333323,-0.2655555555555555],[0.40739583333333323,-0.21814814814814817],[0.42239583333333336,-0.22481481481481477],[0.4283333333333334,-0.225],[0.4283333333333334,-0.225],[0.40770833333333345,-0.25703703703703706],[0.40770833333333345,-0.25703703703703706],[0.4317708333333333,-0.23351851851851857],[0.36822916666666666,-0.1757407407407407],[0.3333333333333333,-0.15462962962962962],[0.29093749999999996,-0.13333333333333333],[0.27541666666666675,-0.102962962962963],[0.27541666666666675,-0.102962962962963],[0.2568749999999999,-0.13648148148148145],[0.1866666666666667,-0.15999999999999995],[0.1603125000000001,-0.1455555555555556],[0.1603125000000001,-0.1455555555555556],[0.12760416666666666,-0.13092592592592592],[0.12322916666666663,-0.16203703703703703],[0.11812500000000009,-0.19037037037037038],[0.15270833333333325,-0.2338888888888889],[0.17645833333333344,-0.21888888888888886],[0.2053124999999999,-0.182962962962963],[0.2196875000000001,-0.17925925925925928],[0.2660416666666668,-0.1081481481481481],[0.2660416666666668,-0.1081481481481481],[0.3078125,-0.12462962962962965]]","[[0.32833333333333337,0.2551851851851851,0.0005000000000023874],[0.32833333333333337,0.2551851851851851,0.052299999997018176],[0.32833333333333337,0.2551851851851851,0.05929999999702318],[0.28968749999999993,0.2862962962962963,0.07610000000148887],[0.29635416666666664,0.26666666666666666,0.0977000000029804],[0.29635416666666664,0.26666666666666666,0.10929999999702034],[0.31260416666666657,0.2716666666666668,0.12620000000298148],[0.27760416666666665,0.2831481481481481,0.14420000000298216],[0.24656250000000005,0.2640740740740741,0.16120000000297807],[0.20760416666666662,0.26666666666666666,0.18099999999999739],[0.16854166666666662,0.27759259259259256,0.19479999999702358],[0.16885416666666658,0.2727777777777777,0.20929999999702176],[0.1502083333333334,0.2935185185185185,0.22749999999999915],[0.14677083333333343,0.2770370370370371,0.24260000000148807],[0.13614583333333338,0.2733333333333334,0.2642999999970215],[0.13614583333333338,0.2733333333333334,0.27600000000000335],[0.11052083333333323,0.32518518518518524,0.2927000000029807],[0.09291666666666672,0.35999999999999993,0.3097000000029837],[0.06437499999999995,0.3475925925925927,0.32589999999851216],[0.04552083333333338,0.3375925925925925,0.3426000000014895],[0.09645833333333324,0.34740740740740744,0.35999999999999943],[0.1625,0.3875925925925925,0.37650000000000006],[0.1506249999999999,0.4287037037037037,0.39420000000298216],[0.13427083333333342,0.4681481481481481,0.4122999999970176],[0.15166666666666656,0.49166666666666664,0.4307999999970207],[0.1603125000000001,0.5003703703703705,0.4461000000014934],[0.19031250000000005,0.4987037037037036,0.46229999999702187],[0.2,0.5098148148148147,0.47870000000298063],[0.25125000000000003,0.5116666666666666,0.4939999999999998],[0.30833333333333335,0.5342592592592592,0.5092999999970189],[0.27104166666666674,0.537962962962963,0.5267999999970172],[0.27104166666666674,0.537962962962963,0.5427000000029807],[0.22614583333333324,0.5585185185185185,0.5593999999985115],[0.23187499999999991,0.5659259259259259,0.5765000000000029],[0.25510416666666674,0.5685185185185185,0.5926000000014895],[0.23666666666666672,0.5962962962962963,0.6116000000014878],[0.23666666666666672,0.5962962962962963,0.6259999999999977],[0.20427083333333323,0.5781481481481482,0.6427000000029821],[0.17604166666666668,0.6116666666666666,0.6592999999970175],[0.1814583333333334,0.6292592592592592,0.6761000000014903],[0.1603125000000001,0.6451851851851852,0.695999999999998],[0.1603125000000001,0.6451851851851852,0.7092999999970218],[0.10145833333333343,0.6753703703703705,0.7259999999999991],[0.09364583333333343,0.6875925925925925,0.7427000000029835],[0.06270833333333338,0.6705555555555556,0.7592999999970189],[0.06270833333333338,0.6705555555555556,0.7761000000014917],[0.04583333333333333,0.6757407407407408,0.7927000000029807],[0.011041666666666691,0.6718518518518518,0.8117999999970209],[-0.004791666666666691,0.6422222222222221,0.8266000000014913],[-0.021354166666666667,0.6579629629629629,0.8427000000029778],[-0.06156250000000003,0.5920370370370371,0.8623999999985088],[-0.06156250000000003,0.5920370370370371,0.8759999999999977],[-0.10093749999999997,0.5487037037037036,0.8926000000014938],[-0.1319791666666667,0.48814814814814816,0.9092999999970175],[-0.14614583333333328,0.4235185185185186,0.9312000000029812],[-0.12749999999999997,0.3538888888888889,0.9462000000029818],[-0.1414583333333333,0.2748148148148148,0.9622999999970219],[-0.1376041666666667,0.18370370370370379,0.9787999999970225],[-0.12791666666666662,0.16407407407407412,0.9931000000014905],[-0.08041666666666672,0.14814814814814814,1.009299999997019],[-0.04666666666666662,0.10666666666666672,1.026600000001487],[-0.0034374999999999527,0.07518518518518523,1.0427000000029807],[0.01739583333333338,-0.0301851851851851,1.0594999999999999],[0.030104166666666644,-0.03518518518518519,1.0761000000014889],[0.030104166666666644,-0.03518518518518519,1.0927000000029778],[0.06927083333333334,-0.06981481481481479,1.1092999999970203],[0.06854166666666663,-0.07462962962962966,1.1258999999985093],[0.06854166666666663,-0.07462962962962966,1.1426000000014938],[0.11604166666666677,-0.08796296296296297,1.159399999998513],[0.16791666666666671,-0.07240740740740745,1.1761000000014903],[0.22156250000000005,-0.09740740740740746,1.195200000002977],[0.20895833333333325,-0.14740740740740746,1.21070000000298],[0.2140625,-0.16666666666666666,1.226200000002983],[0.21916666666666676,-0.18592592592592588,1.2449999999999974],[0.153125,-0.03333333333333333,1.2647999999970168],[0.153125,-0.03333333333333333,1.276299999997022],[0.11145833333333334,0.06870370370370374,1.296999999999997],[0.0109375,0.11999999999999991,1.3122999999970233],[-0.09093749999999995,0.16833333333333328,1.3266000000014913],[-0.19270833333333334,0.2272222222222223,1.348399999998513],[-0.19270833333333334,0.2272222222222223,1.3596000000014925],[-0.32541666666666663,0.30462962962962964,1.3763999999985117],[-0.428125,0.35055555555555545,1.3950000000000031],[-0.49447916666666664,0.4346296296296297,1.4121000000014874],[-0.6391666666666667,0.5122222222222222,1.430899999998509],[-0.7688541666666667,0.5874074074074075,1.4465000000000003],[-0.7529166666666666,0.5235185185185186,1.4643999999985127],[-0.7529166666666666,0.5235185185185186,1.4762999999970177],[-0.8028125,0.46166666666666656,1.4927999999970183],[-0.7865625,0.48870370370370364,1.5095000000000027],[-0.8329166666666666,0.515,1.5306000000014919],[-0.8329166666666666,0.515,1.542899999998511],[-0.7405208333333333,0.5151851851851853,1.5592999999970232],[-0.708125,0.37407407407407406,1.5760000000000005],[-0.7340625000000001,0.3949999999999999,1.597600000001492],[-0.76,0.415925925925926,1.6148999999985136],[-0.6493749999999999,0.4081481481481481,1.6302000000029793],[-0.5621875000000001,0.43740740740740747,1.645799999997017],[-0.4810416666666667,0.3881481481481482,1.6617000000029805],[-0.4810416666666667,0.3881481481481482,1.6809999999999974],[-0.3923958333333334,0.3140740740740741,1.6928999999985095],[-0.3775,0.28407407407407403,1.7094999999999985],[-0.31677083333333333,0.22666666666666663,1.727700000002983],[-0.38125,0.20462962962962963,1.7477999999970208],[-0.41302083333333334,0.33055555555555555,1.7644999999999982],[-0.41302083333333334,0.33055555555555555,1.7761000000014917],[-0.4405208333333333,0.30925925925925923,1.7927000000029807],[-0.47291666666666665,0.277962962962963,1.8111000000014883],[-0.5641666666666667,0.2698148148148149,1.8273999999985122],[-0.6469791666666667,0.2270370370370371,1.8467999999970175],[-0.8216666666666667,0.2892592592592593,1.863100000001488],[-0.8216666666666667,0.2892592592592593,1.8761000000014931],[-0.9639583333333334,0.3761111111111112,1.8926000000014938],[-0.9569791666666667,0.44611111111111107,1.9095000000000013],[-0.9625,0.5142592592592593,1.9312000000029812],[-0.9680208333333333,0.5464814814814816,1.9462000000029818],[-0.9680208333333333,0.5464814814814816,1.9592999999970218],[-0.9994791666666667,0.4868518518518518,1.976200000002983],[-1.0129166666666667,0.3012962962962964,1.9938999999985114],[-1.0311458333333332,0.15407407407407417,2.009299999997019],[-1.0201041666666666,0.042407407407407366,2.0282000000029825],[-1.0655208333333333,-0.05592592592592591,2.045700000002981],[-1.0655208333333333,-0.05592592592592591,2.059299999997023],[-0.9995833333333334,-0.08703703703703704,2.076100000001489],[-0.9995833333333334,-0.08703703703703704,2.0926000000014895],[-0.970625,-0.07555555555555557,2.1092000000029785],[-1.0276041666666667,-0.10722222222222218,2.1258999999985093],[-1.0747916666666666,-0.0940740740740741,2.144200000002982],[-1.1096875,-0.07962962962962963,2.1610000000000014],[-1.1060416666666666,0.026666666666666623,2.1817000000029836],[-1.0804166666666668,0.20574074074074078,2.195999999999998],[-1.0804166666666668,0.20574074074074078,2.2092999999970218],[-1.0310416666666666,0.3640740740740741,2.225999999999999],[-1.019375,0.49499999999999994,2.2439999999999998],[-0.9236458333333334,0.6355555555555557,2.264700000002982],[-0.9236458333333334,0.6355555555555557,2.2760000000000034],[-0.9011458333333333,0.7014814814814814,2.2927000000029807],[-0.8510416666666667,0.7031481481481482,2.3093999999985115],[-0.7948958333333334,0.6927777777777778,2.326200000002977],[-0.7188541666666667,0.6611111111111111,2.3426000000014895],[-0.6716666666666666,0.6427777777777778,2.3621000000014902],[-0.6716666666666666,0.6427777777777778,2.3759999999999977],[-0.6240625000000001,0.5512962962962964,2.3926000000014938],[-0.5928125000000001,0.5333333333333333,2.4121000000014874],[-0.5595833333333334,0.4872222222222223,2.430700000002979],[-0.5279166666666667,0.4327777777777779,2.4462000000029818],[-0.5279166666666667,0.4327777777777779,2.4592999999970218],[-0.5240625,0.3512962962962964,2.4761000000014874],[-0.5364583333333334,0.23703703703703705,2.4928999999985066],[-0.5203125,0.1648148148148148,2.509200000002977],[-0.5134375,0.05555555555555555,2.5305000000000035],[-0.5134375,0.05555555555555555,2.568799999997019],[-0.5209375,0.013333333333333417,2.575000000000003],[-0.5209375,0.013333333333333417,2.5833999999985124],[-0.5347916666666667,-0.004629629629629629,2.59579999999702],[-0.525625,0.00851851851851856,2.6099999999999994],[-0.5038541666666666,0.042407407407407366,2.626100000001493],[-0.5054166666666666,0.0955555555555556,2.6447000000029774],[-0.5085416666666667,0.11407407407407412,2.660700000002983],[-0.5307291666666667,0.1537037037037037,2.676000000000002],[-0.5221875,0.2205555555555556,2.696399999998512],[-0.5221875,0.2205555555555556,2.70939999999851],[-0.5159375,0.293888888888889,2.7262999999970177],[-0.5552083333333333,0.3816666666666667,2.7427999999970183],[-0.6213541666666667,0.29888888888888887,2.764899999998512],[-0.6213541666666667,0.29888888888888887,2.7764999999999986],[-0.6089583333333334,0.3133333333333334,2.7929999999999993],[-0.5910416666666667,0.3111111111111111,2.8096000000014882],[-0.594375,0.26500000000000007,2.8278999999985075],[-0.5875,0.2301851851851851,2.8471000000014897],[-0.5850000000000001,0.205925925925926,2.862000000000002],[-0.5850000000000001,0.205925925925926,2.8807000000029817],[-0.5471874999999999,0.1935185185185185,2.8928999999985123],[-0.5191666666666667,0.18851851851851845,2.9147000000029806],[-0.5239583333333333,0.14611111111111108,2.9317999999970183],[-0.5239583333333333,0.14611111111111108,2.9428999999985095],[-0.4565624999999999,0.15185185185185185,2.959600000001494],[-0.34614583333333326,0.277962962962963,2.9782000000029782],[-0.30499999999999994,0.28407407407407403,2.9927000000029835],[-0.26937500000000003,0.30685185185185193,3.009200000002977],[-0.2297916666666667,0.32444444444444454,3.0263999999985103],[-0.1944791666666667,0.3435185185185185,3.0426000000014923],[-0.15635416666666668,0.3485185185185186,3.059899999998507],[-0.1342708333333333,0.32462962962962955,3.0760000000000005],[-0.12510416666666668,0.33648148148148155,3.0963999999985106],[-0.1,0.3588888888888888,3.1108999999985087],[-0.10885416666666667,0.3168518518518519,3.1262000000029815],[-0.10885416666666667,0.3168518518518519,3.1426000000014938],[-0.11989583333333335,0.26444444444444437,3.159399999998513],[-0.13218749999999999,0.20796296296296288,3.176000000000002],[-0.11458333333333333,0.1537037037037037,3.195600000001491],[-0.14645833333333336,0.1418518518518519,3.211500000000001],[-0.16739583333333338,0.03148148148148148,3.2262999999970177],[-0.1970833333333334,-0.00722222222222218,3.2424999999999997],[-0.20364583333333333,-0.009629629629629714,3.264499999999998],[-0.19604166666666673,-0.08611111111111111,3.279899999998513],[-0.20249999999999999,-0.12370370370370372,3.296200000002983],[-0.23020833333333332,-0.1618518518518518,3.3111000000014883],[-0.25906250000000003,-0.1896296296296296,3.326200000002977],[-0.2960416666666667,-0.18611111111111112,3.3471000000014897],[-0.3477083333333333,-0.16148148148148145,3.362899999998511],[-0.34052083333333333,-0.1361111111111111,3.3791000000014932],[-0.3733333333333333,-0.0477777777777777,3.395000000000003],[-0.3571875,0.03814814814814819,3.40979999999702],[-0.3803125,0.10925925925925926,3.426000000000002],[-0.4069791666666667,0.21962962962962967,3.4431000000014933],[-0.43302083333333335,0.23666666666666658,3.4592999999970218],[-0.43302083333333335,0.23666666666666658,3.475999999999999],[-0.45125000000000004,0.3079629629629629,3.4927000000029835],[-0.44468749999999996,0.4270370370370371,3.509299999997019],[-0.3428125,0.5611111111111111,3.5282999999970173],[-0.26197916666666665,0.6553703703703704,3.5467999999970203],[-0.18854166666666666,0.7037037037037037,3.5623999999985116],[-0.07552083333333333,0.768148148148148,3.5781000000014913],[0.004791666666666691,0.7766666666666666,3.597200000002978],[0.08895833333333343,0.8125925925925925,3.6122000000029786],[0.16020833333333329,0.8555555555555555,3.627600000001493],[0.16020833333333329,0.8555555555555555,3.642700000002982],[0.2439583333333334,0.9512962962962964,3.6595000000000013],[0.3224999999999999,1.0338888888888889,3.681299999997023],[0.3727083333333333,1.0594444444444442,3.6955000000000027],[0.3302083333333333,1.045,3.713000000000001],[0.29177083333333326,1.0366666666666666,3.7302999999970226],[0.29177083333333326,1.0366666666666666,3.7428999999985066],[0.23208333333333328,1.0298148148148147,3.7598999999985097],[0.16416666666666657,1.0068518518518519,3.7808999999985105],[0.08041666666666672,0.9462962962962963,3.7959999999999994],[0.008958333333333356,0.8368518518518518,3.812700000002984],[-0.04708333333333338,0.7846296296296297,3.8281000000014913],[-0.10260416666666666,0.735,3.8512999999970177],[-0.10260416666666666,0.735,3.859499999999997],[-0.12166666666666662,0.5955555555555556,3.8759999999999977],[-0.16739583333333338,0.5022222222222223,3.896000000000001],[-0.2045833333333333,0.4131481481481482,3.9117000000029805],[-0.23833333333333329,0.2640740740740741,3.930899999998509],[-0.24104166666666665,0.1398148148148148,3.946700000002977],[-0.2570833333333333,0.10999999999999996,3.963399999998508],[-0.25499999999999995,0.14962962962962956,3.97960000000149],[-0.22062499999999996,0.227962962962963,3.9955],[-0.2635416666666667,0.11629629629629622,4.014499999999998],[-0.2778125000000001,0.0418518518518519,4.029700000002983],[-0.32302083333333337,0.0838888888888888,4.0482000000029785],[-0.32302083333333337,0.0838888888888888,4.0595],[-0.3172916666666667,0.08277777777777787,4.076500000000003],[-0.34656250000000005,-0.001851851851851852,4.10160000000149],[-0.34656250000000005,-0.001851851851851852,4.109799999997023],[-0.3502083333333334,0.016851851851851896,4.126399999998512],[-0.3696875,0.04055555555555551,4.1447000000029774],[-0.34406249999999994,0.07777777777777778,4.16579999999702],[-0.34406249999999994,0.07777777777777778,4.1762999999970205],[-0.30093749999999997,0.07888888888888893,4.192999999999998],[-0.28458333333333335,0.02833333333333325,4.20920000000298],[-0.28458333333333335,0.02833333333333325,4.2261000000014874],[-0.1829166666666667,0.06870370370370374,4.2455],[-0.184375,0.04518518518518514,4.2642999999970215],[-0.184375,0.04518518518518514,4.27620000000298],[-0.1788541666666667,-0.002407407407407323,4.296500000000002],[-0.18645833333333334,-0.027777777777777776,4.312299999997023],[-0.10302083333333331,-0.003333333333333249,4.327500000000001],[-0.046875,-0.01185185185185181,4.347600000001492],[0.02677083333333338,-0.028703703703703703,4.362600000001493],[0.02677083333333338,-0.028703703703703703,4.376299999997023],[0.06770833333333333,-0.1294444444444444,4.395899999998512],[0.06854166666666663,-0.1948148148148148,4.412399999998513],[0.01583333333333338,-0.25759259259259265,4.431200000002981],[0.01583333333333338,-0.25759259259259265,4.442799999997021],[-0.022291666666666644,-0.27240740740740743,4.463500000000003],[-0.021875,-0.2551851851851852,4.479200000002983],[-0.021458333333333357,-0.22388888888888886,4.494100000001488],[-0.028125,-0.2294444444444444,4.513799999997019],[-0.02052083333333338,-0.22518518518518524,4.529299999997022],[-0.02052083333333338,-0.22518518518518524,4.544100000001492],[-0.034687499999999954,-0.22240740740740744,4.559700000002984],[-0.035208333333333286,-0.1983333333333334,4.582100000001489],[-0.01583333333333338,-0.22166666666666665,4.597600000001492],[0.052187500000000026,-0.25574074074074077,4.6122999999970204],[0.1788541666666667,-0.20425925925925928,4.6277000000029815],[0.27802083333333344,-0.16870370370370374,4.64539999999851],[0.35041666666666677,-0.18259259259259264,4.665999999999997],[0.35041666666666677,-0.18259259259259264,4.67610000000149],[0.4283333333333334,-0.18870370370370365,4.6928999999985095],[0.5107291666666666,-0.172037037037037,4.710100000001489],[0.5438541666666665,-0.11481481481481481,4.730100000001492],[0.5881249999999999,-0.11425925925925924,4.748100000001493],[0.5881249999999999,-0.11425925925925924,4.759600000001491],[0.5870833333333333,-0.14055555555555552,4.77620000000298],[0.5386458333333333,-0.09277777777777782,4.795899999998511],[0.4930208333333333,-0.07388888888888885,4.811600000001491],[0.4247916666666666,-0.12037037037037036,4.826200000002977],[0.35656249999999995,-0.1668518518518519,4.8426000000014895],[0.38406250000000003,-0.18796296296296297,4.867299999997023],[0.38406250000000003,-0.18796296296296297,4.875899999998509],[0.41395833333333343,-0.16166666666666668,4.892799999997017],[0.4400000000000001,-0.14759259259259258,4.909500000000001],[0.45364583333333336,-0.15129629629629626,4.9302000000029835],[0.42135416666666664,-0.14314814814814816,4.946399999998512],[0.3950000000000001,-0.16629629629629633,4.962499999999999],[0.42604166666666665,-0.23296296296296298,4.983899999998513],[0.42604166666666665,-0.23296296296296298,4.992799999997018],[0.43854166666666666,-0.14777777777777779,5.009600000001491],[0.4523958333333333,-0.11851851851851852,5.028399999998513],[0.4662499999999999,-0.08925925925925923,5.043200000002983],[0.42458333333333326,-0.10018518518518522,5.0597999999970185],[0.38333333333333336,-0.102962962962963,5.076999999999998],[0.36083333333333345,-0.12759259259259256,5.097600000001492],[0.32791666666666663,-0.15759259259259265,5.112499999999997],[0.32791666666666663,-0.15759259259259265,5.1262000000029815],[0.31968750000000007,-0.17703703703703708,5.142700000002982],[0.3198958333333332,-0.16055555555555553,5.160600000001487],[0.29020833333333323,-0.1272222222222222,5.1815],[0.2508333333333333,-0.19592592592592595,5.196100000001493],[0.2508333333333333,-0.19592592592592595,5.209299999997022],[0.22208333333333338,-0.21851851851851853,5.225999999999999],[0.18875000000000006,-0.25092592592592594,5.242600000001488],[0.18156249999999996,-0.2205555555555556,5.264600000001494],[0.18156249999999996,-0.2205555555555556,5.276000000000003],[0.14249999999999996,-0.32388888888888884,5.2927999999970226],[0.08468749999999996,-0.4053703703703703,5.309899999998507],[0.03770833333333338,-0.4727777777777778,5.326399999998507],[0.06187499999999998,-0.4703703703703704,5.342500000000001],[0.08552083333333324,-0.46111111111111114,5.362499999999997],[0.08552083333333324,-0.46111111111111114,5.375999999999998],[0.1171875,-0.44962962962962966,5.392799999997017],[0.14874999999999997,-0.4475925925925926,5.409200000002983],[0.16854166666666662,-0.4477777777777778,5.426000000000002],[0.1929166666666667,-0.4381481481481482,5.444600000001493],[0.1929166666666667,-0.4381481481481482,5.45939999999851],[0.22427083333333328,-0.3875925925925926,5.4761000000014874],[0.2734375,-0.3212962962962963,5.493899999998511],[0.3226041666666667,-0.255,5.51439999999851],[0.3558333333333332,-0.2257407407407407,5.52939999999851],[0.3558333333333332,-0.2257407407407407,5.542600000001492],[0.33791666666666675,-0.23277777777777775,5.5593999999985115],[0.3567708333333333,-0.24574074074074073,5.575899999998512],[0.3559375000000001,-0.23555555555555555,5.5926000000014895],[0.3545833333333334,-0.22537037037037036,5.611399999998511],[0.3545833333333334,-0.22537037037037036,5.626100000001493],[0.36875,-0.1992592592592593,5.642600000001494],[0.3445833333333333,-0.21888888888888886,5.661899999998511],[0.3568749999999999,-0.28481481481481485,5.681399999998511],[0.37479166666666663,-0.30462962962962964,5.695700000002979],[0.37479166666666663,-0.30462962962962964,5.709299999997022],[0.39729166666666677,-0.32685185185185184,5.725999999999999],[0.4027083333333332,-0.3292592592592593,5.7431000000014905],[0.42302083333333323,-0.2655555555555555,5.762799999997021],[0.42302083333333323,-0.2655555555555555,5.780200000002978],[0.40739583333333323,-0.21814814814814817,5.793100000001488],[0.42239583333333336,-0.22481481481481477,5.812600000001488],[0.4283333333333334,-0.225,5.833899999998508],[0.4283333333333334,-0.225,5.84279999999702],[0.40770833333333345,-0.25703703703703706,5.859499999999997],[0.40770833333333345,-0.25703703703703706,5.8762000000029815],[0.4317708333333333,-0.23351851851851857,5.896000000000001],[0.36822916666666666,-0.1757407407407407,5.910600000001487],[0.3333333333333333,-0.15462962962962962,5.926200000002979],[0.29093749999999996,-0.13333333333333333,5.947200000002979],[0.27541666666666675,-0.102962962962963,5.963000000000001],[0.27541666666666675,-0.102962962962963,5.976200000002983],[0.2568749999999999,-0.13648148148148145,5.992799999997018],[0.1866666666666667,-0.15999999999999995,6.013700000002977],[0.1603125000000001,-0.1455555555555556,6.02920000000298],[0.1603125000000001,-0.1455555555555556,6.042700000002981],[0.12760416666666666,-0.13092592592592592,6.0625],[0.12322916666666663,-0.16203703703703703,6.081299999997022],[0.11812500000000009,-0.19037037037037038,6.09770000000298],[0.15270833333333325,-0.2338888888888889,6.114899999998514],[0.17645833333333344,-0.21888888888888886,6.130499999999998],[0.2053124999999999,-0.182962962962963,6.145700000002982],[0.2196875000000001,-0.17925925925925928,6.161000000000001],[0.2660416666666668,-0.1081481481481481,6.183299999997018],[0.2660416666666668,-0.1081481481481481,6.193700000002984],[0.3078125,-0.12462962962962965,6.210299999997019]]","[0.0005000000000023874,0.052299999997018176,0.05929999999702318,0.07610000000148887,0.0977000000029804,0.10929999999702034,0.12620000000298148,0.14420000000298216,0.16120000000297807,0.18099999999999739,0.19479999999702358,0.20929999999702176,0.22749999999999915,0.24260000000148807,0.2642999999970215,0.27600000000000335,0.2927000000029807,0.3097000000029837,0.32589999999851216,0.3426000000014895,0.35999999999999943,0.37650000000000006,0.39420000000298216,0.4122999999970176,0.4307999999970207,0.4461000000014934,0.46229999999702187,0.47870000000298063,0.4939999999999998,0.5092999999970189,0.5267999999970172,0.5427000000029807,0.5593999999985115,0.5765000000000029,0.5926000000014895,0.6116000000014878,0.6259999999999977,0.6427000000029821,0.6592999999970175,0.6761000000014903,0.695999999999998,0.7092999999970218,0.7259999999999991,0.7427000000029835,0.7592999999970189,0.7761000000014917,0.7927000000029807,0.8117999999970209,0.8266000000014913,0.8427000000029778,0.8623999999985088,0.8759999999999977,0.8926000000014938,0.9092999999970175,0.9312000000029812,0.9462000000029818,0.9622999999970219,0.9787999999970225,0.9931000000014905,1.009299999997019,1.026600000001487,1.0427000000029807,1.0594999999999999,1.0761000000014889,1.0927000000029778,1.1092999999970203,1.1258999999985093,1.1426000000014938,1.159399999998513,1.1761000000014903,1.195200000002977,1.21070000000298,1.226200000002983,1.2449999999999974,1.2647999999970168,1.276299999997022,1.296999999999997,1.3122999999970233,1.3266000000014913,1.348399999998513,1.3596000000014925,1.3763999999985117,1.3950000000000031,1.4121000000014874,1.430899999998509,1.4465000000000003,1.4643999999985127,1.4762999999970177,1.4927999999970183,1.5095000000000027,1.5306000000014919,1.542899999998511,1.5592999999970232,1.5760000000000005,1.597600000001492,1.6148999999985136,1.6302000000029793,1.645799999997017,1.6617000000029805,1.6809999999999974,1.6928999999985095,1.7094999999999985,1.727700000002983,1.7477999999970208,1.7644999999999982,1.7761000000014917,1.7927000000029807,1.8111000000014883,1.8273999999985122,1.8467999999970175,1.863100000001488,1.8761000000014931,1.8926000000014938,1.9095000000000013,1.9312000000029812,1.9462000000029818,1.9592999999970218,1.976200000002983,1.9938999999985114,2.009299999997019,2.0282000000029825,2.045700000002981,2.059299999997023,2.076100000001489,2.0926000000014895,2.1092000000029785,2.1258999999985093,2.144200000002982,2.1610000000000014,2.1817000000029836,2.195999999999998,2.2092999999970218,2.225999999999999,2.2439999999999998,2.264700000002982,2.2760000000000034,2.2927000000029807,2.3093999999985115,2.326200000002977,2.3426000000014895,2.3621000000014902,2.3759999999999977,2.3926000000014938,2.4121000000014874,2.430700000002979,2.4462000000029818,2.4592999999970218,2.4761000000014874,2.4928999999985066,2.509200000002977,2.5305000000000035,2.568799999997019,2.575000000000003,2.5833999999985124,2.59579999999702,2.6099999999999994,2.626100000001493,2.6447000000029774,2.660700000002983,2.676000000000002,2.696399999998512,2.70939999999851,2.7262999999970177,2.7427999999970183,2.764899999998512,2.7764999999999986,2.7929999999999993,2.8096000000014882,2.8278999999985075,2.8471000000014897,2.862000000000002,2.8807000000029817,2.8928999999985123,2.9147000000029806,2.9317999999970183,2.9428999999985095,2.959600000001494,2.9782000000029782,2.9927000000029835,3.009200000002977,3.0263999999985103,3.0426000000014923,3.059899999998507,3.0760000000000005,3.0963999999985106,3.1108999999985087,3.1262000000029815,3.1426000000014938,3.159399999998513,3.176000000000002,3.195600000001491,3.211500000000001,3.2262999999970177,3.2424999999999997,3.264499999999998,3.279899999998513,3.296200000002983,3.3111000000014883,3.326200000002977,3.3471000000014897,3.362899999998511,3.3791000000014932,3.395000000000003,3.40979999999702,3.426000000000002,3.4431000000014933,3.4592999999970218,3.475999999999999,3.4927000000029835,3.509299999997019,3.5282999999970173,3.5467999999970203,3.5623999999985116,3.5781000000014913,3.597200000002978,3.6122000000029786,3.627600000001493,3.642700000002982,3.6595000000000013,3.681299999997023,3.6955000000000027,3.713000000000001,3.7302999999970226,3.7428999999985066,3.7598999999985097,3.7808999999985105,3.7959999999999994,3.812700000002984,3.8281000000014913,3.8512999999970177,3.859499999999997,3.8759999999999977,3.896000000000001,3.9117000000029805,3.930899999998509,3.946700000002977,3.963399999998508,3.97960000000149,3.9955,4.014499999999998,4.029700000002983,4.0482000000029785,4.0595,4.076500000000003,4.10160000000149,4.109799999997023,4.126399999998512,4.1447000000029774,4.16579999999702,4.1762999999970205,4.192999999999998,4.20920000000298,4.2261000000014874,4.2455,4.2642999999970215,4.27620000000298,4.296500000000002,4.312299999997023,4.327500000000001,4.347600000001492,4.362600000001493,4.376299999997023,4.395899999998512,4.412399999998513,4.431200000002981,4.442799999997021,4.463500000000003,4.479200000002983,4.494100000001488,4.513799999997019,4.529299999997022,4.544100000001492,4.559700000002984,4.582100000001489,4.597600000001492,4.6122999999970204,4.6277000000029815,4.64539999999851,4.665999999999997,4.67610000000149,4.6928999999985095,4.710100000001489,4.730100000001492,4.748100000001493,4.759600000001491,4.77620000000298,4.795899999998511,4.811600000001491,4.826200000002977,4.8426000000014895,4.867299999997023,4.875899999998509,4.892799999997017,4.909500000000001,4.9302000000029835,4.946399999998512,4.962499999999999,4.983899999998513,4.992799999997018,5.009600000001491,5.028399999998513,5.043200000002983,5.0597999999970185,5.076999999999998,5.097600000001492,5.112499999999997,5.1262000000029815,5.142700000002982,5.160600000001487,5.1815,5.196100000001493,5.209299999997022,5.225999999999999,5.242600000001488,5.264600000001494,5.276000000000003,5.2927999999970226,5.309899999998507,5.326399999998507,5.342500000000001,5.362499999999997,5.375999999999998,5.392799999997017,5.409200000002983,5.426000000000002,5.444600000001493,5.45939999999851,5.4761000000014874,5.493899999998511,5.51439999999851,5.52939999999851,5.542600000001492,5.5593999999985115,5.575899999998512,5.5926000000014895,5.611399999998511,5.626100000001493,5.642600000001494,5.661899999998511,5.681399999998511,5.695700000002979,5.709299999997022,5.725999999999999,5.7431000000014905,5.762799999997021,5.780200000002978,5.793100000001488,5.812600000001488,5.833899999998508,5.84279999999702,5.859499999999997,5.8762000000029815,5.896000000000001,5.910600000001487,5.926200000002979,5.947200000002979,5.963000000000001,5.976200000002983,5.992799999997018,6.013700000002977,6.02920000000298,6.042700000002981,6.0625,6.081299999997022,6.09770000000298,6.114899999998514,6.130499999999998,6.145700000002982,6.161000000000001,6.183299999997018,6.193700000002984,6.210299999997019]","[1732592380728,1732592380770,1732592380776,1732592380793,1732592380815,1732592380827,1732592380843,1732592380862,1732592380878,1732592380898,1732592380912,1732592380927,1732592380945,1732592380960,1732592380981,1732592380993,1732592381010,1732592381027,1732592381043,1732592381060,1732592381077,1732592381094,1732592381111,1732592381129,1732592381148,1732592381163,1732592381179,1732592381196,1732592381211,1732592381226,1732592381244,1732592381260,1732592381277,1732592381294,1732592381310,1732592381329,1732592381343,1732592381360,1732592381377,1732592381393,1732592381413,1732592381427,1732592381443,1732592381460,1732592381477,1732592381493,1732592381510,1732592381529,1732592381544,1732592381560,1732592381580,1732592381593,1732592381610,1732592381626,1732592381648,1732592381663,1732592381680,1732592381696,1732592381710,1732592381727,1732592381744,1732592381760,1732592381777,1732592381793,1732592381810,1732592381827,1732592381843,1732592381860,1732592381877,1732592381893,1732592381912,1732592381928,1732592381943,1732592381962,1732592381982,1732592381993,1732592382014,1732592382029,1732592382044,1732592382066,1732592382077,1732592382094,1732592382112,1732592382129,1732592382148,1732592382164,1732592382182,1732592382193,1732592382210,1732592382227,1732592382248,1732592382260,1732592382277,1732592382293,1732592382315,1732592382332,1732592382347,1732592382363,1732592382379,1732592382398,1732592382410,1732592382427,1732592382445,1732592382465,1732592382482,1732592382493,1732592382510,1732592382528,1732592382545,1732592382564,1732592382580,1732592382593,1732592382610,1732592382627,1732592382648,1732592382663,1732592382676,1732592382693,1732592382711,1732592382726,1732592382745,1732592382763,1732592382777,1732592382793,1732592382810,1732592382826,1732592382843,1732592382861,1732592382878,1732592382899,1732592382913,1732592382926,1732592382943,1732592382961,1732592382982,1732592382993,1732592383010,1732592383027,1732592383043,1732592383060,1732592383079,1732592383093,1732592383110,1732592383129,1732592383148,1732592383163,1732592383177,1732592383193,1732592383210,1732592383226,1732592383248,1732592383286,1732592383292,1732592383301,1732592383313,1732592383327,1732592383343,1732592383362,1732592383378,1732592383393,1732592383414,1732592383427,1732592383443,1732592383460,1732592383482,1732592383494,1732592383510,1732592383527,1732592383545,1732592383564,1732592383579,1732592383598,1732592383610,1732592383632,1732592383649,1732592383660,1732592383677,1732592383695,1732592383710,1732592383726,1732592383744,1732592383760,1732592383777,1732592383793,1732592383814,1732592383828,1732592383843,1732592383860,1732592383877,1732592383893,1732592383913,1732592383929,1732592383943,1732592383960,1732592383982,1732592383997,1732592384013,1732592384028,1732592384043,1732592384064,1732592384080,1732592384096,1732592384112,1732592384127,1732592384143,1732592384160,1732592384177,1732592384193,1732592384210,1732592384227,1732592384246,1732592384264,1732592384280,1732592384295,1732592384314,1732592384329,1732592384345,1732592384360,1732592384377,1732592384399,1732592384413,1732592384430,1732592384447,1732592384460,1732592384477,1732592384498,1732592384513,1732592384530,1732592384545,1732592384568,1732592384577,1732592384593,1732592384613,1732592384629,1732592384648,1732592384664,1732592384681,1732592384697,1732592384713,1732592384732,1732592384747,1732592384765,1732592384777,1732592384794,1732592384819,1732592384827,1732592384844,1732592384862,1732592384883,1732592384894,1732592384910,1732592384926,1732592384943,1732592384963,1732592384981,1732592384993,1732592385014,1732592385030,1732592385045,1732592385065,1732592385080,1732592385093,1732592385113,1732592385130,1732592385148,1732592385160,1732592385181,1732592385196,1732592385211,1732592385231,1732592385247,1732592385261,1732592385277,1732592385299,1732592385315,1732592385329,1732592385345,1732592385363,1732592385383,1732592385393,1732592385410,1732592385427,1732592385447,1732592385465,1732592385477,1732592385493,1732592385513,1732592385529,1732592385543,1732592385560,1732592385585,1732592385593,1732592385610,1732592385627,1732592385647,1732592385664,1732592385680,1732592385701,1732592385710,1732592385727,1732592385746,1732592385760,1732592385777,1732592385794,1732592385815,1732592385830,1732592385843,1732592385860,1732592385878,1732592385899,1732592385913,1732592385927,1732592385943,1732592385960,1732592385982,1732592385993,1732592386010,1732592386027,1732592386044,1732592386060,1732592386080,1732592386093,1732592386110,1732592386126,1732592386143,1732592386162,1732592386177,1732592386193,1732592386211,1732592386232,1732592386247,1732592386260,1732592386277,1732592386293,1732592386310,1732592386329,1732592386343,1732592386360,1732592386379,1732592386399,1732592386413,1732592386427,1732592386443,1732592386460,1732592386480,1732592386497,1732592386510,1732592386530,1732592386551,1732592386560,1732592386577,1732592386593,1732592386613,1732592386628,1732592386643,1732592386664,1732592386680,1732592386693,1732592386710,1732592386731,1732592386746,1732592386760,1732592386780,1732592386798,1732592386815,1732592386832,1732592386848,1732592386863,1732592386878,1732592386900,1732592386911,1732592386928]","[[1275.2,677.8],[1275.2,677.8],[1275.2,677.8],[1238.1,694.6],[1244.5,684],[1244.5,684],[1260.1,686.7],[1226.5,692.9],[1196.7,682.6],[1159.3,684],[1121.8,689.9],[1122.1,687.3],[1104.2,698.5],[1100.9,689.6],[1090.7,687.6],[1090.7,687.6],[1066.1,715.6],[1049.2,734.4],[1021.8,727.7],[1003.7,722.3],[1052.6,727.6],[1116,749.3],[1104.6,771.5],[1088.9,792.8],[1105.6,805.5],[1113.9,810.2],[1142.7,809.3],[1152,815.3],[1201.2,816.3],[1256,828.5],[1220.2,830.5],[1220.2,830.5],[1177.1,841.6],[1182.6,845.6],[1204.9,847],[1187.2,862],[1187.2,862],[1156.1,852.2],[1129,870.3],[1134.2,879.8],[1113.9,888.4],[1113.9,888.4],[1057.4,904.7],[1049.9,911.3],[1020.2,902.1],[1020.2,902.1],[1004,904.9],[970.6,902.8],[955.4,886.8],[939.5,895.3],[900.9,859.7],[900.9,859.7],[863.1,836.3],[833.3,803.6],[819.7,768.7],[837.6,731.1],[824.2,688.4],[827.9,639.2],[837.2,628.6],[882.8,620],[915.2,597.6],[956.7,580.6],[976.7,523.7],[988.9,521],[988.9,521],[1026.5,502.3],[1025.8,499.7],[1025.8,499.7],[1071.4,492.5],[1121.2,500.9],[1172.7,487.4],[1160.6,460.4],[1165.5,450],[1170.4,439.6],[1107,522],[1107,522],[1067,577.1],[970.5,604.8],[872.7,630.9],[775,662.7],[775,662.7],[647.6,704.5],[549,729.3],[485.3,774.7],[346.4,816.6],[221.9,857.2],[237.2,822.7],[237.2,822.7],[189.3,789.3],[204.9,803.9],[160.4,818.1],[160.4,818.1],[249.1,818.2],[280.2,742],[255.3,753.3],[230.4,764.6],[336.6,760.4],[420.3,776.2],[498.2,749.6],[498.2,749.6],[583.3,709.6],[597.6,693.4],[655.9,662.4],[594,650.5],[563.5,718.5],[563.5,718.5],[537.1,707],[506,690.1],[418.4,685.7],[338.9,662.6],[171.2,696.2],[171.2,696.2],[34.6,743.1],[41.3,780.9],[36,817.7],[30.7,835.1],[30.7,835.1],[0.5,802.9],[-12.4,702.7],[-29.9,623.2],[-19.3,562.9],[-62.9,509.8],[-62.9,509.8],[0.4,493],[0.4,493],[28.2,499.2],[-26.5,482.1],[-71.8,489.2],[-105.3,497],[-101.8,554.4],[-77.2,651.1],[-77.2,651.1],[-29.8,736.6],[-18.6,807.3],[73.3,883.2],[73.3,883.2],[94.9,918.8],[143,919.7],[196.9,914.1],[269.9,897],[315.2,887.1],[315.2,887.1],[360.9,837.7],[390.9,828],[422.8,803.1],[453.2,773.7],[453.2,773.7],[456.9,729.7],[445,668],[460.5,629],[467.1,570],[467.1,570],[459.9,547.2],[459.9,547.2],[446.6,537.5],[455.4,544.6],[476.3,562.9],[474.8,591.6],[471.8,601.6],[450.5,623],[458.7,659.1],[458.7,659.1],[464.7,698.7],[427,746.1],[363.5,701.4],[363.5,701.4],[375.4,709.2],[392.6,708],[389.4,683.1],[396,664.3],[398.4,651.2],[398.4,651.2],[434.7,644.5],[461.6,641.8],[457,618.9],[457,618.9],[521.7,622],[627.7,690.1],[667.2,693.4],[701.4,705.7],[739.4,715.2],[773.3,725.5],[809.9,728.2],[831.1,715.3],[839.9,721.7],[864,733.8],[855.5,711.1],[855.5,711.1],[844.9,682.8],[833.1,652.3],[850,623],[819.4,616.6],[799.3,557],[770.8,536.1],[764.5,534.8],[771.8,493.5],[765.6,473.2],[739,452.6],[711.3,437.6],[675.8,439.5],[626.2,452.8],[633.1,466.5],[601.6,514.2],[617.1,560.6],[594.9,599],[569.3,658.6],[544.3,667.8],[544.3,667.8],[526.8,706.3],[533.1,770.6],[630.9,843],[708.5,893.9],[779,920],[887.5,954.8],[964.6,959.4],[1045.4,978.8],[1113.8,1002],[1113.8,1002],[1194.2,1053.7],[1269.6,1098.3],[1317.8,1112.1],[1277,1104.3],[1240.1,1099.8],[1240.1,1099.8],[1182.8,1096.1],[1117.6,1083.7],[1037.2,1051],[968.6,991.9],[914.8,963.7],[861.5,936.9],[861.5,936.9],[843.2,861.6],[799.3,811.2],[763.6,763.1],[731.2,682.6],[728.6,615.5],[713.2,599.4],[715.2,620.8],[748.2,663.1],[707,602.8],[693.3,562.6],[649.9,585.3],[649.9,585.3],[655.4,584.7],[627.3,539],[627.3,539],[623.8,549.1],[605.1,561.9],[629.7,582],[629.7,582],[671.1,582.6],[686.8,555.3],[686.8,555.3],[784.4,577.1],[783,564.4],[783,564.4],[788.3,538.7],[781,525],[861.1,538.2],[915,533.6],[985.7,524.5],[985.7,524.5],[1025,470.1],[1025.8,434.8],[975.2,400.9],[975.2,400.9],[938.6,392.9],[939,402.2],[939.4,419.1],[933,416.1],[940.3,418.4],[940.3,418.4],[926.7,419.9],[926.2,432.9],[944.8,420.3],[1010.1,401.9],[1131.7,429.7],[1226.9,448.9],[1296.4,441.4],[1296.4,441.4],[1371.2,438.1],[1450.3,447.1],[1482.1,478],[1524.6,478.3],[1524.6,478.3],[1523.6,464.1],[1477.1,489.9],[1433.3,500.1],[1367.8,475],[1302.3,449.9],[1328.7,438.5],[1328.7,438.5],[1357.4,452.7],[1382.4,460.3],[1395.5,458.3],[1364.5,462.7],[1339.2,450.2],[1369,414.2],[1369,414.2],[1381,460.2],[1394.3,476],[1407.6,491.8],[1367.6,485.9],[1328,484.4],[1306.4,471.1],[1274.8,454.9],[1274.8,454.9],[1266.9,444.4],[1267.1,453.3],[1238.6,471.3],[1200.8,434.2],[1200.8,434.2],[1173.2,422],[1141.2,404.5],[1134.3,420.9],[1134.3,420.9],[1096.8,365.1],[1041.3,321.1],[996.2,284.7],[1019.4,286],[1042.1,291],[1042.1,291],[1072.5,297.2],[1102.8,298.3],[1121.8,298.2],[1145.2,303.4],[1145.2,303.4],[1175.3,330.7],[1222.5,366.5],[1269.7,402.3],[1301.6,418.1],[1301.6,418.1],[1284.4,414.3],[1302.5,407.3],[1301.7,412.8],[1300.4,418.3],[1300.4,418.3],[1314,432.4],[1290.8,421.8],[1302.6,386.2],[1319.8,375.5],[1319.8,375.5],[1341.4,363.5],[1346.6,362.2],[1366.1,396.6],[1366.1,396.6],[1351.1,422.2],[1365.5,418.6],[1371.2,418.5],[1371.2,418.5],[1351.4,401.2],[1351.4,401.2],[1374.5,413.9],[1313.5,445.1],[1280,456.5],[1239.3,468],[1224.4,484.4],[1224.4,484.4],[1206.6,466.3],[1139.2,453.6],[1113.9,461.4],[1113.9,461.4],[1082.5,469.3],[1078.3,452.5],[1073.4,437.2],[1106.6,413.7],[1129.4,421.8],[1157.1,441.2],[1170.9,443.2],[1215.4,481.6],[1215.4,481.6],[1255.5,472.7]]","[-0.142,0.42599999999999993]","[0.142,0.42599999999999993]","[0.42599999999999993,0.42599999999999993]","[-0.42599999999999993,-0.142]","[-0.42599999999999993,-0.42599999999999993]","[-0.42599999999999993,0.142]","[-0.142,-0.142]","[0.142,-0.142]","[0.42599999999999993,-0.142]","[-0.142,-0.42599999999999993]","[0.142,-0.42599999999999993]","[0.42599999999999993,-0.42599999999999993]","[-0.142,0.142]","[0.142,0.142]","[0.42599999999999993,0.142]",0,0,0,0,1,1,Laptop,20,20,7,2,70,4,2,70,4
