inst1_resp.keys,inst1_resp.rt,calibrationMouse.x,calibrationMouse.y,calibrationMouse.leftButton,calibrationMouse.midButton,calibrationMouse.rightButton,calibrationClick.x,calibrationClick.y,calibrationClick.leftButton,calibrationClick.midButton,calibrationClick.rightButton,trialsc.thisRepN,trialsc.thisTrialN,trialsc.thisN,trialsc.thisIndex,trialsc.ran,calibration_x,calibration_y,participant,session,date,expName,psychopyVersion,OS,frameRate,calibrationClick.clicked_name,ScreenRes_pixels,Camera_pixels,mouse_2.x,mouse_2.y,mouse_2.leftButton,mouse_2.midButton,mouse_2.rightButton,mouse_2.time,mouse_2.clicked_name,mouse.x,mouse.y,mouse.leftButton,mouse.midButton,mouse.rightButton,mouse.time,mouse.clicked_name,Choice,Trial,TrialDuration,MOUSE_GAZE,ET_GAZE,ET_GAZE_x_T,time,unixTime,ET_GAZE_NF,Loc_Bus_label,Loc_Metro_label,Loc_RH_label,Loc_Cost_label,Loc_Travel_label,Loc_Comfort_label,Loc_Bus_cost,Loc_Metro_cost,Loc_RH_cost,Loc_Bus_travel,Loc_Metro_travel,Loc_RH_travel,Loc_Bus_comfort,Loc_Metro_comfort,Loc_RH_comfort,trials.thisRepN,trials.thisTrialN,trials.thisN,trials.thisIndex,trials.ran,Block,Device,RH_cost,RH_travel_time,RH_Comfort,metro_cost,metro_travel_time,metro_Comfort,Bus_cost,Bus_travel_time,Bus_Comfort
space,2.4311,-0.155208333,-0.22037037,1,0,0,-0.341666667,0.012962963,1,0,0,0,0,0,6,1,-0.33,0,06,001,2024-11-26_15h32.33.519,Attention_exp_legacy,2023.1.0,Win32,60.24096386,,,,,,,,,,,,,,,,,,,,,,,,,,,,,,,,,,,,,,,,,,,,,,,,,,,,,,,,,
,,,,,,,-0.323958333,0.67037037,1,0,0,0,1,1,8,1,-0.33,0.67,06,001,2024-11-26_15h32.33.519,Attention_exp_legacy,2023.1.0,Win32,60.24096386,calibration_square,,,,,,,,,,,,,,,,,,,,,,,,,,,,,,,,,,,,,,,,,,,,,,,,,,,,,,,,
,,,,,,,0.665625,0.67037037,1,0,0,0,2,2,19,1,0.67,0.67,06,001,2024-11-26_15h32.33.519,Attention_exp_legacy,2023.1.0,Win32,60.24096386,calibration_square,,,,,,,,,,,,,,,,,,,,,,,,,,,,,,,,,,,,,,,,,,,,,,,,,,,,,,,,
,,,,,,,0.003125,0.32962963,1,0,0,0,3,3,12,1,0,0.33,06,001,2024-11-26_15h32.33.519,Attention_exp_legacy,2023.1.0,Win32,60.24096386,calibration_square,,,,,,,,,,,,,,,,,,,,,,,,,,,,,,,,,,,,,,,,,,,,,,,,,,,,,,,,
,,,,,,,0.00625,-0.353703704,1,0,0,0,4,4,10,1,0,-0.33,06,001,2024-11-26_15h32.33.519,Attention_exp_legacy,2023.1.0,Win32,60.24096386,,,,,,,,,,,,,,,,,,,,,,,,,,,,,,,,,,,,,,,,,,,,,,,,,,,,,,,,,
,,,,,,,-0.332291667,-0.653703704,1,0,0,0,5,5,4,1,-0.33,-0.67,06,001,2024-11-26_15h32.33.519,Attention_exp_legacy,2023.1.0,Win32,60.24096386,,,,,,,,,,,,,,,,,,,,,,,,,,,,,,,,,,,,,,,,,,,,,,,,,,,,,,,,,
,,,,,,,-0.66875,-0.009259259,1,0,0,0,6,6,2,1,-0.67,0,06,001,2024-11-26_15h32.33.519,Attention_exp_legacy,2023.1.0,Win32,60.24096386,calibration_square,,,,,,,,,,,,,,,,,,,,,,,,,,,,,,,,,,,,,,,,,,,,,,,,,,,,,,,,
,,,,,,,-0.672916667,-0.67037037,1,0,0,0,7,7,0,1,-0.67,-0.67,06,001,2024-11-26_15h32.33.519,Attention_exp_legacy,2023.1.0,Win32,60.24096386,calibration_square,,,,,,,,,,,,,,,,,,,,,,,,,,,,,,,,,,,,,,,,,,,,,,,,,,,,,,,,
,,,,,,,0.335416667,0.67962963,1,0,0,0,8,8,18,1,0.33,0.67,06,001,2024-11-26_15h32.33.519,Attention_exp_legacy,2023.1.0,Win32,60.24096386,calibration_square,,,,,,,,,,,,,,,,,,,,,,,,,,,,,,,,,,,,,,,,,,,,,,,,,,,,,,,,
,,,,,,,-0.3375,-0.333333333,1,0,0,0,9,9,5,1,-0.33,-0.33,06,001,2024-11-26_15h32.33.519,Attention_exp_legacy,2023.1.0,Win32,60.24096386,calibration_square,,,,,,,,,,,,,,,,,,,,,,,,,,,,,,,,,,,,,,,,,,,,,,,,,,,,,,,,
,,,,,,,0.316666667,-0.668518519,1,0,0,0,10,10,14,1,0.33,-0.67,06,001,2024-11-26_15h32.33.519,Attention_exp_legacy,2023.1.0,Win32,60.24096386,,,,,,,,,,,,,,,,,,,,,,,,,,,,,,,,,,,,,,,,,,,,,,,,,,,,,,,,,
,,,,,,,-0.65625,0.318518519,1,0,0,0,11,11,3,1,-0.67,0.33,06,001,2024-11-26_15h32.33.519,Attention_exp_legacy,2023.1.0,Win32,60.24096386,,,,,,,,,,,,,,,,,,,,,,,,,,,,,,,,,,,,,,,,,,,,,,,,,,,,,,,,,
,,,,,,,0.009375,-0.672222222,1,0,0,0,12,12,9,1,0,-0.67,06,001,2024-11-26_15h32.33.519,Attention_exp_legacy,2023.1.0,Win32,60.24096386,calibration_square,,,,,,,,,,,,,,,,,,,,,,,,,,,,,,,,,,,,,,,,,,,,,,,,,,,,,,,,
,,,,,,,-0.341666667,0.32962963,1,0,0,0,13,13,7,1,-0.33,0.33,06,001,2024-11-26_15h32.33.519,Attention_exp_legacy,2023.1.0,Win32,60.24096386,,,,,,,,,,,,,,,,,,,,,,,,,,,,,,,,,,,,,,,,,,,,,,,,,,,,,,,,,
,,,,,,,0.316666667,0.011111111,1,0,0,0,14,14,16,1,0.33,0,06,001,2024-11-26_15h32.33.519,Attention_exp_legacy,2023.1.0,Win32,60.24096386,,,,,,,,,,,,,,,,,,,,,,,,,,,,,,,,,,,,,,,,,,,,,,,,,,,,,,,,,
,,,,,,,0.340625,-0.331481481,1,0,0,0,15,15,15,1,0.33,-0.33,06,001,2024-11-26_15h32.33.519,Attention_exp_legacy,2023.1.0,Win32,60.24096386,,,,,,,,,,,,,,,,,,,,,,,,,,,,,,,,,,,,,,,,,,,,,,,,,,,,,,,,,
,,,,,,,-0.004166667,0.009259259,1,0,0,0,16,16,11,1,0,0,06,001,2024-11-26_15h32.33.519,Attention_exp_legacy,2023.1.0,Win32,60.24096386,calibration_square,,,,,,,,,,,,,,,,,,,,,,,,,,,,,,,,,,,,,,,,,,,,,,,,,,,,,,,,
,,,,,,,0.326041667,0.32962963,1,0,0,0,17,17,17,1,0.33,0.33,06,001,2024-11-26_15h32.33.519,Attention_exp_legacy,2023.1.0,Win32,60.24096386,calibration_square,,,,,,,,,,,,,,,,,,,,,,,,,,,,,,,,,,,,,,,,,,,,,,,,,,,,,,,,
,,,,,,,-0.675,-0.327777778,1,0,0,0,18,18,1,1,-0.67,-0.33,06,001,2024-11-26_15h32.33.519,Attention_exp_legacy,2023.1.0,Win32,60.24096386,calibration_square,,,,,,,,,,,,,,,,,,,,,,,,,,,,,,,,,,,,,,,,,,,,,,,,,,,,,,,,
,,,,,,,0.009375,0.664814815,1,0,0,0,19,19,13,1,0,0.67,06,001,2024-11-26_15h32.33.519,Attention_exp_legacy,2023.1.0,Win32,60.24096386,calibration_square,,,,,,,,,,,,,,,,,,,,,,,,,,,,,,,,,,,,,,,,,,,,,,,,,,,,,,,,
,,,,,,,0.6625,-0.664814815,1,0,0,0,20,20,20,1,0.67,-0.67,06,001,2024-11-26_15h32.33.519,Attention_exp_legacy,2023.1.0,Win32,60.24096386,calibration_square,,,,,,,,,,,,,,,,,,,,,,,,,,,,,,,,,,,,,,,,,,,,,,,,,,,,,,,,
,,,,,,,,,,,,,,,,,,,06,001,2024-11-26_15h32.33.519,Attention_exp_legacy,2023.1.0,Win32,60.24096386,,"[1920,1080]","[640,480]",[0.07395833333333333],[-0.49444444444444446],[1],[0],[0],[1.9110000000000014],"[""StartButton""]",[0.11770833333333333],[0.3592592592592593],[1],[0],[0],[8.430999999999997],"[""Metro_label""]",Metro_label,1,9.4579,"[[0.07395833333333333,-0.49444444444444446],[0.07395833333333333,-0.49444444444444446],[0.07395833333333333,-0.49444444444444446],[0.07395833333333333,-0.49444444444444446],[0.07395833333333333,-0.49444444444444446],[0.07395833333333333,-0.49444444444444446],[0.07395833333333333,-0.49444444444444446],[0.07395833333333333,-0.49444444444444446],[0.07395833333333333,-0.49444444444444446],[0.07395833333333333,-0.49444444444444446],[0.07395833333333333,-0.49444444444444446],[0.07395833333333333,-0.49444444444444446],[0.07395833333333333,-0.49444444444444446],[0.07395833333333333,-0.49444444444444446],[0.07395833333333333,-0.49444444444444446],[0.07395833333333333,-0.49444444444444446],[0.07395833333333333,-0.49444444444444446],[0.07395833333333333,-0.49444444444444446],[0.07395833333333333,-0.49444444444444446],[0.07395833333333333,-0.49444444444444446],[0.07395833333333333,-0.49444444444444446],[0.07395833333333333,-0.49444444444444446],[0.07395833333333333,-0.49444444444444446],[0.07395833333333333,-0.49444444444444446],[0.07395833333333333,-0.49444444444444446],[0.07395833333333333,-0.49444444444444446],[0.07395833333333333,-0.49444444444444446],[0.07395833333333333,-0.49444444444444446],[0.07395833333333333,-0.49444444444444446],[0.07395833333333333,-0.49444444444444446],[0.07395833333333333,-0.49444444444444446],[0.07395833333333333,-0.49444444444444446],[0.07395833333333333,-0.49444444444444446],[0.07395833333333333,-0.49444444444444446],[0.07395833333333333,-0.49444444444444446],[0.07395833333333333,-0.49444444444444446],[0.07395833333333333,-0.49444444444444446],[0.07395833333333333,-0.49444444444444446],[0.07395833333333333,-0.49444444444444446],[0.07395833333333333,-0.49444444444444446],[0.07395833333333333,-0.49444444444444446],[0.07395833333333333,-0.49444444444444446],[0.07395833333333333,-0.49444444444444446],[0.07395833333333333,-0.49444444444444446],[0.07395833333333333,-0.49444444444444446],[0.07395833333333333,-0.49444444444444446],[0.07395833333333333,-0.49444444444444446],[0.07395833333333333,-0.49444444444444446],[0.07395833333333333,-0.49444444444444446],[0.07395833333333333,-0.49444444444444446],[0.07395833333333333,-0.49444444444444446],[0.07395833333333333,-0.4981481481481482],[0.07395833333333333,-0.4981481481481482],[0.07395833333333333,-0.4981481481481482],[0.07395833333333333,-0.4981481481481482],[0.07395833333333333,-0.4981481481481482],[0.07395833333333333,-0.4981481481481482],[0.07395833333333333,-0.4981481481481482],[0.07395833333333333,-0.4981481481481482],[0.07395833333333333,-0.4981481481481482],[0.07395833333333333,-0.4981481481481482],[0.07395833333333333,-0.4981481481481482],[0.07395833333333333,-0.4981481481481482],[0.07395833333333333,-0.4981481481481482],[0.07395833333333333,-0.4981481481481482],[0.07395833333333333,-0.4981481481481482],[0.07395833333333333,-0.4981481481481482],[0.07395833333333333,-0.4981481481481482],[0.07395833333333333,-0.4981481481481482],[0.07395833333333333,-0.4981481481481482],[0.07395833333333333,-0.4981481481481482],[0.07395833333333333,-0.4981481481481482],[0.07395833333333333,-0.4981481481481482],[0.07395833333333333,-0.4981481481481482],[0.07395833333333333,-0.4981481481481482],[0.07395833333333333,-0.4981481481481482],[0.07395833333333333,-0.4981481481481482],[0.07395833333333333,-0.4981481481481482],[0.07395833333333333,-0.4981481481481482],[0.07395833333333333,-0.4981481481481482],[0.07395833333333333,-0.4981481481481482],[0.07395833333333333,-0.4981481481481482],[0.07395833333333333,-0.4981481481481482],[0.07395833333333333,-0.4981481481481482],[0.07395833333333333,-0.4981481481481482],[0.07395833333333333,-0.4981481481481482],[0.07395833333333333,-0.4981481481481482],[0.07395833333333333,-0.4981481481481482],[0.07395833333333333,-0.4981481481481482],[0.07395833333333333,-0.4981481481481482],[0.07395833333333333,-0.4981481481481482],[0.07395833333333333,-0.4981481481481482],[0.07395833333333333,-0.4981481481481482],[0.07395833333333333,-0.4981481481481482],[0.07395833333333333,-0.4981481481481482],[0.07395833333333333,-0.4981481481481482],[0.07395833333333333,-0.4981481481481482],[0.07395833333333333,-0.4981481481481482],[0.07395833333333333,-0.4981481481481482],[0.07395833333333333,-0.4981481481481482],[0.07395833333333333,-0.4981481481481482],[0.07395833333333333,-0.4981481481481482],[0.07395833333333333,-0.4981481481481482],[0.07395833333333333,-0.4981481481481482],[0.07395833333333333,-0.4981481481481482],[0.07395833333333333,-0.4981481481481482],[0.07395833333333333,-0.4981481481481482],[0.07395833333333333,-0.4981481481481482],[0.07395833333333333,-0.4981481481481482],[0.07395833333333333,-0.4981481481481482],[0.07395833333333333,-0.4981481481481482],[0.07395833333333333,-0.4981481481481482],[0.07395833333333333,-0.4981481481481482],[0.07395833333333333,-0.4981481481481482],[0.07395833333333333,-0.4981481481481482],[0.07395833333333333,-0.4981481481481482],[0.07395833333333333,-0.4981481481481482],[0.07395833333333333,-0.4981481481481482],[0.07395833333333333,-0.4981481481481482],[0.07395833333333333,-0.4981481481481482],[0.07395833333333333,-0.4981481481481482],[0.07395833333333333,-0.4981481481481482],[0.07395833333333333,-0.4981481481481482],[0.07395833333333333,-0.4981481481481482],[0.07395833333333333,-0.4981481481481482],[0.07395833333333333,-0.4981481481481482],[0.07395833333333333,-0.4981481481481482],[0.07395833333333333,-0.4981481481481482],[0.07395833333333333,-0.4981481481481482],[0.07395833333333333,-0.4981481481481482],[0.07395833333333333,-0.4981481481481482],[0.07395833333333333,-0.4981481481481482],[0.07395833333333333,-0.4981481481481482],[0.07395833333333333,-0.4981481481481482],[0.07395833333333333,-0.4981481481481482],[0.07395833333333333,-0.4981481481481482],[0.07395833333333333,-0.4981481481481482],[0.07395833333333333,-0.4981481481481482],[0.07395833333333333,-0.4981481481481482],[0.07395833333333333,-0.4981481481481482],[0.07395833333333333,-0.4981481481481482],[0.07395833333333333,-0.4981481481481482],[0.07395833333333333,-0.4981481481481482],[0.07395833333333333,-0.4981481481481482],[0.07395833333333333,-0.4981481481481482],[0.07395833333333333,-0.4981481481481482],[0.07395833333333333,-0.4981481481481482],[0.07395833333333333,-0.4981481481481482],[0.07395833333333333,-0.4981481481481482],[0.07395833333333333,-0.4981481481481482],[0.07395833333333333,-0.4981481481481482],[0.07395833333333333,-0.4981481481481482],[0.07395833333333333,-0.4981481481481482],[0.07395833333333333,-0.4981481481481482],[0.07395833333333333,-0.4981481481481482],[0.07395833333333333,-0.4981481481481482],[0.07395833333333333,-0.4981481481481482],[0.07395833333333333,-0.4981481481481482],[0.07395833333333333,-0.4981481481481482],[0.07395833333333333,-0.4981481481481482],[0.07395833333333333,-0.4981481481481482],[0.07395833333333333,-0.4981481481481482],[0.07395833333333333,-0.4981481481481482],[0.07395833333333333,-0.4981481481481482],[0.07395833333333333,-0.4981481481481482],[0.07395833333333333,-0.4981481481481482],[0.07395833333333333,-0.4981481481481482],[0.07395833333333333,-0.4981481481481482],[0.07395833333333333,-0.4981481481481482],[0.07395833333333333,-0.4981481481481482],[0.07395833333333333,-0.4981481481481482],[0.07395833333333333,-0.4981481481481482],[0.07395833333333333,-0.4981481481481482],[0.07395833333333333,-0.4981481481481482],[0.07395833333333333,-0.4981481481481482],[0.07395833333333333,-0.4981481481481482],[0.07395833333333333,-0.4981481481481482],[0.07395833333333333,-0.4981481481481482],[0.07395833333333333,-0.4981481481481482],[0.07395833333333333,-0.4981481481481482],[0.07395833333333333,-0.4981481481481482],[0.07395833333333333,-0.4981481481481482],[0.07395833333333333,-0.4981481481481482],[0.07395833333333333,-0.4981481481481482],[0.07395833333333333,-0.4981481481481482],[0.07395833333333333,-0.4981481481481482],[0.07395833333333333,-0.4981481481481482],[0.07395833333333333,-0.4981481481481482],[0.07395833333333333,-0.4981481481481482],[0.07395833333333333,-0.4981481481481482],[0.07395833333333333,-0.4981481481481482],[0.07395833333333333,-0.4981481481481482],[0.07395833333333333,-0.4981481481481482],[0.07395833333333333,-0.4981481481481482],[0.07395833333333333,-0.4981481481481482],[0.07395833333333333,-0.4981481481481482],[0.07395833333333333,-0.4981481481481482],[0.07395833333333333,-0.4981481481481482],[0.07395833333333333,-0.4981481481481482],[0.07395833333333333,-0.4981481481481482],[0.07395833333333333,-0.4981481481481482],[0.07395833333333333,-0.4981481481481482],[0.07395833333333333,-0.4981481481481482],[0.07395833333333333,-0.4981481481481482],[0.07395833333333333,-0.4981481481481482],[0.07395833333333333,-0.4981481481481482],[0.07395833333333333,-0.4981481481481482],[0.07395833333333333,-0.4981481481481482],[0.07395833333333333,-0.4981481481481482],[0.07395833333333333,-0.4981481481481482],[0.07395833333333333,-0.4981481481481482],[0.07395833333333333,-0.4981481481481482],[0.07395833333333333,-0.4981481481481482],[0.07395833333333333,-0.4981481481481482],[0.07395833333333333,-0.4981481481481482],[0.07395833333333333,-0.4981481481481482],[0.07395833333333333,-0.4981481481481482],[0.07395833333333333,-0.4981481481481482],[0.07395833333333333,-0.4981481481481482],[0.07395833333333333,-0.4981481481481482],[0.07395833333333333,-0.4981481481481482],[0.07395833333333333,-0.4981481481481482],[0.07395833333333333,-0.4981481481481482],[0.07395833333333333,-0.4981481481481482],[0.07395833333333333,-0.4981481481481482],[0.07395833333333333,-0.4981481481481482],[0.07395833333333333,-0.4981481481481482],[0.07395833333333333,-0.4981481481481482],[0.07395833333333333,-0.4981481481481482],[0.07395833333333333,-0.4981481481481482],[0.07395833333333333,-0.4981481481481482],[0.07395833333333333,-0.4981481481481482],[0.07395833333333333,-0.4981481481481482],[0.07395833333333333,-0.4981481481481482],[0.07395833333333333,-0.4981481481481482],[0.07395833333333333,-0.4981481481481482],[0.07395833333333333,-0.4981481481481482],[0.07395833333333333,-0.4981481481481482],[0.07395833333333333,-0.4981481481481482],[0.07395833333333333,-0.4981481481481482],[0.07395833333333333,-0.4981481481481482],[0.07395833333333333,-0.4981481481481482],[0.07395833333333333,-0.4981481481481482],[0.07395833333333333,-0.4981481481481482],[0.07395833333333333,-0.4981481481481482],[0.07395833333333333,-0.4981481481481482],[0.07395833333333333,-0.4981481481481482],[0.07395833333333333,-0.4981481481481482],[0.07395833333333333,-0.4981481481481482],[0.07395833333333333,-0.4981481481481482],[0.07395833333333333,-0.4981481481481482],[0.07395833333333333,-0.4981481481481482],[0.07395833333333333,-0.4981481481481482],[0.07395833333333333,-0.4981481481481482],[0.07395833333333333,-0.4981481481481482],[0.07395833333333333,-0.4981481481481482],[0.07395833333333333,-0.4981481481481482],[0.07395833333333333,-0.4981481481481482],[0.07395833333333333,-0.4981481481481482],[0.07395833333333333,-0.4981481481481482],[0.07395833333333333,-0.4981481481481482],[0.07395833333333333,-0.4981481481481482],[0.07395833333333333,-0.4981481481481482],[0.07395833333333333,-0.4962962962962963],[0.075,-0.49444444444444446],[0.075,-0.49444444444444446],[0.075,-0.49444444444444446],[0.075,-0.49444444444444446],[0.075,-0.49444444444444446],[0.075,-0.49444444444444446],[0.075,-0.49444444444444446],[0.075,-0.49444444444444446],[0.075,-0.49444444444444446],[0.075,-0.49444444444444446],[0.075,-0.49444444444444446],[0.075,-0.49444444444444446],[0.075,-0.49444444444444446],[0.075,-0.49444444444444446],[0.075,-0.49444444444444446],[0.075,-0.49444444444444446],[0.075,-0.49444444444444446],[0.075,-0.49444444444444446],[0.075,-0.49444444444444446],[0.075,-0.49444444444444446],[0.075,-0.49444444444444446],[0.075,-0.49444444444444446],[0.075,-0.49444444444444446],[0.075,-0.49444444444444446],[0.075,-0.49444444444444446],[0.075,-0.49444444444444446],[0.075,-0.49444444444444446],[0.075,-0.49444444444444446],[0.075,-0.49444444444444446],[0.075,-0.49444444444444446],[0.075,-0.49444444444444446],[0.075,-0.49444444444444446],[0.075,-0.49444444444444446],[0.075,-0.49444444444444446],[0.075,-0.49444444444444446],[0.075,-0.49444444444444446],[0.075,-0.49444444444444446],[0.075,-0.49444444444444446],[0.075,-0.49444444444444446],[0.075,-0.49444444444444446],[0.075,-0.49444444444444446],[0.075,-0.49444444444444446],[0.075,-0.49444444444444446],[0.075,-0.49444444444444446],[0.075,-0.49444444444444446],[0.075,-0.49444444444444446],[0.075,-0.49444444444444446],[0.075,-0.49444444444444446],[0.075,-0.49444444444444446],[0.075,-0.49444444444444446],[0.075,-0.49444444444444446],[0.075,-0.49444444444444446],[0.075,-0.49444444444444446],[0.075,-0.49444444444444446],[0.075,-0.49444444444444446],[0.075,-0.49444444444444446],[0.075,-0.49444444444444446],[0.075,-0.49444444444444446],[0.075,-0.49444444444444446],[0.075,-0.49444444444444446],[0.075,-0.49444444444444446],[0.075,-0.49444444444444446],[0.075,-0.49444444444444446],[0.075,-0.49444444444444446],[0.075,-0.49444444444444446],[0.075,-0.49444444444444446],[0.075,-0.49444444444444446],[0.075,-0.49444444444444446],[0.075,-0.49444444444444446],[0.075,-0.49444444444444446],[0.075,-0.49444444444444446],[0.07604166666666666,-0.4925925925925926],[0.07604166666666666,-0.4925925925925926],[0.07604166666666666,-0.49074074074074076],[0.07604166666666666,-0.49074074074074076],[0.07604166666666666,-0.49074074074074076],[0.07604166666666666,-0.49074074074074076],[0.07604166666666666,-0.49074074074074076],[0.07604166666666666,-0.49074074074074076],[0.07604166666666666,-0.49074074074074076],[0.07604166666666666,-0.49074074074074076],[0.07604166666666666,-0.49074074074074076],[0.07604166666666666,-0.49074074074074076],[0.07604166666666666,-0.49074074074074076],[0.07604166666666666,-0.49074074074074076],[0.07604166666666666,-0.49074074074074076],[0.07604166666666666,-0.49074074074074076],[0.07604166666666666,-0.49074074074074076],[0.07604166666666666,-0.49074074074074076],[0.07604166666666666,-0.49074074074074076],[0.07604166666666666,-0.49074074074074076],[0.07604166666666666,-0.49074074074074076],[0.07604166666666666,-0.49074074074074076],[0.07604166666666666,-0.49074074074074076],[0.07604166666666666,-0.49074074074074076],[0.07604166666666666,-0.49074074074074076],[0.07604166666666666,-0.49074074074074076],[0.07604166666666666,-0.49074074074074076],[0.07604166666666666,-0.49074074074074076],[0.07604166666666666,-0.49074074074074076],[0.07604166666666666,-0.49074074074074076],[0.07604166666666666,-0.49074074074074076],[0.07604166666666666,-0.49074074074074076],[0.07604166666666666,-0.49074074074074076],[0.07604166666666666,-0.49074074074074076],[0.07604166666666666,-0.49074074074074076],[0.07604166666666666,-0.49074074074074076],[0.07604166666666666,-0.49074074074074076],[0.07604166666666666,-0.49074074074074076],[0.07604166666666666,-0.49074074074074076],[0.07604166666666666,-0.49074074074074076],[0.07604166666666666,-0.49074074074074076],[0.07604166666666666,-0.49074074074074076],[0.07604166666666666,-0.49074074074074076],[0.07604166666666666,-0.49074074074074076],[0.07604166666666666,-0.49074074074074076],[0.07604166666666666,-0.49074074074074076],[0.07604166666666666,-0.49074074074074076],[0.07604166666666666,-0.49074074074074076],[0.07604166666666666,-0.49074074074074076],[0.07604166666666666,-0.49074074074074076],[0.07604166666666666,-0.49074074074074076],[0.07604166666666666,-0.49074074074074076],[0.07604166666666666,-0.49074074074074076],[0.07604166666666666,-0.49074074074074076],[0.07604166666666666,-0.49074074074074076],[0.07604166666666666,-0.49074074074074076],[0.07604166666666666,-0.49074074074074076],[0.07604166666666666,-0.49074074074074076],[0.07604166666666666,-0.49074074074074076],[0.07604166666666666,-0.49074074074074076],[0.07604166666666666,-0.49074074074074076],[0.07604166666666666,-0.49074074074074076],[0.07604166666666666,-0.49074074074074076],[0.07604166666666666,-0.49074074074074076],[0.07604166666666666,-0.49074074074074076],[0.07604166666666666,-0.49074074074074076],[0.07604166666666666,-0.49074074074074076],[0.07604166666666666,-0.49074074074074076],[0.07604166666666666,-0.49074074074074076],[0.07604166666666666,-0.49074074074074076],[0.07604166666666666,-0.49074074074074076],[0.07604166666666666,-0.49074074074074076],[0.07604166666666666,-0.49074074074074076],[0.07604166666666666,-0.49074074074074076],[0.07604166666666666,-0.49074074074074076],[0.07604166666666666,-0.49074074074074076],[0.07604166666666666,-0.49074074074074076],[0.07604166666666666,-0.49074074074074076],[0.07604166666666666,-0.49074074074074076],[0.07604166666666666,-0.49074074074074076],[0.07604166666666666,-0.49074074074074076],[0.07604166666666666,-0.49074074074074076],[0.07604166666666666,-0.49074074074074076],[0.07604166666666666,-0.49074074074074076],[0.07604166666666666,-0.49074074074074076],[0.07604166666666666,-0.49074074074074076],[0.07604166666666666,-0.4888888888888889],[0.07604166666666666,-0.4888888888888889],[0.07708333333333334,-0.4888888888888889],[0.08020833333333334,-0.4759259259259259],[0.08125,-0.4740740740740741],[0.08645833333333333,-0.45740740740740743],[0.1,-0.4185185185185185],[0.109375,-0.3925925925925926],[0.12291666666666666,-0.3592592592592593],[0.13854166666666667,-0.31851851851851853],[0.1625,-0.24814814814814815],[0.18333333333333332,-0.17592592592592593],[0.203125,-0.11296296296296296],[0.21458333333333332,-0.06666666666666667],[0.22395833333333334,-0.025925925925925925],[0.23229166666666667,0.009259259259259259],[0.24166666666666667,0.05185185185185185],[0.24375,0.06481481481481481],[0.2520833333333333,0.10185185185185185],[0.25625,0.11666666666666667],[0.25729166666666664,0.12777777777777777],[0.25833333333333336,0.13333333333333333],[0.259375,0.13703703703703704],[0.2604166666666667,0.14444444444444443],[0.26145833333333335,0.14814814814814814],[0.2625,0.1537037037037037],[0.2635416666666667,0.16296296296296298],[0.26458333333333334,0.1685185185185185],[0.265625,0.17592592592592593],[0.265625,0.17777777777777778],[0.265625,0.18518518518518517],[0.265625,0.19074074074074074],[0.265625,0.19444444444444445],[0.26458333333333334,0.2],[0.2625,0.2037037037037037],[0.259375,0.21666666666666667],[0.2552083333333333,0.22407407407407406],[0.24479166666666666,0.2537037037037037],[0.23958333333333334,0.26851851851851855],[0.228125,0.3037037037037037],[0.21145833333333333,0.34629629629629627],[0.20104166666666667,0.37407407407407406],[0.19270833333333334,0.3907407407407407],[0.184375,0.4074074074074074],[0.17916666666666667,0.4148148148148148],[0.16979166666666667,0.42962962962962964],[0.16354166666666667,0.4388888888888889],[0.15625,0.4462962962962963],[0.15208333333333332,0.45185185185185184],[0.15,0.4537037037037037],[0.15,0.4537037037037037],[0.15,0.4537037037037037],[0.15,0.4537037037037037],[0.14895833333333333,0.45],[0.14895833333333333,0.43703703703703706],[0.14895833333333333,0.42407407407407405],[0.14895833333333333,0.4111111111111111],[0.14895833333333333,0.40185185185185185],[0.15104166666666666,0.38333333333333336],[0.15416666666666667,0.35185185185185186],[0.15625,0.3148148148148148],[0.15625,0.27037037037037037],[0.15625,0.22592592592592592],[0.15625,0.18888888888888888],[0.15625,0.1574074074074074],[0.15625,0.12777777777777777],[0.14895833333333333,0.08888888888888889],[0.14791666666666667,0.08518518518518518],[0.146875,0.08333333333333333],[0.146875,0.0962962962962963],[0.146875,0.13518518518518519],[0.146875,0.18518518518518517],[0.13645833333333332,0.2611111111111111],[0.134375,0.2777777777777778],[0.12916666666666668,0.3111111111111111],[0.121875,0.3425925925925926],[0.11979166666666667,0.35],[0.11979166666666667,0.3537037037037037],[0.11875,0.3574074074074074],[0.11770833333333333,0.3574074074074074],[0.11770833333333333,0.3574074074074074],[0.11770833333333333,0.3574074074074074],[0.11770833333333333,0.3592592592592593],[0.11770833333333333,0.3592592592592593],[0.11770833333333333,0.3592592592592593],[0.11770833333333333,0.3592592592592593],[0.11770833333333333,0.3592592592592593],[0.11770833333333333,0.3592592592592593],[0.11770833333333333,0.3592592592592593],[0.11770833333333333,0.3592592592592593],[0.11770833333333333,0.3592592592592593],[0.11770833333333333,0.3592592592592593],[0.11770833333333333,0.3592592592592593],[0.11770833333333333,0.3592592592592593],[0.11770833333333333,0.3592592592592593],[0.11770833333333333,0.3592592592592593],[0.11770833333333333,0.3611111111111111],[0.11770833333333333,0.3611111111111111],[0.12083333333333333,0.3611111111111111],[0.121875,0.35185185185185186],[0.12604166666666666,0.34074074074074073],[0.12916666666666668,0.3277777777777778],[0.134375,0.30925925925925923],[0.134375,0.30185185185185187],[0.13541666666666666,0.29444444444444445],[0.1375,0.28888888888888886],[0.1375,0.2833333333333333],[0.1375,0.2833333333333333],[0.1375,0.2814814814814815],[0.1375,0.2814814814814815],[0.1375,0.2814814814814815],[0.1375,0.2814814814814815],[0.1375,0.2814814814814815],[0.1375,0.2814814814814815],[0.1375,0.2814814814814815],[0.1375,0.2814814814814815],[0.1375,0.2814814814814815],[0.1375,0.2814814814814815],[0.1375,0.2814814814814815],[0.1375,0.2814814814814815],[0.1375,0.2814814814814815],[0.1375,0.2814814814814815],[0.1375,0.2814814814814815],[0.1375,0.2814814814814815],[0.1375,0.2814814814814815],[0.1375,0.2814814814814815],[0.1375,0.2814814814814815],[0.1375,0.2814814814814815],[0.1375,0.2814814814814815],[0.1375,0.2814814814814815],[0.1375,0.2814814814814815],[0.1375,0.2814814814814815],[0.1375,0.2814814814814815],[0.1375,0.2814814814814815],[0.1375,0.2814814814814815],[0.1375,0.2814814814814815],[0.1375,0.2814814814814815],[0.1375,0.2814814814814815],[0.1375,0.2814814814814815],[0.1375,0.2814814814814815],[0.1375,0.2814814814814815],[0.1375,0.2814814814814815],[0.1375,0.2814814814814815],[0.1375,0.2814814814814815],[0.1375,0.2814814814814815],[0.1375,0.2814814814814815]]","[[0.09333333333333324,0.3696296296296297],[0.09333333333333324,0.3696296296296297],[0.07364583333333338,0.327962962962963],[0.07364583333333338,0.327962962962963],[0.04739583333333333,0.30925925925925923],[0.04739583333333333,0.30925925925925923],[0.02947916666666662,0.32629629629629636],[-0.00614583333333331,0.3237037037037036],[-0.041562499999999974,0.33203703703703696],[-0.041562499999999974,0.33203703703703696],[-0.057395833333333354,0.3227777777777777],[-0.050312499999999954,0.30759259259259264],[-0.06927083333333334,0.3135185185185184],[-0.08822916666666672,0.3194444444444444],[-0.08822916666666672,0.3194444444444444],[-0.10281250000000004,0.30037037037037045],[-0.11583333333333339,0.2994444444444445],[-0.11020833333333328,0.2577777777777779],[-0.08875000000000005,0.2390740740740741],[-0.049583333333333354,0.24000000000000005],[-0.0015625,0.22018518518518515],[0.041562499999999974,0.23629629629629634],[0.041562499999999974,0.23629629629629634],[0.06197916666666667,0.24055555555555552],[0.06197916666666667,0.24055555555555552],[0.0703125,0.21425925925925934],[0.08499999999999991,0.21851851851851853],[0.08572916666666662,0.18611111111111112],[0.08572916666666662,0.18611111111111112],[0.10239583333333328,0.14000000000000004],[0.11875,0.1242592592592593],[0.12083333333333333,0.12981481481481486],[0.12291666666666666,0.13537037037037042],[0.12229166666666676,0.13444444444444448],[0.12229166666666676,0.13444444444444448],[0.12364583333333339,0.14000000000000004],[0.1209374999999999,0.1587037037037038],[0.1319791666666667,0.19277777777777783],[0.10906250000000005,0.1735185185185186],[0.10906250000000005,0.1735185185185186],[0.09593749999999991,0.19574074074074083],[0.08552083333333324,0.21129629629629634],[0.05333333333333338,0.20166666666666663],[0.05333333333333338,0.20166666666666663],[0.016145833333333335,0.15314814814814823],[0.0002083333333333807,0.11722222222222214],[-0.008437500000000023,0.02962962962962963],[-0.02354166666666669,-0.06703703703703702],[-0.028541666666666642,-0.08444444444444449],[-0.04895833333333333,-0.11148148148148146],[-0.04125000000000002,-0.14462962962962966],[-0.03354166666666671,-0.17777777777777778],[-0.036666666666666715,-0.1742592592592593],[-0.036666666666666715,-0.1742592592592593],[-0.04208333333333331,-0.11685185185185189],[-0.036354166666666646,-0.07740740740740742],[-0.036354166666666646,-0.07740740740740742],[-0.051874999999999956,-0.05055555555555547],[-0.08614583333333338,0.013888888888888888],[-0.10760416666666663,0.03925925925925934],[-0.13531249999999997,0.029814814814814856],[-0.1476041666666667,-0.009814814814814731],[-0.16052083333333336,0],[-0.1734375,0.009814814814814731],[-0.1734375,0.009814814814814731],[-0.19437500000000002,0.020370370370370372],[-0.1961458333333333,-0.01185185185185181],[-0.20906250000000004,-0.026111111111111154],[-0.23364583333333327,-0.04055555555555551],[-0.25416666666666665,0.009444444444444486],[-0.2747916666666666,0.09444444444444444],[-0.2954166666666667,0.13962962962962958],[-0.32062499999999994,0.2183333333333333],[-0.34572916666666664,0.2764814814814814],[-0.34572916666666664,0.2764814814814814],[-0.3685416666666666,0.32407407407407407],[-0.3765625,0.30166666666666664],[-0.39562499999999995,0.29296296296296304],[-0.41468750000000004,0.28425925925925927],[-0.41468750000000004,0.28425925925925927],[-0.4234375,0.2838888888888888],[-0.3832291666666666,0.2579629629629629],[-0.3832291666666666,0.2579629629629629],[-0.35572916666666665,0.2361111111111111],[-0.30062500000000003,0.22629629629629638],[-0.22604166666666667,0.22555555555555548],[-0.1751041666666667,0.20907407407407402],[-0.12093750000000002,0.21277777777777773],[-0.06458333333333334,0.22388888888888886],[-0.06458333333333334,0.22388888888888886],[-0.004062499999999977,0.22277777777777769],[0.06927083333333334,0.24166666666666667],[0.11437499999999995,0.2624074074074075],[0.12281250000000009,0.2692592592592592],[0.1640625,0.29981481481481476],[0.17770833333333325,0.3183333333333333],[0.18291666666666656,0.3081481481481481],[0.21302083333333333,0.3333333333333333],[0.23645833333333333,0.35055555555555545],[0.23645833333333333,0.35055555555555545],[0.25906250000000003,0.39962962962962956],[0.23395833333333324,0.494074074074074],[0.20864583333333328,0.5349999999999999],[0.2397916666666667,0.5183333333333333],[0.2709374999999999,0.5016666666666666],[0.2491666666666667,0.4346296296296297],[0.2273958333333333,0.3675925925925926],[0.19864583333333338,0.36314814814814816],[0.17041666666666658,0.319074074074074],[0.17041666666666658,0.319074074074074],[0.14333333333333323,0.2733333333333334],[0.12791666666666662,0.244074074074074],[0.14395833333333338,0.2140740740740741],[0.15760416666666663,0.25018518518518523],[0.15760416666666663,0.25018518518518523],[0.14375,0.3012962962962964],[0.1368750000000001,0.3418518518518519],[0.15010416666666657,0.40907407407407403],[0.15197916666666675,0.4662962962962962],[0.15197916666666675,0.4662962962962962],[0.15437500000000004,0.4868518518518518],[0.14447916666666671,0.5301851851851851],[0.16114583333333338,0.5829629629629629],[0.13854166666666667,0.6242592592592593],[0.1321875000000001,0.6209259259259259],[0.08489583333333334,0.5638888888888889],[0.03822916666666672,0.5394444444444444],[0.019791666666666666,0.5009259259259259],[0.004166666666666667,0.48814814814814816],[-0.022395833333333334,0.5018518518518519],[-0.04895833333333333,0.5155555555555555],[-0.04989583333333331,0.5194444444444445],[-0.09093749999999995,0.5062962962962962],[-0.10437500000000005,0.48814814814814816],[-0.10437500000000005,0.48814814814814816],[-0.10041666666666664,0.48148148148148145],[-0.05645833333333338,0.4564814814814815],[-0.027291666666666714,0.4427777777777778],[-0.04041666666666662,0.47092592592592586],[-0.05635416666666669,0.4733333333333334],[-0.04375,0.430925925925926],[-0.03114583333333331,0.38851851851851843],[-0.03114583333333331,0.38851851851851843],[-0.051041666666666666,0.4166666666666667],[-0.04791666666666667,0.4301851851851851],[-0.036354166666666646,0.45314814814814824],[-0.013645833333333357,0.4505555555555555],[-0.021458333333333357,0.46111111111111114],[-0.014479166666666644,0.46037037037037043],[0.008749999999999977,0.4596296296296297],[0.03197916666666671,0.4588888888888888],[0.05239583333333329,0.494074074074074],[0.0728125000000001,0.5292592592592592],[0.10479166666666657,0.4722222222222222],[0.13489583333333333,0.4398148148148148],[0.14104166666666676,0.4024074074074073],[0.11864583333333342,0.3790740740740742],[0.11749999999999995,0.38203703703703695],[0.12750000000000009,0.37777777777777777],[0.12833333333333338,0.3562962962962963],[0.13479166666666675,0.3396296296296296],[0.13781249999999995,0.3153703703703703],[0.12989583333333338,0.27240740740740743],[0.12781250000000005,0.2581481481481481],[0.12885416666666671,0.2514814814814814],[0.14541666666666658,0.2403703703703703],[0.16510416666666666,0.19444444444444445],[0.18479166666666677,0.1485185185185186],[0.20791666666666658,0.15703703703703695],[0.23104166666666662,0.1655555555555555],[0.26624999999999993,0.13185185185185194],[0.30145833333333344,0.09814814814814815],[0.32614583333333325,0.08499999999999996],[0.35697916666666674,0.08722222222222227],[0.3770833333333333,0.0794444444444444],[0.3890625,0.05018518518518523],[0.4007291666666667,0.0625925925925925],[0.42937500000000006,0.06796296296296304],[0.43416666666666665,0.01592592592592597],[0.4400000000000001,-0.01574074074074074],[0.428125,-0.009999999999999959],[0.4162499999999999,-0.004259259259259175],[0.4178124999999999,0.006296296296296254],[0.4132291666666667,0.0014814814814813973],[0.39812500000000006,-0.02092592592592584],[0.39114583333333336,-0.021851851851851768],[0.4079166666666666,-0.036666666666666584],[0.40770833333333345,-0.044444444444444446],[0.3955208333333334,-0.0338888888888888],[0.3941666666666668,-0.03814814814814819],[0.3837500000000001,-0.05277777777777778],[0.39572916666666674,-0.03481481481481473],[0.4157291666666666,-0.0235185185185186],[0.4357291666666666,-0.012222222222222264],[0.4357291666666666,-0.012222222222222264],[0.45677083333333335,-0.01055555555555564],[0.4657291666666666,-0.019999999999999917],[0.47687499999999994,-0.005000000000000084],[0.48802083333333335,0.009999999999999959],[0.501875,-0.00722222222222218],[0.49947916666666664,-0.055185185185185205],[0.5123958333333334,-0.060370370370370414],[0.5123958333333334,-0.060370370370370414],[0.5029166666666666,-0.09814814814814815],[0.49281249999999993,-0.11277777777777774],[0.4847916666666668,-0.1366666666666667],[0.48333333333333334,-0.1361111111111111],[0.48895833333333344,-0.12388888888888884],[0.45364583333333336,-0.13499999999999995],[0.4183333333333332,-0.14611111111111108],[0.4021874999999999,-0.15777777777777777],[0.39041666666666663,-0.14425925925925923],[0.38312499999999994,-0.13925925925925925],[0.3758333333333333,-0.13425925925925927],[0.3758333333333333,-0.13425925925925927],[0.3359375,-0.11870370370370374],[0.2908333333333334,-0.06018518518518518],[0.24864583333333337,0.0011111111111111532],[0.20885416666666667,0.057962962962962876],[0.18125,0.12074074074074083],[0.14364583333333342,0.18944444444444436],[0.09833333333333343,0.2614814814814816],[0.05302083333333331,0.33351851851851855],[-0.042499999999999954,0.36500000000000005],[-0.042499999999999954,0.36500000000000005],[-0.13802083333333334,0.39648148148148155],[-0.1734375,0.41092592592592586],[-0.22229166666666664,0.3801851851851851],[-0.2711458333333333,0.3494444444444445],[-0.3173958333333334,0.32259259259259265],[-0.3530208333333333,0.3301851851851851],[-0.3805208333333333,0.3322222222222222],[-0.39510416666666665,0.34666666666666673],[-0.4096874999999999,0.3611111111111111],[-0.40499999999999997,0.40611111111111103],[-0.40031249999999996,0.45111111111111113],[-0.4141666666666667,0.455925925925926],[-0.4114583333333333,0.4722222222222222],[-0.40249999999999997,0.47462962962962957],[-0.3935416666666666,0.4770370370370371],[-0.4079166666666667,0.4553703703703703],[-0.4204166666666667,0.43333333333333335],[-0.4401041666666667,0.44425925925925924],[-0.4538541666666667,0.455925925925926],[-0.4538541666666667,0.455925925925926],[-0.4473958333333333,0.4537037037037037],[-0.44406249999999997,0.4516666666666666],[-0.44656250000000003,0.4377777777777777],[-0.44906250000000003,0.42388888888888887],[-0.44906250000000003,0.42388888888888887],[-0.4565624999999999,0.4594444444444445],[-0.46802083333333333,0.4624074074074075],[-0.46677083333333336,0.45500000000000007],[-0.46552083333333333,0.44759259259259265],[-0.46281249999999996,0.4372222222222223],[-0.46604166666666663,0.42611111111111116],[-0.44989583333333333,0.39407407407407397],[-0.430625,0.3618518518518518],[-0.43093750000000003,0.3831481481481481],[-0.43125,0.4044444444444444],[-0.43947916666666664,0.3698148148148149],[-0.44375,0.3677777777777778],[-0.44375,0.3677777777777778],[-0.44260416666666663,0.3581481481481481],[-0.44260416666666663,0.3581481481481481],[-0.40031249999999996,0.38555555555555565],[-0.3484375,0.3907407407407407],[-0.334375,0.35777777777777786],[-0.334375,0.35777777777777786],[-0.32708333333333334,0.3618518518518518],[-0.30895833333333333,0.3874074074074075],[-0.28791666666666665,0.36740740740740735],[-0.26687500000000003,0.34740740740740744],[-0.26885416666666667,0.32259259259259265],[-0.2663541666666667,0.2946296296296297],[-0.23239583333333336,0.33240740740740743],[-0.2484375,0.29888888888888887],[-0.2741666666666667,0.26648148148148143],[-0.2763541666666666,0.25166666666666665],[-0.2911458333333333,0.22074074074074082],[-0.32843749999999994,0.16999999999999993],[-0.3515625,0.14666666666666675],[-0.3515625,0.14666666666666675],[-0.3680208333333333,0.11351851851851844],[-0.3680208333333333,0.11351851851851844],[-0.33999999999999997,0.16666666666666666],[-0.3319791666666667,0.1698148148148149],[-0.3294791666666666,0.11055555555555564],[-0.3680208333333333,0.14092592592592595],[-0.4046875,0.16407407407407412],[-0.35916666666666663,0.2699999999999999],[-0.3376041666666667,0.35999999999999993],[-0.299375,0.43759259259259253],[-0.299375,0.43759259259259253],[-0.2453125,0.4903703703703703],[-0.1967708333333333,0.543148148148148],[-0.16302083333333334,0.5348148148148147],[-0.12322916666666663,0.6351851851851852],[-0.11479166666666671,0.7398148148148148],[-0.11479166666666671,0.7398148148148148],[-0.07000000000000005,0.75],[-0.027083333333333334,0.7674074074074073],[-0.07562500000000003,0.7187037037037037],[-0.103125,0.6668518518518519],[-0.103125,0.6668518518518519],[-0.11364583333333336,0.632037037037037],[-0.1,0.6507407407407407],[-0.0875,0.6792592592592592],[-0.07114583333333328,0.6898148148148148],[-0.03822916666666672,0.6557407407407407],[-0.03270833333333331,0.5894444444444443],[-0.004270833333333357,0.5516666666666666],[0.04562499999999995,0.522037037037037],[0.11906249999999995,0.4962962962962963],[0.11906249999999995,0.4962962962962963],[0.19604166666666673,0.49907407407407406],[0.25770833333333343,0.4846296296296297],[0.2570833333333333,0.46296296296296297],[0.2564583333333334,0.4412962962962962],[0.2564583333333334,0.4412962962962962],[0.25729166666666664,0.41203703703703703],[0.24187500000000003,0.380925925925926],[0.24187500000000003,0.380925925925926],[0.2538541666666667,0.38203703703703695],[0.2326041666666666,0.3985185185185186],[0.1898958333333333,0.4068518518518519],[0.1618750000000001,0.384074074074074],[0.13322916666666676,0.35185185185185186],[0.08875000000000005,0.3416666666666667],[0.06656249999999998,0.30999999999999994],[0.04854166666666669,0.2627777777777777],[0.02520833333333338,0.2411111111111112],[0.016562499999999977,0.2574074074074074],[0.00791666666666669,0.2737037037037036],[0.022604166666666713,0.24462962962962967],[0.03729166666666662,0.2155555555555555],[0.03843749999999998,0.25999999999999995],[0.03958333333333333,0.3044444444444444],[0.041770833333333354,0.3316666666666667],[0.043958333333333384,0.3588888888888888],[0.041875000000000044,0.4292592592592592],[0.0375,0.4933333333333333],[0.027604166666666666,0.5103703703703704],[0.026250000000000048,0.5112962962962964],[0.025416666666666643,0.5527777777777778],[0.014999999999999977,0.5742592592592592],[0.0034374999999999527,0.5533333333333332],[-0.021145833333333287,0.5451851851851851],[-0.021145833333333287,0.5451851851851851],[-0.03760416666666669,0.543148148148148],[-0.034166666666666616,0.5707407407407408],[-0.030624999999999975,0.5707407407407408],[-0.03250000000000005,0.5659259259259259],[-0.034375,0.5611111111111111],[-0.040625,0.543148148148148],[-0.046875,0.5251851851851852],[-0.05593750000000005,0.5222222222222223],[-0.06499999999999997,0.5192592592592592],[-0.0375,0.5120370370370371],[-0.0375,0.5120370370370371],[-0.010000000000000024,0.5048148148148148],[0.005312500000000024,0.46055555555555566],[0.01395833333333331,0.4448148148148149],[0.030312500000000023,0.4401851851851853],[0.030312500000000023,0.4401851851851853],[0.04812500000000005,0.43555555555555564],[0.04812500000000005,0.4935185185185185],[0.06770833333333333,0.5137037037037037],[0.0875,0.5303703703703704],[0.14177083333333323,0.5303703703703704],[0.1724999999999999,0.5218518518518518],[0.19968750000000005,0.5007407407407407],[0.20635416666666656,0.49370370370370376],[0.2196875000000001,0.4581481481481481],[0.23958333333333334,0.415925925925926],[0.25666666666666677,0.3683333333333333],[0.2907291666666666,0.29981481481481476],[0.30520833333333336,0.26907407407407397],[0.3333333333333333,0.20277777777777778],[0.3302083333333333,0.14888888888888885],[0.32614583333333325,0.1398148148148148],[0.3186458333333334,0.13185185185185194],[0.3186458333333334,0.13185185185185194],[0.3397916666666667,0.09685185185185177],[0.3492708333333333,0.09462962962962967],[0.35218749999999993,0.09907407407407408],[0.3304166666666667,0.08574074074074066],[0.3064583333333334,0.08481481481481473],[0.28250000000000003,0.0838888888888888],[0.2353125000000001,0.11444444444444436],[0.18489583333333334,0.1492592592592593],[0.14052083333333343,0.1398148148148148],[0.103125,0.1418518518518519],[0.044375000000000026,0.17814814814814822],[-0.002708333333333357,0.1816666666666667],[-0.042604166666666644,0.1737037037037036],[-0.06468750000000002,0.18222222222222217],[-0.08791666666666664,0.16592592592592598],[-0.09833333333333331,0.13666666666666658],[-0.08697916666666666,0.11999999999999991],[-0.10562499999999998,0.125],[-0.12937500000000005,0.1294444444444444],[-0.16114583333333338,0.12222222222222222],[-0.18999999999999997,0.09759259259259268],[-0.21927083333333333,0.09870370370370361],[-0.2660416666666666,0.12666666666666662],[-0.28062499999999996,0.12962962962962962],[-0.3032291666666667,0.1331481481481481],[-0.33864583333333337,0.14962962962962956],[-0.3740625,0.16611111111111118],[-0.37093750000000003,0.18092592592592602],[-0.36781250000000004,0.19574074074074083],[-0.3578125,0.20203703703703707],[-0.3578125,0.20203703703703707],[-0.3486458333333334,0.21722222222222215],[-0.36343749999999997,0.20018518518518522],[-0.3679166666666667,0.16777777777777783],[-0.37302083333333336,0.17166666666666675],[-0.37625000000000003,0.16944444444444445],[-0.36354166666666665,0.1675925925925926],[-0.37000000000000005,0.18462962962962973],[-0.385,0.1816666666666667],[-0.34833333333333333,0.19370370370370374],[-0.31052083333333336,0.22592592592592592],[-0.2773958333333333,0.24537037037037038],[-0.2773958333333333,0.24537037037037038],[-0.21625000000000003,0.28277777777777785],[-0.21625000000000003,0.28277777777777785],[-0.15510416666666665,0.32018518518518513],[-0.11291666666666664,0.3522222222222223],[-0.08822916666666672,0.35796296296296287],[-0.07947916666666661,0.3633333333333334],[-0.027604166666666666,0.3357407407407407],[0.05479166666666669,0.35907407407407405],[0.08552083333333324,0.36740740740740735],[0.11624999999999991,0.3757407407407407],[0.14562499999999995,0.3685185185185185],[0.1775000000000001,0.369074074074074],[0.209375,0.3696296296296297],[0.2103125000000001,0.35537037037037034],[0.25031249999999994,0.3290740740740742],[0.2798958333333334,0.3148148148148148],[0.2798958333333334,0.3148148148148148],[0.2855208333333332,0.3146296296296296],[0.275,0.26796296296296307],[0.26447916666666677,0.2212962962962963],[0.24802083333333325,0.1816666666666667],[0.24104166666666677,0.16500000000000004],[0.22729166666666673,0.10629629629629625],[0.21354166666666666,0.04759259259259268],[0.22000000000000006,0.006481481481481481],[0.21104166666666657,0.009259259259259259],[0.20125000000000004,0.01722222222222214],[0.19145833333333329,0.025185185185185227],[0.19145833333333329,0.025185185185185227],[0.1896874999999999,0.014814814814814815],[0.19572916666666676,-0.051111111111111156],[0.20770833333333344,-0.12407407407407407],[0.20197916666666677,-0.13203703703703706],[0.17666666666666658,-0.13759259259259263],[0.15572916666666667,-0.11462962962962958],[0.17374999999999996,-0.1301851851851852],[0.1696875000000001,-0.13129629629629624],[0.1696875000000001,-0.13129629629629624],[0.19322916666666667,-0.19759259259259257],[0.19083333333333338,-0.2235185185185185],[0.16604166666666675,-0.23555555555555555],[0.15947916666666656,-0.21703703703703703],[0.14072916666666657,-0.20129629629629628],[0.14072916666666657,-0.20129629629629628],[0.1396874999999999,-0.2505555555555556],[0.16843750000000005,-0.25148148148148153],[0.20083333333333328,-0.2948148148148148],[0.20062499999999991,-0.30166666666666664],[0.20583333333333323,-0.28703703703703703],[0.20583333333333323,-0.28703703703703703],[0.19229166666666658,-0.27555555555555555],[0.22333333333333344,-0.2959259259259259],[0.2265625,-0.3381481481481482],[0.21281249999999996,-0.3374074074074074],[0.20125000000000004,-0.3218518518518519],[0.1896874999999999,-0.30629629629629623],[0.1734375,-0.32981481481481484],[0.1734375,-0.32981481481481484],[0.1616666666666667,-0.3242592592592593],[0.16135416666666677,-0.32],[0.16604166666666675,-0.367037037037037],[0.1546875,-0.33648148148148144],[0.13697916666666668,-0.29074074074074074],[0.16291666666666677,-0.2770370370370371],[0.1625,-0.22814814814814813],[0.16802083333333329,-0.17074074074074072],[0.17354166666666657,-0.11333333333333331],[0.17927083333333324,-0.09462962962962967],[0.17927083333333324,-0.09462962962962967],[0.17687499999999995,-0.09592592592592594],[0.17687499999999995,-0.09592592592592594],[0.1414583333333333,-0.1111111111111111],[0.1414583333333333,-0.1111111111111111],[0.12697916666666675,-0.10648148148148148],[0.13479166666666675,-0.1485185185185185],[0.13031249999999991,-0.21425925925925923],[0.13031249999999991,-0.21425925925925923],[0.11833333333333323,-0.18611111111111112],[0.125,-0.24833333333333338],[0.13572916666666662,-0.33111111111111113],[0.13875000000000004,-0.4087037037037037],[0.14489583333333325,-0.4522222222222222],[0.1466666666666666,-0.490925925925926],[0.16010416666666671,-0.4644444444444445],[0.16239583333333343,-0.4609259259259259],[0.16635416666666672,-0.4081481481481481],[0.16135416666666677,-0.3635185185185185],[0.14739583333333334,-0.39166666666666666],[0.13208333333333327,-0.38259259259259265],[0.12135416666666667,-0.37],[0.11833333333333323,-0.36259259259259263],[0.11833333333333323,-0.36259259259259263],[0.10854166666666672,-0.3344444444444445],[0.10854166666666672,-0.3344444444444445],[0.10177083333333338,-0.2977777777777778],[0.10177083333333338,-0.2977777777777778],[0.1140625,-0.30351851851851847],[0.1336458333333333,-0.2772222222222222],[0.14010416666666667,-0.259074074074074],[0.14718749999999994,-0.27740740740740744],[0.16375000000000003,-0.29388888888888887],[0.1803124999999999,-0.3103703703703704],[0.18427083333333344,-0.23944444444444446],[0.2007291666666667,-0.19277777777777783],[0.1884375000000001,-0.08074074074074078],[0.17822916666666658,-0.010370370370370412],[0.16083333333333344,0.06055555555555564],[0.16083333333333344,0.06055555555555564],[0.13791666666666677,0.122037037037037],[0.1306250000000001,0.1609259259259259],[0.13333333333333333,0.2794444444444444],[0.10854166666666672,0.40259259259259256],[0.08375000000000009,0.5257407407407407],[0.08375000000000009,0.5257407407407407],[0.07333333333333343,0.4587037037037038],[0.06458333333333334,0.4112962962962963],[0.08156249999999995,0.3088888888888888],[0.09343750000000005,0.23962962962962958],[0.109375,0.14444444444444443],[0.12541666666666676,0.04518518518518514],[0.12999999999999995,-0.04740740740740745],[0.1178124999999999,-0.17611111111111116],[0.11031250000000009,-0.27759259259259256],[0.11927083333333334,-0.4168518518518519],[0.12312500000000005,-0.4185185185185185],[0.09656250000000005,-0.3985185185185185],[0.07156250000000004,-0.39388888888888884],[0.04479166666666667,-0.38555555555555554],[0.04479166666666667,-0.38555555555555554],[0.02166666666666662,-0.36203703703703705],[0.0006250000000000236,-0.3542592592592593],[-0.01572916666666669,-0.3514814814814815],[-0.016979166666666618,-0.34759259259259256],[-0.016979166666666618,-0.34759259259259256],[-0.01083333333333331,-0.32629629629629625],[-0.03322916666666664,-0.2742592592592593],[-0.03322916666666664,-0.2742592592592593],[-0.05,-0.27444444444444444],[-0.04635416666666667,-0.2892592592592592],[-0.042708333333333334,-0.30407407407407405],[-0.02947916666666662,-0.3309259259259259]]","[[0.09333333333333324,0.3696296296296297,0.0001999999880837322],[0.09333333333333324,0.3696296296296297,0.05100000000000193],[0.07364583333333338,0.327962962962963,0.061199999988083675],[0.07364583333333338,0.327962962962963,0.07479999999702613],[0.04739583333333333,0.30925925925925923,0.09159999999404533],[0.04739583333333333,0.30925925925925923,0.10809999999403885],[0.02947916666666662,0.32629629629629636,0.12479999999702329],[-0.00614583333333331,0.3237037037037036,0.14259999999404016],[-0.041562499999999974,0.33203703703703696,0.15809999999404312],[-0.041562499999999974,0.33203703703703696,0.17479999999702045],[-0.057395833333333354,0.3227777777777777,0.1915000000000049],[-0.050312499999999954,0.30759259259259264,0.20819999998808214],[-0.06927083333333334,0.3135185185185184,0.22689999999106192],[-0.08822916666666672,0.3194444444444444,0.2413999999910601],[-0.08822916666666672,0.3194444444444444,0.25809999999404454],[-0.10281250000000004,0.30037037037037045,0.27479999999702187],[-0.11583333333333339,0.2994444444444445,0.29139999999106436],[-0.11020833333333328,0.2577777777777779,0.31009999999404414],[-0.08875000000000005,0.2390740740740741,0.32589999999106567],[-0.049583333333333354,0.24000000000000005,0.3413999999910615],[-0.0015625,0.22018518518518515,0.3580000000000041],[0.041562499999999974,0.23629629629629634,0.3747999999970233],[0.041562499999999974,0.23629629629629634,0.3915999999940425],[0.06197916666666667,0.24055555555555552,0.4080999999940431],[0.06197916666666667,0.24055555555555552,0.4246999999880785],[0.0703125,0.21425925925925934,0.44139999999106294],[0.08499999999999991,0.21851851851851853,0.4580999999940403],[0.08572916666666662,0.18611111111111112,0.4777999999970248],[0.08572916666666662,0.18611111111111112,0.4916999999880787],[0.10239583333333328,0.14000000000000004,0.5080000000000027],[0.11875,0.1242592592592593,0.527000000000001],[0.12083333333333333,0.12981481481481486,0.5459999999999994],[0.12291666666666666,0.13537037037037042,0.5607999999970232],[0.12229166666666676,0.13444444444444448,0.5750000000000028],[0.12229166666666676,0.13444444444444448,0.5915000000000035],[0.12364583333333339,0.14000000000000004,0.6080999999940389],[0.1209374999999999,0.1587037037037038,0.6247999999970233],[0.1319791666666667,0.19277777777777783,0.6425000000000054],[0.10906250000000005,0.1735185185185186,0.6580999999940431],[0.10906250000000005,0.1735185185185186,0.6747999999970204],[0.09593749999999991,0.19574074074074083,0.6915999999940396],[0.08552083333333324,0.21129629629629634,0.7125000000000057],[0.05333333333333338,0.20166666666666663,0.7281999999880853],[0.05333333333333338,0.20166666666666663,0.7413999999910601],[0.016145833333333335,0.15314814814814823,0.7580999999940445],[0.0002083333333333807,0.11722222222222214,0.7746999999880799],[-0.008437500000000023,0.02962962962962963,0.7915000000000063],[-0.02354166666666669,-0.06703703703703702,0.8100999999940441],[-0.028541666666666642,-0.08444444444444449,0.8248999999910609],[-0.04895833333333333,-0.11148148148148146,0.8442999999970198],[-0.04125000000000002,-0.14462962962962966,0.8590999999940436],[-0.03354166666666671,-0.17777777777777778,0.8787999999970211],[-0.036666666666666715,-0.1742592592592593,0.8955000000000055],[-0.036666666666666715,-0.1742592592592593,0.9080999999940431],[-0.04208333333333331,-0.11685185185185189,0.9246999999880785],[-0.036354166666666646,-0.07740740740740742,0.944500000000005],[-0.036354166666666646,-0.07740740740740742,0.9635999999940452],[-0.051874999999999956,-0.05055555555555547,0.9771999999880805],[-0.08614583333333338,0.013888888888888888,0.992299999997023],[-0.10760416666666663,0.03925925925925934,1.0080999999940445],[-0.13531249999999997,0.029814814814814856,1.02469999998808],[-0.1476041666666667,-0.009814814814814731,1.0413999999910644],[-0.16052083333333336,0,1.0600999999940441],[-0.1734375,0.009814814814814731,1.0747999999970261],[-0.1734375,0.009814814814814731,1.0913999999910615],[-0.19437500000000002,0.020370370370370372,1.1080999999940389],[-0.1961458333333333,-0.01185185185185181,1.1247999999970233],[-0.20906250000000004,-0.026111111111111154,1.1425999999940402],[-0.23364583333333327,-0.04055555555555551,1.1580999999940431],[-0.25416666666666665,0.009444444444444486,1.1772999999970253],[-0.2747916666666666,0.09444444444444444,1.191399999991063],[-0.2954166666666667,0.13962962962962958,1.2080999999940403],[-0.32062499999999994,0.2183333333333333,1.2257999999970224],[-0.34572916666666664,0.2764814814814814,1.24139999999106],[-0.34572916666666664,0.2764814814814814,1.2580999999940445],[-0.3685416666666666,0.32407407407407407,1.27469999998808],[-0.3765625,0.30166666666666664,1.2913999999910644],[-0.39562499999999995,0.29296296296296304,1.3090999999940394],[-0.41468750000000004,0.28425925925925927,1.3246999999880842],[-0.41468750000000004,0.28425925925925927,1.3413999999910615],[-0.4234375,0.2838888888888888,1.3580999999940389],[-0.3832291666666666,0.2579629629629629,1.3746999999880813],[-0.3832291666666666,0.2579629629629629,1.3915000000000006],[-0.35572916666666665,0.2361111111111111,1.4080999999940431],[-0.30062500000000003,0.22629629629629638,1.42739999999106],[-0.22604166666666667,0.22555555555555548,1.441399999991063],[-0.1751041666666667,0.20907407407407402,1.4580000000000055],[-0.12093750000000002,0.21277777777777773,1.4761999999880828],[-0.06458333333333334,0.22388888888888886,1.491500000000002],[-0.06458333333333334,0.22388888888888886,1.5080999999940445],[-0.004062499999999977,0.22277777777777769,1.52469999998808],[0.06927083333333334,0.24166666666666667,1.5413999999910644],[0.11437499999999995,0.2624074074074075,1.560199999988079],[0.12281250000000009,0.2692592592592592,1.5746999999880842],[0.1640625,0.29981481481481476,1.591899999991064],[0.17770833333333325,0.3183333333333333,1.608000000000004],[0.18291666666666656,0.3081481481481481,1.6246999999880813],[0.21302083333333333,0.3333333333333333,1.6417999999970192],[0.23645833333333333,0.35055555555555545,1.6580000000000013],[0.23645833333333333,0.35055555555555545,1.6746999999880785],[0.25906250000000003,0.39962962962962956,1.6915000000000049],[0.23395833333333324,0.494074074074074,1.7125000000000057],[0.20864583333333328,0.5349999999999999,1.7280000000000015],[0.2397916666666667,0.5183333333333333,1.7450999999940393],[0.2709374999999999,0.5016666666666666,1.760799999997026],[0.2491666666666667,0.4346296296296297,1.77469999998808],[0.2273958333333333,0.3675925925925926,1.7915000000000063],[0.19864583333333338,0.36314814814814816,1.8091999999880812],[0.17041666666666658,0.319074074074074,1.8246999999880842],[0.17041666666666658,0.319074074074074,1.8413999999910615],[0.14333333333333323,0.2733333333333334,1.858000000000004],[0.12791666666666662,0.244074074074074,1.8746999999880813],[0.14395833333333338,0.2140740740740741,1.8928999999910587],[0.15760416666666663,0.25018518518518523,1.9080999999940431],[0.15760416666666663,0.25018518518518523,1.9247999999970204],[0.14375,0.3012962962962964,1.9415000000000049],[0.1368750000000001,0.3418518518518519,1.9580000000000055],[0.15010416666666657,0.40907407407407403,1.9757999999970224],[0.15197916666666675,0.4662962962962962,1.991599999994044],[0.15197916666666675,0.4662962962962962,2.0080999999940445],[0.15437500000000004,0.4868518518518518,2.0248999999910637],[0.14447916666666671,0.5301851851851851,2.0441999999880807],[0.16114583333333338,0.5829629629629629,2.0605000000000047],[0.13854166666666667,0.6242592592592593,2.0758999999910657],[0.1321875000000001,0.6209259259259259,2.09169999998808],[0.08489583333333334,0.5638888888888889,2.1081999999880807],[0.03822916666666672,0.5394444444444444,2.124899999991065],[0.019791666666666666,0.5009259259259259,2.141799999997019],[0.004166666666666667,0.48814814814814816,2.1580000000000013],[-0.022395833333333334,0.5018518518518519,2.1746999999880785],[-0.04895833333333333,0.5155555555555555,2.191500000000005],[-0.04989583333333331,0.5194444444444445,2.2080000000000055],[-0.09093749999999995,0.5062962962962962,2.2258999999910642],[-0.10437500000000005,0.48814814814814816,2.241500000000002],[-0.10437500000000005,0.48814814814814816,2.2580999999940445],[-0.10041666666666664,0.48148148148148145,2.274799999997022],[-0.05645833333333338,0.4564814814814815,2.291699999988083],[-0.027291666666666714,0.4427777777777778,2.3105000000000047],[-0.04041666666666662,0.47092592592592586,2.324699999988084],[-0.05635416666666669,0.4733333333333334,2.3412999999970197],[-0.04375,0.430925925925926,2.358099999994039],[-0.03114583333333331,0.38851851851851843,2.3746999999880813],[-0.03114583333333331,0.38851851851851843,2.391799999997019],[-0.051041666666666666,0.4166666666666667,2.408199999988085],[-0.04791666666666667,0.4301851851851851,2.4246999999880785],[-0.036354166666666646,0.45314814814814824,2.441399999991063],[-0.013645833333333357,0.4505555555555555,2.4580999999940403],[-0.021458333333333357,0.46111111111111114,2.477699999988083],[-0.014479166666666644,0.46037037037037043,2.4950999999940393],[0.008749999999999977,0.4596296296296297,2.51009999999404],[0.03197916666666671,0.4588888888888888,2.52469999998808],[0.05239583333333329,0.494074074074074,2.5413999999910644],[0.0728125000000001,0.5292592592592592,2.5598999999910603],[0.10479166666666657,0.4722222222222222,2.574699999988084],[0.13489583333333333,0.4398148148148148,2.5952999999970245],[0.14104166666666676,0.4024074074074073,2.6092999999970203],[0.11864583333333342,0.3790740740740742,2.6246999999880813],[0.11749999999999995,0.38203703703703695,2.6425000000000054],[0.12750000000000009,0.37777777777777777,2.658099999994043],[0.12833333333333338,0.3562962962962963,2.6746999999880785],[0.13479166666666675,0.3396296296296296,2.691500000000005],[0.13781249999999995,0.3153703703703703,2.7080000000000055],[0.12989583333333338,0.27240740740740743,2.7256999999880804],[0.12781250000000005,0.2581481481481481,2.74139999999106],[0.12885416666666671,0.2514814814814814,2.761000000000003],[0.14541666666666658,0.2403703703703703,2.7758999999910614],[0.16510416666666666,0.19444444444444445,2.7943999999910645],[0.18479166666666677,0.1485185185185186,2.8105000000000047],[0.20791666666666658,0.15703703703703695,2.8265999999940448],[0.23104166666666662,0.1655555555555555,2.8413999999910615],[0.26624999999999993,0.13185185185185194,2.858099999994039],[0.30145833333333344,0.09814814814814815,2.8746999999880813],[0.32614583333333325,0.08499999999999996,2.894299999997024],[0.35697916666666674,0.08722222222222227,2.9091999999880827],[0.3770833333333333,0.0794444444444444,2.925099999994039],[0.3890625,0.05018518518518523,2.941299999997021],[0.4007291666666667,0.0625925925925925,2.9580999999940403],[0.42937500000000006,0.06796296296296304,2.9758999999910642],[0.43416666666666665,0.01592592592592597,2.991500000000002],[0.4400000000000001,-0.01574074074074074,3.011000000000003],[0.428125,-0.009999999999999959,3.02469999998808],[0.4162499999999999,-0.004259259259259175,3.0412999999970225],[0.4178124999999999,0.006296296296296254,3.0600000000000023],[0.4132291666666667,0.0014814814814813973,3.074699999988084],[0.39812500000000006,-0.02092592592592584,3.091799999997022],[0.39114583333333336,-0.021851851851851768,3.108000000000004],[0.4079166666666666,-0.036666666666666584,3.1246999999880813],[0.40770833333333345,-0.044444444444444446,3.1423999999910635],[0.3955208333333334,-0.0338888888888888,3.1580000000000013],[0.3941666666666668,-0.03814814814814819,3.177599999994044],[0.3837500000000001,-0.05277777777777778,3.193799999997026],[0.39572916666666674,-0.03481481481481473,3.2125000000000057],[0.4157291666666666,-0.0235185185185186,3.2271999999880805],[0.4357291666666666,-0.012222222222222264,3.241500000000002],[0.4357291666666666,-0.012222222222222264,3.2580000000000027],[0.45677083333333335,-0.01055555555555564,3.27469999998808],[0.4657291666666666,-0.019999999999999917,3.2913999999910644],[0.47687499999999994,-0.005000000000000084,3.3096999999880836],[0.48802083333333335,0.009999999999999959,3.324799999997026],[0.501875,-0.00722222222222218,3.3415999999940453],[0.49947916666666664,-0.055185185185185205,3.358099999994039],[0.5123958333333334,-0.060370370370370414,3.3746999999880813],[0.5123958333333334,-0.060370370370370414,3.3915999999940425],[0.5029166666666666,-0.09814814814814815,3.408099999994043],[0.49281249999999993,-0.11277777777777774,3.4278999999910624],[0.4847916666666668,-0.1366666666666667,3.441299999997021],[0.48333333333333334,-0.1361111111111111,3.4580000000000055],[0.48895833333333344,-0.12388888888888884,3.4762999999970248],[0.45364583333333336,-0.13499999999999995,3.491599999994044],[0.4183333333333332,-0.14611111111111108,3.5082999999970212],[0.4021874999999999,-0.15777777777777777,3.524599999994045],[0.39041666666666663,-0.14425925925925923,3.5412999999970225],[0.38312499999999994,-0.13925925925925925,3.5600000000000023],[0.3758333333333333,-0.13425925925925927,3.5750999999940447],[0.3758333333333333,-0.13425925925925927,3.5915000000000035],[0.3359375,-0.11870370370370374,3.608000000000004],[0.2908333333333334,-0.06018518518518518,3.6246999999880813],[0.24864583333333337,0.0011111111111111532,3.6423999999910635],[0.20885416666666667,0.057962962962962876,3.6580000000000013],[0.18125,0.12074074074074083,3.6777999999970206],[0.14364583333333342,0.18944444444444436,3.696599999994042],[0.09833333333333343,0.2614814814814816,3.7125000000000057],[0.05302083333333331,0.33351851851851855,3.727599999994041],[-0.042499999999999954,0.36500000000000005,3.742399999991065],[-0.042499999999999954,0.36500000000000005,3.7580999999940445],[-0.13802083333333334,0.39648148148148155,3.77469999998808],[-0.1734375,0.41092592592592586,3.7913999999910644],[-0.22229166666666664,0.3801851851851851,3.8090999999940394],[-0.2711458333333333,0.3494444444444445,3.824699999988084],[-0.3173958333333334,0.32259259259259265,3.8413999999910615],[-0.3530208333333333,0.3301851851851851,3.858000000000004],[-0.3805208333333333,0.3322222222222222,3.8746999999880813],[-0.39510416666666665,0.34666666666666673,3.8930999999940425],[-0.4096874999999999,0.3611111111111111,3.908099999994043],[-0.40499999999999997,0.40611111111111103,3.9247999999970204],[-0.40031249999999996,0.45111111111111113,3.941399999991063],[-0.4141666666666667,0.455925925925926,3.9580999999940403],[-0.4114583333333333,0.4722222222222222,3.9758999999910642],[-0.40249999999999997,0.47462962962962957,3.9926999999880834],[-0.3935416666666666,0.4770370370370371,4.008699999988082],[-0.4079166666666667,0.4553703703703703,4.02469999998808],[-0.4204166666666667,0.43333333333333335,4.0412999999970225],[-0.4401041666666667,0.44425925925925924,4.060899999991065],[-0.4538541666666667,0.455925925925926,4.074699999988084],[-0.4538541666666667,0.455925925925926,4.0913999999910615],[-0.4473958333333333,0.4537037037037037,4.108000000000004],[-0.44406249999999997,0.4516666666666666,4.124799999997023],[-0.44656250000000003,0.4377777777777777,4.142500000000005],[-0.44906250000000003,0.42388888888888887,4.158000000000001],[-0.44906250000000003,0.42388888888888887,4.1746999999880785],[-0.4565624999999999,0.4594444444444445,4.191500000000005],[-0.46802083333333333,0.4624074074074075,4.20809999999404],[-0.46677083333333336,0.45500000000000007,4.225899999991064],[-0.46552083333333333,0.44759259259259265,4.241299999997025],[-0.46281249999999996,0.4372222222222223,4.25859999999404],[-0.46604166666666663,0.42611111111111116,4.27469999998808],[-0.44989583333333333,0.39407407407407397,4.291399999991064],[-0.430625,0.3618518518518518,4.309199999988081],[-0.43093750000000003,0.3831481481481481,4.324699999988084],[-0.43125,0.4044444444444444,4.34469999998808],[-0.43947916666666664,0.3698148148148149,4.358299999997023],[-0.44375,0.3677777777777778,4.374699999988081],[-0.44375,0.3677777777777778,4.391500000000001],[-0.44260416666666663,0.3581481481481481,4.411199999988085],[-0.44260416666666663,0.3581481481481481,4.4247999999970204],[-0.40031249999999996,0.38555555555555565,4.441399999991063],[-0.3484375,0.3907407407407407,4.462099999994045],[-0.334375,0.35777777777777786,4.478500000000004],[-0.334375,0.35777777777777786,4.491599999994044],[-0.32708333333333334,0.3618518518518518,4.5080999999940445],[-0.30895833333333333,0.3874074074074075,4.525699999988085],[-0.28791666666666665,0.36740740740740735,4.5412999999970225],[-0.26687500000000003,0.34740740740740744,4.560199999988079],[-0.26885416666666667,0.32259259259259265,4.575099999994045],[-0.2663541666666667,0.2946296296296297,4.595099999994041],[-0.23239583333333336,0.33240740740740743,4.610099999994041],[-0.2484375,0.29888888888888887,4.6291999999880815],[-0.2741666666666667,0.26648148148148143,4.644599999994043],[-0.2763541666666666,0.25166666666666665,4.66129999999702],[-0.2911458333333333,0.22074074074074082,4.677500000000002],[-0.32843749999999994,0.16999999999999993,4.694299999997021],[-0.3515625,0.14666666666666675,4.711899999991061],[-0.3515625,0.14666666666666675,4.724799999997025],[-0.3680208333333333,0.11351851851851844,4.74139999999106],[-0.3680208333333333,0.11351851851851844,4.7580999999940445],[-0.33999999999999997,0.16666666666666666,4.77469999998808],[-0.3319791666666667,0.1698148148148149,4.791799999997025],[-0.3294791666666666,0.11055555555555564,4.808500000000002],[-0.3680208333333333,0.14092592592592595,4.824599999994042],[-0.4046875,0.16407407407407412,4.8437999999970245],[-0.35916666666666663,0.2699999999999999,4.858000000000004],[-0.3376041666666667,0.35999999999999993,4.874699999988081],[-0.299375,0.43759259259259253,4.894199999988082],[-0.299375,0.43759259259259253,4.908099999994043],[-0.2453125,0.4903703703703703,4.9246999999880785],[-0.1967708333333333,0.543148148148148,4.941299999997021],[-0.16302083333333334,0.5348148148148147,4.9580000000000055],[-0.12322916666666663,0.6351851851851852,4.975000000000001],[-0.11479166666666671,0.7398148148148148,4.99139999999106],[-0.11479166666666671,0.7398148148148148,5.008000000000003],[-0.07000000000000005,0.75,5.02469999998808],[-0.027083333333333334,0.7674074074074073,5.041399999991064],[-0.07562500000000003,0.7187037037037037,5.05839999999106],[-0.103125,0.6668518518518519,5.074699999988084],[-0.103125,0.6668518518518519,5.0913999999910615],[-0.11364583333333336,0.632037037037037,5.108000000000004],[-0.1,0.6507407407407407,5.124699999988081],[-0.0875,0.6792592592592592,5.1415999999940425],[-0.07114583333333328,0.6898148148148148,5.158099999994043],[-0.03822916666666672,0.6557407407407407,5.177299999997025],[-0.03270833333333331,0.5894444444444443,5.192599999994044],[-0.004270833333333357,0.5516666666666666,5.2080000000000055],[0.04562499999999995,0.522037037037037,5.2271999999880805],[0.11906249999999995,0.4962962962962963,5.24139999999106],[0.11906249999999995,0.4962962962962963,5.258000000000003],[0.19604166666666673,0.49907407407407406,5.27469999998808],[0.25770833333333343,0.4846296296296297,5.291599999994041],[0.2570833333333333,0.46296296296296297,5.30989999999106],[0.2564583333333334,0.4412962962962962,5.324799999997026],[0.2564583333333334,0.4412962962962962,5.3413999999910615],[0.25729166666666664,0.41203703703703703,5.358000000000004],[0.24187500000000003,0.380925925925926,5.380500000000005],[0.24187500000000003,0.380925925925926,5.3930999999940425],[0.2538541666666667,0.38203703703703695,5.408000000000001],[0.2326041666666666,0.3985185185185186,5.4246999999880785],[0.1898958333333333,0.4068518518518519,5.441299999997021],[0.1618750000000001,0.384074074074074,5.4580000000000055],[0.13322916666666676,0.35185185185185186,5.47569999998808],[0.08875000000000005,0.3416666666666667,5.4918999999910625],[0.06656249999999998,0.30999999999999994,5.5080999999940445],[0.04854166666666669,0.2627777777777777,5.52469999998808],[0.02520833333333338,0.2411111111111112,5.5412999999970225],[0.016562499999999977,0.2574074074074074,5.560099999994044],[0.00791666666666669,0.2737037037037036,5.574799999997026],[0.022604166666666713,0.24462962962962967,5.591799999997022],[0.03729166666666662,0.2155555555555555,5.609799999997023],[0.03843749999999998,0.25999999999999995,5.627500000000005],[0.03958333333333333,0.3044444444444444,5.641899999991061],[0.041770833333333354,0.3316666666666667,5.658099999994043],[0.043958333333333384,0.3588888888888888,5.677199999988083],[0.041875000000000044,0.4292592592592592,5.693199999988082],[0.0375,0.4933333333333333,5.71219999998808],[0.027604166666666666,0.5103703703703704,5.725799999997022],[0.026250000000000048,0.5112962962962964,5.741299999997025],[0.025416666666666643,0.5527777777777778,5.758000000000003],[0.014999999999999977,0.5742592592592592,5.77469999998808],[0.0034374999999999527,0.5533333333333332,5.794599999994041],[-0.021145833333333287,0.5451851851851851,5.811],[-0.021145833333333287,0.5451851851851851,5.824799999997026],[-0.03760416666666669,0.543148148148148,5.8415000000000035],[-0.034166666666666616,0.5707407407407408,5.860599999994044],[-0.030624999999999975,0.5707407407407408,5.878599999994044],[-0.03250000000000005,0.5659259259259259,5.8938999999910635],[-0.034375,0.5611111111111111,5.908000000000001],[-0.040625,0.543148148148148,5.9246999999880785],[-0.046875,0.5251851851851852,5.941299999997021],[-0.05593750000000005,0.5222222222222223,5.9580000000000055],[-0.06499999999999997,0.5192592592592592,5.975799999997022],[-0.0375,0.5120370370370371,5.99139999999106],[-0.0375,0.5120370370370371,6.008000000000003],[-0.010000000000000024,0.5048148148148148,6.02469999998808],[0.005312500000000024,0.46055555555555566,6.041399999991064],[0.01395833333333331,0.4448148148148149,6.059099999994039],[0.030312500000000023,0.4401851851851853,6.074699999988084],[0.030312500000000023,0.4401851851851853,6.0913999999910615],[0.04812500000000005,0.43555555555555564,6.108000000000004],[0.04812500000000005,0.4935185185185185,6.124699999988081],[0.06770833333333333,0.5137037037037037,6.1423999999910635],[0.0875,0.5303703703703704,6.158099999994043],[0.14177083333333323,0.5303703703703704,6.17739999999106],[0.1724999999999999,0.5218518518518518,6.1917999999970235],[0.19968750000000005,0.5007407407407407,6.2117999999970195],[0.20635416666666656,0.49370370370370376,6.225099999994043],[0.2196875000000001,0.4581481481481481,6.24139999999106],[0.23958333333333334,0.415925925925926,6.2580999999940445],[0.25666666666666677,0.3683333333333333,6.274799999997022],[0.2907291666666666,0.29981481481481476,6.2912999999970225],[0.30520833333333336,0.26907407407407397,6.3082999999970255],[0.3333333333333333,0.20277777777777778,6.324599999994042],[0.3302083333333333,0.14888888888888885,6.344099999994043],[0.32614583333333325,0.1398148148148148,6.357899999991062],[0.3186458333333334,0.13185185185185194,6.3745999999940395],[0.3186458333333334,0.13185185185185194,6.391799999997019],[0.3397916666666667,0.09685185185185177,6.408099999994043],[0.3492708333333333,0.09462962962962967,6.424599999994044],[0.35218749999999993,0.09907407407407408,6.441299999997021],[0.3304166666666667,0.08574074074074066,6.4580000000000055],[0.3064583333333334,0.08481481481481473,6.475799999997022],[0.28250000000000003,0.0838888888888888,6.4918999999910625],[0.2353125000000001,0.11444444444444436,6.510199999988082],[0.18489583333333334,0.1492592592592593,6.525899999991061],[0.14052083333333343,0.1398148148148148,6.541399999991064],[0.103125,0.1418518518518519,6.559000000000005],[0.044375000000000026,0.17814814814814822,6.574699999988084],[-0.002708333333333357,0.1816666666666667,6.595000000000006],[-0.042604166666666644,0.1737037037037036,6.609199999988078],[-0.06468750000000002,0.18222222222222217,6.624699999988081],[-0.08791666666666664,0.16592592592592598,6.642500000000005],[-0.09833333333333331,0.13666666666666658,6.658399999991062],[-0.08697916666666666,0.11999999999999991,6.677799999997021],[-0.10562499999999998,0.125,6.694399999991063],[-0.12937500000000005,0.1294444444444444,6.712099999994045],[-0.16114583333333338,0.12222222222222222,6.72789999999106],[-0.18999999999999997,0.09759259259259268,6.74289999999106],[-0.21927083333333333,0.09870370370370361,6.759],[-0.2660416666666666,0.12666666666666662,6.774799999997022],[-0.28062499999999996,0.12962962962962962,6.795699999988081],[-0.3032291666666667,0.1331481481481481,6.810500000000005],[-0.33864583333333337,0.14962962962962956,6.825799999997024],[-0.3740625,0.16611111111111118,6.844399999991062],[-0.37093750000000003,0.18092592592592602,6.858199999988081],[-0.36781250000000004,0.19574074074074083,6.874699999988081],[-0.3578125,0.20203703703703707,6.894299999997024],[-0.3578125,0.20203703703703707,6.908000000000001],[-0.3486458333333334,0.21722222222222215,6.924599999994044],[-0.36343749999999997,0.20018518518518522,6.941399999991063],[-0.3679166666666667,0.16777777777777783,6.95809999999404],[-0.37302083333333336,0.17166666666666675,6.975899999991064],[-0.37625000000000003,0.16944444444444445,6.992199999988081],[-0.36354166666666665,0.1675925925925926,7.009799999997021],[-0.37000000000000005,0.18462962962962973,7.02469999998808],[-0.385,0.1816666666666667,7.045000000000002],[-0.34833333333333333,0.19370370370370374,7.059799999997026],[-0.31052083333333336,0.22592592592592592,7.074799999997026],[-0.2773958333333333,0.24537037037037038,7.099699999988083],[-0.2773958333333333,0.24537037037037038,7.108199999988081],[-0.21625000000000003,0.28277777777777785,7.124899999991065],[-0.21625000000000003,0.28277777777777785,7.141500000000001],[-0.15510416666666665,0.32018518518518513,7.16129999999702],[-0.11291666666666664,0.3522222222222223,7.175599999994041],[-0.08822916666666672,0.35796296296296287,7.191899999991065],[-0.07947916666666661,0.3633333333333334,7.208199999988082],[-0.027604166666666666,0.3357407407407407,7.228199999988085],[0.05479166666666669,0.35907407407407405,7.243099999994044],[0.08552083333333324,0.36740740740740735,7.258399999991063],[0.11624999999999991,0.3757407407407407,7.274799999997022],[0.14562499999999995,0.3685185185185185,7.2958999999910645],[0.1775000000000001,0.369074074074074,7.310699999988081],[0.209375,0.3696296296296297,7.324899999991061],[0.2103125000000001,0.35537037037037034,7.345899999991062],[0.25031249999999994,0.3290740740740742,7.363299999997025],[0.2798958333333334,0.3148148148148148,7.381699999988079],[0.2798958333333334,0.3148148148148148,7.391699999988084],[0.2855208333333332,0.3146296296296296,7.411199999988085],[0.275,0.26796296296296307,7.426099999994044],[0.26447916666666677,0.2212962962962963,7.441500000000005],[0.24802083333333325,0.1816666666666667,7.45809999999404],[0.24104166666666677,0.16500000000000004,7.477799999997025],[0.22729166666666673,0.10629629629629625,7.496000000000002],[0.21354166666666666,0.04759259259259268,7.510199999988082],[0.22000000000000006,0.006481481481481481,7.525199999988082],[0.21104166666666657,0.009259259259259259,7.545000000000002],[0.20125000000000004,0.01722222222222214,7.560599999994039],[0.19145833333333329,0.025185185185185227,7.575099999994045],[0.19145833333333329,0.025185185185185227,7.59469999998808],[0.1896874999999999,0.014814814814814815,7.608099999994039],[0.19572916666666676,-0.051111111111111156,7.624799999997023],[0.20770833333333344,-0.12407407407407407,7.6446999999880845],[0.20197916666666677,-0.13203703703703706,7.66129999999702],[0.17666666666666658,-0.13759259259259263,7.6770999999940415],[0.15572916666666667,-0.11462962962962958,7.697399999991063],[0.17374999999999996,-0.1301851851851852,7.71219999998808],[0.1696875000000001,-0.13129629629629624,7.728099999994043],[0.1696875000000001,-0.13129629629629624,7.741500000000002],[0.19322916666666667,-0.19759259259259257,7.760799999997026],[0.19083333333333338,-0.2235185185185185,7.776000000000003],[0.16604166666666675,-0.23555555555555555,7.7943999999910645],[0.15947916666666656,-0.21703703703703703,7.811199999988084],[0.14072916666666657,-0.20129629629629628,7.827899999991061],[0.14072916666666657,-0.20129629629629628,7.8413999999910615],[0.1396874999999999,-0.2505555555555556,7.858199999988081],[0.16843750000000005,-0.25148148148148153,7.8745999999940395],[0.20083333333333328,-0.2948148148148148,7.893599999994045],[0.20062499999999991,-0.30166666666666664,7.908099999994043],[0.20583333333333323,-0.28703703703703703,7.929599999994039],[0.20583333333333323,-0.28703703703703703,7.941399999991063],[0.19229166666666658,-0.27555555555555555,7.958199999988082],[0.22333333333333344,-0.2959259259259259,7.976000000000006],[0.2265625,-0.3381481481481482,7.995599999994042],[0.21281249999999996,-0.3374074074074074,8.01119999998808],[0.20125000000000004,-0.3218518518518519,8.02619999998808],[0.1896874999999999,-0.30629629629629623,8.041500000000006],[0.1734375,-0.32981481481481484,8.06139999999106],[0.1734375,-0.32981481481481484,8.074799999997026],[0.1616666666666667,-0.3242592592592593,8.091599999994045],[0.16135416666666677,-0.32,8.108099999994039],[0.16604166666666675,-0.367037037037037,8.12909999999404],[0.1546875,-0.33648148148148144,8.14519999998808],[0.13697916666666668,-0.29074074074074074,8.161000000000001],[0.16291666666666677,-0.2770370370370371,8.1785],[0.1625,-0.22814814814814813,8.193199999988082],[0.16802083333333329,-0.17074074074074072,8.21259999999404],[0.17354166666666657,-0.11333333333333331,8.229099999994041],[0.17927083333333324,-0.09462962962962967,8.245399999991065],[0.17927083333333324,-0.09462962962962967,8.258500000000005],[0.17687499999999995,-0.09592592592592594,8.28969999998808],[0.17687499999999995,-0.09592592592592594,8.301000000000002],[0.1414583333333333,-0.1111111111111111,8.310799999997023],[0.1414583333333333,-0.1111111111111111,8.324699999988084],[0.12697916666666675,-0.10648148148148148,8.343799999997024],[0.13479166666666675,-0.1485185185185185,8.359399999991062],[0.13031249999999991,-0.21425925925925923,8.37459999999404],[0.13031249999999991,-0.21425925925925923,8.3915],[0.11833333333333323,-0.18611111111111112,8.410000000000004],[0.125,-0.24833333333333338,8.42479999999702],[0.13572916666666662,-0.33111111111111113,8.441299999997021],[0.13875000000000004,-0.4087037037037037,8.458000000000006],[0.14489583333333325,-0.4522222222222222,8.475799999997022],[0.1466666666666666,-0.490925925925926,8.49139999999106],[0.16010416666666671,-0.4644444444444445,8.509],[0.16239583333333343,-0.4609259259259259,8.52469999998808],[0.16635416666666672,-0.4081481481481481,8.545099999994044],[0.16135416666666677,-0.3635185185185185,8.560099999994044],[0.14739583333333334,-0.39166666666666666,8.574699999988084],[0.13208333333333327,-0.38259259259259265,8.59129999999702],[0.12135416666666667,-0.37,8.608000000000004],[0.11833333333333323,-0.36259259259259263,8.62869999998808],[0.11833333333333323,-0.36259259259259263,8.643199999988084],[0.10854166666666672,-0.3344444444444445,8.658000000000001],[0.10854166666666672,-0.3344444444444445,8.67479999999702],[0.10177083333333338,-0.2977777777777778,8.696699999988084],[0.10177083333333338,-0.2977777777777778,8.70809999999404],[0.1140625,-0.30351851851851847,8.725000000000001],[0.1336458333333333,-0.2772222222222222,8.74139999999106],[0.14010416666666667,-0.259074074074074,8.762],[0.14718749999999994,-0.27740740740740744,8.775199999988082],[0.16375000000000003,-0.29388888888888887,8.791799999997025],[0.1803124999999999,-0.3103703703703704,8.808599999994044],[0.18427083333333344,-0.23944444444444446,8.824699999988084],[0.2007291666666667,-0.19277777777777783,8.843000000000004],[0.1884375000000001,-0.08074074074074078,8.857899999991062],[0.17822916666666658,-0.010370370370370412,8.87459999999404],[0.16083333333333344,0.06055555555555564,8.89409999999404],[0.16083333333333344,0.06055555555555564,8.90789999999106],[0.13791666666666677,0.122037037037037,8.924599999994044],[0.1306250000000001,0.1609259259259259,8.941299999997021],[0.13333333333333333,0.2794444444444444,8.957899999991064],[0.10854166666666672,0.40259259259259256,8.975599999994046],[0.08375000000000009,0.5257407407407407,8.991699999988079],[0.08375000000000009,0.5257407407407407,9.00789999999106],[0.07333333333333343,0.4587037037037038,9.02469999998808],[0.06458333333333334,0.4112962962962963,9.041299999997022],[0.08156249999999995,0.3088888888888888,9.059299999997023],[0.09343750000000005,0.23962962962962958,9.074599999994042],[0.109375,0.14444444444444443,9.094500000000004],[0.12541666666666676,0.04518518518518514,9.109500000000004],[0.12999999999999995,-0.04740740740740745,9.12459999999404],[0.1178124999999999,-0.17611111111111116,9.14179999999702],[0.11031250000000009,-0.27759259259259256,9.15789999999106],[0.11927083333333334,-0.4168518518518519,9.17739999999106],[0.12312500000000005,-0.4185185185185185,9.19389999999106],[0.09656250000000005,-0.3985185185185185,9.21259999999404],[0.07156250000000004,-0.39388888888888884,9.227299999997022],[0.04479166666666667,-0.38555555555555554,9.241599999994044],[0.04479166666666667,-0.38555555555555554,9.258000000000003],[0.02166666666666662,-0.36203703703703705,9.27469999998808],[0.0006250000000000236,-0.3542592592592593,9.291299999997022],[-0.01572916666666669,-0.3514814814814815,9.30909999999404],[-0.016979166666666618,-0.34759259259259256,9.324599999994042],[-0.016979166666666618,-0.34759259259259256,9.34129999999702],[-0.01083333333333331,-0.32629629629629625,9.358000000000004],[-0.03322916666666664,-0.2742592592592593,9.37459999999404],[-0.03322916666666664,-0.2742592592592593,9.392899999991059],[-0.05,-0.27444444444444444,9.408099999994043],[-0.04635416666666667,-0.2892592592592592,9.427199999988083],[-0.042708333333333334,-0.30407407407407405,9.441299999997021],[-0.02947916666666662,-0.3309259259259259,9.457899999991064]]","[0.0001999999880837322,0.05100000000000193,0.061199999988083675,0.07479999999702613,0.09159999999404533,0.10809999999403885,0.12479999999702329,0.14259999999404016,0.15809999999404312,0.17479999999702045,0.1915000000000049,0.20819999998808214,0.22689999999106192,0.2413999999910601,0.25809999999404454,0.27479999999702187,0.29139999999106436,0.31009999999404414,0.32589999999106567,0.3413999999910615,0.3580000000000041,0.3747999999970233,0.3915999999940425,0.4080999999940431,0.4246999999880785,0.44139999999106294,0.4580999999940403,0.4777999999970248,0.4916999999880787,0.5080000000000027,0.527000000000001,0.5459999999999994,0.5607999999970232,0.5750000000000028,0.5915000000000035,0.6080999999940389,0.6247999999970233,0.6425000000000054,0.6580999999940431,0.6747999999970204,0.6915999999940396,0.7125000000000057,0.7281999999880853,0.7413999999910601,0.7580999999940445,0.7746999999880799,0.7915000000000063,0.8100999999940441,0.8248999999910609,0.8442999999970198,0.8590999999940436,0.8787999999970211,0.8955000000000055,0.9080999999940431,0.9246999999880785,0.944500000000005,0.9635999999940452,0.9771999999880805,0.992299999997023,1.0080999999940445,1.02469999998808,1.0413999999910644,1.0600999999940441,1.0747999999970261,1.0913999999910615,1.1080999999940389,1.1247999999970233,1.1425999999940402,1.1580999999940431,1.1772999999970253,1.191399999991063,1.2080999999940403,1.2257999999970224,1.24139999999106,1.2580999999940445,1.27469999998808,1.2913999999910644,1.3090999999940394,1.3246999999880842,1.3413999999910615,1.3580999999940389,1.3746999999880813,1.3915000000000006,1.4080999999940431,1.42739999999106,1.441399999991063,1.4580000000000055,1.4761999999880828,1.491500000000002,1.5080999999940445,1.52469999998808,1.5413999999910644,1.560199999988079,1.5746999999880842,1.591899999991064,1.608000000000004,1.6246999999880813,1.6417999999970192,1.6580000000000013,1.6746999999880785,1.6915000000000049,1.7125000000000057,1.7280000000000015,1.7450999999940393,1.760799999997026,1.77469999998808,1.7915000000000063,1.8091999999880812,1.8246999999880842,1.8413999999910615,1.858000000000004,1.8746999999880813,1.8928999999910587,1.9080999999940431,1.9247999999970204,1.9415000000000049,1.9580000000000055,1.9757999999970224,1.991599999994044,2.0080999999940445,2.0248999999910637,2.0441999999880807,2.0605000000000047,2.0758999999910657,2.09169999998808,2.1081999999880807,2.124899999991065,2.141799999997019,2.1580000000000013,2.1746999999880785,2.191500000000005,2.2080000000000055,2.2258999999910642,2.241500000000002,2.2580999999940445,2.274799999997022,2.291699999988083,2.3105000000000047,2.324699999988084,2.3412999999970197,2.358099999994039,2.3746999999880813,2.391799999997019,2.408199999988085,2.4246999999880785,2.441399999991063,2.4580999999940403,2.477699999988083,2.4950999999940393,2.51009999999404,2.52469999998808,2.5413999999910644,2.5598999999910603,2.574699999988084,2.5952999999970245,2.6092999999970203,2.6246999999880813,2.6425000000000054,2.658099999994043,2.6746999999880785,2.691500000000005,2.7080000000000055,2.7256999999880804,2.74139999999106,2.761000000000003,2.7758999999910614,2.7943999999910645,2.8105000000000047,2.8265999999940448,2.8413999999910615,2.858099999994039,2.8746999999880813,2.894299999997024,2.9091999999880827,2.925099999994039,2.941299999997021,2.9580999999940403,2.9758999999910642,2.991500000000002,3.011000000000003,3.02469999998808,3.0412999999970225,3.0600000000000023,3.074699999988084,3.091799999997022,3.108000000000004,3.1246999999880813,3.1423999999910635,3.1580000000000013,3.177599999994044,3.193799999997026,3.2125000000000057,3.2271999999880805,3.241500000000002,3.2580000000000027,3.27469999998808,3.2913999999910644,3.3096999999880836,3.324799999997026,3.3415999999940453,3.358099999994039,3.3746999999880813,3.3915999999940425,3.408099999994043,3.4278999999910624,3.441299999997021,3.4580000000000055,3.4762999999970248,3.491599999994044,3.5082999999970212,3.524599999994045,3.5412999999970225,3.5600000000000023,3.5750999999940447,3.5915000000000035,3.608000000000004,3.6246999999880813,3.6423999999910635,3.6580000000000013,3.6777999999970206,3.696599999994042,3.7125000000000057,3.727599999994041,3.742399999991065,3.7580999999940445,3.77469999998808,3.7913999999910644,3.8090999999940394,3.824699999988084,3.8413999999910615,3.858000000000004,3.8746999999880813,3.8930999999940425,3.908099999994043,3.9247999999970204,3.941399999991063,3.9580999999940403,3.9758999999910642,3.9926999999880834,4.008699999988082,4.02469999998808,4.0412999999970225,4.060899999991065,4.074699999988084,4.0913999999910615,4.108000000000004,4.124799999997023,4.142500000000005,4.158000000000001,4.1746999999880785,4.191500000000005,4.20809999999404,4.225899999991064,4.241299999997025,4.25859999999404,4.27469999998808,4.291399999991064,4.309199999988081,4.324699999988084,4.34469999998808,4.358299999997023,4.374699999988081,4.391500000000001,4.411199999988085,4.4247999999970204,4.441399999991063,4.462099999994045,4.478500000000004,4.491599999994044,4.5080999999940445,4.525699999988085,4.5412999999970225,4.560199999988079,4.575099999994045,4.595099999994041,4.610099999994041,4.6291999999880815,4.644599999994043,4.66129999999702,4.677500000000002,4.694299999997021,4.711899999991061,4.724799999997025,4.74139999999106,4.7580999999940445,4.77469999998808,4.791799999997025,4.808500000000002,4.824599999994042,4.8437999999970245,4.858000000000004,4.874699999988081,4.894199999988082,4.908099999994043,4.9246999999880785,4.941299999997021,4.9580000000000055,4.975000000000001,4.99139999999106,5.008000000000003,5.02469999998808,5.041399999991064,5.05839999999106,5.074699999988084,5.0913999999910615,5.108000000000004,5.124699999988081,5.1415999999940425,5.158099999994043,5.177299999997025,5.192599999994044,5.2080000000000055,5.2271999999880805,5.24139999999106,5.258000000000003,5.27469999998808,5.291599999994041,5.30989999999106,5.324799999997026,5.3413999999910615,5.358000000000004,5.380500000000005,5.3930999999940425,5.408000000000001,5.4246999999880785,5.441299999997021,5.4580000000000055,5.47569999998808,5.4918999999910625,5.5080999999940445,5.52469999998808,5.5412999999970225,5.560099999994044,5.574799999997026,5.591799999997022,5.609799999997023,5.627500000000005,5.641899999991061,5.658099999994043,5.677199999988083,5.693199999988082,5.71219999998808,5.725799999997022,5.741299999997025,5.758000000000003,5.77469999998808,5.794599999994041,5.811,5.824799999997026,5.8415000000000035,5.860599999994044,5.878599999994044,5.8938999999910635,5.908000000000001,5.9246999999880785,5.941299999997021,5.9580000000000055,5.975799999997022,5.99139999999106,6.008000000000003,6.02469999998808,6.041399999991064,6.059099999994039,6.074699999988084,6.0913999999910615,6.108000000000004,6.124699999988081,6.1423999999910635,6.158099999994043,6.17739999999106,6.1917999999970235,6.2117999999970195,6.225099999994043,6.24139999999106,6.2580999999940445,6.274799999997022,6.2912999999970225,6.3082999999970255,6.324599999994042,6.344099999994043,6.357899999991062,6.3745999999940395,6.391799999997019,6.408099999994043,6.424599999994044,6.441299999997021,6.4580000000000055,6.475799999997022,6.4918999999910625,6.510199999988082,6.525899999991061,6.541399999991064,6.559000000000005,6.574699999988084,6.595000000000006,6.609199999988078,6.624699999988081,6.642500000000005,6.658399999991062,6.677799999997021,6.694399999991063,6.712099999994045,6.72789999999106,6.74289999999106,6.759,6.774799999997022,6.795699999988081,6.810500000000005,6.825799999997024,6.844399999991062,6.858199999988081,6.874699999988081,6.894299999997024,6.908000000000001,6.924599999994044,6.941399999991063,6.95809999999404,6.975899999991064,6.992199999988081,7.009799999997021,7.02469999998808,7.045000000000002,7.059799999997026,7.074799999997026,7.099699999988083,7.108199999988081,7.124899999991065,7.141500000000001,7.16129999999702,7.175599999994041,7.191899999991065,7.208199999988082,7.228199999988085,7.243099999994044,7.258399999991063,7.274799999997022,7.2958999999910645,7.310699999988081,7.324899999991061,7.345899999991062,7.363299999997025,7.381699999988079,7.391699999988084,7.411199999988085,7.426099999994044,7.441500000000005,7.45809999999404,7.477799999997025,7.496000000000002,7.510199999988082,7.525199999988082,7.545000000000002,7.560599999994039,7.575099999994045,7.59469999998808,7.608099999994039,7.624799999997023,7.6446999999880845,7.66129999999702,7.6770999999940415,7.697399999991063,7.71219999998808,7.728099999994043,7.741500000000002,7.760799999997026,7.776000000000003,7.7943999999910645,7.811199999988084,7.827899999991061,7.8413999999910615,7.858199999988081,7.8745999999940395,7.893599999994045,7.908099999994043,7.929599999994039,7.941399999991063,7.958199999988082,7.976000000000006,7.995599999994042,8.01119999998808,8.02619999998808,8.041500000000006,8.06139999999106,8.074799999997026,8.091599999994045,8.108099999994039,8.12909999999404,8.14519999998808,8.161000000000001,8.1785,8.193199999988082,8.21259999999404,8.229099999994041,8.245399999991065,8.258500000000005,8.28969999998808,8.301000000000002,8.310799999997023,8.324699999988084,8.343799999997024,8.359399999991062,8.37459999999404,8.3915,8.410000000000004,8.42479999999702,8.441299999997021,8.458000000000006,8.475799999997022,8.49139999999106,8.509,8.52469999998808,8.545099999994044,8.560099999994044,8.574699999988084,8.59129999999702,8.608000000000004,8.62869999998808,8.643199999988084,8.658000000000001,8.67479999999702,8.696699999988084,8.70809999999404,8.725000000000001,8.74139999999106,8.762,8.775199999988082,8.791799999997025,8.808599999994044,8.824699999988084,8.843000000000004,8.857899999991062,8.87459999999404,8.89409999999404,8.90789999999106,8.924599999994044,8.941299999997021,8.957899999991064,8.975599999994046,8.991699999988079,9.00789999999106,9.02469999998808,9.041299999997022,9.059299999997023,9.074599999994042,9.094500000000004,9.109500000000004,9.12459999999404,9.14179999999702,9.15789999999106,9.17739999999106,9.19389999999106,9.21259999999404,9.227299999997022,9.241599999994044,9.258000000000003,9.27469999998808,9.291299999997022,9.30909999999404,9.324599999994042,9.34129999999702,9.358000000000004,9.37459999999404,9.392899999991059,9.408099999994043,9.427199999988083,9.441299999997021,9.457899999991064]","[1732606398004,1732606398044,1732606398054,1732606398068,1732606398085,1732606398101,1732606398118,1732606398136,1732606398151,1732606398168,1732606398185,1732606398201,1732606398220,1732606398235,1732606398251,1732606398268,1732606398285,1732606398303,1732606398319,1732606398335,1732606398351,1732606398368,1732606398385,1732606398401,1732606398418,1732606398435,1732606398451,1732606398471,1732606398485,1732606398501,1732606398520,1732606398539,1732606398554,1732606398568,1732606398585,1732606398601,1732606398618,1732606398636,1732606398651,1732606398668,1732606398685,1732606398706,1732606398721,1732606398735,1732606398751,1732606398768,1732606398785,1732606398803,1732606398818,1732606398838,1732606398852,1732606398872,1732606398889,1732606398901,1732606398918,1732606398938,1732606398957,1732606398970,1732606398985,1732606399001,1732606399018,1732606399035,1732606399053,1732606399068,1732606399085,1732606399101,1732606399118,1732606399136,1732606399151,1732606399170,1732606399185,1732606399201,1732606399219,1732606399235,1732606399251,1732606399268,1732606399285,1732606399302,1732606399318,1732606399335,1732606399351,1732606399368,1732606399385,1732606399401,1732606399421,1732606399435,1732606399451,1732606399469,1732606399485,1732606399501,1732606399518,1732606399535,1732606399553,1732606399568,1732606399585,1732606399601,1732606399618,1732606399635,1732606399651,1732606399668,1732606399685,1732606399706,1732606399721,1732606399738,1732606399754,1732606399768,1732606399785,1732606399802,1732606399818,1732606399835,1732606399851,1732606399868,1732606399886,1732606399901,1732606399918,1732606399935,1732606399951,1732606399969,1732606399985,1732606400001,1732606400018,1732606400037,1732606400054,1732606400069,1732606400085,1732606400101,1732606400118,1732606400135,1732606400151,1732606400168,1732606400185,1732606400201,1732606400219,1732606400235,1732606400251,1732606400268,1732606400285,1732606400304,1732606400318,1732606400334,1732606400351,1732606400368,1732606400385,1732606400401,1732606400418,1732606400435,1732606400451,1732606400471,1732606400488,1732606400503,1732606400518,1732606400534,1732606400553,1732606400568,1732606400588,1732606400602,1732606400618,1732606400636,1732606400651,1732606400668,1732606400685,1732606400701,1732606400719,1732606400734,1732606400754,1732606400769,1732606400788,1732606400804,1732606400820,1732606400834,1732606400851,1732606400868,1732606400887,1732606400902,1732606400918,1732606400934,1732606400951,1732606400969,1732606400985,1732606401004,1732606401018,1732606401034,1732606401053,1732606401068,1732606401085,1732606401101,1732606401118,1732606401136,1732606401151,1732606401171,1732606401187,1732606401206,1732606401220,1732606401235,1732606401251,1732606401268,1732606401285,1732606401303,1732606401318,1732606401335,1732606401351,1732606401368,1732606401385,1732606401401,1732606401421,1732606401435,1732606401451,1732606401469,1732606401485,1732606401501,1732606401518,1732606401534,1732606401553,1732606401568,1732606401585,1732606401601,1732606401618,1732606401635,1732606401651,1732606401671,1732606401690,1732606401706,1732606401721,1732606401736,1732606401751,1732606401768,1732606401785,1732606401802,1732606401818,1732606401835,1732606401851,1732606401868,1732606401886,1732606401901,1732606401918,1732606401934,1732606401951,1732606401969,1732606401986,1732606402002,1732606402018,1732606402034,1732606402054,1732606402068,1732606402085,1732606402101,1732606402118,1732606402136,1732606402151,1732606402168,1732606402185,1732606402201,1732606402219,1732606402234,1732606402252,1732606402268,1732606402285,1732606402302,1732606402318,1732606402338,1732606402351,1732606402368,1732606402385,1732606402404,1732606402418,1732606402435,1732606402455,1732606402472,1732606402485,1732606402501,1732606402519,1732606402534,1732606402553,1732606402568,1732606402588,1732606402603,1732606402622,1732606402638,1732606402654,1732606402671,1732606402687,1732606402705,1732606402718,1732606402735,1732606402751,1732606402768,1732606402785,1732606402802,1732606402818,1732606402837,1732606402851,1732606402868,1732606402887,1732606402901,1732606402918,1732606402934,1732606402951,1732606402968,1732606402985,1732606403001,1732606403018,1732606403034,1732606403052,1732606403068,1732606403085,1732606403101,1732606403118,1732606403135,1732606403151,1732606403170,1732606403186,1732606403201,1732606403220,1732606403234,1732606403251,1732606403268,1732606403285,1732606403303,1732606403318,1732606403334,1732606403351,1732606403374,1732606403386,1732606403401,1732606403418,1732606403434,1732606403451,1732606403469,1732606403485,1732606403501,1732606403518,1732606403534,1732606403553,1732606403568,1732606403585,1732606403603,1732606403621,1732606403635,1732606403651,1732606403670,1732606403686,1732606403705,1732606403719,1732606403734,1732606403751,1732606403768,1732606403788,1732606403804,1732606403818,1732606403835,1732606403854,1732606403872,1732606403887,1732606403901,1732606403918,1732606403934,1732606403951,1732606403969,1732606403985,1732606404001,1732606404018,1732606404034,1732606404052,1732606404068,1732606404085,1732606404101,1732606404118,1732606404136,1732606404151,1732606404171,1732606404185,1732606404205,1732606404218,1732606404234,1732606404251,17326