inst1_resp.keys,inst1_resp.rt,calibrationMouse.x,calibrationMouse.y,calibrationMouse.leftButton,calibrationMouse.midButton,calibrationMouse.rightButton,calibrationClick.x,calibrationClick.y,calibrationClick.leftButton,calibrationClick.midButton,calibrationClick.rightButton,trialsc.thisRepN,trialsc.thisTrialN,trialsc.thisN,trialsc.thisIndex,trialsc.ran,calibration_x,calibration_y,participant,session,date,expName,psychopyVersion,OS,frameRate,calibrationClick.clicked_name,ScreenRes_pixels,Camera_pixels,mouse_2.x,mouse_2.y,mouse_2.leftButton,mouse_2.midButton,mouse_2.rightButton,mouse_2.time,mouse_2.clicked_name,mouse.x,mouse.y,mouse.leftButton,mouse.midButton,mouse.rightButton,mouse.time,mouse.clicked_name,Choice,Trial,TrialDuration,MOUSE_GAZE,ET_GAZE,ET_GAZE_x_T,time,unixTime,ET_GAZE_NF,Loc_Bus_label,Loc_Metro_label,Loc_RH_label,Loc_Cost_label,Loc_Travel_label,Loc_Comfort_label,Loc_Bus_cost,Loc_Metro_cost,Loc_RH_cost,Loc_Bus_travel,Loc_Metro_travel,Loc_RH_travel,Loc_Bus_comfort,Loc_Metro_comfort,Loc_RH_comfort,trials.thisRepN,trials.thisTrialN,trials.thisN,trials.thisIndex,trials.ran,Block,Device,RH_cost,RH_travel_time,RH_Comfort,metro_cost,metro_travel_time,metro_Comfort,Bus_cost,Bus_travel_time,Bus_Comfort
space,6.5315,0.5875,-0.409259259,1,0,0,-0.015625,-0.324074074,1,0,0,0,0,0,10,1,0,-0.33,19,001,2024-11-26_15h27.25.519,Attention_exp_legacy,2023.1.0,Win32,59.88023952,,,,,,,,,,,,,,,,,,,,,,,,,,,,,,,,,,,,,,,,,,,,,,,,,,,,,,,,,
,,,,,,,0.335416667,0.333333333,1,0,0,0,1,1,17,1,0.33,0.33,19,001,2024-11-26_15h27.25.519,Attention_exp_legacy,2023.1.0,Win32,59.88023952,calibration_square,,,,,,,,,,,,,,,,,,,,,,,,,,,,,,,,,,,,,,,,,,,,,,,,,,,,,,,,
,,,,,,,-0.31875,0.005555556,1,0,0,0,2,2,6,1,-0.33,0,19,001,2024-11-26_15h27.25.519,Attention_exp_legacy,2023.1.0,Win32,59.88023952,,,,,,,,,,,,,,,,,,,,,,,,,,,,,,,,,,,,,,,,,,,,,,,,,,,,,,,,,
,,,,,,,0.007291667,-0.001851852,1,0,0,0,3,3,11,1,0,0,19,001,2024-11-26_15h27.25.519,Attention_exp_legacy,2023.1.0,Win32,59.88023952,calibration_square,,,,,,,,,,,,,,,,,,,,,,,,,,,,,,,,,,,,,,,,,,,,,,,,,,,,,,,,
,,,,,,,-0.698958333,-0.007407407,1,0,0,0,4,4,2,1,-0.67,0,19,001,2024-11-26_15h27.25.519,Attention_exp_legacy,2023.1.0,Win32,59.88023952,,,,,,,,,,,,,,,,,,,,,,,,,,,,,,,,,,,,,,,,,,,,,,,,,,,,,,,,,
,,,,,,,0.323958333,-0.007407407,1,0,0,0,5,5,16,1,0.33,0,19,001,2024-11-26_15h27.25.519,Attention_exp_legacy,2023.1.0,Win32,59.88023952,calibration_square,,,,,,,,,,,,,,,,,,,,,,,,,,,,,,,,,,,,,,,,,,,,,,,,,,,,,,,,
,,,,,,,0.330208333,-0.674074074,1,0,0,0,6,6,14,1,0.33,-0.67,19,001,2024-11-26_15h27.25.519,Attention_exp_legacy,2023.1.0,Win32,59.88023952,calibration_square,,,,,,,,,,,,,,,,,,,,,,,,,,,,,,,,,,,,,,,,,,,,,,,,,,,,,,,,
,,,,,,,0.3375,0.677777778,1,0,0,0,7,7,18,1,0.33,0.67,19,001,2024-11-26_15h27.25.519,Attention_exp_legacy,2023.1.0,Win32,59.88023952,calibration_square,,,,,,,,,,,,,,,,,,,,,,,,,,,,,,,,,,,,,,,,,,,,,,,,,,,,,,,,
,,,,,,,-0.017708333,0.672222222,1,0,0,0,8,8,13,1,0,0.67,19,001,2024-11-26_15h27.25.519,Attention_exp_legacy,2023.1.0,Win32,59.88023952,,,,,,,,,,,,,,,,,,,,,,,,,,,,,,,,,,,,,,,,,,,,,,,,,,,,,,,,,
,,,,,,,0.680208333,0.662962963,1,0,0,0,9,9,19,1,0.67,0.67,19,001,2024-11-26_15h27.25.519,Attention_exp_legacy,2023.1.0,Win32,59.88023952,,,,,,,,,,,,,,,,,,,,,,,,,,,,,,,,,,,,,,,,,,,,,,,,,,,,,,,,,
,,,,,,,0.68125,-0.674074074,1,0,0,0,10,10,20,1,0.67,-0.67,19,001,2024-11-26_15h27.25.519,Attention_exp_legacy,2023.1.0,Win32,59.88023952,,,,,,,,,,,,,,,,,,,,,,,,,,,,,,,,,,,,,,,,,,,,,,,,,,,,,,,,,
,,,,,,,-0.677083333,0.327777778,1,0,0,0,11,11,3,1,-0.67,0.33,19,001,2024-11-26_15h27.25.519,Attention_exp_legacy,2023.1.0,Win32,59.88023952,calibration_square,,,,,,,,,,,,,,,,,,,,,,,,,,,,,,,,,,,,,,,,,,,,,,,,,,,,,,,,
,,,,,,,-0.33125,-0.340740741,1,0,0,0,12,12,5,1,-0.33,-0.33,19,001,2024-11-26_15h27.25.519,Attention_exp_legacy,2023.1.0,Win32,59.88023952,,,,,,,,,,,,,,,,,,,,,,,,,,,,,,,,,,,,,,,,,,,,,,,,,,,,,,,,,
,,,,,,,0.0125,0.325925926,1,0,0,0,13,13,12,1,0,0.33,19,001,2024-11-26_15h27.25.519,Attention_exp_legacy,2023.1.0,Win32,59.88023952,,,,,,,,,,,,,,,,,,,,,,,,,,,,,,,,,,,,,,,,,,,,,,,,,,,,,,,,,
,,,,,,,-0.673958333,-0.67037037,1,0,0,0,14,14,0,1,-0.67,-0.67,19,001,2024-11-26_15h27.25.519,Attention_exp_legacy,2023.1.0,Win32,59.88023952,calibration_square,,,,,,,,,,,,,,,,,,,,,,,,,,,,,,,,,,,,,,,,,,,,,,,,,,,,,,,,
,,,,,,,-0.336458333,-0.688888889,1,0,0,0,15,15,4,1,-0.33,-0.67,19,001,2024-11-26_15h27.25.519,Attention_exp_legacy,2023.1.0,Win32,59.88023952,,,,,,,,,,,,,,,,,,,,,,,,,,,,,,,,,,,,,,,,,,,,,,,,,,,,,,,,,
,,,,,,,-0.672916667,-0.337037037,1,0,0,0,16,16,1,1,-0.67,-0.33,19,001,2024-11-26_15h27.25.519,Attention_exp_legacy,2023.1.0,Win32,59.88023952,calibration_square,,,,,,,,,,,,,,,,,,,,,,,,,,,,,,,,,,,,,,,,,,,,,,,,,,,,,,,,
,,,,,,,-0.327083333,0.67037037,1,0,0,0,17,17,8,1,-0.33,0.67,19,001,2024-11-26_15h27.25.519,Attention_exp_legacy,2023.1.0,Win32,59.88023952,calibration_square,,,,,,,,,,,,,,,,,,,,,,,,,,,,,,,,,,,,,,,,,,,,,,,,,,,,,,,,
,,,,,,,0.347916667,-0.333333333,1,0,0,0,18,18,15,1,0.33,-0.33,19,001,2024-11-26_15h27.25.519,Attention_exp_legacy,2023.1.0,Win32,59.88023952,,,,,,,,,,,,,,,,,,,,,,,,,,,,,,,,,,,,,,,,,,,,,,,,,,,,,,,,,
,,,,,,,0.009375,-0.67962963,1,0,0,0,19,19,9,1,0,-0.67,19,001,2024-11-26_15h27.25.519,Attention_exp_legacy,2023.1.0,Win32,59.88023952,calibration_square,,,,,,,,,,,,,,,,,,,,,,,,,,,,,,,,,,,,,,,,,,,,,,,,,,,,,,,,
,,,,,,,-0.338541667,0.314814815,1,0,0,0,20,20,7,1,-0.33,0.33,19,001,2024-11-26_15h27.25.519,Attention_exp_legacy,2023.1.0,Win32,59.88023952,,,,,,,,,,,,,,,,,,,,,,,,,,,,,,,,,,,,,,,,,,,,,,,,,,,,,,,,,
,,,,,,,,,,,,,,,,,,,19,001,2024-11-26_15h27.25.519,Attention_exp_legacy,2023.1.0,Win32,59.88023952,,"[1920,1080]","[640,480]",[0.05520833333333333],[-0.5055555555555555],[1],[0],[0],[8.545400000005955],"[""StartButton""]",[0.065625],[0.17777777777777778],[1],[0],[0],[11.213799999997015],"[""Metro_label""]",Metro_label,1,12.2431,"[[0.05,-0.5111111111111111],[0.05,-0.5111111111111111],[0.05,-0.5111111111111111],[0.05,-0.5111111111111111],[0.05,-0.5111111111111111],[0.05,-0.5111111111111111],[0.05,-0.5111111111111111],[0.05,-0.5111111111111111],[0.05,-0.5111111111111111],[0.05,-0.5111111111111111],[0.05,-0.5111111111111111],[0.05,-0.5111111111111111],[0.05,-0.5111111111111111],[0.05,-0.5111111111111111],[0.05,-0.5111111111111111],[0.05,-0.5111111111111111],[0.05,-0.5111111111111111],[0.05,-0.5111111111111111],[0.05,-0.5111111111111111],[0.05,-0.5111111111111111],[0.05,-0.5111111111111111],[0.05,-0.5111111111111111],[0.05,-0.5111111111111111],[0.05,-0.5111111111111111],[0.05,-0.5111111111111111],[0.05,-0.5111111111111111],[0.05,-0.5111111111111111],[0.05,-0.5111111111111111],[0.05,-0.5111111111111111],[0.05,-0.5111111111111111],[0.05,-0.5111111111111111],[0.05,-0.5111111111111111],[0.05,-0.5111111111111111],[0.05,-0.5111111111111111],[0.05,-0.5111111111111111],[0.051041666666666666,-0.5092592592592593],[0.051041666666666666,-0.5092592592592593],[0.052083333333333336,-0.5092592592592593],[0.052083333333333336,-0.5092592592592593],[0.052083333333333336,-0.5092592592592593],[0.052083333333333336,-0.5092592592592593],[0.052083333333333336,-0.5092592592592593],[0.052083333333333336,-0.5092592592592593],[0.052083333333333336,-0.5092592592592593],[0.052083333333333336,-0.5092592592592593],[0.052083333333333336,-0.5092592592592593],[0.052083333333333336,-0.5092592592592593],[0.052083333333333336,-0.5092592592592593],[0.052083333333333336,-0.5092592592592593],[0.052083333333333336,-0.5092592592592593],[0.052083333333333336,-0.5092592592592593],[0.052083333333333336,-0.5092592592592593],[0.052083333333333336,-0.5092592592592593],[0.052083333333333336,-0.5092592592592593],[0.052083333333333336,-0.5092592592592593],[0.052083333333333336,-0.5092592592592593],[0.052083333333333336,-0.5092592592592593],[0.052083333333333336,-0.5092592592592593],[0.052083333333333336,-0.5092592592592593],[0.052083333333333336,-0.5092592592592593],[0.052083333333333336,-0.5092592592592593],[0.052083333333333336,-0.5092592592592593],[0.052083333333333336,-0.5092592592592593],[0.052083333333333336,-0.5092592592592593],[0.052083333333333336,-0.5092592592592593],[0.052083333333333336,-0.5092592592592593],[0.052083333333333336,-0.5092592592592593],[0.052083333333333336,-0.5092592592592593],[0.052083333333333336,-0.5092592592592593],[0.052083333333333336,-0.5092592592592593],[0.052083333333333336,-0.5092592592592593],[0.052083333333333336,-0.5092592592592593],[0.052083333333333336,-0.5092592592592593],[0.052083333333333336,-0.5092592592592593],[0.052083333333333336,-0.5092592592592593],[0.052083333333333336,-0.5092592592592593],[0.052083333333333336,-0.5092592592592593],[0.052083333333333336,-0.5092592592592593],[0.052083333333333336,-0.5092592592592593],[0.052083333333333336,-0.5092592592592593],[0.052083333333333336,-0.5092592592592593],[0.052083333333333336,-0.5092592592592593],[0.052083333333333336,-0.5092592592592593],[0.052083333333333336,-0.5092592592592593],[0.052083333333333336,-0.5092592592592593],[0.052083333333333336,-0.5092592592592593],[0.052083333333333336,-0.5092592592592593],[0.052083333333333336,-0.5092592592592593],[0.052083333333333336,-0.5092592592592593],[0.052083333333333336,-0.5092592592592593],[0.052083333333333336,-0.5092592592592593],[0.052083333333333336,-0.5092592592592593],[0.052083333333333336,-0.5092592592592593],[0.052083333333333336,-0.5092592592592593],[0.052083333333333336,-0.5092592592592593],[0.052083333333333336,-0.5092592592592593],[0.052083333333333336,-0.5092592592592593],[0.052083333333333336,-0.5092592592592593],[0.052083333333333336,-0.5092592592592593],[0.052083333333333336,-0.5092592592592593],[0.052083333333333336,-0.5092592592592593],[0.052083333333333336,-0.5092592592592593],[0.052083333333333336,-0.5092592592592593],[0.052083333333333336,-0.5092592592592593],[0.052083333333333336,-0.5092592592592593],[0.052083333333333336,-0.5092592592592593],[0.052083333333333336,-0.5092592592592593],[0.052083333333333336,-0.5092592592592593],[0.052083333333333336,-0.5092592592592593],[0.052083333333333336,-0.5092592592592593],[0.052083333333333336,-0.5092592592592593],[0.052083333333333336,-0.5092592592592593],[0.05520833333333333,-0.5018518518518519],[0.05520833333333333,-0.5018518518518519],[0.057291666666666664,-0.4981481481481482],[0.058333333333333334,-0.4925925925925926],[0.059375,-0.49074074074074076],[0.06145833333333333,-0.48703703703703705],[0.0625,-0.48518518518518516],[0.0625,-0.48333333333333334],[0.06354166666666666,-0.47962962962962963],[0.065625,-0.4777777777777778],[0.065625,-0.4740740740740741],[0.06770833333333333,-0.4685185185185185],[0.06875,-0.46296296296296297],[0.06979166666666667,-0.46111111111111114],[0.071875,-0.4537037037037037],[0.07291666666666667,-0.44814814814814813],[0.075,-0.4425925925925926],[0.075,-0.44074074074074077],[0.07604166666666666,-0.4388888888888889],[0.07604166666666666,-0.43703703703703706],[0.07604166666666666,-0.43703703703703706],[0.078125,-0.43333333333333335],[0.078125,-0.43333333333333335],[0.078125,-0.43148148148148147],[0.078125,-0.43148148148148147],[0.07916666666666666,-0.43148148148148147],[0.07916666666666666,-0.42962962962962964],[0.08020833333333334,-0.42962962962962964],[0.08020833333333334,-0.42962962962962964],[0.08020833333333334,-0.42962962962962964],[0.08020833333333334,-0.42962962962962964],[0.08020833333333334,-0.42962962962962964],[0.08020833333333334,-0.42962962962962964],[0.08020833333333334,-0.42962962962962964],[0.08020833333333334,-0.42962962962962964],[0.08020833333333334,-0.42962962962962964],[0.08020833333333334,-0.42962962962962964],[0.08020833333333334,-0.42962962962962964],[0.08020833333333334,-0.42777777777777776],[0.078125,-0.42777777777777776],[0.075,-0.42777777777777776],[0.07395833333333333,-0.42777777777777776],[0.071875,-0.42962962962962964],[0.071875,-0.42962962962962964],[0.07083333333333333,-0.42962962962962964],[0.06979166666666667,-0.43148148148148147],[0.06979166666666667,-0.43148148148148147],[0.06875,-0.43148148148148147],[0.06875,-0.43148148148148147],[0.06875,-0.43148148148148147],[0.06770833333333333,-0.43333333333333335],[0.06770833333333333,-0.43333333333333335],[0.06770833333333333,-0.43333333333333335],[0.06770833333333333,-0.43333333333333335],[0.06770833333333333,-0.43333333333333335],[0.06770833333333333,-0.43333333333333335],[0.06770833333333333,-0.43333333333333335],[0.06770833333333333,-0.43333333333333335],[0.06770833333333333,-0.43333333333333335],[0.06770833333333333,-0.43333333333333335],[0.06875,-0.43333333333333335],[0.06979166666666667,-0.43333333333333335],[0.07083333333333333,-0.43333333333333335],[0.071875,-0.43333333333333335],[0.071875,-0.43333333333333335],[0.07395833333333333,-0.43148148148148147],[0.07708333333333334,-0.42962962962962964],[0.08020833333333334,-0.42592592592592593],[0.084375,-0.4203703703703704],[0.09166666666666666,-0.412962962962963],[0.10104166666666667,-0.40185185185185185],[0.11458333333333333,-0.38333333333333336],[0.134375,-0.3574074074074074],[0.15104166666666666,-0.3314814814814815],[0.15625,-0.31851851851851853],[0.17708333333333334,-0.2759259259259259],[0.18854166666666666,-0.25],[0.196875,-0.22777777777777777],[0.203125,-0.21666666666666667],[0.20833333333333334,-0.2037037037037037],[0.215625,-0.1925925925925926],[0.21979166666666666,-0.18333333333333332],[0.22395833333333334,-0.17407407407407408],[0.23020833333333332,-0.1648148148148148],[0.23333333333333334,-0.1574074074074074],[0.240625,-0.14444444444444443],[0.24895833333333334,-0.13333333333333333],[0.2635416666666667,-0.10925925925925926],[0.27291666666666664,-0.09259259259259259],[0.284375,-0.07407407407407407],[0.29583333333333334,-0.05925925925925926],[0.30833333333333335,-0.040740740740740744],[0.31875,-0.022222222222222223],[0.328125,-0.005555555555555556],[0.33229166666666665,0.001851851851851852],[0.3333333333333333,0.005555555555555556],[0.33541666666666664,0.009259259259259259],[0.33645833333333336,0.012962962962962963],[0.33645833333333336,0.014814814814814815],[0.3385416666666667,0.018518518518518517],[0.3385416666666667,0.018518518518518517],[0.3385416666666667,0.018518518518518517],[0.3385416666666667,0.018518518518518517],[0.3385416666666667,0.018518518518518517],[0.3385416666666667,0.018518518518518517],[0.3385416666666667,0.018518518518518517],[0.3385416666666667,0.018518518518518517],[0.3385416666666667,0.018518518518518517],[0.3385416666666667,0.018518518518518517],[0.3385416666666667,0.018518518518518517],[0.3385416666666667,0.018518518518518517],[0.3385416666666667,0.018518518518518517],[0.3385416666666667,0.018518518518518517],[0.3385416666666667,0.018518518518518517],[0.3385416666666667,0.018518518518518517],[0.3385416666666667,0.018518518518518517],[0.3385416666666667,0.018518518518518517],[0.3385416666666667,0.018518518518518517],[0.3385416666666667,0.018518518518518517],[0.3385416666666667,0.018518518518518517],[0.3385416666666667,0.018518518518518517],[0.3385416666666667,0.018518518518518517],[0.3385416666666667,0.018518518518518517],[0.3385416666666667,0.018518518518518517],[0.3385416666666667,0.018518518518518517],[0.3385416666666667,0.018518518518518517],[0.3385416666666667,0.018518518518518517],[0.3385416666666667,0.018518518518518517],[0.3385416666666667,0.018518518518518517],[0.3385416666666667,0.018518518518518517],[0.3385416666666667,0.018518518518518517],[0.3385416666666667,0.018518518518518517],[0.3385416666666667,0.018518518518518517],[0.3385416666666667,0.018518518518518517],[0.3385416666666667,0.018518518518518517],[0.3385416666666667,0.018518518518518517],[0.3385416666666667,0.018518518518518517],[0.3385416666666667,0.018518518518518517],[0.3385416666666667,0.018518518518518517],[0.3385416666666667,0.018518518518518517],[0.3385416666666667,0.018518518518518517],[0.3385416666666667,0.018518518518518517],[0.3385416666666667,0.018518518518518517],[0.3385416666666667,0.018518518518518517],[0.3385416666666667,0.018518518518518517],[0.3385416666666667,0.018518518518518517],[0.3385416666666667,0.018518518518518517],[0.3385416666666667,0.018518518518518517],[0.3385416666666667,0.018518518518518517],[0.3385416666666667,0.018518518518518517],[0.3385416666666667,0.018518518518518517],[0.3385416666666667,0.018518518518518517],[0.3385416666666667,0.018518518518518517],[0.3385416666666667,0.018518518518518517],[0.3385416666666667,0.018518518518518517],[0.3385416666666667,0.018518518518518517],[0.3385416666666667,0.018518518518518517],[0.3385416666666667,0.018518518518518517],[0.3385416666666667,0.018518518518518517],[0.3385416666666667,0.018518518518518517],[0.3385416666666667,0.018518518518518517],[0.3385416666666667,0.018518518518518517],[0.3385416666666667,0.018518518518518517],[0.3385416666666667,0.018518518518518517],[0.3385416666666667,0.018518518518518517],[0.3385416666666667,0.018518518518518517],[0.3385416666666667,0.018518518518518517],[0.3385416666666667,0.018518518518518517],[0.3385416666666667,0.018518518518518517],[0.3385416666666667,0.018518518518518517],[0.3385416666666667,0.018518518518518517],[0.3385416666666667,0.018518518518518517],[0.3385416666666667,0.018518518518518517],[0.3385416666666667,0.018518518518518517],[0.3385416666666667,0.018518518518518517],[0.3385416666666667,0.018518518518518517],[0.3385416666666667,0.018518518518518517],[0.3385416666666667,0.018518518518518517],[0.3385416666666667,0.018518518518518517],[0.3385416666666667,0.018518518518518517],[0.3385416666666667,0.018518518518518517],[0.3385416666666667,0.018518518518518517],[0.3385416666666667,0.018518518518518517],[0.3385416666666667,0.018518518518518517],[0.3385416666666667,0.018518518518518517],[0.3385416666666667,0.018518518518518517],[0.3385416666666667,0.018518518518518517],[0.3385416666666667,0.018518518518518517],[0.3385416666666667,0.018518518518518517],[0.3385416666666667,0.018518518518518517],[0.3385416666666667,0.018518518518518517],[0.3385416666666667,0.018518518518518517],[0.3385416666666667,0.018518518518518517],[0.3385416666666667,0.018518518518518517],[0.3385416666666667,0.018518518518518517],[0.3385416666666667,0.024074074074074074],[0.3385416666666667,0.024074074074074074],[0.3375,0.025925925925925925],[0.3375,0.027777777777777776],[0.3375,0.02962962962962963],[0.3375,0.02962962962962963],[0.33645833333333336,0.03333333333333333],[0.33645833333333336,0.03518518518518519],[0.33645833333333336,0.03518518518518519],[0.33645833333333336,0.03518518518518519],[0.33645833333333336,0.03518518518518519],[0.33645833333333336,0.03518518518518519],[0.33645833333333336,0.03518518518518519],[0.33645833333333336,0.03518518518518519],[0.33645833333333336,0.03518518518518519],[0.33541666666666664,0.03518518518518519],[0.334375,0.037037037037037035],[0.334375,0.037037037037037035],[0.334375,0.040740740740740744],[0.3333333333333333,0.040740740740740744],[0.3333333333333333,0.04259259259259259],[0.3333333333333333,0.04259259259259259],[0.33229166666666665,0.044444444444444446],[0.33229166666666665,0.044444444444444446],[0.33125,0.044444444444444446],[0.3302083333333333,0.046296296296296294],[0.3302083333333333,0.046296296296296294],[0.3302083333333333,0.046296296296296294],[0.32916666666666666,0.05],[0.32708333333333334,0.05185185185185185],[0.325,0.05185185185185185],[0.325,0.05185185185185185],[0.3229166666666667,0.053703703703703705],[0.3229166666666667,0.053703703703703705],[0.321875,0.053703703703703705],[0.31979166666666664,0.05740740740740741],[0.31979166666666664,0.05740740740740741],[0.31979166666666664,0.05740740740740741],[0.31875,0.05925925925925926],[0.31875,0.05925925925925926],[0.3177083333333333,0.05925925925925926],[0.3177083333333333,0.05925925925925926],[0.31666666666666665,0.05925925925925926],[0.31666666666666665,0.05925925925925926],[0.31666666666666665,0.05925925925925926],[0.31354166666666666,0.06296296296296296],[0.3125,0.06296296296296296],[0.3125,0.06296296296296296],[0.3104166666666667,0.06481481481481481],[0.3104166666666667,0.06481481481481481],[0.309375,0.06481481481481481],[0.30625,0.06481481481481481],[0.30625,0.06481481481481481],[0.30520833333333336,0.06851851851851852],[0.30416666666666664,0.06851851851851852],[0.303125,0.06851851851851852],[0.303125,0.06851851851851852],[0.3020833333333333,0.06851851851851852],[0.3020833333333333,0.06851851851851852],[0.30104166666666665,0.07037037037037037],[0.2989583333333333,0.07037037037037037],[0.2989583333333333,0.07037037037037037],[0.29791666666666666,0.07407407407407407],[0.29791666666666666,0.07407407407407407],[0.296875,0.07407407407407407],[0.29583333333333334,0.07592592592592592],[0.29583333333333334,0.07592592592592592],[0.2947916666666667,0.07592592592592592],[0.29375,0.07962962962962963],[0.29375,0.07962962962962963],[0.2916666666666667,0.07962962962962963],[0.290625,0.08148148148148149],[0.2875,0.08518518518518518],[0.2875,0.08518518518518518],[0.28541666666666665,0.08703703703703704],[0.28541666666666665,0.08888888888888889],[0.284375,0.08888888888888889],[0.2833333333333333,0.09074074074074075],[0.28229166666666666,0.09259259259259259],[0.28125,0.09444444444444444],[0.28020833333333334,0.09444444444444444],[0.2791666666666667,0.09444444444444444],[0.27708333333333335,0.09814814814814815],[0.271875,0.10185185185185185],[0.26458333333333334,0.10555555555555556],[0.2604166666666667,0.10740740740740741],[0.25416666666666665,0.11296296296296296],[0.24791666666666667,0.11851851851851852],[0.24375,0.12037037037037036],[0.23854166666666668,0.12407407407407407],[0.23645833333333333,0.1259259259259259],[0.23229166666666667,0.12962962962962962],[0.228125,0.13333333333333333],[0.22395833333333334,0.13518518518518519],[0.221875,0.13518518518518519],[0.21875,0.13703703703703704],[0.21770833333333334,0.1388888888888889],[0.215625,0.1388888888888889],[0.21458333333333332,0.1388888888888889],[0.2125,0.14074074074074075],[0.2125,0.14074074074074075],[0.21145833333333333,0.14074074074074075],[0.21145833333333333,0.1425925925925926],[0.21041666666666667,0.1425925925925926],[0.21041666666666667,0.1425925925925926],[0.21041666666666667,0.1425925925925926],[0.21041666666666667,0.1425925925925926],[0.21041666666666667,0.1425925925925926],[0.21041666666666667,0.1425925925925926],[0.21041666666666667,0.1425925925925926],[0.21041666666666667,0.1425925925925926],[0.21041666666666667,0.1425925925925926],[0.21041666666666667,0.1425925925925926],[0.21041666666666667,0.1425925925925926],[0.21041666666666667,0.1425925925925926],[0.21041666666666667,0.1425925925925926],[0.21041666666666667,0.1425925925925926],[0.21041666666666667,0.1425925925925926],[0.21041666666666667,0.1425925925925926],[0.21041666666666667,0.1425925925925926],[0.20833333333333334,0.14444444444444443],[0.20625,0.14444444444444443],[0.20104166666666667,0.14814814814814814],[0.196875,0.15185185185185185],[0.19166666666666668,0.1574074074074074],[0.18854166666666666,0.15925925925925927],[0.18645833333333334,0.16111111111111112],[0.18229166666666666,0.16111111111111112],[0.18229166666666666,0.16296296296296298],[0.18229166666666666,0.16296296296296298],[0.18125,0.16296296296296298],[0.18125,0.16296296296296298],[0.18020833333333333,0.16296296296296298],[0.17916666666666667,0.16296296296296298],[0.17604166666666668,0.16296296296296298],[0.17395833333333333,0.16296296296296298],[0.16979166666666667,0.16296296296296298],[0.165625,0.1648148148148148],[0.16041666666666668,0.16666666666666666],[0.15416666666666667,0.17037037037037037],[0.14791666666666667,0.17037037037037037],[0.14583333333333334,0.17037037037037037],[0.14166666666666666,0.17222222222222222],[0.13958333333333334,0.17592592592592593],[0.13541666666666666,0.17777777777777778],[0.13333333333333333,0.17962962962962964],[0.13020833333333334,0.18333333333333332],[0.128125,0.18333333333333332],[0.12604166666666666,0.18518518518518517],[0.12395833333333334,0.18518518518518517],[0.12291666666666666,0.18518518518518517],[0.11979166666666667,0.18518518518518517],[0.11875,0.18518518518518517],[0.11666666666666667,0.18518518518518517],[0.11354166666666667,0.18703703703703703],[0.1125,0.18888888888888888],[0.109375,0.18888888888888888],[0.10833333333333334,0.18888888888888888],[0.10625,0.18888888888888888],[0.10416666666666667,0.18888888888888888],[0.103125,0.19074074074074074],[0.103125,0.19074074074074074],[0.10208333333333333,0.19074074074074074],[0.10208333333333333,0.19074074074074074],[0.10208333333333333,0.19074074074074074],[0.10208333333333333,0.19074074074074074],[0.10208333333333333,0.19074074074074074],[0.10208333333333333,0.19074074074074074],[0.10208333333333333,0.19074074074074074],[0.10208333333333333,0.19074074074074074],[0.10208333333333333,0.19074074074074074],[0.10208333333333333,0.19074074074074074],[0.10208333333333333,0.19074074074074074],[0.10208333333333333,0.19074074074074074],[0.10208333333333333,0.19074074074074074],[0.10208333333333333,0.19074074074074074],[0.10208333333333333,0.19074074074074074],[0.10208333333333333,0.19074074074074074],[0.10208333333333333,0.19074074074074074],[0.10208333333333333,0.19074074074074074],[0.10208333333333333,0.19074074074074074],[0.10208333333333333,0.19074074074074074],[0.10208333333333333,0.19074074074074074],[0.10208333333333333,0.19074074074074074],[0.10208333333333333,0.19074074074074074],[0.10208333333333333,0.19074074074074074],[0.10208333333333333,0.19074074074074074],[0.10208333333333333,0.19074074074074074],[0.10208333333333333,0.19074074074074074],[0.10208333333333333,0.19074074074074074],[0.10208333333333333,0.19074074074074074],[0.10208333333333333,0.19074074074074074],[0.10208333333333333,0.19074074074074074],[0.10208333333333333,0.19074074074074074],[0.10208333333333333,0.19074074074074074],[0.10208333333333333,0.19074074074074074],[0.10208333333333333,0.19074074074074074],[0.10208333333333333,0.19074074074074074],[0.10208333333333333,0.19074074074074074],[0.10208333333333333,0.19074074074074074],[0.10208333333333333,0.19074074074074074],[0.10208333333333333,0.19074074074074074],[0.10208333333333333,0.19074074074074074],[0.10208333333333333,0.19074074074074074],[0.10208333333333333,0.19074074074074074],[0.10208333333333333,0.19074074074074074],[0.10208333333333333,0.19074074074074074],[0.10208333333333333,0.19074074074074074],[0.10208333333333333,0.19074074074074074],[0.10208333333333333,0.19074074074074074],[0.10208333333333333,0.19074074074074074],[0.10208333333333333,0.19074074074074074],[0.10208333333333333,0.19074074074074074],[0.10208333333333333,0.19074074074074074],[0.1,0.19074074074074074],[0.09895833333333333,0.19074074074074074],[0.09791666666666667,0.19074074074074074],[0.09583333333333334,0.19074074074074074],[0.09479166666666666,0.19074074074074074],[0.09479166666666666,0.19074074074074074],[0.09375,0.19074074074074074],[0.09375,0.19074074074074074],[0.09166666666666666,0.19074074074074074],[0.090625,0.19074074074074074],[0.08958333333333333,0.19074074074074074],[0.0875,0.18888888888888888],[0.08541666666666667,0.18703703703703703],[0.08541666666666667,0.18703703703703703],[0.08333333333333333,0.18703703703703703],[0.08229166666666667,0.18703703703703703],[0.08125,0.18518518518518517],[0.08125,0.18518518518518517],[0.08020833333333334,0.18333333333333332],[0.07916666666666666,0.18333333333333332],[0.07916666666666666,0.1814814814814815],[0.078125,0.1814814814814815],[0.07604166666666666,0.1814814814814815],[0.07604166666666666,0.1814814814814815],[0.07604166666666666,0.1814814814814815],[0.07604166666666666,0.1814814814814815],[0.07604166666666666,0.1814814814814815],[0.07604166666666666,0.1814814814814815],[0.07604166666666666,0.1814814814814815],[0.07604166666666666,0.1814814814814815],[0.07604166666666666,0.1814814814814815],[0.07604166666666666,0.1814814814814815],[0.07604166666666666,0.1814814814814815],[0.07604166666666666,0.1814814814814815],[0.07604166666666666,0.1814814814814815],[0.07604166666666666,0.1814814814814815],[0.07604166666666666,0.1814814814814815],[0.07604166666666666,0.1814814814814815],[0.07604166666666666,0.1814814814814815],[0.07604166666666666,0.1814814814814815],[0.07604166666666666,0.1814814814814815],[0.07604166666666666,0.1814814814814815],[0.07604166666666666,0.1814814814814815],[0.07604166666666666,0.1814814814814815],[0.07604166666666666,0.1814814814814815],[0.07604166666666666,0.1814814814814815],[0.07604166666666666,0.1814814814814815],[0.07604166666666666,0.1814814814814815],[0.07604166666666666,0.1814814814814815],[0.07604166666666666,0.1814814814814815],[0.07604166666666666,0.1814814814814815],[0.07604166666666666,0.1814814814814815],[0.07604166666666666,0.1814814814814815],[0.07604166666666666,0.1814814814814815],[0.07604166666666666,0.1814814814814815],[0.07604166666666666,0.1814814814814815],[0.07604166666666666,0.1814814814814815],[0.07604166666666666,0.1814814814814815],[0.07604166666666666,0.1814814814814815],[0.07604166666666666,0.1814814814814815],[0.07604166666666666,0.1814814814814815],[0.07604166666666666,0.1814814814814815],[0.07604166666666666,0.1814814814814815],[0.07604166666666666,0.1814814814814815],[0.07604166666666666,0.1814814814814815],[0.07604166666666666,0.1814814814814815],[0.07604166666666666,0.1814814814814815],[0.07604166666666666,0.1814814814814815],[0.07604166666666666,0.1814814814814815],[0.07604166666666666,0.1814814814814815],[0.07604166666666666,0.1814814814814815],[0.07604166666666666,0.1814814814814815],[0.07604166666666666,0.1814814814814815],[0.07604166666666666,0.1814814814814815],[0.07604166666666666,0.1814814814814815],[0.07604166666666666,0.1814814814814815],[0.07604166666666666,0.1814814814814815],[0.07604166666666666,0.1814814814814815],[0.07604166666666666,0.1814814814814815],[0.07604166666666666,0.1814814814814815],[0.07604166666666666,0.1814814814814815],[0.07604166666666666,0.1814814814814815],[0.07604166666666666,0.1814814814814815],[0.07604166666666666,0.1814814814814815],[0.07604166666666666,0.1814814814814815],[0.07604166666666666,0.1814814814814815],[0.07604166666666666,0.1814814814814815],[0.07604166666666666,0.1814814814814815],[0.07604166666666666,0.1814814814814815],[0.07604166666666666,0.1814814814814815],[0.07604166666666666,0.1814814814814815],[0.07604166666666666,0.1814814814814815],[0.07604166666666666,0.1814814814814815],[0.07604166666666666,0.1814814814814815],[0.07604166666666666,0.1814814814814815],[0.07604166666666666,0.1814814814814815],[0.07604166666666666,0.1814814814814815],[0.07604166666666666,0.1814814814814815],[0.07604166666666666,0.1814814814814815],[0.07604166666666666,0.1814814814814815],[0.07604166666666666,0.1814814814814815],[0.07604166666666666,0.1814814814814815],[0.07604166666666666,0.1814814814814815],[0.07604166666666666,0.1814814814814815],[0.07604166666666666,0.1814814814814815],[0.07604166666666666,0.1814814814814815],[0.07604166666666666,0.1814814814814815],[0.07604166666666666,0.1814814814814815],[0.07604166666666666,0.1814814814814815],[0.07291666666666667,0.17962962962962964],[0.071875,0.17777777777777778],[0.071875,0.17777777777777778],[0.07083333333333333,0.17777777777777778],[0.06979166666666667,0.17777777777777778],[0.06875,0.17777777777777778],[0.06875,0.17777777777777778],[0.06875,0.17777777777777778],[0.06770833333333333,0.17777777777777778],[0.06770833333333333,0.17777777777777778],[0.06770833333333333,0.17777777777777778],[0.06666666666666667,0.17777777777777778],[0.06666666666666667,0.17777777777777778],[0.065625,0.17777777777777778],[0.065625,0.17777777777777778],[0.065625,0.17777777777777778],[0.065625,0.17777777777777778],[0.065625,0.17777777777777778],[0.065625,0.17777777777777778],[0.065625,0.17777777777777778],[0.065625,0.17777777777777778],[0.065625,0.17777777777777778],[0.065625,0.17777777777777778],[0.065625,0.17777777777777778],[0.065625,0.17777777777777778],[0.065625,0.17777777777777778],[0.065625,0.17777777777777778],[0.065625,0.17777777777777778],[0.065625,0.17777777777777778],[0.065625,0.17777777777777778],[0.065625,0.17777777777777778],[0.065625,0.17777777777777778],[0.065625,0.17777777777777778],[0.065625,0.17777777777777778],[0.065625,0.17777777777777778],[0.065625,0.17777777777777778],[0.065625,0.17777777777777778],[0.065625,0.17777777777777778],[0.065625,0.17777777777777778],[0.065625,0.17777777777777778],[0.065625,0.17777777777777778],[0.065625,0.17777777777777778],[0.065625,0.17777777777777778],[0.065625,0.17777777777777778],[0.065625,0.17777777777777778],[0.065625,0.17777777777777778],[0.065625,0.17777777777777778],[0.065625,0.17777777777777778],[0.065625,0.17777777777777778],[0.065625,0.17777777777777778],[0.065625,0.17777777777777778],[0.065625,0.17777777777777778],[0.065625,0.17777777777777778],[0.065625,0.17777777777777778],[0.065625,0.17777777777777778],[0.065625,0.17777777777777778],[0.065625,0.17777777777777778],[0.065625,0.17777777777777778],[0.065625,0.17777777777777778],[0.065625,0.17777777777777778],[0.065625,0.17777777777777778],[0.065625,0.17777777777777778],[0.065625,0.17777777777777778],[0.065625,0.17777777777777778],[0.065625,0.17777777777777778],[0.065625,0.17777777777777778],[0.065625,0.17777777777777778],[0.065625,0.17777777777777778],[0.065625,0.17777777777777778],[0.065625,0.17777777777777778],[0.065625,0.17777777777777778],[0.065625,0.17777777777777778],[0.065625,0.17777777777777778],[0.065625,0.17777777777777778],[0.065625,0.17777777777777778],[0.065625,0.17777777777777778],[0.065625,0.17777777777777778],[0.065625,0.17777777777777778],[0.065625,0.17777777777777778],[0.065625,0.17777777777777778],[0.06458333333333334,0.17222222222222222],[0.06458333333333334,0.16296296296296298],[0.06458333333333334,0.14444444444444443],[0.06458333333333334,0.13518518518518519],[0.06458333333333334,0.12222222222222222],[0.06458333333333334,0.1111111111111111],[0.06458333333333334,0.10185185185185185],[0.06458333333333334,0.09074074074074075],[0.06458333333333334,0.07962962962962963],[0.06458333333333334,0.06481481481481481],[0.06458333333333334,0.04814814814814815],[0.06458333333333334,0.03148148148148148],[0.06458333333333334,0.022222222222222223],[0.06458333333333334,0.011111111111111112],[0.06458333333333334,-0.005555555555555556],[0.06458333333333334,-0.012962962962962963],[0.06458333333333334,-0.018518518518518517],[0.06458333333333334,-0.020370370370370372],[0.06458333333333334,-0.024074074074074074],[0.06458333333333334,-0.024074074074074074],[0.06458333333333334,-0.024074074074074074],[0.06458333333333334,-0.024074074074074074],[0.06458333333333334,-0.024074074074074074]]","[[0.012187500000000047,0.013333333333333417],[0.012187500000000047,0.013333333333333417],[0.012187500000000047,0.013333333333333417],[0.011562500000000024,0.01777777777777782],[0.011562500000000024,0.01777777777777782],[0.026979166666666644,0.017407407407407365],[0.026979166666666644,0.017407407407407365],[0.044062499999999956,0.018148148148148063],[0.044062499999999956,0.018148148148148063],[0.04906250000000002,0.004814814814814857],[0.04906250000000002,0.004814814814814857],[0.04906250000000002,0.004814814814814857],[0.04906250000000002,0.004814814814814857],[0.04885416666666664,0.010740740740740657],[0.04885416666666664,0.010740740740740657],[0.051041666666666666,-0.021296296296296296],[0.051041666666666666,-0.021296296296296296],[0.05427083333333336,-0.038703703703703664],[0.05427083333333336,-0.038703703703703664],[0.059687499999999956,-0.060555555555555536],[0.059687499999999956,-0.060555555555555536],[0.06864583333333343,-0.06351851851851854],[0.06864583333333343,-0.06351851851851854],[0.08250000000000005,-0.07074074074074072],[0.08250000000000005,-0.07074074074074072],[0.08250000000000005,-0.07074074074074072],[0.08250000000000005,-0.07074074074074072],[0.09343750000000005,-0.0764814814814815],[0.09343750000000005,-0.0764814814814815],[0.09072916666666657,-0.07666666666666662],[0.08947916666666676,-0.046481481481481526],[0.07364583333333338,-0.036481481481481566],[0.07041666666666657,-0.035740740740740656],[0.06604166666666664,-0.01629629629629621],[0.05447916666666662,-0.013703703703703662],[0.0421875,-0.0012962962962963806],[0.04104166666666664,0.02629629629629638],[0.03989583333333328,0.05388888888888893],[0.03572916666666662,0.1037037037037037],[0.03781249999999995,0.152962962962963],[0.033749999999999974,0.15685185185185194],[0.035625000000000046,0.18370370370370379],[0.0453125,0.22592592592592592],[0.05499999999999995,0.2681481481481481],[0.0740624999999999,0.3199999999999999],[0.0931250000000001,0.37185185185185177],[0.09854166666666657,0.39944444444444455],[0.11395833333333343,0.42018518518518516],[0.11395833333333343,0.42018518518518516],[0.12572916666666673,0.4170370370370371],[0.12614583333333323,0.42370370370370364],[0.12958333333333344,0.44425925925925924],[0.13875000000000004,0.46296296296296297],[0.14260416666666675,0.4685185185185185],[0.1486458333333334,0.4824074074074074],[0.15145833333333342,0.4888888888888889],[0.16197916666666667,0.4794444444444444],[0.1724999999999999,0.4699999999999999],[0.17677083333333338,0.4696296296296297],[0.18479166666666677,0.4722222222222222],[0.2111458333333334,0.45759259259259266],[0.2375,0.44296296296296306],[0.24479166666666666,0.44425925925925924],[0.2520833333333333,0.4455555555555556],[0.2682291666666667,0.4398148148148148],[0.27927083333333325,0.4348148148148147],[0.27791666666666665,0.4351851851851852],[0.2765625,0.43555555555555564],[0.2830208333333334,0.4631481481481482],[0.2782291666666666,0.49370370370370376],[0.2664583333333333,0.5316666666666667],[0.2591666666666666,0.6375925925925925],[0.2833333333333333,0.7003703703703704],[0.3125,0.7596296296296298],[0.3125,0.7596296296296298],[0.32489583333333344,0.8187037037037037],[0.33354166666666674,0.8905555555555555],[0.346875,0.9729629629629631],[0.3397916666666667,1.0538888888888887],[0.32145833333333323,1.1031481481481482],[0.3011458333333332,1.1277777777777778],[0.2808333333333332,1.1524074074074073],[0.24968750000000003,1.095],[0.20041666666666677,1.0666666666666667],[0.1648958333333333,1.0314814814814814],[0.13510416666666672,0.9951851851851854],[0.12374999999999996,0.9338888888888888],[0.11239583333333343,0.8725925925925927],[0.11239583333333343,0.8725925925925927],[0.1319791666666667,0.8001851851851852],[0.1428124999999999,0.7407407407407407],[0.16687500000000005,0.702962962962963],[0.18822916666666673,0.6751851851851852],[0.21739583333333337,0.6516666666666666],[0.24656250000000005,0.6281481481481482],[0.2526041666666667,0.5935185185185186],[0.2547916666666666,0.5385185185185184],[0.2568749999999999,0.5066666666666667],[0.23895833333333344,0.4698148148148149],[0.21052083333333324,0.4455555555555556],[0.2025000000000001,0.41999999999999993],[0.1944791666666667,0.39444444444444443],[0.18406250000000005,0.3483333333333334],[0.17843749999999994,0.32111111111111107],[0.16447916666666676,0.28833333333333344],[0.15489583333333337,0.2770370370370371],[0.15854166666666672,0.2785185185185185],[0.15270833333333325,0.2683333333333333],[0.1618750000000001,0.2814814814814815],[0.17302083333333323,0.2953703703703704],[0.15093750000000009,0.28407407407407403],[0.12885416666666671,0.2727777777777777],[0.10385416666666672,0.294074074074074],[0.10385416666666672,0.294074074074074],[0.0890625,0.31129629629629635],[0.06739583333333338,0.3],[0.03927083333333338,0.2933333333333333],[0.010416666666666666,0.3266666666666666],[-0.018437500000000048,0.35999999999999993],[-0.033854166666666664,0.35648148148148145],[-0.033854166666666664,0.35648148148148145],[-0.036458333333333336,0.36129629629629634],[-0.02791666666666662,0.38722222222222225],[-0.01395833333333331,0.42185185185185176],[-0.01395833333333331,0.42185185185185176],[-0.007708333333333309,0.42740740740740735],[-0.028854166666666715,0.45333333333333325],[-0.02020833333333331,0.4807407407407408],[0.002812500000000047,0.5144444444444444],[0.019270833333333334,0.5075925925925926],[0.030208333333333334,0.5224074074074074],[0.030208333333333334,0.5224074074074074],[0.03208333333333328,0.5274074074074073],[0.02677083333333338,0.5170370370370371],[0.008854166666666666,0.5018518518518519],[0.008854166666666666,0.5018518518518519],[0.005624999999999976,0.4872222222222223],[0.000416666666666643,0.46574074074074073],[0.02947916666666662,0.42666666666666664],[0.03854166666666667,0.42611111111111116],[0.04739583333333333,0.4198148148148149],[0.05604166666666662,0.41462962962962957],[0.05604166666666662,0.3859259259259259],[0.05666666666666664,0.38555555555555565],[0.049687500000000044,0.39148148148148143],[0.06447916666666664,0.39759259259259266],[0.07468750000000005,0.41092592592592586],[0.07468750000000005,0.41092592592592586],[0.10260416666666666,0.4381481481481482],[0.09458333333333328,0.44074074074074077],[0.1021874999999999,0.4468518518518518],[0.09458333333333328,0.44166666666666665],[0.07479166666666662,0.4474074074074075],[0.06729166666666657,0.46703703703703714],[0.07760416666666667,0.47074074074074085],[0.0734375,0.47611111111111115],[0.07520833333333338,0.4816666666666667],[0.06145833333333333,0.47074074074074085],[0.06145833333333333,0.47074074074074085],[0.03802083333333333,0.46537037037037027],[0.036562500000000026,0.47314814814814815],[0.03208333333333328,0.45703703703703696],[0.014895833333333285,0.4492592592592593],[0.02385416666666664,0.4457407407407408],[0.04791666666666667,0.44055555555555553],[0.05416666666666667,0.45129629629629636],[0.07489583333333343,0.46037037037037043],[0.08395833333333323,0.4433333333333333],[0.1040625000000001,0.418888888888889],[0.1040625000000001,0.418888888888889],[0.13385416666666666,0.3888888888888889],[0.17958333333333343,0.3774074074074073],[0.20604166666666662,0.3727777777777777],[0.22208333333333338,0.380925925925926],[0.23635416666666675,0.39203703703703713],[0.23739583333333342,0.39277777777777784],[0.22760416666666666,0.3972222222222222],[0.2178124999999999,0.4016666666666666],[0.2178124999999999,0.4016666666666666],[0.22822916666666657,0.4016666666666666],[0.22041666666666657,0.4244444444444445],[0.21260416666666657,0.44722222222222224],[0.18250000000000005,0.4566666666666667],[0.17625000000000005,0.4646296296296296],[0.17635416666666662,0.467962962962963],[0.15614583333333343,0.45555555555555555],[0.15822916666666675,0.42685185185185187],[0.15343749999999995,0.40629629629629627],[0.1586458333333333,0.39407407407407397],[0.15374999999999991,0.3907407407407407],[0.1560416666666666,0.372037037037037],[0.16395833333333343,0.35537037037037034],[0.16395833333333343,0.35537037037037034],[0.1318749999999999,0.3411111111111112],[0.1318749999999999,0.3411111111111112],[0.12000000000000005,0.3235185185185186],[0.12000000000000005,0.3235185185185186],[0.12791666666666662,0.3042592592592592],[0.15,0.2729629629629629],[0.15,0.2729629629629629],[0.14489583333333325,0.28703703703703703],[0.1493750000000001,0.29296296296296304],[0.1603125000000001,0.26222222222222225],[0.1603125000000001,0.26222222222222225],[0.1710416666666667,0.24314814814814806],[0.14989583333333342,0.2598148148148147],[0.1423958333333334,0.26370370370370366],[0.1423958333333334,0.26370370370370366],[0.18499999999999991,0.22629629629629638],[0.19229166666666658,0.22851851851851848],[0.19427083333333334,0.21666666666666667],[0.19427083333333334,0.21666666666666667],[0.18875000000000006,0.2183333333333333],[0.19364583333333343,0.1985185185185186],[0.20666666666666675,0.175],[0.2165625000000001,0.16592592592592598],[0.22322916666666662,0.16592592592592598],[0.25416666666666665,0.1425925925925926],[0.23552083333333323,0.13055555555555556],[0.2037499999999999,0.15592592592592602],[0.1779166666666666,0.16592592592592598],[0.17260416666666673,0.19129629629629621],[0.16395833333333343,0.16703703703703712],[0.14979166666666663,0.13518518518518519],[0.14770833333333327,0.14333333333333328],[0.13229166666666667,0.16537037037037028],[0.09343750000000005,0.20888888888888882],[0.06218750000000005,0.24000000000000005],[0.059062500000000046,0.2625925925925925],[0.06104166666666669,0.2757407407407407],[0.058854166666666666,0.26944444444444443],[0.04593750000000003,0.25314814814814823],[0.034687499999999954,0.30407407407407416],[0.016770833333333356,0.3512962962962964],[-0.0046875,0.377962962962963],[-0.03187500000000002,0.3677777777777778],[-0.03677083333333329,0.31592592592592594],[-0.041666666666666664,0.2640740740740741],[-0.043958333333333384,0.21962962962962967],[-0.04572916666666664,0.222037037037037],[-0.05437500000000005,0.23870370370370367],[-0.052187500000000026,0.2551851851851851],[-0.044166666666666646,0.2588888888888888],[-0.02947916666666662,0.2662962962962962],[-0.02947916666666662,0.2662962962962962],[-0.03989583333333328,0.2603703703703704],[-0.02677083333333338,0.24592592592592585],[-0.01604166666666664,0.2655555555555555],[-0.00916666666666662,0.28833333333333344],[-0.0026041666666666665,0.28407407407407403],[-0.011770833333333286,0.28833333333333344],[-0.008958333333333356,0.2774074074074073],[-0.015104166666666667,0.25333333333333324],[-0.03125,0.22981481481481486],[-0.05395833333333329,0.22981481481481486],[-0.06572916666666669,0.22092592592592583],[-0.0328125,0.3435185185185185],[0.0012500000000000473,0.4587037037037038],[0.10260416666666666,0.5103703703703704],[0.20302083333333343,0.569074074074074],[0.33479166666666677,0.5853703703703704],[0.4538541666666667,0.6035185185185185],[0.5710416666666667,0.635],[0.6719791666666666,0.6827777777777778],[0.7509375000000001,0.722037037037037],[0.7959374999999999,0.806111111111111],[0.7784375,0.8040740740740742],[0.7784375,0.8040740740740742],[0.7373958333333335,0.7564814814814815],[0.6301041666666668,0.7724074074074074],[0.4926041666666668,0.8014814814814814],[0.3338541666666667,0.8270370370370371],[0.19302083333333328,0.8598148148148147],[0.052187500000000026,0.8925925925925926],[0.052187500000000026,0.8925925925925926],[-0.06635416666666671,0.8937037037037038],[-0.13416666666666663,0.8598148148148147],[-0.16239583333333332,0.7838888888888889],[-0.19125000000000003,0.6905555555555555],[-0.19416666666666665,0.6362962962962964],[-0.21062500000000003,0.5887037037037036],[-0.19604166666666673,0.5485185185185186],[-0.16656249999999997,0.49537037037037035],[-0.14583333333333334,0.44166666666666665],[-0.13312499999999997,0.39240740740740737],[-0.12104166666666671,0.3562962962962963],[-0.13114583333333332,0.34018518518518526],[-0.1310416666666666,0.33499999999999996],[-0.11052083333333336,0.33351851851851855],[-0.08999999999999998,0.33203703703703696],[-0.060000000000000026,0.3161111111111112],[-0.029999999999999954,0.3001851851851852],[-0.029999999999999954,0.3001851851851852],[0.0037500000000000237,0.27611111111111114],[0.0037500000000000237,0.27611111111111114],[0.03166666666666664,0.26425925925925936],[0.053125,0.2522222222222223],[0.07458333333333324,0.24018518518518528],[0.11156249999999991,0.21851851851851853],[0.14458333333333329,0.1868518518518518],[0.13447916666666657,0.15777777777777785],[0.13395833333333323,0.1338888888888888],[0.14364583333333342,0.12444444444444452],[0.1571875000000001,0.12018518518518514],[0.1571875000000001,0.12018518518518514],[0.14989583333333342,0.12296296296296293],[0.14854166666666657,0.11703703703703712],[0.16104166666666658,0.10870370370370379],[0.18489583333333334,0.09351851851851851],[0.18489583333333334,0.09351851851851851],[0.19385416666666658,0.08314814814814811],[0.19385416666666658,0.06944444444444445],[0.22260416666666671,0.06074074074074066],[0.2404166666666666,0.052407407407407326],[0.2557291666666667,0.038703703703703664],[0.26885416666666656,0.015000000000000043],[0.2924999999999999,0.0012962962962963806],[0.3160416666666668,-0.01592592592592597],[0.33864583333333326,-0.020555555555555598],[0.3498958333333334,-0.018333333333333292],[0.3486458333333334,-0.015000000000000043],[0.35281250000000003,-0.007962962962962878],[0.35031249999999997,0.008703703703703788],[0.35031249999999997,0.008703703703703788],[0.35270833333333323,0.008333333333333333],[0.35791666666666655,0.0035185185185184764],[0.35260416666666666,0.006111111111111027],[0.35260416666666666,0.006111111111111027],[0.34395833333333337,0.009629629629629714],[0.3237499999999999,0.03722222222222227],[0.3163541666666667,0.04148148148148144],[0.3089583333333332,0.045740740740740825],[0.3168750000000001,0.03185185185185194],[0.3220833333333334,0.016666666666666666],[0.3285416666666668,-0.0020370370370370794],[0.3240624999999999,-0.007037037037036953],[0.3240624999999999,-0.007037037037036953],[0.3146874999999999,-0.012222222222222264],[0.3141666666666666,-0.019999999999999917],[0.3141666666666666,-0.019999999999999917],[0.3115624999999999,-0.02240740740740745],[0.33135416666666656,-0.051111111111111156],[0.3160416666666668,-0.07074074074074072],[0.3150000000000001,-0.08777777777777773],[0.31354166666666666,-0.07333333333333338],[0.3120833333333332,-0.05888888888888891],[0.3182291666666667,-0.05240740740740743],[0.33177083333333335,-0.04814814814814815],[0.3273958333333333,-0.03759259259259251],[0.3273958333333333,-0.03759259259259251],[0.33093750000000005,-0.02814814814814823],[0.31906249999999997,-0.026666666666666623],[0.2946875000000001,-0.019444444444444445],[0.2946875000000001,-0.019444444444444445],[0.2900000000000001,0.0007407407407406986],[0.2798958333333334,-0.007962962962962878],[0.2642708333333334,0.0001851851851852273],[0.24864583333333337,0.008333333333333333],[0.24864583333333337,0.008333333333333333],[0.21760416666666677,0.01314814814814819],[0.1865624999999999,0.01796296296296305],[0.15427083333333325,0.03462962962962971],[0.1466666666666666,0.014814814814814815],[0.1515625,0.0007407407407406986],[0.1515625,0.0007407407407406986],[0.1650000000000001,-0.007592592592592635],[0.16875,-0.03222222222222218],[0.16364583333333324,-0.030555555555555555],[0.16364583333333324,-0.030555555555555555],[0.16614583333333333,-0.05092592592592592],[0.17572916666666671,-0.07444444444444442],[0.1931250000000001,-0.08666666666666668],[0.1931250000000001,-0.08666666666666668],[0.19416666666666677,-0.1037037037037037],[0.2335416666666667,-0.1359259259259259],[0.24031250000000004,-0.13055555555555556],[0.24031250000000004,-0.13055555555555556],[0.22916666666666666,-0.11407407407407412],[0.22145833333333323,-0.1037037037037037],[0.22760416666666666,-0.09018518518518516],[0.21395833333333342,-0.09018518518518516],[0.19520833333333343,-0.09462962962962967],[0.16937499999999991,-0.09592592592592594],[0.16937499999999991,-0.09592592592592594],[0.14708333333333337,-0.09648148148148153],[0.1632291666666667,-0.08814814814814818],[0.15822916666666675,-0.07333333333333338],[0.15822916666666675,-0.07333333333333338],[0.15791666666666657,-0.06814814814814817],[0.18104166666666663,-0.0653703703703704],[0.20145833333333343,-0.06833333333333329],[0.20583333333333323,-0.07907407407407405],[0.21281249999999996,-0.06111111111111111],[0.20843749999999991,-0.055185185185185205],[0.23156249999999995,-0.06518518518518517],[0.25114583333333323,-0.07592592592592592],[0.25750000000000006,-0.08259259259259263],[0.26708333333333345,-0.09851851851851849],[0.26708333333333345,-0.09851851851851849],[0.27229166666666677,-0.10203703703703708],[0.2830208333333334,-0.12518518518518523],[0.2830208333333334,-0.12518518518518523],[0.2765625,-0.13111111111111112],[0.2765625,-0.13111111111111112],[0.27854166666666674,-0.13240740740740742],[0.2977083333333333,-0.14888888888888885],[0.32822916666666657,-0.15333333333333335],[0.3211458333333333,-0.14777777777777779],[0.33604166666666657,-0.1537037037037037],[0.33604166666666657,-0.1537037037037037],[0.32218749999999996,-0.15314814814814812],[0.31364583333333323,-0.14611111111111108],[0.3117708333333333,-0.14777777777777779],[0.3067708333333333,-0.14351851851851852],[0.3067708333333333,-0.14351851851851852],[0.3042708333333332,-0.1542592592592593],[0.30270833333333325,-0.1492592592592593],[0.3011458333333332,-0.14425925925925923],[0.2961458333333333,-0.1388888888888889],[0.3012500000000001,-0.12759259259259256],[0.3037499999999999,-0.10907407407407403],[0.3303124999999999,-0.10666666666666672],[0.3497916666666666,-0.10759259259259263],[0.3622916666666666,-0.10259259259259255],[0.34916666666666674,-0.09962962962962965],[0.34312500000000007,-0.0962962962962963],[0.35489583333333335,-0.11203703703703703],[0.3697916666666667,-0.11314814814814819],[0.3637500000000001,-0.12111111111111107],[0.36354166666666665,-0.12759259259259256],[0.3381249999999999,-0.13129629629629624],[0.3094791666666666,-0.14740740740740746],[0.2928124999999999,-0.15870370370370368],[0.2833333333333333,-0.16351851851851854],[0.2915625000000001,-0.16129629629629633],[0.2915625000000001,-0.16129629629629633],[0.29968750000000005,-0.17092592592592595],[0.27322916666666663,-0.1479629629629629],[0.27927083333333325,-0.15925925925925927],[0.3094791666666666,-0.1581481481481481],[0.290625,-0.16444444444444448],[0.27760416666666665,-0.16925925925925922],[0.27760416666666665,-0.16925925925925922],[0.2911458333333333,-0.16166666666666668],[0.2763541666666666,-0.16962962962962966],[0.2604166666666667,-0.16629629629629633],[0.2513541666666666,-0.167037037037037],[0.2423958333333334,-0.1559259259259259],[0.2423958333333334,-0.1559259259259259],[0.2615624999999999,-0.1618518518518518],[0.23302083333333337,-0.16074074074074077],[0.2046875,-0.1655555555555555],[0.2234375,-0.14685185185185187],[0.2421875,-0.12814814814814812],[0.2334374999999999,-0.10796296296296298],[0.2334374999999999,-0.10796296296296298],[0.24656250000000005,-0.09518518518518514],[0.23645833333333333,-0.08814814814814818],[0.23645833333333333,-0.08814814814814818],[0.23166666666666677,-0.08203703703703706],[0.22333333333333344,-0.07574074074074069],[0.21437499999999995,-0.08314814814814811],[0.2048958333333334,-0.0824074074074074],[0.19541666666666657,-0.0816666666666667],[0.19541666666666657,-0.0816666666666667],[0.18218750000000009,-0.09018518518518516],[0.17374999999999996,-0.10833333333333334],[0.16916666666666677,-0.11962962962962967],[0.16916666666666677,-0.11962962962962967],[0.15229166666666671,-0.11129629629629634],[0.16729166666666656,-0.1301851851851852],[0.1701041666666666,-0.1440740740740741],[0.16197916666666667,-0.13425925925925927],[0.14979166666666663,-0.11981481481481479],[0.15,-0.10944444444444448],[0.1502083333333334,-0.09907407407407408],[0.1622916666666666,-0.10111111111111115],[0.16958333333333328,-0.09351851851851851],[0.17302083333333323,-0.09277777777777782],[0.18708333333333324,-0.08499999999999996],[0.18645833333333334,-0.062037037037037036],[0.17708333333333334,-0.03185185185185194],[0.16906249999999995,-0.040740740740740744],[0.16104166666666658,-0.049629629629629544],[0.1632291666666667,-0.04666666666666675],[0.16541666666666663,-0.043703703703703745],[0.1570833333333333,-0.04722222222222222],[0.14874999999999997,-0.0507407407407407],[0.12552083333333333,-0.032777777777777864],[0.12552083333333333,-0.032777777777777864],[0.11645833333333329,-0.03148148148148148],[0.10906250000000005,-0.038703703703703664],[0.12385416666666677,0.04592592592592584],[0.14291666666666672,0.1427777777777778],[0.2,0.22166666666666676],[0.23270833333333343,0.2964814814814815],[0.28708333333333325,0.3475925925925927],[0.3400000000000001,0.40925925925925927],[0.3607291666666666,0.5061111111111111],[0.3963541666666667,0.5814814814814815],[0.39520833333333344,0.6803703703703703],[0.3923958333333334,0.7877777777777777],[0.3694791666666667,0.7816666666666667],[0.3554166666666667,0.7785185185185185],[0.28458333333333335,0.7816666666666667],[0.22135416666666666,0.7527777777777778],[0.14354166666666662,0.7424074074074074],[0.14354166666666662,0.7424074074074074],[0.065625,0.7338888888888888],[0.0021875000000000236,0.6987037037037036],[-0.06833333333333336,0.6553703703703704],[-0.0936458333333333,0.5546296296296296],[-0.1388541666666666,0.4601851851851852],[-0.17739583333333328,0.3801851851851851],[-0.17739583333333328,0.3801851851851851],[-0.21000000000000002,0.2853703703703704],[-0.23187500000000003,0.22018518518518515],[-0.2469791666666667,0.18777777777777774],[-0.2626041666666667,0.19148148148148145],[-0.278125,0.1933333333333333],[-0.24833333333333332,0.14962962962962956],[-0.2358333333333333,0.13666666666666658],[-0.22260416666666671,0.11666666666666667],[-0.18947916666666664,0.09037037037037028],[-0.18947916666666664,0.09037037037037028],[-0.1688541666666667,0.06314814814814819],[-0.15416666666666667,0.0507407407407407],[-0.09989583333333331,0.025370370370370456],[-0.049374999999999974,0.007777777777777862],[-0.049374999999999974,0.007777777777777862],[-0.005416666666666714,-0.040740740740740744],[0.035104166666666714,-0.08703703703703704],[0.04583333333333333,-0.11185185185185181],[0.07041666666666657,-0.16777777777777783],[0.084375,-0.15796296296296297],[0.10062499999999991,-0.14314814814814816],[0.12270833333333328,-0.13851851851851854],[0.14500000000000005,-0.12999999999999998],[0.11812500000000009,-0.10777777777777775],[0.09052083333333343,-0.09722222222222222],[0.07999999999999995,-0.11537037037037039],[0.07291666666666667,-0.13574074074074077],[0.06645833333333329,-0.13222222222222219],[0.06645833333333329,-0.13222222222222219],[0.06312500000000003,-0.11259259259259262],[0.05583333333333336,-0.12611111111111115],[0.044166666666666646,-0.11833333333333329],[0.044479166666666715,-0.10037037037037035],[0.029062499999999977,-0.05888888888888891],[0.029062499999999977,-0.05888888888888891],[0.0296875,-0.04000000000000004],[0.02947916666666662,-0.007592592592592635],[0.028125,0.06962962962962967],[0.02677083333333338,0.14685185185185176],[0.026979166666666644,0.21574074074074073],[0.025937499999999978,0.25574074074074077],[0.011666666666666714,0.3199999999999999],[-0.016458333333333287,0.35055555555555545],[-0.03875000000000005,0.3668518518518519],[-0.04552083333333338,0.3557407407407408],[-0.058333333333333334,0.3507407407407407],[-0.06583333333333338,0.33611111111111114],[-0.08156249999999995,0.3140740740740741],[-0.09208333333333331,0.2655555555555555],[-0.09208333333333331,0.2655555555555555],[-0.09937499999999998,0.22462962962962954],[-0.12083333333333333,0.23185185185185195],[-0.12083333333333333,0.23185185185185195],[-0.12989583333333338,0.2116666666666666],[-0.10677083333333333,0.19296296296296306],[-0.10541666666666671,0.19240740740740736],[-0.10406249999999997,0.19185185185185188],[-0.09447916666666671,0.19814814814814816],[-0.08489583333333334,0.2044444444444444],[-0.08302083333333338,0.20203703703703707],[-0.07385416666666664,0.23703703703703705],[-0.07729166666666672,0.2512962962962964],[-0.05791666666666669,0.23870370370370367],[-0.05791666666666669,0.23870370370370367],[-0.04479166666666667,0.2300000000000001],[-0.04677083333333331,0.22333333333333338],[-0.03812500000000003,0.21370370370370367],[-0.01854166666666662,0.1962962962962963],[0.000416666666666643,0.1698148148148149],[0.017604166666666643,0.15611111111111103],[0.03187500000000002,0.14314814814814805],[0.03270833333333331,0.10777777777777786],[0.04718749999999995,0.09407407407407399],[0.04718749999999995,0.09407407407407399],[0.06489583333333329,0.07518518518518523],[0.07166666666666661,0.08055555555555556],[0.08624999999999995,0.09518518518518514],[0.09239583333333339,0.10314814814814824],[0.08760416666666657,0.11888888888888897],[0.07708333333333334,0.12981481481481486],[0.06833333333333323,0.127962962962963],[0.06833333333333323,0.127962962962963],[0.07177083333333342,0.13499999999999995],[0.07989583333333337,0.1307407407407408],[0.07989583333333337,0.1307407407407408],[0.07822916666666657,0.13333333333333333],[0.060104166666666715,0.16425925925925935],[0.07677083333333339,0.25925925925925924],[0.08427083333333343,0.34981481481481475],[0.12479166666666662,0.4418518518518519],[0.21593749999999995,0.5105555555555557],[0.26927083333333335,0.596111111111111],[0.3776041666666667,0.6588888888888889],[0.3936458333333334,0.7648148148148148],[0.40593750000000006,0.8935185185185185],[0.3921875,0.9625925925925926],[0.39166666666666666,1.0085185185185184],[0.35666666666666674,0.9675925925925926],[0.321875,0.9257407407407409],[0.2525000000000001,0.8875925925925925],[0.13250000000000003,0.8727777777777777],[0.049687500000000044,0.8418518518518519],[-0.08812500000000002,0.8337037037037038],[-0.14781249999999999,0.7611111111111111],[-0.20750000000000005,0.6885185185185184],[-0.2389583333333333,0.6596296296296297],[-0.2704166666666667,0.6307407407407408],[-0.29500000000000004,0.6129629629629629],[-0.3115625,0.5920370370370371],[-0.318125,0.5725925925925927],[-0.33624999999999994,0.5648148148148148],[-0.32781250000000006,0.5675925925925925],[-0.32781250000000006,0.5675925925925925],[-0.3310416666666666,0.567962962962963],[-0.3258333333333333,0.5801851851851851],[-0.31697916666666665,0.5822222222222222],[-0.28635416666666663,0.5224074074074074],[-0.2507291666666667,0.4985185185185186],[-0.20968749999999994,0.4337037037037038],[-0.18156249999999996,0.3738888888888888],[-0.15562499999999999,0.3507407407407407],[-0.11656249999999997,0.29370370370370374],[-0.09770833333333329,0.2301851851851851],[-0.04020833333333336,0.15166666666666662],[-0.04020833333333336,0.15166666666666662],[-0.004791666666666691,0.06740740740740736],[0.03250000000000005,-0.005000000000000084],[0.0484375,-0.011481481481481566],[0.059375,-0.05388888888888893],[0.06145833333333333,-0.05018518518518523],[0.06843750000000005,-0.048333333333333374],[0.07760416666666667,-0.08314814814814811],[0.08250000000000005,-0.102962962962963],[0.08052083333333329,-0.11777777777777781],[0.08052083333333329,-0.11777777777777781],[0.0515625,-0.11518518518518517],[0.05302083333333331,-0.10796296296296298],[0.0421875,-0.09833333333333337],[0.035520833333333356,-0.08555555555555554],[0.02791666666666662,-0.08111111111111113],[0.03687499999999998,-0.07611111111111116],[0.024479166666666666,-0.034444444444444486],[0.02322916666666662,-0.005370370370370328],[0.022812499999999975,0.009074074074074031],[0.029270833333333357,0.018518518518518517],[0.050520833333333334,0.011296296296296339],[0.059895833333333336,0.005000000000000084],[0.06156250000000003,0.014629629629629588],[0.06197916666666667,0.017592592592592594],[0.06885416666666658,0.021296296296296296],[0.0626041666666667,0.019259259259259216],[0.07000000000000005,-0.004259259259259175],[0.06864583333333343,-0.021851851851851768],[0.06916666666666677,-0.017592592592592594],[0.0696875000000001,-0.013333333333333417],[0.05541666666666671,0.007592592592592635],[0.04635416666666667,0.01962962962962967],[0.04729166666666664,0.00851851851851856],[0.04822916666666662,-0.0025925925925925505],[0.04072916666666669,0.0001851851851852273],[0.03322916666666664,0.002962962962963005],[0.043958333333333384,-0.02555555555555547],[0.052291666666666715,-0.04740740740740745],[0.058541666666666714,-0.04611111111111107],[0.058541666666666714,-0.04611111111111107],[0.06177083333333329,-0.06796296296296295],[0.06906249999999996,-0.09648148148148153],[0.07208333333333337,-0.10018518518518522],[0.07958333333333342,-0.1007407407407407],[0.09145833333333328,-0.12629629629629627],[0.10041666666666677,-0.1544444444444444],[0.10072916666666672,-0.1735185185185185],[0.10072916666666672,-0.1735185185185185],[0.09052083333333343,-0.1764814814814815],[0.09239583333333339,-0.15833333333333333],[0.09885416666666676,-0.19592592592592595],[0.10281250000000004,-0.2],[0.10927083333333343,-0.19500000000000003],[0.10208333333333333,-0.20870370370370367],[0.09593749999999991,-0.21944444444444444],[0.0806250000000001,-0.18666666666666668],[0.07114583333333328,-0.15759259259259265],[0.07166666666666661,-0.1411111111111111],[0.07666666666666658,-0.125],[0.07072916666666676,-0.1331481481481481],[0.058854166666666666,-0.11296296296296296],[0.05249999999999998,-0.10314814814814813],[0.03093750000000005,-0.0727777777777778],[0.022083333333333382,-0.039629629629629584],[0.01729166666666669,-0.02370370370370362],[0.015625,-0.026851851851851852],[0.008958333333333356,-0.026481481481481398],[0.0009374999999999763,-0.022592592592592678],[-0.003541666666666643,-0.025370370370370456],[-0.00916666666666662,-0.025],[-0.0048958333333333805,-0.01592592592592597],[-0.0026041666666666665,-0.02111111111111107],[-0.002708333333333357,-0.04296296296296305],[-0.002812500000000047,-0.06481481481481481],[0.007604166666666619,-0.07314814814814814],[0.019687499999999976,-0.0809259259259259],[0.03989583333333328,-0.10277777777777777],[0.05499999999999995,-0.12166666666666665],[0.05499999999999995,-0.12166666666666665],[0.06375000000000004,-0.13648148148148145],[0.07249999999999991,-0.15129629629629626],[0.07541666666666676,-0.17111111111111107],[0.07541666666666676,-0.17111111111111107],[0.07104166666666671,-0.17],[0.07645833333333343,-0.17796296296296302],[0.08739583333333342,-0.16666666666666666],[0.08093750000000005,-0.1507407407407407],[0.07270833333333329,-0.14388888888888887],[0.06812500000000009,-0.11851851851851852],[0.06812500000000009,-0.11851851851851852],[0.0655208333333333,-0.09685185185185187],[0.07520833333333338,-0.0868518518518518],[0.07906250000000009,-0.06277777777777774]]","[[0.012187500000000047,0.013333333333333417,0.00020000000297670795],[0.012187500000000047,0.013333333333333417,0.05509999999404158],[0.012187500000000047,0.013333333333333417,0.057700000002981255],[0.011562500000000024,0.01777777777777782,0.09159999999403112],[0.011562500000000024,0.01777777777777782,0.10150000000000148],[0.026979166666666644,0.017407407407407365,0.12649999999999295],[0.026979166666666644,0.017407407407407365,0.13320000000297227],[0.044062499999999956,0.018148148148148063,0.1597000000029709],[0.044062499999999956,0.018148148148148063,0.167400000005955],[0.04906250000000002,0.004814814814814857,0.1944999999999908],[0.04906250000000002,0.004814814814814857,0.20270000000297728],[0.04906250000000002,0.004814814814814857,0.20790000000596365],[0.04906250000000002,0.004814814814814857,0.22540000000596194],[0.04885416666666664,0.010740740740740657,0.25990000000595614],[0.04885416666666664,0.010740740740740657,0.26759999999403306],[0.051041666666666666,-0.021296296296296296,0.2917999999970107],[0.051041666666666666,-0.021296296296296296,0.30020000000297387],[0.05427083333333336,-0.038703703703703664,0.3267000000029725],[0.05427083333333336,-0.038703703703703664,0.33379999999701226],[0.059687499999999956,-0.060555555555555536,0.35929999999702034],[0.059687499999999956,-0.060555555555555536,0.36700000000000443],[0.06864583333333343,-0.06351851851851854,0.39170000000298444],[0.06864583333333343,-0.06351851851851854,0.40240000000595444],[0.08250000000000005,-0.07074074074074072,0.42690000000595774],[0.08250000000000005,-0.07074074074074072,0.43479999999701135],[0.08250000000000005,-0.07074074074074072,0.4412000000029792],[0.08250000000000005,-0.07074074074074072,0.45909999999403794],[0.09343750000000005,-0.0764814814814815,0.5075999999940422],[0.09343750000000005,-0.0764814814814815,0.5170999999940307],[0.09072916666666657,-0.07666666666666662,0.5282999999970173],[0.08947916666666676,-0.046481481481481526,0.5432999999970178],[0.07364583333333338,-0.036481481481481566,0.557799999997016],[0.07041666666666657,-0.035740740740740656,0.5764999999999958],[0.06604166666666664,-0.01629629629629621,0.591099999994043],[0.05447916666666662,-0.013703703703703662,0.6110000000000042],[0.0421875,-0.0012962962962963806,0.626499999999993],[0.04104166666666664,0.02629629629629638,0.641099999994033],[0.03989583333333328,0.05388888888888893,0.6592000000029756],[0.03572916666666662,0.1037037037037037,0.6744000000059529],[0.03781249999999995,0.152962962962963,0.6935999999940279],[0.033749999999999974,0.15685185185185194,0.7084999999999937],[0.035625000000000046,0.18370370370370379,0.7244000000059501],[0.0453125,0.22592592592592592,0.7432999999970136],[0.05499999999999995,0.2681481481481481,0.757700000002977],[0.0740624999999999,0.3199999999999999,0.7774000000059473],[0.0931250000000001,0.37185185185185177,0.7912999999970154],[0.09854166666666657,0.39944444444444455,0.8079999999999856],[0.11395833333333343,0.42018518518518516,0.8270999999940258],[0.11395833333333343,0.42018518518518516,0.8412000000029636],[0.12572916666666673,0.4170370370370371,0.8577999999970061],[0.12614583333333323,0.42370370370370364,0.8744000000059557],[0.12958333333333344,0.44425925925925924,0.891099999994033],[0.13875000000000004,0.46296296296296297,0.9099000000059547],[0.14260416666666675,0.4685185185185185,0.9245999999940366],[0.1486458333333334,0.4824074074074074,0.9412000000029721],[0.15145833333333342,0.4888888888888889,0.9577999999970146],[0.16197916666666667,0.4794444444444444,0.9744000000059501],[0.1724999999999999,0.4699999999999999,0.9932000000029646],[0.17677083333333338,0.4696296296296297,1.0077999999970118],[0.18479166666666677,0.4722222222222222,1.0244000000059472],[0.2111458333333334,0.45759259259259266,1.0412000000029664],[0.2375,0.44296296296296306,1.057799999997009],[0.24479166666666666,0.44425925925925924,1.076400000005954],[0.2520833333333333,0.4455555555555556,1.0910999999940358],[0.2682291666666667,0.4398148148148148,1.1107000000029714],[0.27927083333333325,0.4348148148148147,1.1244000000059557],[0.27791666666666665,0.4351851851851852,1.141099999994033],[0.2765625,0.43555555555555564,1.1600999999940242],[0.2830208333333334,0.4631481481481482,1.174400000005953],[0.2782291666666666,0.49370370370370376,1.1910999999940302],[0.2664583333333333,0.5316666666666667,1.2077000000029656],[0.2591666666666666,0.6375925925925925,1.22440000000595],[0.2833333333333333,0.7003703703703704,1.242999999999988],[0.3125,0.7596296296296298,1.257700000002977],[0.3125,0.7596296296296298,1.2744999999999962],[0.32489583333333344,0.8187037037037037,1.2912000000029664],[0.33354166666666674,0.8905555555555555,1.307799999997009],[0.346875,0.9729629629629631,1.3267999999970144],[0.3397916666666667,1.0538888888888887,1.3410999999940358],[0.32145833333333323,1.1031481481481482,1.3577000000029713],[0.3011458333333332,1.1277777777777778,1.3744000000059557],[0.2808333333333332,1.1524074074074073,1.391099999994033],[0.24968750000000003,1.095,1.4107999999970033],[0.20041666666666677,1.0666666666666667,1.424400000005953],[0.1648958333333333,1.0314814814814814,1.444400000005949],[0.13510416666666672,0.9951851851851854,1.4577999999970146],[0.12374999999999996,0.9338888888888888,1.4750999999940362],[0.11239583333333343,0.8725925925925927,1.4947999999970065],[0.11239583333333343,0.8725925925925927,1.5079000000059537],[0.1319791666666667,0.8001851851851852,1.5244000000059472],[0.1428124999999999,0.7407407407407407,1.5412000000029664],[0.16687500000000005,0.702962962962963,1.557799999997009],[0.18822916666666673,0.6751851851851852,1.5762000000029772],[0.21739583333333337,0.6516666666666666,1.5910999999940358],[0.24656250000000005,0.6281481481481482,1.6107000000029714],[0.2526041666666667,0.5935185185185186,1.6252999999970044],[0.2547916666666666,0.5385185185185184,1.641099999994033],[0.2568749999999999,0.5066666666666667,1.6602999999970152],[0.23895833333333344,0.4698148148148149,1.6747000000029644],[0.21052083333333324,0.4455555555555556,1.6937999999970046],[0.2025000000000001,0.41999999999999993,1.708900000005947],[0.1944791666666667,0.39444444444444443,1.72440000000595],[0.18406250000000005,0.3483333333333334,1.7432000000029646],[0.17843749999999994,0.32111111111111107,1.757700000002977],[0.16447916666666676,0.28833333333333344,1.7744000000059472],[0.15489583333333337,0.2770370370370371,1.7910999999940245],[0.15854166666666672,0.2785185185185185,1.807799999997009],[0.15270833333333325,0.2683333333333333,1.826299999997012],[0.1618750000000001,0.2814814814814815,1.8420999999940264],[0.17302083333333323,0.2953703703703704,1.8607000000029714],[0.15093750000000009,0.28407407407407403,1.8744000000059557],[0.12885416666666671,0.2727777777777777,1.891099999994033],[0.10385416666666672,0.294074074074074,1.9122999999970105],[0.10385416666666672,0.294074074074074,1.9244999999999877],[0.0890625,0.31129629629629635,1.9414999999999836],[0.06739583333333338,0.3,1.9579000000059565],[0.03927083333333338,0.2933333333333333,1.978400000005955],[0.010416666666666666,0.3266666666666666,1.9932000000029646],[-0.018437500000000048,0.35999999999999993,2.00920000000297],[-0.033854166666666664,0.35648148148148145,2.029900000005945],[-0.033854166666666664,0.35648148148148145,2.0412000000029664],[-0.036458333333333336,0.36129629629629634,2.057900000005951],[-0.02791666666666662,0.38722222222222225,2.0772999999970168],[-0.01395833333333331,0.42185185185185176,2.0962000000029732],[-0.01395833333333331,0.42185185185185176,2.107900000005948],[-0.007708333333333309,0.42740740740740735,2.1245999999940253],[-0.028854166666666715,0.45333333333333325,2.1412999999970097],[-0.02020833333333331,0.4807407407407408,2.1617000000029734],[0.002812500000000047,0.5144444444444444,2.1769999999999854],[0.019270833333333334,0.5075925925925926,2.1924999999999883],[0.030208333333333334,0.5224074074074074,2.2145999999940287],[0.030208333333333334,0.5224074074074074,2.2247000000029757],[0.03208333333333328,0.5274074074074073,2.2412000000029693],[0.02677083333333338,0.5170370370370371,2.2577999999970118],[0.008854166666666666,0.5018518518518519,2.274499999999996],[0.008854166666666666,0.5018518518518519,2.2934000000059527],[0.005624999999999976,0.4872222222222223,2.307799999997009],[0.000416666666666643,0.46574074074074073,2.327099999994026],[0.02947916666666662,0.42666666666666664,2.344700000002966],[0.03854166666666667,0.42611111111111116,2.3604999999999947],[0.04739583333333333,0.4198148148148149,2.3759000000059487],[0.05604166666666662,0.41462962962962957,2.390999999999984],[0.05604166666666662,0.3859259259259259,2.411099999994029],[0.05666666666666664,0.38555555555555565,2.424299999997011],[0.049687500000000044,0.39148148148148143,2.4440999999940303],[0.06447916666666664,0.39759259259259266,2.458099999994026],[0.07468750000000005,0.41092592592592586,2.481299999997013],[0.07468750000000005,0.41092592592592586,2.4939999999999927],[0.10260416666666666,0.4381481481481482,2.5077999999970118],[0.09458333333333328,0.44074074074074077,2.524599999994031],[0.1021874999999999,0.4468518518518518,2.543099999994034],[0.09458333333333328,0.44166666666666665,2.557799999997009],[0.07479166666666662,0.4474074074074075,2.5765999999940234],[0.06729166666666657,0.46703703703703714,2.5939000000059522],[0.07760416666666667,0.47074074074074085,2.610999999999997],[0.0734375,0.47611111111111115,2.6244000000059557],[0.07520833333333338,0.4816666666666667,2.641200000002975],[0.06145833333333333,0.47074074074074085,2.661799999997008],[0.06145833333333333,0.47074074074074085,2.674400000005953],[0.03802083333333333,0.46537037037037027,2.691299999997007],[0.036562500000000026,0.47314814814814815,2.708200000002968],[0.03208333333333328,0.45703703703703696,2.72440000000595],[0.014895833333333285,0.4492592592592593,2.7457999999970113],[0.02385416666666664,0.4457407407407408,2.761499999999991],[0.04791666666666667,0.44055555555555553,2.7774999999999963],[0.05416666666666667,0.45129629629629636,2.7920999999940292],[0.07489583333333343,0.46037037037037043,2.807700000002974],[0.08395833333333323,0.4433333333333333,2.8267999999970144],[0.1040625000000001,0.418888888888889,2.843200000002973],[0.1040625000000001,0.418888888888889,2.8577000000029713],[0.13385416666666666,0.3888888888888889,2.8744000000059557],[0.17958333333333343,0.3774074074074073,2.890999999999984],[0.20604166666666662,0.3727777777777777,2.912499999999987],[0.22208333333333338,0.380925925925926,2.9269999999999854],[0.23635416666666675,0.39203703703703713,2.944200000002972],[0.23739583333333342,0.39277777777777784,2.958299999997017],[0.22760416666666666,0.3972222222222222,2.97440000000595],[0.2178124999999999,0.4016666666666666,2.994499999999995],[0.2178124999999999,0.4016666666666666,3.0079000000059537],[0.22822916666666657,0.4016666666666666,3.024499999999996],[0.22041666666666657,0.4244444444444445,3.0412999999970154],[0.21260416666666657,0.44722222222222224,3.0619000000059557],[0.18250000000000005,0.4566666666666667,3.076999999999991],[0.17625000000000005,0.4646296296296296,3.0912000000029636],[0.17635416666666662,0.467962962962963,3.1129999999999924],[0.15614583333333343,0.45555555555555555,3.1267999999970115],[0.15822916666666675,0.42685185185185187,3.1414999999999864],[0.15343749999999995,0.40629629629629627,3.1594000000059523],[0.1586458333333333,0.39407407407407397,3.178099999994025],[0.15374999999999991,0.3907407407407407,3.193400000005944],[0.1560416666666666,0.372037037037037,3.210499999999989],[0.16395833333333343,0.35537037037037034,3.2302999999970083],[0.16395833333333343,0.35537037037037034,3.241400000005946],[0.1318749999999999,0.3411111111111112,3.258099999994023],[0.1318749999999999,0.3411111111111112,3.274599999994031],[0.12000000000000005,0.3235185185185186,3.2935999999940364],[0.12000000000000005,0.3235185185185186,3.3079999999999856],[0.12791666666666662,0.3042592592592592,3.32470000000297],[0.15,0.2729629629629629,3.344700000002966],[0.15,0.2729629629629629,3.357900000005948],[0.14489583333333325,0.28703703703703703,3.374700000002967],[0.1493750000000001,0.29296296296296304,3.391200000002975],[0.1603125000000001,0.26222222222222225,3.4122000000029757],[0.1603125000000001,0.26222222222222225,3.4244999999999877],[0.1710416666666667,0.24314814814814806,3.441299999997007],[0.14989583333333342,0.2598148148148147,3.4579000000059565],[0.1423958333333334,0.26370370370370366,3.4809000000059527],[0.1423958333333334,0.26370370370370366,3.491400000005946],[0.18499999999999991,0.22629629629629638,3.5079999999999885],[0.19229166666666658,0.22851851851851848,3.5289000000059545],[0.19427083333333334,0.21666666666666667,3.5472999999970156],[0.19427083333333334,0.21666666666666667,3.563999999999986],[0.18875000000000006,0.2183333333333333,3.579400000005954],[0.19364583333333343,0.1985185185185186,3.5935999999940336],[0.20666666666666675,0.175,3.6099999999999923],[0.2165625000000001,0.16592592592592598,3.6244000000059557],[0.22322916666666662,0.16592592592592598,3.640999999999984],[0.25416666666666665,0.1425925925925926,3.6599000000059547],[0.23552083333333323,0.13055555555555556,3.674400000005953],[0.2037499999999999,0.15592592592592602,3.69109999999403],[0.1779166666666666,0.16592592592592598,3.7077000000029656],[0.17260416666666673,0.19129629629629621,3.72440000000595],[0.16395833333333343,0.16703703703703712,3.743599999994025],[0.14979166666666663,0.13518518518518519,3.7577999999970118],[0.14770833333333327,0.14333333333333328,3.774400000005947],[0.13229166666666667,0.16537037037037028,3.7909999999999897],[0.09343750000000005,0.20888888888888882,3.807700000002974],[0.06218750000000005,0.24000000000000005,3.8265999999940234],[0.059062500000000046,0.2625925925925925,3.841099999994036],[0.06104166666666669,0.2757407407407407,3.857799999997006],[0.058854166666666666,0.26944444444444443,3.874299999997014],[0.04593750000000003,0.25314814814814823,3.891099999994033],[0.034687499999999954,0.30407407407407416,3.910400000005957],[0.016770833333333356,0.3512962962962964,3.924400000005953],[-0.0046875,0.377962962962963,3.94109999999403],[-0.03187500000000002,0.3677777777777778,3.9577000000029656],[-0.03677083333333329,0.31592592592592594,3.97440000000595],[-0.041666666666666664,0.2640740740740741,3.993099999994037],[-0.043958333333333384,0.21962962962962967,4.007700000002977],[-0.04572916666666664,0.222037037037037,4.024299999997005],[-0.05437500000000005,0.23870370370370367,4.04099999999999],[-0.052187500000000026,0.2551851851851851,4.057700000002974],[-0.044166666666666646,0.2588888888888888,4.076400000005954],[-0.02947916666666662,0.2662962962962962,4.093200000002973],[-0.02947916666666662,0.2662962962962962,4.107900000005948],[-0.03989583333333328,0.2603703703703704,4.124599999994025],[-0.02677083333333338,0.24592592592592585,4.141099999994033],[-0.01604166666666664,0.2655555555555555,4.1599999999999895],[-0.00916666666666662,0.28833333333333344,4.174400000005953],[-0.0026041666666666665,0.28407407407407403,4.19109999999403],[-0.011770833333333286,0.28833333333333344,4.207799999997015],[-0.008958333333333356,0.2774074074074073,4.22440000000595],[-0.015104166666666667,0.25333333333333324,4.242799999997011],[-0.03125,0.22981481481481486,4.257700000002977],[-0.05395833333333329,0.22981481481481486,4.274499999999996],[-0.06572916666666669,0.22092592592592583,4.2910999999940245],[-0.0328125,0.3435185185185185,4.307700000002974],[0.0012500000000000473,0.4587037037037038,4.326400000005954],[0.10260416666666666,0.5103703703703704,4.340999999999987],[0.20302083333333343,0.569074074074074,4.357700000002971],[0.33479166666666677,0.5853703703703704,4.374400000005956],[0.4538541666666667,0.6035185185185185,4.390999999999984],[0.5710416666666667,0.635,4.410200000002966],[0.6719791666666666,0.6827777777777778,4.424599999994037],[0.7509375000000001,0.722037037037037,4.441200000002972],[0.7959374999999999,0.806111111111111,4.457700000002966],[0.7784375,0.8040740740740742,4.4747999999970105],[0.7784375,0.8040740740740742,4.491099999994027],[0.7373958333333335,0.7564814814814815,4.507700000002977],[0.6301041666666668,0.7724074074074074,4.524299999997005],[0.4926041666666668,0.8014814814814814,4.54099999999999],[0.3338541666666667,0.8270370370370371,4.557700000002974],[0.19302083333333328,0.8598148148148147,4.576299999997012],[0.052187500000000026,0.8925925925925926,4.590999999999987],[0.052187500000000026,0.8925925925925926,4.607799999997006],[-0.06635416666666671,0.8937037037037038,4.624400000005956],[-0.13416666666666663,0.8598148148148147,4.641200000002975],[-0.16239583333333332,0.7838888888888889,4.659499999999987],[-0.19125000000000003,0.6905555555555555,4.674400000005953],[-0.19416666666666665,0.6362962962962964,4.690999999999995],[-0.21062500000000003,0.5887037037037036,4.707700000002966],[-0.19604166666666673,0.5485185185185186,4.724299999997008],[-0.16656249999999997,0.49537037037037035,4.743099999994037],[-0.14583333333333334,0.44166666666666665,4.757700000002977],[-0.13312499999999997,0.39240740740740737,4.776599999994026],[-0.12104166666666671,0.3562962962962963,4.792200000002971],[-0.13114583333333332,0.34018518518518526,4.807799999997009],[-0.1310416666666666,0.33499999999999996,4.826400000005954],[-0.11052083333333336,0.33351851851851855,4.841099999994036],[-0.08999999999999998,0.33203703703703696,4.857700000002971],[-0.060000000000000026,0.3161111111111112,4.874400000005956],[-0.029999999999999954,0.3001851851851852,4.891099999994033],[-0.029999999999999954,0.3001851851851852,4.9077000000029685],[0.0037500000000000237,0.27611111111111114,4.924400000005953],[0.0037500000000000237,0.27611111111111114,4.94109999999403],[0.03166666666666664,0.26425925925925936,4.957599999994024],[0.053125,0.2522222222222223,4.97440000000595],[0.07458333333333324,0.24018518518518528,4.993200000002965],[0.11156249999999991,0.21851851851851853,5.007700000002977],[0.14458333333333329,0.1868518518518518,5.024400000005947],[0.13447916666666657,0.15777777777777785,5.041200000002966],[0.13395833333333323,0.1338888888888888,5.057700000002974],[0.14364583333333342,0.12444444444444452,5.076400000005954],[0.1571875000000001,0.12018518518518514,5.091099999994036],[0.1571875000000001,0.12018518518518514,5.107799999997006],[0.14989583333333342,0.12296296296296293,5.124400000005956],[0.14854166666666657,0.11703703703703712,5.141099999994033],[0.16104166666666658,0.10870370370370379,5.161299999997006],[0.18489583333333334,0.09351851851851851,5.176599999994032],[0.18489583333333334,0.09351851851851851,5.191299999997007],[0.19385416666666658,0.08314814814814811,5.207999999999991],[0.19385416666666658,0.06944444444444445,5.228799999997015],[0.22260416666666671,0.06074074074074066,5.244499999999995],[0.2404166666666666,0.052407407407407326,5.259700000002972],[0.2557291666666667,0.038703703703703664,5.2780999999940335],[0.26885416666666656,0.015000000000000043,5.292700000002974],[0.2924999999999999,0.0012962962962963806,5.307700000002974],[0.3160416666666668,-0.01592592592592597,5.327200000002968],[0.33864583333333326,-0.020555555555555598,5.341499999999989],[0.3498958333333334,-0.018333333333333292,5.357700000002971],[0.3486458333333334,-0.015000000000000043,5.374400000005956],[0.35281250000000003,-0.007962962962962878,5.391099999994033],[0.35031249999999997,0.008703703703703788,5.412499999999987],[0.35031249999999997,0.008703703703703788,5.424499999999988],[0.35270833333333323,0.008333333333333333,5.44109999999403],[0.35791666666666655,0.0035185185185184764,5.4579000000059565],[0.35260416666666666,0.006111111111111027,5.480499999999985],[0.35260416666666666,0.006111111111111027,5.492799999997011],[0.34395833333333337,0.009629629629629714,5.507700000002977],[0.3237499999999999,0.03722222222222227,5.524499999999996],[0.3163541666666667,0.04148148148148144,5.54099999999999],[0.3089583333333332,0.045740740740740825,5.561900000005956],[0.3168750000000001,0.03185185185185194,5.577200000002968],[0.3220833333333334,0.016666666666666666,5.590999999999987],[0.3285416666666668,-0.0020370370370370794,5.611499999999985],[0.3240624999999999,-0.007037037037036953,5.6305999999940255],[0.3240624999999999,-0.007037037037036953,5.641200000002975],[0.3146874999999999,-0.012222222222222264,5.657900000005945],[0.3141666666666666,-0.019999999999999917,5.677200000002976],[0.3141666666666666,-0.019999999999999917,5.69370000000297],[0.3115624999999999,-0.02240740740740745,5.707799999997015],[0.33135416666666656,-0.051111111111111156,5.724499999999985],[0.3160416666666668,-0.07074074074074072,5.744999999999983],[0.3150000000000001,-0.08777777777777773,5.761400000005956],[0.31354166666666666,-0.07333333333333338,5.7764999999999915],[0.3120833333333332,-0.05888888888888891,5.791700000002969],[0.3182291666666667,-0.05240740740740743,5.807700000002974],[0.33177083333333335,-0.04814814814814815,5.827900000005947],[0.3273958333333333,-0.03759259259259251,5.84340000000595],[0.3273958333333333,-0.03759259259259251,5.857799999997006],[0.33093750000000005,-0.02814814814814823,5.874400000005956],[0.31906249999999997,-0.026666666666666623,5.890999999999984],[0.2946875000000001,-0.019444444444444445,5.912499999999987],[0.2946875000000001,-0.019444444444444445,5.924400000005953],[0.2900000000000001,0.0007407407407406986,5.941200000002972],[0.2798958333333334,-0.007962962962962878,5.958900000005947],[0.2642708333333334,0.0001851851851852273,5.97440000000595],[0.24864583333333337,0.008333333333333333,5.994700000002972],[0.24864583333333337,0.008333333333333333,6.007799999997012],[0.21760416666666677,0.01314814814814819,6.024400000005947],[0.1865624999999999,0.01796296296296305,6.041200000002966],[0.15427083333333325,0.03462962962962971,6.06309999999403],[0.1466666666666666,0.014814814814814815,6.077099999994026],[0.1515625,0.0007407407407406986,6.092499999999994],[0.1515625,0.0007407407407406986,6.110400000005946],[0.1650000000000001,-0.007592592592592635,6.124400000005956],[0.16875,-0.03222222222222218,6.141200000002975],[0.16364583333333324,-0.030555555555555555,6.162099999994034],[0.16364583333333324,-0.030555555555555555,6.174299999997011],[0.16614583333333333,-0.05092592592592592,6.191200000002972],[0.17572916666666671,-0.07444444444444442,6.210900000005957],[0.1931250000000001,-0.08666666666666668,6.230799999997011],[0.1931250000000001,-0.08666666666666668,6.241200000002969],[0.19416666666666677,-0.1037037037037037,6.257700000002977],[0.2335416666666667,-0.1359259259259259,6.274499999999996],[0.24031250000000004,-0.13055555555555556,6.297200000002967],[0.24031250000000004,-0.13055555555555556,6.307700000002974],[0.22916666666666666,-0.11407407407407412,6.324499999999993],[0.22145833333333323,-0.1037037037037037,6.341200000002964],[0.22760416666666666,-0.09018518518518516,6.360999999999997],[0.21395833333333342,-0.09018518518518516,6.376400000005951],[0.19520833333333343,-0.09462962962962967,6.391200000002975],[0.16937499999999991,-0.09592592592592594,6.411700000002973],[0.16937499999999991,-0.09592592592592594,6.424499999999988],[0.14708333333333337,-0.09648148148148153,6.441200000002972],[0.1632291666666667,-0.08814814814814818,6.457799999997015],[0.15822916666666675,-0.07333333333333338,6.482099999994027],[0.15822916666666675,-0.07333333333333338,6.491299999997004],[0.15791666666666657,-0.06814814814814817,6.507900000005954],[0.18104166666666663,-0.0653703703703704,6.524499999999996],[0.20145833333333343,-0.06833333333333329,6.54399999999999],[0.20583333333333323,-0.07907407407407405,6.562499999999993],[0.21281249999999996,-0.06111111111111111,6.57770000000297],[0.20843749999999991,-0.055185185185185205,6.594700000002966],[0.23156249999999995,-0.06518518518518517,6.610799999997006],[0.25114583333333323,-0.07592592592592592,6.625499999999995],[0.25750000000000006,-0.08259259259259263,6.64129999999701],[0.26708333333333345,-0.09851851851851849,6.661299999997006],[0.26708333333333345,-0.09851851851851849,6.674400000005953],[0.27229166666666677,-0.10203703703703708,6.691200000002972],[0.2830208333333334,-0.12518518518518523,6.7155999999940335],[0.2830208333333334,-0.12518518518518523,6.72440000000595],[0.2765625,-0.13111111111111112,6.747400000005946],[0.2765625,-0.13111111111111112,6.771700000002973],[0.27854166666666674,-0.13240740740740742,6.776400000005957],[0.2977083333333333,-0.14888888888888885,6.791299999997015],[0.32822916666666657,-0.15333333333333335,6.812599999994028],[0.3211458333333333,-0.14777777777777779,6.826299999997012],[0.33604166666666657,-0.1537037037037037,6.843599999994034],[0.33604166666666657,-0.1537037037037037,6.857700000002971],[0.32218749999999996,-0.15314814814814812,6.874599999994025],[0.31364583333333323,-0.14611111111111108,6.891099999994033],[0.3117708333333333,-0.14777777777777779,6.910400000005957],[0.3067708333333333,-0.14351851851851852,6.924400000005953],[0.3067708333333333,-0.14351851851851852,6.940999999999995],[0.3042708333333332,-0.1542592592592593,6.957700000002966],[0.30270833333333325,-0.1492592592592593,6.979099999994027],[0.3011458333333332,-0.14425925925925923,6.993299999997014],[0.2961458333333333,-0.1388888888888889,7.0087999999970165],[0.3012500000000001,-0.12759259259259256,7.027299999997005],[0.3037499999999999,-0.10907407407407403,7.042999999999985],[0.3303124999999999,-0.10666666666666672,7.057700000002974],[0.3497916666666666,-0.10759259259259263,7.076499999999989],[0.3622916666666666,-0.10259259259259255,7.091099999994036],[0.34916666666666674,-0.09962962962962965,7.110499999999995],[0.34312500000000007,-0.0962962962962963,7.124400000005956],[0.35489583333333335,-0.11203703703703703,7.141099999994033],[0.3697916666666667,-0.11314814814814819,7.161099999994029],[0.3637500000000001,-0.12111111111111107,7.175599999994027],[0.36354166666666665,-0.12759259259259256,7.191200000002972],[0.3381249999999999,-0.13129629629629624,7.209200000002973],[0.3094791666666666,-0.14740740740740746,7.229599999994029],[0.2928124999999999,-0.15870370370370368,7.2434000000059555],[0.2833333333333333,-0.16351851851851854,7.257799999997012],[0.2915625000000001,-0.16129629629629633,7.277700000002973],[0.2915625000000001,-0.16129629629629633,7.291200000002966],[0.29968750000000005,-0.17092592592592595,7.307799999997009],[0.27322916666666663,-0.1479629629629629,7.328099999994031],[0.27927083333333325,-0.15925925925925927,7.342099999994026],[0.3094791666666666,-0.1581481481481481,7.360999999999997],[0.290625,-0.16444444444444448,7.375499999999995],[0.27760416666666665,-0.16925925925925922,7.395799999997017],[0.27760416666666665,-0.16925925925925922,7.407900000005945],[0.2911458333333333,-0.16166666666666668,7.424499999999988],[0.2763541666666666,-0.16962962962962966,7.444400000005949],[0.2604166666666667,-0.16629629629629633,7.458200000002968],[0.2513541666666666,-0.167037037037037,7.475900000005957],[0.2423958333333334,-0.1559259259259259,7.497799999997007],[0.2423958333333334,-0.1559259259259259,7.507700000002977],[0.2615624999999999,-0.1618518518518518,7.524499999999996],[0.23302083333333337,-0.16074074074074077,7.541200000002966],[0.2046875,-0.1655555555555555,7.562299999997016],[0.2234375,-0.14685185185185187,7.576499999999989],[0.2421875,-0.12814814814814812,7.591200000002964],[0.2334374999999999,-0.10796296296296298,7.610900000005948],[0.2334374999999999,-0.10796296296296298,7.6244999999999905],[0.24656250000000005,-0.09518518518518514,7.641200000002975],[0.23645833333333333,-0.08814814814814818,7.661799999997008],[0.23645833333333333,-0.08814814814814818,7.674499999999988],[0.23166666666666677,-0.08203703703703706,7.691299999997007],[0.22333333333333344,-0.07574074074074069,7.708299999997017],[0.21437499999999995,-0.08314814814814811,7.729200000002969],[0.2048958333333334,-0.0824074074074074,7.7434000000059555],[0.19541666666666657,-0.0816666666666667,7.757799999997012],[0.19541666666666657,-0.0816666666666667,7.776299999997015],[0.18218750000000009,-0.09018518518518516,7.791200000002966],[0.17374999999999996,-0.10833333333333334,7.807900000005951],[0.16916666666666677,-0.11962962962962967,7.828599999994033],[0.16916666666666677,-0.11962962962962967,7.840999999999987],[0.15229166666666671,-0.11129629629629634,7.857900000005948],[0.16729166666666656,-0.1301851851851852,7.874299999997014],[0.1701041666666666,-0.1440740740740741,7.890900000005949],[0.16197916666666667,-0.13425925925925927,7.910400000005957],[0.14979166666666663,-0.11981481481481479,7.924400000005953],[0.15,-0.10944444444444448,7.94370000000297],[0.1502083333333334,-0.09907407407407408,7.957700000002966],[0.1622916666666666,-0.10111111111111115,7.97440000000595],[0.16958333333333328,-0.09351851851851851,7.992999999999988],[0.17302083333333323,-0.09277777777777782,8.007700000002977],[0.18708333333333324,-0.08499999999999996,8.024299999997005],[0.18645833333333334,-0.062037037037037036,8.04099999999999],[0.17708333333333334,-0.03185185185185194,8.057700000002974],[0.16906249999999995,-0.040740740740740744,8.076999999999991],[0.16104166666666658,-0.049629629629629544,8.090999999999987],[0.1632291666666667,-0.04666666666666675,8.110700000002971],[0.16541666666666663,-0.043703703703703745,8.12559999999403],[0.1570833333333333,-0.04722222222222222,8.140999999999984],[0.14874999999999997,-0.0507407407407407,8.159700000002964],[0.12552083333333333,-0.032777777777777864,8.174400000005953],[0.12552083333333333,-0.032777777777777864,8.190999999999995],[0.11645833333333329,-0.03148148148148148,8.207799999997015],[0.10906250000000005,-0.038703703703703664,8.224299999997008],[0.12385416666666677,0.04592592592592584,8.243900000005944],[0.14291666666666672,0.1427777777777778,8.260499999999986],[0.2,0.22166666666666676,8.276900000005945],[0.23270833333333343,0.2964814814814815,8.29099999999999],[0.28708333333333325,0.3475925925925927,8.307999999999986],[0.3400000000000001,0.40925925925925927,8.326299999997012],[0.3607291666666666,0.5061111111111111,8.341299999997013],[0.3963541666666667,0.5814814814814815,8.360900000005948],[0.39520833333333344,0.6803703703703703,8.375700000002972],[0.3923958333333334,0.7877777777777777,8.390999999999984],[0.3694791666666667,0.7816666666666667,8.410099999994024],[0.3554166666666667,0.7785185185185185,8.42570000000297],[0.28458333333333335,0.7816666666666667,8.444200000002972],[0.22135416666666666,0.7527777777777778,8.458299999997017],[0.14354166666666662,0.7424074074074074,8.48149999999999],[0.14354166666666662,0.7424074074074074,8.493200000002965],[0.065625,0.7338888888888888,8.507700000002977],[0.0021875000000000236,0.6987037037037036,8.524299999997005],[-0.06833333333333336,0.6553703703703704,8.540900000005955],[-0.0936458333333333,0.5546296296296296,8.557599999994032],[-0.1388541666666666,0.4601851851851852,8.576900000005956],[-0.17739583333333328,0.3801851851851851,8.590999999999987],[-0.17739583333333328,0.3801851851851851,8.607700000002971],[-0.21000000000000002,0.2853703703703704,8.624299999997014],[-0.23187500000000003,0.22018518518518515,8.640999999999984],[-0.2469791666666667,0.18777777777777774,8.659799999997013],[-0.2626041666666667,0.19148148148148145,8.674299999997011],[-0.278125,0.1933333333333333,8.690999999999995],[-0.24833333333333332,0.14962962962962956,8.708999999999996],[-0.2358333333333333,0.13666666666666658,8.728599999994024],[-0.22260416666666671,0.11666666666666667,8.744499999999995],[-0.18947916666666664,0.09037037037037028,8.758799999997017],[-0.18947916666666664,0.09037037037037028,8.777499999999996],[-0.1688541666666667,0.06314814814814819,8.791200000002966],[-0.15416666666666667,0.0507407407407407,8.808900000005956],[-0.09989583333333331,0.025370370370370456,8.828200000002973],[-0.049374999999999974,0.007777777777777862,8.843599999994034],[-0.049374999999999974,0.007777777777777862,8.857799999997006],[-0.005416666666666714,-0.040740740740740744,8.874400000005956],[0.035104166666666714,-0.08703703703703704,8.895200000002966],[0.04583333333333333,-0.11185185185185181,8.910999999999994],[0.07041666666666657,-0.16777777777777783,8.926400000005948],[0.084375,-0.15796296296296297,8.942900000005956],[0.10062499999999991,-0.14314814814814816,8.95979999999701],[0.12270833333333328,-0.13851851851851854,8.974700000002976],[0.14500000000000005,-0.12999999999999998,8.992999999999988],[0.11812500000000009,-0.10777777777777775,9.007999999999988],[0.09052083333333343,-0.09722222222222222,9.027099999994029],[0.07999999999999995,-0.11537037037037039,9.041599999994027],[0.07291666666666667,-0.13574074074074077,9.057799999997009],[0.06645833333333329,-0.13222222222222219,9.078200000002973],[0.06645833333333329,-0.13222222222222219,9.091099999994036],[0.06312500000000003,-0.11259259259259262,9.107700000002971],[0.05583333333333336,-0.12611111111111115,9.124299999997014],[0.044166666666666646,-0.11833333333333329,9.140999999999984],[0.044479166666666715,-0.10037037037037035,9.159799999997013],[0.029062499999999977,-0.05888888888888891,9.176400000005948],[0.029062499999999977,-0.05888888888888891,9.190999999999995],[0.0296875,-0.04000000000000004,9.207799999997015],[0.02947916666666662,-0.007592592592592635,9.224299999997008],[0.028125,0.06962962962962967,9.244099999994027],[0.02677083333333338,0.14685185185185176,9.257900000005954],[0.026979166666666644,0.21574074074074073,9.274299999997005],[0.025937499999999978,0.25574074074074077,9.291200000002966],[0.011666666666666714,0.3199999999999999,9.30790000000595],[-0.016458333333333287,0.35055555555555545,9.326599999994023],[-0.03875000000000005,0.3668518518518519,9.342900000005947],[-0.04552083333333338,0.3557407407407408,9.359599999994025],[-0.058333333333333334,0.3507407407407407,9.374299999997014],[-0.06583333333333338,0.33611111111111114,9.390999999999984],[-0.08156249999999995,0.3140740740740741,9.409799999997013],[-0.09208333333333331,0.2655555555555555,9.424299999997011],[-0.09208333333333331,0.2655555555555555,9.44109999999403],[-0.09937499999999998,0.22462962962962954,9.457599999994024],[-0.12083333333333333,0.23185185185185195,9.47479999999701],[-0.12083333333333333,0.23185185185185195,9.490999999999993],[-0.12989583333333338,0.2116666666666666,9.507700000002977],[-0.10677083333333333,0.19296296296296306,9.524400000005947],[-0.10541666666666671,0.19240740740740736,9.54099999999999],[-0.10406249999999997,0.19185185185185188,9.557599999994032],[-0.09447916666666671,0.19814814814814816,9.576499999999989],[-0.08489583333333334,0.2044444444444444,9.590999999999987],[-0.08302083333333338,0.20203703703703707,9.611299999997009],[-0.07385416666666664,0.23703703703703705,9.626799999997012],[-0.07729166666666672,0.2512962962962964,9.646299999997005],[-0.05791666666666669,0.23870370370370367,9.661599999994031],[-0.05791666666666669,0.23870370370370367,9.674299999997011],[-0.04479166666666667,0.2300000000000001,9.690999999999995],[-0.04677083333333331,0.22333333333333338,9.709499999999984],[-0.03812500000000003,0.21370370370370367,9.724700000002976],[-0.01854166666666662,0.1962962962962963,9.743900000005944],[0.000416666666666643,0.1698148148148149,9.758400000005956],[0.017604166666666643,0.15611111111111103,9.777499999999996],[0.03187500000000002,0.14314814814814805,9.793099999994034],[0.03270833333333331,0.10777777777777786,9.808900000005956],[0.04718749999999995,0.09407407407407399,9.826400000005954],[0.04718749999999995,0.09407407407407399,9.840999999999987],[0.06489583333333329,0.07518518518518523,9.85759999999403],[0.07166666666666661,0.08055555555555556,9.874599999994025],[0.08624999999999995,0.09518518518518514,9.890999999999984],[0.0