inst1_resp.keys,inst1_resp.rt,calibrationMouse.x,calibrationMouse.y,calibrationMouse.leftButton,calibrationMouse.midButton,calibrationMouse.rightButton,calibrationClick.x,calibrationClick.y,calibrationClick.leftButton,calibrationClick.midButton,calibrationClick.rightButton,trialsc.thisRepN,trialsc.thisTrialN,trialsc.thisN,trialsc.thisIndex,trialsc.ran,calibration_x,calibration_y,participant,session,date,expName,psychopyVersion,OS,frameRate,calibrationClick.clicked_name,ScreenRes_pixels,Camera_pixels,mouse_2.x,mouse_2.y,mouse_2.leftButton,mouse_2.midButton,mouse_2.rightButton,mouse_2.time,mouse_2.clicked_name,mouse.x,mouse.y,mouse.leftButton,mouse.midButton,mouse.rightButton,mouse.time,mouse.clicked_name,Choice,Trial,TrialDuration,MOUSE_GAZE,ET_GAZE,ET_GAZE_x_T,time,unixTime,ET_GAZE_NF,Loc_Bus_label,Loc_Metro_label,Loc_RH_label,Loc_Cost_label,Loc_Travel_label,Loc_Comfort_label,Loc_Bus_cost,Loc_Metro_cost,Loc_RH_cost,Loc_Bus_travel,Loc_Metro_travel,Loc_RH_travel,Loc_Bus_comfort,Loc_Metro_comfort,Loc_RH_comfort,trials.thisRepN,trials.thisTrialN,trials.thisN,trials.thisIndex,trials.ran,Block,Device,RH_cost,RH_travel_time,RH_Comfort,metro_cost,metro_travel_time,metro_Comfort,Bus_cost,Bus_travel_time,Bus_Comfort
space,1.0806,0.0125,-0.481481481,1,0,0,0.329166667,0.335185185,0,0,0,0,0,0,17,1,0.33,0.33,01,001,2024-11-27_13h58.39.777,Attention_exp_legacy,2023.1.0,Win32,59.88023952,,,,,,,,,,,,,,,,,,,,,,,,,,,,,,,,,,,,,,,,,,,,,,,,,,,,,,,,,
,,,,,,,-0.00625,-0.642592593,1,0,0,0,1,1,9,1,0,-0.67,01,001,2024-11-27_13h58.39.777,Attention_exp_legacy,2023.1.0,Win32,59.88023952,,,,,,,,,,,,,,,,,,,,,,,,,,,,,,,,,,,,,,,,,,,,,,,,,,,,,,,,,
,,,,,,,-0.332291667,0.001851852,1,0,0,0,2,2,6,1,-0.33,0,01,001,2024-11-27_13h58.39.777,Attention_exp_legacy,2023.1.0,Win32,59.88023952,calibration_square,,,,,,,,,,,,,,,,,,,,,,,,,,,,,,,,,,,,,,,,,,,,,,,,,,,,,,,,
,,,,,,,-0.68125,0.007407407,1,0,0,0,3,3,2,1,-0.67,0,01,001,2024-11-27_13h58.39.777,Attention_exp_legacy,2023.1.0,Win32,59.88023952,,,,,,,,,,,,,,,,,,,,,,,,,,,,,,,,,,,,,,,,,,,,,,,,,,,,,,,,,
,,,,,,,-0.679166667,-0.333333333,1,0,0,0,4,4,1,1,-0.67,-0.33,01,001,2024-11-27_13h58.39.777,Attention_exp_legacy,2023.1.0,Win32,59.88023952,calibration_square,,,,,,,,,,,,,,,,,,,,,,,,,,,,,,,,,,,,,,,,,,,,,,,,,,,,,,,,
,,,,,,,-0.334375,-0.331481481,1,0,0,0,5,5,5,1,-0.33,-0.33,01,001,2024-11-27_13h58.39.777,Attention_exp_legacy,2023.1.0,Win32,59.88023952,calibration_square,,,,,,,,,,,,,,,,,,,,,,,,,,,,,,,,,,,,,,,,,,,,,,,,,,,,,,,,
,,,,,,,-0.673958333,-0.67037037,1,0,0,0,6,6,0,1,-0.67,-0.67,01,001,2024-11-27_13h58.39.777,Attention_exp_legacy,2023.1.0,Win32,59.88023952,calibration_square,,,,,,,,,,,,,,,,,,,,,,,,,,,,,,,,,,,,,,,,,,,,,,,,,,,,,,,,
,,,,,,,0.341666667,-0.32962963,1,0,0,0,7,7,15,1,0.33,-0.33,01,001,2024-11-27_13h58.39.777,Attention_exp_legacy,2023.1.0,Win32,59.88023952,,,,,,,,,,,,,,,,,,,,,,,,,,,,,,,,,,,,,,,,,,,,,,,,,,,,,,,,,
,,,,,,,0.003125,0.005555556,1,0,0,0,8,8,11,1,0,0,01,001,2024-11-27_13h58.39.777,Attention_exp_legacy,2023.1.0,Win32,59.88023952,calibration_square,,,,,,,,,,,,,,,,,,,,,,,,,,,,,,,,,,,,,,,,,,,,,,,,,,,,,,,,
,,,,,,,0.667708333,-0.672222222,1,0,0,0,9,9,20,1,0.67,-0.67,01,001,2024-11-27_13h58.39.777,Attention_exp_legacy,2023.1.0,Win32,59.88023952,calibration_square,,,,,,,,,,,,,,,,,,,,,,,,,,,,,,,,,,,,,,,,,,,,,,,,,,,,,,,,
,,,,,,,-0.010416667,0.337037037,1,0,0,0,10,10,12,1,0,0.33,01,001,2024-11-27_13h58.39.777,Attention_exp_legacy,2023.1.0,Win32,59.88023952,,,,,,,,,,,,,,,,,,,,,,,,,,,,,,,,,,,,,,,,,,,,,,,,,,,,,,,,,
,,,,,,,0.329166667,-0.657407407,1,0,0,0,11,11,14,1,0.33,-0.67,01,001,2024-11-27_13h58.39.777,Attention_exp_legacy,2023.1.0,Win32,59.88023952,,,,,,,,,,,,,,,,,,,,,,,,,,,,,,,,,,,,,,,,,,,,,,,,,,,,,,,,,
,,,,,,,0.002083333,0.675925926,1,0,0,0,12,12,13,1,0,0.67,01,001,2024-11-27_13h58.39.777,Attention_exp_legacy,2023.1.0,Win32,59.88023952,calibration_square,,,,,,,,,,,,,,,,,,,,,,,,,,,,,,,,,,,,,,,,,,,,,,,,,,,,,,,,
,,,,,,,-0.003125,-0.337037037,1,0,0,0,13,13,10,1,0,-0.33,01,001,2024-11-27_13h58.39.777,Attention_exp_legacy,2023.1.0,Win32,59.88023952,calibration_square,,,,,,,,,,,,,,,,,,,,,,,,,,,,,,,,,,,,,,,,,,,,,,,,,,,,,,,,
,,,,,,,0.328125,0.009259259,1,0,0,0,14,14,16,1,0.33,0,01,001,2024-11-27_13h58.39.777,Attention_exp_legacy,2023.1.0,Win32,59.88023952,calibration_square,,,,,,,,,,,,,,,,,,,,,,,,,,,,,,,,,,,,,,,,,,,,,,,,,,,,,,,,
,,,,,,,-0.334375,0.668518519,1,0,0,0,15,15,8,1,-0.33,0.67,01,001,2024-11-27_13h58.39.777,Attention_exp_legacy,2023.1.0,Win32,59.88023952,calibration_square,,,,,,,,,,,,,,,,,,,,,,,,,,,,,,,,,,,,,,,,,,,,,,,,,,,,,,,,
,,,,,,,0.653125,0.672222222,1,0,0,0,16,16,19,1,0.67,0.67,01,001,2024-11-27_13h58.39.777,Attention_exp_legacy,2023.1.0,Win32,59.88023952,,,,,,,,,,,,,,,,,,,,,,,,,,,,,,,,,,,,,,,,,,,,,,,,,,,,,,,,,
,,,,,,,0.335416667,0.683333333,1,0,0,0,17,17,18,1,0.33,0.67,01,001,2024-11-27_13h58.39.777,Attention_exp_legacy,2023.1.0,Win32,59.88023952,,,,,,,,,,,,,,,,,,,,,,,,,,,,,,,,,,,,,,,,,,,,,,,,,,,,,,,,,
,,,,,,,-0.342708333,-0.681481481,1,0,0,0,18,18,4,1,-0.33,-0.67,01,001,2024-11-27_13h58.39.777,Attention_exp_legacy,2023.1.0,Win32,59.88023952,,,,,,,,,,,,,,,,,,,,,,,,,,,,,,,,,,,,,,,,,,,,,,,,,,,,,,,,,
,,,,,,,-0.678125,0.340740741,1,0,0,0,19,19,3,1,-0.67,0.33,01,001,2024-11-27_13h58.39.777,Attention_exp_legacy,2023.1.0,Win32,59.88023952,,,,,,,,,,,,,,,,,,,,,,,,,,,,,,,,,,,,,,,,,,,,,,,,,,,,,,,,,
,,,,,,,-0.339583333,0.346296296,1,0,0,0,20,20,7,1,-0.33,0.33,01,001,2024-11-27_13h58.39.777,Attention_exp_legacy,2023.1.0,Win32,59.88023952,,,,,,,,,,,,,,,,,,,,,,,,,,,,,,,,,,,,,,,,,,,,,,,,,,,,,,,,,
,,,,,,,,,,,,,,,,,,,01,001,2024-11-27_13h58.39.777,Attention_exp_legacy,2023.1.0,Win32,59.88023952,,"[1920,1080]","[640,480]",[-0.008333333333333333],[-0.4925925925925926],[1],[0],[0],[1.9798000000119202],"[""StartButton""]",[0.16041666666666668],[0.43148148148148147],[1],[0],[0],[3.378900000005956],"[""Metro_label""]",Metro_label,1,4.4051,"[[-0.03333333333333333,-0.3574074074074074],[-0.03333333333333333,-0.3574074074074074],[-0.03333333333333333,-0.3574074074074074],[-0.03333333333333333,-0.3574074074074074],[-0.03333333333333333,-0.3574074074074074],[-0.03333333333333333,-0.3574074074074074],[-0.03333333333333333,-0.3574074074074074],[-0.03333333333333333,-0.3574074074074074],[-0.03333333333333333,-0.3574074074074074],[-0.03333333333333333,-0.3574074074074074],[-0.03333333333333333,-0.3574074074074074],[-0.03333333333333333,-0.3574074074074074],[-0.03333333333333333,-0.3574074074074074],[-0.03333333333333333,-0.3574074074074074],[-0.03229166666666667,-0.3574074074074074],[-0.027083333333333334,-0.3574074074074074],[-0.021875,-0.3592592592592593],[-0.020833333333333332,-0.3648148148148148],[-0.020833333333333332,-0.36666666666666664],[-0.020833333333333332,-0.3685185185185185],[-0.020833333333333332,-0.3685185185185185],[-0.020833333333333332,-0.3685185185185185],[-0.020833333333333332,-0.3685185185185185],[-0.020833333333333332,-0.3685185185185185],[-0.020833333333333332,-0.3685185185185185],[-0.020833333333333332,-0.3685185185185185],[-0.020833333333333332,-0.3685185185185185],[-0.020833333333333332,-0.3685185185185185],[-0.020833333333333332,-0.3685185185185185],[-0.020833333333333332,-0.3685185185185185],[-0.020833333333333332,-0.3685185185185185],[-0.020833333333333332,-0.3685185185185185],[-0.020833333333333332,-0.3685185185185185],[-0.020833333333333332,-0.3685185185185185],[-0.020833333333333332,-0.3685185185185185],[-0.020833333333333332,-0.3685185185185185],[-0.020833333333333332,-0.3685185185185185],[-0.020833333333333332,-0.3574074074074074],[-0.020833333333333332,-0.34814814814814815],[-0.020833333333333332,-0.34444444444444444],[-0.020833333333333332,-0.34074074074074073],[-0.020833333333333332,-0.3388888888888889],[-0.020833333333333332,-0.3388888888888889],[-0.020833333333333332,-0.3388888888888889],[-0.020833333333333332,-0.3388888888888889],[-0.020833333333333332,-0.3388888888888889],[-0.020833333333333332,-0.3388888888888889],[-0.020833333333333332,-0.3388888888888889],[-0.020833333333333332,-0.3388888888888889],[-0.020833333333333332,-0.3388888888888889],[-0.020833333333333332,-0.3388888888888889],[-0.017708333333333333,-0.3314814814814815],[-0.013541666666666667,-0.32592592592592595],[-0.0125,-0.32222222222222224],[-0.008333333333333333,-0.31296296296296294],[-0.0010416666666666667,-0.28703703703703703],[0.00625,-0.26481481481481484],[0.0125,-0.24074074074074073],[0.016666666666666666,-0.2222222222222222],[0.027083333333333334,-0.1814814814814815],[0.03229166666666667,-0.14629629629629629],[0.0375,-0.11296296296296296],[0.042708333333333334,-0.07777777777777778],[0.05,-0.044444444444444446],[0.06145833333333333,-0.005555555555555556],[0.06770833333333333,0.014814814814814815],[0.07291666666666667,0.03888888888888889],[0.07708333333333334,0.05555555555555555],[0.08125,0.07222222222222222],[0.08645833333333333,0.09259259259259259],[0.08958333333333333,0.10555555555555556],[0.09375,0.12037037037037036],[0.09583333333333334,0.13148148148148148],[0.1,0.1537037037037037],[0.103125,0.17222222222222222],[0.10416666666666667,0.1962962962962963],[0.10520833333333333,0.21666666666666667],[0.10833333333333334,0.2388888888888889],[0.11041666666666666,0.2518518518518518],[0.11458333333333333,0.26296296296296295],[0.12291666666666666,0.2833333333333333],[0.13020833333333334,0.3037037037037037],[0.134375,0.32222222222222224],[0.13958333333333334,0.3351851851851852],[0.14270833333333333,0.3425925925925926],[0.14583333333333334,0.34814814814814815],[0.14895833333333333,0.35185185185185186],[0.15104166666666666,0.35555555555555557],[0.15520833333333334,0.3592592592592593],[0.15520833333333334,0.3611111111111111],[0.15729166666666666,0.362962962962963],[0.15729166666666666,0.362962962962963],[0.15833333333333333,0.362962962962963],[0.15833333333333333,0.362962962962963],[0.15833333333333333,0.3648148148148148],[0.15833333333333333,0.3648148148148148],[0.159375,0.36666666666666664],[0.159375,0.3685185185185185],[0.159375,0.3685185185185185],[0.159375,0.37037037037037035],[0.15833333333333333,0.37222222222222223],[0.15729166666666666,0.37407407407407406],[0.15208333333333332,0.3814814814814815],[0.15104166666666666,0.3814814814814815],[0.146875,0.3888888888888889],[0.14270833333333333,0.3962962962962963],[0.140625,0.40370370370370373],[0.13958333333333334,0.4074074074074074],[0.13958333333333334,0.4111111111111111],[0.13958333333333334,0.412962962962963],[0.13958333333333334,0.4148148148148148],[0.13958333333333334,0.4203703703703704],[0.13958333333333334,0.42407407407407405],[0.13958333333333334,0.42592592592592593],[0.13958333333333334,0.42962962962962964],[0.140625,0.43333333333333335],[0.14270833333333333,0.44074074074074077],[0.14375,0.44814814814814813],[0.14375,0.45],[0.14479166666666668,0.4537037037037037],[0.146875,0.45925925925925926],[0.14791666666666667,0.46296296296296297],[0.15,0.4685185185185185],[0.15104166666666666,0.4703703703703704],[0.15208333333333332,0.4722222222222222],[0.153125,0.4740740740740741],[0.153125,0.4759259259259259],[0.15520833333333334,0.4777777777777778],[0.15625,0.4777777777777778],[0.159375,0.47962962962962963],[0.159375,0.47962962962962963],[0.159375,0.47962962962962963],[0.16145833333333334,0.48148148148148145],[0.1625,0.48148148148148145],[0.1625,0.48148148148148145],[0.1625,0.48148148148148145],[0.1625,0.48148148148148145],[0.1625,0.48148148148148145],[0.1625,0.48148148148148145],[0.1625,0.48148148148148145],[0.1625,0.48148148148148145],[0.1625,0.48148148148148145],[0.1625,0.48148148148148145],[0.1625,0.48148148148148145],[0.1625,0.48148148148148145],[0.1625,0.48148148148148145],[0.1625,0.4759259259259259],[0.16145833333333334,0.4685185185185185],[0.16145833333333334,0.46111111111111114],[0.16145833333333334,0.4537037037037037],[0.16145833333333334,0.44814814814814813],[0.16041666666666668,0.4425925925925926],[0.16041666666666668,0.4388888888888889],[0.16041666666666668,0.43703703703703706],[0.16041666666666668,0.43703703703703706],[0.16041666666666668,0.43703703703703706],[0.16041666666666668,0.43703703703703706],[0.16041666666666668,0.4351851851851852],[0.16041666666666668,0.4351851851851852],[0.16041666666666668,0.4351851851851852],[0.16041666666666668,0.4351851851851852],[0.16041666666666668,0.4351851851851852],[0.16041666666666668,0.4351851851851852],[0.16041666666666668,0.4351851851851852],[0.16041666666666668,0.4351851851851852],[0.16041666666666668,0.4351851851851852],[0.16041666666666668,0.4351851851851852],[0.16041666666666668,0.43333333333333335],[0.16041666666666668,0.43148148148148147],[0.16041666666666668,0.43148148148148147],[0.16041666666666668,0.43148148148148147],[0.16041666666666668,0.43148148148148147],[0.16041666666666668,0.43148148148148147],[0.16041666666666668,0.43148148148148147],[0.16041666666666668,0.43148148148148147],[0.16041666666666668,0.43148148148148147],[0.16041666666666668,0.43148148148148147],[0.16041666666666668,0.43148148148148147],[0.16041666666666668,0.43148148148148147],[0.16041666666666668,0.43148148148148147],[0.16041666666666668,0.43148148148148147],[0.16041666666666668,0.43148148148148147],[0.16041666666666668,0.43148148148148147],[0.16041666666666668,0.43148148148148147],[0.16041666666666668,0.43148148148148147],[0.16041666666666668,0.43148148148148147],[0.16041666666666668,0.43148148148148147],[0.16041666666666668,0.43148148148148147],[0.16041666666666668,0.43148148148148147],[0.16041666666666668,0.43148148148148147],[0.16041666666666668,0.43148148148148147],[0.16041666666666668,0.43148148148148147],[0.16041666666666668,0.43148148148148147],[0.16041666666666668,0.43148148148148147],[0.16041666666666668,0.43148148148148147],[0.16041666666666668,0.43148148148148147],[0.16041666666666668,0.43148148148148147],[0.16041666666666668,0.43148148148148147],[0.16041666666666668,0.43148148148148147],[0.16041666666666668,0.43148148148148147],[0.16041666666666668,0.43148148148148147],[0.16041666666666668,0.43148148148148147],[0.16041666666666668,0.43148148148148147],[0.16041666666666668,0.43148148148148147],[0.16041666666666668,0.43148148148148147],[0.16041666666666668,0.43148148148148147],[0.16041666666666668,0.43148148148148147],[0.16041666666666668,0.43148148148148147],[0.16041666666666668,0.43148148148148147],[0.16041666666666668,0.43148148148148147],[0.16041666666666668,0.43148148148148147],[0.16041666666666668,0.43148148148148147],[0.16041666666666668,0.43148148148148147],[0.16041666666666668,0.43148148148148147],[0.16041666666666668,0.43148148148148147],[0.16041666666666668,0.43148148148148147],[0.16041666666666668,0.43148148148148147],[0.16041666666666668,0.43148148148148147],[0.16041666666666668,0.43148148148148147],[0.16041666666666668,0.43148148148148147],[0.16041666666666668,0.43148148148148147],[0.16041666666666668,0.43148148148148147],[0.16041666666666668,0.43148148148148147],[0.16041666666666668,0.43148148148148147],[0.16041666666666668,0.43148148148148147],[0.16041666666666668,0.43148148148148147],[0.16041666666666668,0.43148148148148147],[0.16041666666666668,0.43148148148148147],[0.16041666666666668,0.43148148148148147],[0.16041666666666668,0.43148148148148147],[0.16041666666666668,0.43148148148148147],[0.16041666666666668,0.43148148148148147],[0.16041666666666668,0.43148148148148147],[0.16041666666666668,0.43148148148148147],[0.16041666666666668,0.43148148148148147],[0.16041666666666668,0.43148148148148147],[0.16041666666666668,0.43148148148148147],[0.16041666666666668,0.43148148148148147],[0.16041666666666668,0.43148148148148147],[0.16041666666666668,0.43148148148148147],[0.16041666666666668,0.43148148148148147],[0.16041666666666668,0.43148148148148147],[0.16041666666666668,0.43148148148148147],[0.16041666666666668,0.43148148148148147],[0.16041666666666668,0.43148148148148147],[0.16041666666666668,0.43148148148148147],[0.16041666666666668,0.43148148148148147],[0.16041666666666668,0.43148148148148147],[0.16041666666666668,0.43148148148148147],[0.16041666666666668,0.43148148148148147],[0.16041666666666668,0.43148148148148147],[0.16041666666666668,0.43148148148148147],[0.16041666666666668,0.43148148148148147],[0.16041666666666668,0.43148148148148147],[0.16041666666666668,0.43148148148148147],[0.16041666666666668,0.43148148148148147],[0.16041666666666668,0.43148148148148147],[0.16041666666666668,0.43148148148148147],[0.16041666666666668,0.43148148148148147],[0.16041666666666668,0.43148148148148147],[0.16041666666666668,0.43148148148148147],[0.16041666666666668,0.43148148148148147],[0.16041666666666668,0.43148148148148147],[0.16041666666666668,0.43148148148148147]]","[[-0.016770833333333356,0.443888888888889],[-0.016770833333333356,0.443888888888889],[-0.016770833333333356,0.443888888888889],[-0.021875,0.4729629629629629],[-0.034895833333333334,0.5172222222222221],[-0.034895833333333334,0.5172222222222221],[-0.03968750000000002,0.5277777777777778],[-0.03968750000000002,0.5277777777777778],[-0.049583333333333354,0.5718518518518517],[-0.049583333333333354,0.5718518518518517],[-0.0671875,0.6266666666666666],[-0.08562500000000005,0.6801851851851851],[-0.0938541666666667,0.7307407407407408],[-0.0938541666666667,0.7307407407407408],[-0.11291666666666664,0.7561111111111111],[-0.11687500000000005,0.76],[-0.13156249999999994,0.7718518518518518],[-0.13510416666666672,0.7696296296296297],[-0.13510416666666672,0.7696296296296297],[-0.12989583333333338,0.7396296296296296],[-0.12302083333333336,0.7107407407407407],[-0.14708333333333337,0.6712962962962963],[-0.1638541666666666,0.6175925925925926],[-0.16239583333333332,0.5535185185185185],[-0.17114583333333327,0.49240740740740735],[-0.16041666666666668,0.4316666666666667],[-0.16041666666666668,0.4316666666666667],[-0.16479166666666673,0.39648148148148155],[-0.17697916666666663,0.3881481481481482],[-0.17697916666666663,0.3881481481481482],[-0.1851041666666667,0.34222222222222215],[-0.19947916666666668,0.3303703703703703],[-0.22749999999999998,0.34037037037037027],[-0.18031250000000001,0.3392592592592593],[-0.13500000000000004,0.3412962962962962],[-0.13500000000000004,0.3412962962962962],[-0.11958333333333329,0.352962962962963],[-0.11020833333333328,0.37962962962962965],[-0.09760416666666671,0.38685185185185184],[-0.08020833333333334,0.3762962962962964],[-0.05510416666666664,0.3633333333333334],[-0.03333333333333333,0.3640740740740741],[-0.003854166666666714,0.34333333333333327],[0.01270833333333338,0.34518518518518515],[-0.002291666666666714,0.3346296296296297],[-0.005104166666666643,0.29222222222222216],[0.008437500000000023,0.2537037037037037],[0.02791666666666662,0.17796296296296302],[0.03885416666666662,0.13925925925925933],[0.03885416666666662,0.13925925925925933],[0.06072916666666662,0.12629629629629638],[0.06072916666666662,0.12629629629629638],[0.052083333333333336,0.13870370370370366],[0.04854166666666669,0.15555555555555556],[0.03999999999999997,0.19074074074074074],[0.03999999999999997,0.19074074074074074],[0.05385416666666672,0.2124074074074075],[0.052187500000000026,0.25277777777777777],[0.043020833333333286,0.325],[0.029999999999999954,0.34574074074074085],[0.028437499999999952,0.3742592592592593],[0.017916666666666713,0.3905555555555555],[-0.002916666666666619,0.3968518518518518],[0.01885416666666669,0.3514814814814814],[0.033645833333333285,0.31500000000000006],[0.033645833333333285,0.31500000000000006],[0.03125,0.30037037037037045],[0.010312499999999976,0.28462962962962973],[0.010312499999999976,0.28462962962962973],[0.02354166666666669,0.20833333333333334],[0.03166666666666664,0.18851851851851845],[0.03604166666666669,0.21185185185185182],[0.026041666666666668,0.24833333333333338],[0.04624999999999998,0.23592592592592587],[0.04624999999999998,0.23592592592592587],[0.05614583333333331,0.20666666666666672],[0.05614583333333331,0.20666666666666672],[0.06697916666666662,0.1655555555555555],[0.07208333333333337,0.12962962962962962],[0.07208333333333337,0.12962962962962962],[0.07947916666666661,0.09388888888888898],[0.07947916666666661,0.09388888888888898],[0.09802083333333324,0.005370370370370328],[0.09802083333333324,0.005370370370370328],[0.10708333333333328,-0.03037037037037033],[0.09958333333333323,-0.1007407407407407],[0.11208333333333324,-0.18888888888888888],[0.1267708333333334,-0.26425925925925925],[0.12302083333333323,-0.30351851851851847],[0.12302083333333323,-0.30351851851851847],[0.12885416666666671,-0.3331481481481481],[0.1212500000000001,-0.30759259259259264],[0.11937499999999991,-0.28722222222222227],[0.11937499999999991,-0.28722222222222227],[0.13802083333333334,-0.33055555555555555],[0.15093750000000009,-0.3224074074074075],[0.15093750000000009,-0.317037037037037],[0.16552083333333342,-0.3292592592592593],[0.1638541666666666,-0.32462962962962966],[0.16447916666666676,-0.33666666666666667],[0.165625,-0.33537037037037043],[0.15437500000000004,-0.29129629629629633],[0.1446875000000001,-0.2770370370370371],[0.1446875000000001,-0.2770370370370371],[0.15322916666666658,-0.3229629629629629],[0.146875,-0.3194444444444444],[0.14416666666666675,-0.3225925925925926],[0.14177083333333323,-0.31870370370370377],[0.14364583333333342,-0.32222222222222224],[0.14364583333333342,-0.32222222222222224],[0.14854166666666657,-0.3507407407407407],[0.14854166666666657,-0.3507407407407407],[0.14802083333333324,-0.3653703703703704],[0.1493750000000001,-0.38870370370370366],[0.1493750000000001,-0.38870370370370366],[0.15989583333333332,-0.42666666666666664],[0.17635416666666662,-0.44833333333333336],[0.1584374999999999,-0.4377777777777777],[0.1584374999999999,-0.4377777777777777],[0.1525000000000001,-0.45018518518518524],[0.16197916666666667,-0.4624074074074074],[0.16395833333333343,-0.47740740740740745],[0.16593749999999996,-0.49240740740740735],[0.16593749999999996,-0.49240740740740735],[0.17239583333333333,-0.4772222222222222],[0.19895833333333332,-0.47537037037037033],[0.22208333333333338,-0.4631481481481482],[0.22208333333333338,-0.4631481481481482],[0.22802083333333342,-0.4794444444444444],[0.22802083333333342,-0.4794444444444444],[0.2265625,-0.5042592592592593],[0.2412499999999999,-0.5011111111111112],[0.24854166666666658,-0.4933333333333333],[0.24854166666666658,-0.4933333333333333],[0.24510416666666662,-0.5146296296296295],[0.23927083333333338,-0.5366666666666667],[0.23927083333333338,-0.5366666666666667],[0.2334374999999999,-0.5587037037037037],[0.2334374999999999,-0.5587037037037037],[0.2243750000000001,-0.5774074074074075],[0.19739583333333333,-0.5838888888888889],[0.19739583333333333,-0.5838888888888889],[0.16531250000000006,-0.6055555555555555],[0.159375,-0.605],[0.159375,-0.605],[0.15489583333333337,-0.6122222222222222],[0.15489583333333337,-0.6122222222222222],[0.15114583333333323,-0.6211111111111111],[0.15625,-0.6440740740740741],[0.1492708333333333,-0.6225925925925926],[0.1492708333333333,-0.6225925925925926],[0.1544791666666666,-0.5974074074074075],[0.16739583333333338,-0.5648148148148148],[0.16916666666666677,-0.5740740740740741],[0.175,-0.5605555555555556],[0.175,-0.5605555555555556],[0.18499999999999991,-0.5514814814814815],[0.17843749999999994,-0.5338888888888889],[0.16906249999999995,-0.5085185185185186],[0.16281249999999994,-0.5109259259259259],[0.14479166666666668,-0.4809259259259259],[0.14479166666666668,-0.4809259259259259],[0.1265625,-0.46222222222222226],[0.10750000000000005,-0.41629629629629633],[0.08427083333333343,-0.38925925925925925],[0.0453125,-0.29203703703703704],[0.0453125,-0.29203703703703704],[0.004062499999999977,-0.22518518518518524],[0.005520833333333286,-0.2346296296296296],[0.008229166666666643,-0.20833333333333334],[0.016875000000000046,-0.17740740740740743],[0.016875000000000046,-0.17740740740740743],[0.014895833333333285,-0.10999999999999996],[0.04364583333333331,-0.09240740740740737],[0.07489583333333343,-0.06462962962962959],[0.07489583333333343,-0.06462962962962959],[0.09177083333333323,-0.0668518518518519],[0.10145833333333343,-0.05944444444444449],[0.1337500000000001,-0.08888888888888889],[0.1337500000000001,-0.08888888888888889],[0.1724999999999999,-0.11500000000000005],[0.17447916666666666,-0.05740740740740741],[0.18135416666666657,-0.056666666666666705],[0.20572916666666666,-0.05407407407407405],[0.22218749999999995,-0.06111111111111111],[0.20520833333333333,-0.03629629629629634],[0.20520833333333333,-0.03629629629629634],[0.19333333333333325,-0.025925925925925925],[0.19739583333333333,-0.009444444444444486],[0.19739583333333333,-0.009444444444444486],[0.18541666666666667,0.04944444444444453],[0.18541666666666667,0.04944444444444453],[0.17302083333333323,0.10629629629629625],[0.1564583333333334,0.1492592592592593],[0.13489583333333333,0.2044444444444444],[0.10541666666666671,0.2911111111111112],[0.10541666666666671,0.2911111111111112],[0.058854166666666666,0.36055555555555563],[0.036145833333333384,0.4027777777777778],[0.036145833333333384,0.4027777777777778],[0.035104166666666714,0.431111111111111],[0.035104166666666714,0.431111111111111],[0.02645833333333331,0.47685185185185186],[0.015208333333333357,0.5224074074074074],[0.027499999999999976,0.5281481481481483],[0.027499999999999976,0.5281481481481483],[0.0515625,0.5022222222222223],[0.08229166666666667,0.4975925925925927],[0.0900000000000001,0.5001851851851852],[0.10718750000000009,0.3955555555555556],[0.12989583333333338,0.3118518518518518],[0.13250000000000003,0.23944444444444435],[0.12645833333333342,0.17592592592592593],[0.13489583333333333,0.11740740740740736],[0.14312500000000009,0.04814814814814815],[0.1466666666666666,-0.03222222222222218],[0.1466666666666666,-0.03222222222222218],[0.1388541666666666,-0.07888888888888893],[0.12750000000000009,-0.11555555555555551],[0.13739583333333344,-0.18351851851851855],[0.14572916666666677,-0.1757407407407407],[0.13624999999999995,-0.2161111111111111],[0.13770833333333338,-0.23796296296296296],[0.15458333333333343,-0.2748148148148148],[0.15458333333333343,-0.2748148148148148],[0.15968749999999995,-0.3140740740740741],[0.16885416666666658,-0.2783333333333334],[0.1742708333333333,-0.3068518518518518],[0.1794791666666666,-0.2485185185185185],[0.17489583333333342,-0.30574074074074076],[0.19385416666666658,-0.2861111111111111],[0.21281249999999996,-0.2824074074074074],[0.22125000000000009,-0.287962962962963],[0.22302083333333325,-0.21703703703703703],[0.20499999999999996,-0.21222222222222226],[0.20499999999999996,-0.21222222222222226],[0.2025000000000001,-0.11222222222222226],[0.19197916666666662,-0.14462962962962966],[0.18604166666666658,-0.06185185185185181],[0.18385416666666668,-0.09111111111111109],[0.18604166666666658,-0.02555555555555547],[0.17374999999999996,-0.025185185185185227],[0.1546875,-0.009074074074074031],[0.15489583333333337,0.03333333333333333],[0.15895833333333323,-0.0014814814814813973],[0.175,0.04870370370370362],[0.17979166666666657,-0.015000000000000043],[0.1805208333333333,-0.007037037037036953],[0.1805208333333333,-0.007037037037036953],[0.18614583333333337,-0.06111111111111111],[0.17958333333333343,-0.12833333333333335],[0.17302083333333323,-0.1955555555555556],[0.1506249999999999,-0.2633333333333333],[0.12229166666666676,-0.31055555555555553],[0.09468750000000009,-0.3542592592592593],[0.09468750000000009,-0.3542592592592593],[0.09302083333333329,-0.3768518518518518],[0.09489583333333323,-0.43037037037037035],[0.09927083333333328,-0.49611111111111106],[0.08937499999999995,-0.5411111111111111],[0.07552083333333333,-0.5803703703703703],[0.07552083333333333,-0.5803703703703703],[0.05010416666666669,-0.5416666666666666],[0.020624999999999952,-0.5390740740740741]]","[[-0.016770833333333356,0.443888888888889,0.0002999999821184929],[-0.016770833333333356,0.443888888888889,0.0543999999761553],[-0.016770833333333356,0.443888888888889,0.056799999982118266],[-0.021875,0.4729629629629629,0.07179999998211883],[-0.034895833333333334,0.5172222222222221,0.09179999998211485],[-0.034895833333333334,0.5172222222222221,0.1051999999880806],[-0.03968750000000002,0.5277777777777778,0.12189999997615786],[-0.03968750000000002,0.5277777777777778,0.138799999982119],[-0.049583333333333354,0.5718518518518517,0.15519999998807776],[-0.049583333333333354,0.5718518518518517,0.17189999997615502],[-0.0671875,0.6266666666666666,0.18849999999999767],[-0.08562500000000005,0.6801851851851851,0.2049999999999983],[-0.0938541666666667,0.7307407407407408,0.22519999998807805],[-0.0938541666666667,0.7307407407407408,0.2383999999761599],[-0.11291666666666664,0.7561111111111111,0.25929999998211883],[-0.11687500000000005,0.76,0.2746999999880799],[-0.13156249999999994,0.7718518518518518,0.2913999999761572],[-0.13510416666666672,0.7696296296296297,0.31169999998807896],[-0.13510416666666672,0.7696296296296297,0.3220999999940375],[-0.12989583333333338,0.7396296296296296,0.33869999998808],[-0.12302083333333336,0.7107407407407407,0.35509999999403874],[-0.14708333333333337,0.6712962962962963,0.3721999999880765],[-0.1638541666666666,0.6175925925925926,0.39079999998211434],[-0.16239583333333332,0.5535185185185185,0.40519999998807776],[-0.17114583333333327,0.49240740740740735,0.42549999999999955],[-0.16041666666666668,0.4316666666666667,0.4407999999821186],[-0.16041666666666668,0.4316666666666667,0.45509999999404016],[-0.16479166666666673,0.39648148148148155,0.4717999999821174],[-0.17697916666666663,0.3881481481481482,0.49429999998211827],[-0.17697916666666663,0.3881481481481482,0.505299999982121],[-0.1851041666666667,0.34222222222222215,0.5217999999821146],[-0.19947916666666668,0.3303703703703703,0.5412999999821153],[-0.22749999999999998,0.34037037037037027,0.5551999999880763],[-0.18031250000000001,0.3392592592592593,0.5717999999821188],[-0.13500000000000004,0.3412962962962962,0.5923999999761591],[-0.13500000000000004,0.3412962962962962,0.6050999999940387],[-0.11958333333333329,0.352962962962963,0.6220999999940418],[-0.11020833333333328,0.37962962962962965,0.6415000000000006],[-0.09760416666666671,0.38685185185185184,0.6560999999940407],[-0.08020833333333334,0.3762962962962964,0.6747999999821204],[-0.05510416666666664,0.3633333333333334,0.6915999999940396],[-0.03333333333333333,0.3640740740740741,0.7072999999821192],[-0.003854166666666714,0.34333333333333327,0.7218999999761593],[0.01270833333333338,0.34518518518518515,0.7385000000000019],[-0.002291666666666714,0.3346296296296297,0.7580999999940374],[-0.005104166666666643,0.29222222222222216,0.773099999994038],[0.008437500000000023,0.2537037037037037,0.7883999999761571],[0.02791666666666662,0.17796296296296302,0.8050999999940416],[0.03885416666666662,0.13925925925925933,0.8276999999880772],[0.03885416666666662,0.13925925925925933,0.8384999999999962],[0.06072916666666662,0.12629629629629638,0.8550999999940387],[0.06072916666666662,0.12629629629629638,0.8746999999880813],[0.052083333333333336,0.13870370370370366,0.8885000000000005],[0.04854166666666669,0.15555555555555556,0.9051999999880778],[0.03999999999999997,0.19074074074074074,0.927500000000002],[0.03999999999999997,0.19074074074074074,0.9385999999940395],[0.05385416666666672,0.2124074074074075,0.9553999999761587],[0.052187500000000026,0.25277777777777777,0.9720000000000013],[0.043020833333333286,0.325,0.9928999999761601],[0.029999999999999954,0.34574074074074085,1.0081999999880793],[0.028437499999999952,0.3742592592592593,1.0236999999880751],[0.017916666666666713,0.3905555555555555,1.041599999994041],[-0.002916666666666619,0.3968518518518518,1.0560999999940393],[0.01885416666666669,0.3514814814814814,1.0720999999940375],[0.033645833333333285,0.31500000000000006,1.0937999999821173],[0.033645833333333285,0.31500000000000006,1.1052999999821154],[0.03125,0.30037037037037045,1.1220999999940418],[0.010312499999999976,0.28462962962962973,1.1415000000000006],[0.010312499999999976,0.28462962962962973,1.1622999999821175],[0.02354166666666669,0.20833333333333334,1.172099999994039],[0.03166666666666664,0.18851851851851845,1.1884999999999977],[0.03604166666666669,0.21185185185185182,1.2052999999821168],[0.026041666666666668,0.24833333333333338,1.2246999999880757],[0.04624999999999998,0.23592592592592587,1.2401999999880786],[0.04624999999999998,0.23592592592592587,1.2551999999880792],[0.05614583333333331,0.20666666666666672,1.2720999999940403],[0.05614583333333331,0.20666666666666672,1.2926999999880806],[0.06697916666666662,0.1655555555555555,1.3052999999821182],[0.07208333333333337,0.12962962962962962,1.3221999999880794],[0.07208333333333337,0.12962962962962962,1.3410999999940358],[0.07947916666666661,0.09388888888888898,1.3552999999821154],[0.07947916666666661,0.09388888888888898,1.3719999999999999],[0.09802083333333324,0.005370370370370328,1.3924999999999983],[0.09802083333333324,0.005370370370370328,1.4052999999821196],[0.10708333333333328,-0.03037037037037033,1.4224999999999994],[0.09958333333333323,-0.1007407407407407,1.4437999999821187],[0.11208333333333324,-0.18888888888888888,1.4600000000000009],[0.1267708333333334,-0.26425925925925925,1.4747999999821175],[0.12302083333333323,-0.30351851851851847,1.496099999994037],[0.12302083333333323,-0.30351851851851847,1.5053999999761558],[0.12885416666666671,-0.3331481481481481,1.5220999999940403],[0.1212500000000001,-0.30759259259259264,1.5416999999880758],[0.11937499999999991,-0.28722222222222227,1.5594999999999999],[0.11937499999999991,-0.28722222222222227,1.5717999999821188],[0.13802083333333334,-0.33055555555555555,1.5885999999940381],[0.15093750000000009,-0.3224074074074075,1.6050999999940387],[0.15093750000000009,-0.317037037037037,1.625699999988079],[0.16552083333333342,-0.3292592592592593,1.6416999999880773],[0.1638541666666666,-0.32462962962962966,1.659599999994036],[0.16447916666666676,-0.33666666666666667,1.6761999999880786],[0.165625,-0.33537037037037043,1.6920000000000002],[0.15437500000000004,-0.29129629629629633,1.7083999999761588],[0.1446875000000001,-0.2770370370370371,1.7310999999940364],[0.1446875000000001,-0.2770370370370371,1.7386999999880786],[0.15322916666666658,-0.3229629629629629,1.755299999982121],[0.146875,-0.3194444444444444,1.7731999999880799],[0.14416666666666675,-0.3225925925925926,1.7920000000000016],[0.14177083333333323,-0.31870370370370377,1.8072999999821207],[0.14364583333333342,-0.32222222222222224,1.8290999999940354],[0.14364583333333342,-0.32222222222222224,1.8440000000000012],[0.14854166666666657,-0.3507407407407407,1.8551999999880806],[0.14854166666666657,-0.3507407407407407,1.8718999999761579],[0.14802083333333324,-0.3653703703703704,1.8885000000000005],[0.1493750000000001,-0.38870370370370366,1.9099999999999966],[0.1493750000000001,-0.38870370370370366,1.921899999976155],[0.15989583333333332,-0.42666666666666664,1.9385999999940395],[0.17635416666666662,-0.44833333333333336,1.958999999999996],[0.1584374999999999,-0.4377777777777777,1.9748999999761594],[0.1584374999999999,-0.4377777777777777,1.9885999999940367],[0.1525000000000001,-0.45018518518518524,2.0080999999940374],[0.16197916666666667,-0.4624074074074074,2.0250999999940404],[0.16395833333333343,-0.47740740740740745,2.041399999976157],[0.16593749999999996,-0.49240740740740735,2.062599999994042],[0.16593749999999996,-0.49240740740740735,2.0719999999999956],[0.17239583333333333,-0.4772222222222222,2.08869999998808],[0.19895833333333332,-0.47537037037037033,2.1069999999999993],[0.22208333333333338,-0.4631481481481482,2.1270000000000024],[0.22208333333333338,-0.4631481481481482,2.140399999976154],[0.22802083333333342,-0.4794444444444444,2.1553999999761544],[0.22802083333333342,-0.4794444444444444,2.1745999999940366],[0.2265625,-0.5042592592592593,2.1884999999999977],[0.2412499999999999,-0.5011111111111112,2.2049999999999983],[0.24854166666666658,-0.4933333333333333,2.228399999976155],[0.24854166666666658,-0.4933333333333333,2.238500000000002],[0.24510416666666662,-0.5146296296296295,2.2550000000000026],[0.23927083333333338,-0.5366666666666667,2.275500000000001],[0.23927083333333338,-0.5366666666666667,2.294799999982118],[0.2334374999999999,-0.5587037037037037,2.311799999982121],[0.2334374999999999,-0.5587037037037037,2.321699999988077],[0.2243750000000001,-0.5774074074074075,2.338599999994038],[0.19739583333333333,-0.5838888888888889,2.354999999999997],[0.19739583333333333,-0.5838888888888889,2.371799999982116],[0.16531250000000006,-0.6055555555555555,2.3885000000000005],[0.159375,-0.605,2.40979999998212],[0.159375,-0.605,2.422099999994039],[0.15489583333333337,-0.6122222222222222,2.4384999999999977],[0.15489583333333337,-0.6122222222222222,2.4585999999940356],[0.15114583333333323,-0.6211111111111111,2.472099999994036],[0.15625,-0.6440740740740741,2.4885999999940367],[0.1492708333333333,-0.6225925925925926,2.509299999982119],[0.1492708333333333,-0.6225925925925926,2.5218999999761564],[0.1544791666666666,-0.5974074074074075,2.538599999994041],[0.16739583333333338,-0.5648148148148148,2.555299999982118],[0.16916666666666677,-0.5740740740740741,2.576199999988077],[0.175,-0.5605555555555556,2.5920999999940406],[0.175,-0.5605555555555556,2.604999999999997],[0.18499999999999991,-0.5514814814814815,2.6220999999940418],[0.17843749999999994,-0.5338888888888889,2.6415999999940354],[0.16906249999999995,-0.5085185185185186,2.65569999998808],[0.16281249999999994,-0.5109259259259259,2.674299999982118],[0.14479166666666668,-0.4809259259259259,2.6883999999761556],[0.14479166666666668,-0.4809259259259259,2.70509999999404],[0.1265625,-0.46222222222222226,2.7217999999821174],[0.10750000000000005,-0.41629629629629633,2.73839999997616],[0.08427083333333343,-0.38925925925925925,2.758499999999998],[0.0453125,-0.29203703703703704,2.7717999999821146],[0.0453125,-0.29203703703703704,2.788499999999999],[0.004062499999999977,-0.22518518518518524,2.8072999999821207],[0.005520833333333286,-0.2346296296296296,2.822299999982121],[0.008229166666666643,-0.20833333333333334,2.8413999999761543],[0.016875000000000046,-0.17740740740740743,2.8575000000000017],[0.016875000000000046,-0.17740740740740743,2.871799999982116],[0.014895833333333285,-0.10999999999999996,2.8883999999761585],[0.04364583333333331,-0.09240740740740737,2.9051999999880778],[0.07489583333333343,-0.06462962962962959,2.925699999988076],[0.07489583333333343,-0.06462962962962959,2.9384999999999977],[0.09177083333333323,-0.0668518518518519,2.955199999988075],[0.10145833333333343,-0.05944444444444449,2.9732999999821175],[0.1337500000000001,-0.08888888888888889,2.9885999999940367],[0.1337500000000001,-0.08888888888888889,3.0050000000000026],[0.1724999999999999,-0.11500000000000005,3.0219999999999985],[0.17447916666666666,-0.05740740740740741,3.039199999988078],[0.18135416666666657,-0.056666666666666705,3.057199999988079],[0.20572916666666666,-0.05407407407407405,3.0718999999761607],[0.22218749999999995,-0.06111111111111111,3.0915999999940382],[0.20520833333333333,-0.03629629629629634,3.10779999998212],[0.20520833333333333,-0.03629629629629634,3.121799999982116],[0.19333333333333325,-0.025925925925925925,3.1385999999940353],[0.19739583333333333,-0.009444444444444486,3.1608999999761593],[0.19739583333333333,-0.009444444444444486,3.1717999999821203],[0.18541666666666667,0.04944444444444453,3.1883999999761556],[0.18541666666666667,0.04944444444444453,3.20509999999404],[0.17302083333333323,0.10629629629629625,3.2217999999821174],[0.1564583333333334,0.1492592592592593,3.2385999999940367],[0.13489583333333333,0.2044444444444444,3.2581999999880793],[0.10541666666666671,0.2911111111111112,3.273899999976159],[0.10541666666666671,0.2911111111111112,3.288399999976157],[0.058854166666666666,0.36055555555555563,3.3051999999880763],[0.036145833333333384,0.4027777777777778,3.323099999994035],[0.036145833333333384,0.4027777777777778,3.338599999994038],[0.035104166666666714,0.431111111111111,3.3551999999880806],[0.035104166666666714,0.431111111111111,3.371799999982116],[0.02645833333333331,0.47685185185185186,3.3885000000000005],[0.015208333333333357,0.5224074074074074,3.405000000000001],[0.027499999999999976,0.5281481481481483,3.426000000000002],[0.027499999999999976,0.5281481481481483,3.438299999982121],[0.0515625,0.5022222222222223,3.45509999999404],[0.08229166666666667,0.4975925925925927,3.4748999999761594],[0.0900000000000001,0.5001851851851852,3.4887999999821204],[0.10718750000000009,0.3955555555555556,3.5078999999761606],[0.12989583333333338,0.3118518518518518,3.524000000000001],[0.13250000000000003,0.23944444444444435,3.5410999999940387],[0.12645833333333342,0.17592592592592593,3.5549999999999997],[0.13489583333333333,0.11740740740740736,3.5719999999999956],[0.14312500000000009,0.04814814814814815,3.592399999976159],[0.1466666666666666,-0.03222222222222218,3.60779999998212],[0.1466666666666666,-0.03222222222222218,3.6216999999880812],[0.1388541666666666,-0.07888888888888893,3.6385000000000005],[0.12750000000000009,-0.11555555555555551,3.655000000000001],[0.13739583333333344,-0.18351851851851855,3.674999999999997],[0.14572916666666677,-0.1757407407407407,3.6910999999940373],[0.13624999999999995,-0.2161111111111111,3.7085999999940356],[0.13770833333333338,-0.23796296296296296,3.724599999994041],[0.15458333333333343,-0.2748148148148148,3.744699999988079],[0.15458333333333343,-0.2748148148148148,3.7550999999940373],[0.15968749999999995,-0.3140740740740741,3.7717999999821146],[0.16885416666666658,-0.2783333333333334,3.788399999976157],[0.1742708333333333,-0.3068518518518518,3.806299999982116],[0.1794791666666666,-0.2485185185185185,3.822499999999998],[0.17489583333333342,-0.30574074074074076,3.8419999999999987],[0.19385416666666658,-0.2861111111111111,3.857999999999997],[0.21281249999999996,-0.2824074074074074,3.8736999999880766],[0.22125000000000009,-0.287962962962963,3.8891999999880795],[0.22302083333333325,-0.21703703703703703,3.905099999994036],[0.20499999999999996,-0.21222222222222226,3.926699999988081],[0.20499999999999996,-0.21222222222222226,3.9383999999761556],[0.2025000000000001,-0.11222222222222226,3.95509999999404],[0.19197916666666662,-0.14462962962962966,3.9724999999999966],[0.18604166666666658,-0.06185185185185181,3.988299999982118],[0.18385416666666668,-0.09111111111111109,4.008099999994037],[0.18604166666666658,-0.02555555555555547,4.02319999998808],[0.17374999999999996,-0.025185185185185227,4.041699999988076],[0.1546875,-0.009074074074074031,4.057599999994039],[0.15489583333333337,0.03333333333333333,4.076299999982119],[0.15895833333333323,-0.0014814814814813973,4.092099999994041],[0.175,0.04870370370370362,4.1082999999821155],[0.17979166666666657,-0.015000000000000043,4.1252999999821185],[0.1805208333333333,-0.007037037037036953,4.141399999976159],[0.1805208333333333,-0.007037037037036953,4.155000000000001],[0.18614583333333337,-0.06111111111111111,4.171899999976155],[0.17958333333333343,-0.12833333333333335,4.188299999982121],[0.17302083333333323,-0.1955555555555556,4.204999999999998],[0.1506249999999999,-0.2633333333333333,4.224299999982115],[0.12229166666666676,-0.31055555555555553,4.243199999988079],[0.09468750000000009,-0.3542592592592593,4.259699999988079],[0.09468750000000009,-0.3542592592592593,4.27169999998808],[0.09302083333333329,-0.3768518518518518,4.288399999976157],[0.09489583333333323,-0.43037037037037035,4.305199999988076],[0.09927083333333328,-0.49611111111111106,4.321699999988077],[0.08937499999999995,-0.5411111111111111,4.342099999994041],[0.07552083333333333,-0.5803703703703703,4.357500000000002],[0.07552083333333333,-0.5803703703703703,4.371699999988081],[0.05010416666666669,-0.5416666666666666,4.3883999999761585],[0.020624999999999952,-0.5390740740740741,4.405099999994036]]","[0.0002999999821184929,0.0543999999761553,0.056799999982118266,0.07179999998211883,0.09179999998211485,0.1051999999880806,0.12189999997615786,0.138799999982119,0.15519999998807776,0.17189999997615502,0.18849999999999767,0.2049999999999983,0.22519999998807805,0.2383999999761599,0.25929999998211883,0.2746999999880799,0.2913999999761572,0.31169999998807896,0.3220999999940375,0.33869999998808,0.35509999999403874,0.3721999999880765,0.39079999998211434,0.40519999998807776,0.42549999999999955,0.4407999999821186,0.45509999999404016,0.4717999999821174,0.49429999998211827,0.505299999982121,0.5217999999821146,0.5412999999821153,0.5551999999880763,0.5717999999821188,0.5923999999761591,0.6050999999940387,0.6220999999940418,0.6415000000000006,0.6560999999940407,0.6747999999821204,0.6915999999940396,0.7072999999821192,0.7218999999761593,0.7385000000000019,0.7580999999940374,0.773099999994038,0.7883999999761571,0.8050999999940416,0.8276999999880772,0.8384999999999962,0.8550999999940387,0.8746999999880813,0.8885000000000005,0.9051999999880778,0.927500000000002,0.9385999999940395,0.9553999999761587,0.9720000000000013,0.9928999999761601,1.0081999999880793,1.0236999999880751,1.041599999994041,1.0560999999940393,1.0720999999940375,1.0937999999821173,1.1052999999821154,1.1220999999940418,1.1415000000000006,1.1622999999821175,1.172099999994039,1.1884999999999977,1.2052999999821168,1.2246999999880757,1.2401999999880786,1.2551999999880792,1.2720999999940403,1.2926999999880806,1.3052999999821182,1.3221999999880794,1.3410999999940358,1.3552999999821154,1.3719999999999999,1.3924999999999983,1.4052999999821196,1.4224999999999994,1.4437999999821187,1.4600000000000009,1.4747999999821175,1.496099999994037,1.5053999999761558,1.5220999999940403,1.5416999999880758,1.5594999999999999,1.5717999999821188,1.5885999999940381,1.6050999999940387,1.625699999988079,1.6416999999880773,1.659599999994036,1.6761999999880786,1.6920000000000002,1.7083999999761588,1.7310999999940364,1.7386999999880786,1.755299999982121,1.7731999999880799,1.7920000000000016,1.8072999999821207,1.8290999999940354,1.8440000000000012,1.8551999999880806,1.8718999999761579,1.8885000000000005,1.9099999999999966,1.921899999976155,1.9385999999940395,1.958999999999996,1.9748999999761594,1.9885999999940367,2.0080999999940374,2.0250999999940404,2.041399999976157,2.062599999994042,2.0719999999999956,2.08869999998808,2.1069999999999993,2.1270000000000024,2.140399999976154,2.1553999999761544,2.1745999999940366,2.1884999999999977,2.2049999999999983,2.228399999976155,2.238500000000002,2.2550000000000026,2.275500000000001,2.294799999982118,2.311799999982121,2.321699999988077,2.338599999994038,2.354999999999997,2.371799999982116,2.3885000000000005,2.40979999998212,2.422099999994039,2.4384999999999977,2.4585999999940356,2.472099999994036,2.4885999999940367,2.509299999982119,2.5218999999761564,2.538599999994041,2.555299999982118,2.576199999988077,2.5920999999940406,2.604999999999997,2.6220999999940418,2.6415999999940354,2.65569999998808,2.674299999982118,2.6883999999761556,2.70509999999404,2.7217999999821174,2.73839999997616,2.758499999999998,2.7717999999821146,2.788499999999999,2.8072999999821207,2.822299999982121,2.8413999999761543,2.8575000000000017,2.871799999982116,2.8883999999761585,2.9051999999880778,2.925699999988076,2.9384999999999977,2.955199999988075,2.9732999999821175,2.9885999999940367,3.0050000000000026,3.0219999999999985,3.039199999988078,3.057199999988079,3.0718999999761607,3.0915999999940382,3.10779999998212,3.121799999982116,3.1385999999940353,3.1608999999761593,3.1717999999821203,3.1883999999761556,3.20509999999404,3.2217999999821174,3.2385999999940367,3.2581999999880793,3.273899999976159,3.288399999976157,3.3051999999880763,3.323099999994035,3.338599999994038,3.3551999999880806,3.371799999982116,3.3885000000000005,3.405000000000001,3.426000000000002,3.438299999982121,3.45509999999404,3.4748999999761594,3.4887999999821204,3.5078999999761606,3.524000000000001,3.5410999999940387,3.5549999999999997,3.5719999999999956,3.592399999976159,3.60779999998212,3.6216999999880812,3.6385000000000005,3.655000000000001,3.674999999999997,3.6910999999940373,3.7085999999940356,3.724599999994041,3.744699999988079,3.7550999999940373,3.7717999999821146,3.788399999976157,3.806299999982116,3.822499999999998,3.8419999999999987,3.857999999999997,3.8736999999880766,3.8891999999880795,3.905099999994036,3.926699999988081,3.9383999999761556,3.95509999999404,3.9724999999999966,3.988299999982118,4.008099999994037,4.02319999998808,4.041699999988076,4.057599999994039,4.076299999982119,4.092099999994041,4.1082999999821155,4.1252999999821185,4.141399999976159,4.155000000000001,4.171899999976155,4.188299999982121,4.204999999999998,4.224299999982115,4.243199999988079,4.259699999988079,4.27169999998808,4.288399999976157,4.305199999988076,4.321699999988077,4.342099999994041,4.357500000000002,4.371699999988081,4.3883999999761585,4.405099999994036]","[1732687162382,1732687162427,1732687162429,1732687162444,1732687162464,1732687162478,1732687162494,1732687162511,1732687162528,1732687162544,1732687162561,1732687162577,1732687162598,1732687162611,1732687162632,1732687162647,1732687162664,1732687162684,1732687162695,1732687162711,1732687162728,1732687162745,1732687162763,1732687162778,1732687162798,1732687162813,1732687162828,1732687162844,1732687162867,1732687162878,1732687162894,1732687162914,1732687162928,1732687162944,1732687162965,1732687162977,1732687162995,1732687163014,1732687163029,1732687163047,1732687163064,1732687163080,1732687163094,1732687163111,1732687163131,1732687163146,1732687163161,1732687163178,1732687163200,1732687163211,1732687163228,1732687163247,1732687163261,1732687163278,1732687163300,1732687163311,1732687163328,1732687163344,1732687163365,1732687163381,1732687163396,1732687163414,1732687163429,1732687163445,1732687163466,1732687163478,1732687163495,1732687163514,1732687163535,1732687163545,1732687163561,1732687163578,1732687163597,1732687163613,1732687163628,1732687163644,1732687163665,1732687163678,1732687163695,1732687163714,1732687163728,1732687163744,1732687163765,1732687163778,1732687163795,1732687163816,1732687163832,1732687163847,1732687163869,1732687163878,1732687163895,1732687163914,1732687163932,1732687163944,1732687163961,1732687163978,1732687163998,1732687164014,1732687164032,1732687164049,1732687164064,1732687164081,1732687164104,1732687164111,1732687164128,1732687164146,1732687164164,1732687164180,1732687164202,1732687164216,1732687164228,1732687164244,1732687164261,1732687164282,1732687164294,1732687164311,1732687164331,1732687164347,1732687164361,1732687164381,1732687164398,1732687164414,1732687164435,1732687164445,1732687164461,1732687164479,1732687164499,1732687164513,1732687164528,1732687164547,1732687164561,1732687164577,1732687164601,1732687164611,1732687164627,1732687164648,1732687164667,1732687164684,1732687164694,1732687164711,1732687164727,1732687164744,1732687164761,1732687164782,1732687164795,1732687164811,1732687164831,1732687164844,1732687164861,1732687164882,1732687164894,1732687164911,1732687164928,1732687164949,1732687164964,1732687164977,1732687164995,1732687165014,1732687165028,1732687165047,1732687165061,1732687165078,1732687165094,1732687165111,1732687165131,1732687165144,1732687165161,1732687165180,1732687165195,1732687165214,1732687165230,1732687165244,1732687165261,1732687165278,1732687165298,1732687165311,1732687165328,1732687165346,1732687165361,1732687165377,1732687165394,1732687165412,1732687165430,1732687165444,1732687165464,1732687165480,1732687165494,1732687165511,1732687165533,1732687165544,1732687165561,1732687165578,1732687165594,1732687165611,1732687165631,1732687165646,1732687165661,1732687165678,1732687165696,1732687165711,1732687165728,1732687165744,1732687165761,1732687165778,1732687165798,1732687165811,1732687165828,1732687165847,1732687165861,1732687165880,1732687165896,1732687165914,1732687165927,1732687165944,1732687165965,1732687165980,1732687165994,1732687166011,1732687166027,1732687166047,1732687166064,1732687166081,1732687166097,1732687166117,1732687166128,1732687166144,1732687166161,1732687166179,1732687166195,1732687166214,1732687166230,1732687166246,1732687166262,1732687166277,1732687166299,1732687166311,1732687166328,1732687166345,1732687166361,1732687166380,1732687166396,1732687166414,1732687166430,1732687166449,1732687166465,1732687166481,1732687166498,1732687166514,1732687166527,1732687166544,1732687166561,1732687166577,1732687166597,1732687166616,1732687166632,1732687166644,1732687166661,1732687166678,1732687166694,1732687166714,1732687166730,1732687166744,1732687166761,1732687166778]","[[943.9,779.7],[943.9,779.7],[943.9,779.7],[939,795.4],[926.5,819.3],[926.5,819.3],[921.9,825],[921.9,825],[912.4,848.8],[912.4,848.8],[895.5,878.4],[877.8,907.3],[869.9,934.6],[869.9,934.6],[851.6,948.3],[847.8,950.4],[833.7,956.8],[830.3,955.6],[830.3,955.6],[835.3,939.4],[841.9,923.8],[818.8,902.5],[802.7,873.5],[804.1,838.9],[795.7,805.9],[806,773.1],[806,773.1],[801.8,754.1],[790.1,749.6],[790.1,749.6],[782.3,724.8],[768.5,718.4],[741.6,723.8],[786.9,723.2],[830.4,724.3],[830.4,724.3],[845.2,730.6],[854.2,745],[866.3,748.9],[883,743.2],[907.1,736.2],[928,736.6],[956.3,725.4],[972.2,726.4],[957.8,720.7],[955.1,697.8],[968.1,677],[986.8,636.1],[997.3,615.2],[997.3,615.2],[1018.3,608.2],[1018.3,608.2],[1010,614.9],[1006.6,624],[998.4,643],[998.4,643],[1011.7,654.7],[1010.1,676.5],[1001.3,715.5],[988.8,726.7],[987.3,742.1],[977.2,750.9],[957.2,754.3],[978.1,729.8],[992.3,710.1],[992.3,710.1],[990,702.2],[969.9,693.7],[969.9,693.7],[982.6,652.5],[990.4,641.8],[994.6,654.4],[985,674.1],[1004.4,667.4],[1004.4,667.4],[1013.9,651.6],[1013.9,651.6],[1024.3,629.4],[1029.2,610],[1029.2,610],[1036.3,590.7],[1036.3,590.7],[1054.1,542.9],[1054.1,542.9],[1062.8,523.6],[1055.6,485.6],[1067.6,438],[1081.7,397.3],[1078.1,376.1],[1078.1,376.1],[1083.7,360.1],[1076.4,373.9],[1074.6,384.9],[1074.6,384.9],[1092.5,361.5],[1104.9,365.9],[1104.9,368.8],[1118.9,362.2],[1117.3,364.7],[1117.9,358.2],[1119,358.9],[1108.2,382.7],[1098.9,390.4],[1098.9,390.4],[1107.1,365.6],[1101,367.5],[1098.4,365.8],[1096.1,367.9],[1097.9,366],[1097.9,366],[1102.6,350.6],[1102.6,350.6],[1102.1,342.7],[1103.4,330.1],[1103.4,330.1],[1113.5,309.6],[1129.3,297.9],[1112.1,303.6],[1112.1,303.6],[1106.4,296.9],[1115.5,290.3],[1117.4,282.2],[1119.3,274.1],[1119.3,274.1],[1125.5,282.3],[1151,283.3],[1173.2,289.9],[1173.2,289.9],[1178.9,281.1],[1178.9,281.1],[1177.5,267.7],[1191.6,269.4],[1198.6,273.6],[1198.6,273.6],[1195.3,262.1],[1189.7,250.2],[1189.7,250.2],[1184.1,238.3],[1184.1,238.3],[1175.4,228.2],[1149.5,224.7],[1149.5,224.7],[1118.7,213],[1113,213.3],[1113,213.3],[1108.7,209.4],[1108.7,209.4],[1105.1,204.6],[1110,192.2],[1103.3,203.8],[1103.3,203.8],[1108.3,217.4],[1120.7,235],[1122.4,230],[1128,237.3],[1128,237.3],[1137.6,242.2],[1131.3,251.7],[1122.3,265.4],[1116.3,264.1],[1099,280.3],[1099,280.3],[1081.5,290.4],[1063.2,315.2],[1040.9,329.8],[1003.5,382.3],[1003.5,382.3],[963.9,418.4],[965.3,413.3],[967.9,427.5],[976.2,444.2],[976.2,444.2],[974.3,480.6],[1001.9,490.1],[1031.9,505.1],[1031.9,505.1],[1048.1,503.9],[1057.4,507.9],[1088.4,492],[1088.4,492],[1125.6,477.9],[1127.5,509],[1134.1,509.4],[1157.5,510.8],[1173.3,507],[1157,520.4],[1157,520.4],[1145.6,526],[1149.5,534.9],[1149.5,534.9],[1138,566.7],[1138,566.7],[1126.1,597.4],[1110.2,620.6],[1089.5,650.4],[1061.2,697.2],[1061.2,697.2],[1016.5,734.7],[994.7,757.5],[994.7,757.5],[993.7,772.8],[993.7,772.8],[985.4,797.5],[974.6,822.1],[986.4,825.2],[986.4,825.2],[1009.5,811.2],[1039,808.7],[1046.4,810.1],[1062.9,753.6],[1084.7,708.4],[1087.2,669.3],[1081.4,635],[1089.5,603.4],[1097.4,566],[1100.8,522.6],[1100.8,522.6],[1093.3,497.4],[1082.4,477.6],[1091.9,440.9],[1099.9,445.1],[1090.8,423.3],[1092.2,411.5],[1108.4,391.6],[1108.4,391.6],[1113.3,370.4],[1122.1,389.7],[1127.3,374.3],[1132.3,405.8],[1127.9,374.9],[1146.1,385.5],[1164.3,387.5],[1172.4,384.5],[1174.1,422.8],[1156.8,425.4],[1156.8,425.4],[1154.4,479.4],[1144.3,461.9],[1138.6,506.6],[1136.5,490.8],[1138.6,526.2],[1126.8,526.4],[1108.5,535.1],[1108.7,558],[1112.6,539.2],[1128,566.3],[1132.6,531.9],[1133.3,536.2],[1133.3,536.2],[1138.7,507],[1132.4,470.7],[1126.1,434.4],[1104.6,397.8],[1077.4,372.3],[1050.9,348.7],[1050.9,348.7],[1049.3,336.5],[1051.1,307.6],[1055.3,272.1],[1045.8,247.8],[1032.5,226.6],[1032.5,226.6],[1008.1,247.5],[979.8,248.9]]","[-0.142,0.42599999999999993]","[0.142,0.42599999999999993]","[0.42599999999999993,0.42599999999999993]","[-0.42599999999999993,-0.142]","[-0.42599999999999993,-0.42599999999999993]","[-0.42599999999999993,0.142]","[-0.142,-0.142]","[0.142,-0.142]","[0.42599999999999993,-0.142]","[-0.142,-0.42599999999999993]","[0.142,-0.42599999999999993]","[0.42599999999999993,-0.42599999999999993]","[-0.142,0.142]","[0.142,0.142]","[0.42599999999999993,0.142]",0,0,0,0,1,1,Laptop,20,20,7,2,70,4,2,70,4
,,,,,,,,,,,,,,,,,,,01,001,2024-11-27_13h58.39.777,Attention_exp_legacy,2023.1.0,Win32,59.88023952,,,,,,,,,,,[0.165625],[0.3925925925925926],[1],[0],[0],[2.64670000001788],"[""Metro_label""]",Metro_label,2,3.6652,"[[0.16041666666666668,0.43148148148148147],[0.16041666666666668,0.43148148148148147],[0.16041666666666668,0.43148148148148147],[0.16041666666666668,0.43148148148148147],[0.16041666666666668,0.43148148148148147],[0.16041666666666668,0.43148148148148147],[0.16041666666666668,0.43148148148148147],[0.16041666666666668,0.43148148148148147],[0.16041666666666668,0.43148148148148147],[0.16041666666666668,0.43148148148148147],[0.16041666666666668,0.43148148148148147],[0.16041666666666668,0.43148148148148147],[0.16041666666666668,0.43148148148148147],[0.16041666666666668,0.43148148148148147],[0.16041666666666668,0.43148148148148147],[0.16041666666666668,0.43148148148148147],[0.16041666666666668,0.43148148148148147],[0.16041666666666668,0.43148148148148147],[0.16041666666666668,0.43148148148148147],[0.16041666666666668,0.43148148148148147],[0.16041666666666668,0.43148148148148147],[0.16041666666666668,0.43148148148148147],[0.16041666666666668,0.43148148148148147],[0.16041666666666668,0.43148148148148147],[0.16041666666666668,0.43148148148148147],[0.16041666666666668,0.43148148148148147],[0.16041666666666668,0.43148148148148147],[0.16041666666666668,0.43148148148148147],[0.16041666666666668,0.43148148148148147],[0.16041666666666668,0.43148148148148147],[0.16041666666666668,0.43148148148148147],[0.16041666666666668,0.43148148148148147],[0.16041666666666668,0.43148148148148147],[0.16041666666666668,0.43148148148148147],[0.16041666666666668,0.43148148148148147],[0.16041666666666668,0.43148148148148147],[0.16041666666666668,0.43148148148148147],[0.16041666666666668,0.43148148148148147],[0.16041666666666668,0.43148148148148147],[0.16041666666666668,0.43148148148148147],[0.16041666666666668,0.43148148148148147],[0.16041666666666668,0.43148148148148147],[0.16041666666666668,0.43148148148148147],[0.16041666666666668,0.43148148148148147],[0.16041666666666668,0.43148148148148147],[0.16041666666666668,0.43148148148148147],[0.16041666666666668,0.43148148148148147],[0.16041666666666668,0.43148148148148147],[0.16041666666666668,0.42962962962962964],[0.16041666666666668,0.42962962962962964],[0.16041666666666668,0.42962962962962964],[0.16041666666666668,0.42962962962962964],[0.16041666666666668,0.42962962962962964],[0.15729166666666666,0.42592592592592593],[0.15625,0.42407407407407405],[0.15520833333333334,0.4203703703703704],[0.15416666666666667,0.4185185185185185],[0.15208333333333332,0.4148148148148148],[0.15104166666666666,0.4111111111111111],[0.15,0.40925925925925927],[0.14895833333333333,0.4074074074074074],[0.14895833333333333,0.40555555555555556],[0.14791666666666667,0.40555555555555556],[0.14583333333333334,0.40185185185185185],[0.14479166666666668,0.4],[0.14270833333333333,0.39444444444444443],[0.14166666666666666,0.3925925925925926],[0.140625,0.3907407407407407],[0.140625,0.3907407407407407],[0.13958333333333334,0.387037037037037],[0.13958333333333334,0.387037037037037],[0.13958333333333334,0.38333333333333336],[0.13958333333333334,0.37962962962962965],[0.13854166666666667,0.37407407407407406],[0.13854166666666667,0.37407407407407406],[0.13854166666666667,0.37222222222222223],[0.13854166666666667,0.37222222222222223],[0.13854166666666667,0.37037037037037035],[0.13854166666666667,0.37037037037037035],[0.13854166666666667,0.37037037037037035],[0.13854166666666667,0.37037037037037035],[0.13854166666666667,0.37037037037037035],[0.13854166666666667,0.37037037037037035],[0.13854166666666667,0.37037037037037035],[0.13854166666666667,0.37037037037037035],[0.13854166666666667,0.37037037037037035],[0.13854166666666667,0.37037037037037035],[0.13854166666666667,0.37037037037037035],[0.13854166666666667,0.37222222222222223],[0.13333333333333333,0.37962962962962965],[0.14270833333333333,0.36666666666666664],[0.15208333333333332,0.35185185185185186],[0.15104166666666666,0.35],[0.15104166666666666,0.35],[0.15104166666666666,0.35],[0.15104166666666666,0.35],[0.15104166666666666,0.35],[0.15104166666666666,0.35],[0.15104166666666666,0.35],[0.15104166666666666,0.35],[0.15104166666666666,0.35],[0.15104166666666666,0.35],[0.15104166666666666,0.35],[0.15104166666666666,0.35],[0.15104166666666666,0.35],[0.15104166666666666,0.35],[0.15104166666666666,0.35],[0.15104166666666666,0.35],[0.15104166666666666,0.35],[0.15104166666666666,0.35],[0.15104166666666666,0.35],[0.15104166666666666,0.35],[0.15104166666666666,0.35],[0.15104166666666666,0.35],[0.15104166666666666,0.35],[0.15104166666666666,0.35],[0.15208333333333332,0.3537037037037037],[0.15416666666666667,0.3592592592592593],[0.15520833333333334,0.362962962962963],[0.15625,0.36666666666666664],[0.15625,0.3685185185185185],[0.16041666666666668,0.37777777777777777],[0.16354166666666667,0.38333333333333336],[0.16458333333333333,0.387037037037037],[0.16458333333333333,0.387037037037037],[0.16458333333333333,0.387037037037037],[0.16458333333333333,0.387037037037037],[0.16458333333333333,0.387037037037037],[0.16458333333333333,0.387037037037037],[0.165625,0.3888888888888889],[0.165625,0.3925925925925926],[0.165625,0.3925925925925926],[0.165625,0.3925925925925926],[0.165625,0.3925925925925926],[0.165625,0.3925925925925926],[0.165625,0.3925925925925926],[0.165625,0.3925925925925926],[0.165625,0.3925925925925926],[0.165625,0.3925925925925926],[0.165625,0.3925925925925926],[0.165625,0.3925925925925926],[0.165625,0.3925925925925926],[0.165625,0.3925925925925926],[0.165625,0.3925925925925926],[0.165625,0.3925925925925926],[0.165625,0.3925925925925926],[0.165625,0.3925925925925926],[0.165625,0.3925925925925926],[0.165625,0.3925925925925926],[0.165625,0.3925925925925926],[0.165625,0.3925925925925926],[0.165625,0.3925925925925926],[0.165625,0.3925925925925926],[0.165625,0.3925925925925926],[0.165625,0.3925925925925926],[0.165625,0.3925925925925926],[0.165625,0.3925925925925926],[0.165625,0.3925925925925926],[0.165625,0.3925925925925926],[0.165625,0.3925925925925926],[0.165625,0.3925925925925926],[0.165625,0.3925925925925926],[0.165625,0.3925925925925926],[0.165625,0.3925925925925926],[0.165625,0.3925925925925926],[0.165625,0.3925925925925926],[0.165625,0.3925925925925926],[0.165625,0.3925925925925926],[0.165625,0.3925925925925926],[0.165625,0.3925925925925926],[0.165625,0.3925925925925926],[0.165625,0.3925925925925926],[0.165625,0.3925925925925926],[0.165625,0.3925925925925926],[0.165625,0.3925925925925926],[0.165625,0.3925925925925926],[0.165625,0.3925925925925926],[0.165625,0.3925925925925926],[0.165625,0.3925925925925926],[0.165625,0.3925925925925926],[0.165625,0.3925925925925926],[0.165625,0.3925925925925926],[0.165625,0.3925925925925926],[0.165625,0.3925925925925926],[0.165625,0.3925925925925926],[0.165625,0.3925925925925926],[0.165625,0.3925925925925926],[0.165625,0.3925925925925926],[0.165625,0.3925925925925926],[0.165625,0.3925925925925926],[0.165625,0.3925925925925926],[0.165625,0.3925925925925926],[0.165625,0.3925925925925926],[0.165625,0.3925925925925926],[0.165625,0.3925925925925926],[0.165625,0.3925925925925926],[0.165625,0.3925925925925926],[0.165625,0.3925925925925926],[0.165625,0.3925925925925926],[0.165625,0.3925925925925926],[0.165625,0.3925925925925926],[0.165625,0.3925925925925926],[0.165625,0.3925925925925926],[0.165625,0.3925925925925926],[0.165625,0.3925925925925926],[0.165625,0.3925925925925926],[0.165625,0.3925925925925926],[0.165625,0.3925925925925926],[0.165625,0.3925925925925926],[0.165625,0.3925925925925926],[0.165625,0.3925925925925926],[0.165625,0.3925925925925926],[0.165625,0.3925925925925926],[0.165625,0.3925925925925926],[0.165625,0.3925925925925926],[0.165625,0.3925925925925926],[0.165625,0.3925925925925926],[0.165625,0.3925925925925926],[0.165625,0.3925925925925926],[0.165625,0.3925925925925926],[0.165625,0.3925925925925926]]","[[-0.02791666666666662,-0.3066666666666667],[-0.02791666666666662,-0.3066666666666667],[-0.00916666666666662,-0.39148148148148143],[-0.025416666666666643,-0.4087037037037037],[-0.02510416666666669,-0.3940740740740741],[-0.02833333333333338,-0.36925925925925923],[-0.02020833333333331,-0.44537037037037036],[-0.019583333333333286,-0.425],[-0.013437499999999976,-0.45925925925925926],[-0.00458333333333331,-0.42981481481481487],[0.0010416666666666667,-0.5027777777777778],[0.004166666666666667,-0.53],[0.013645833333333357,-0.5814814814814815],[0.014999999999999977,-0.6311111111111112],[0.025312499999999953,-0.7514814814814815],[0.05562499999999997,-0.8605555555555555],[0.06156250000000003,-0.8575925925925927],[0.0671875,-0.9092592592592592],[0.0671875,-0.9092592592592592],[0.07291666666666667,-0.8711111111111111],[0.08812499999999991,-0.892037037037037],[0.08677083333333328,-0.9033333333333333],[0.1046875,-0.932962962962963],[0.10791666666666658,-0.9246296296296297],[0.11979166666666667,-0.9072222222222222],[0.11979166666666667,-0.9072222222222222],[0.1212500000000001,-0.8881481481481482],[0.11458333333333333,-0.8629629629629629],[0.11822916666666666,-0.8603703703703705],[0.1345833333333334,-0.8288888888888889],[0.15093750000000009,-0.7974074074074075],[0.15093750000000009,-0.7974074074074075],[0.1544791666666666,-0.7955555555555556],[0.1578125,-0.7025925925925925],[0.16614583333333333,-0.6129629629629629],[0.18083333333333323,-0.5301851851851852],[0.1955208333333334,-0.4474074074074075],[0.22197916666666656,-0.39740740740740743],[0.24427083333333333,-0.3496296296296296],[0.26541666666666663,-0.2855555555555555],[0.26760416666666675,-0.222037037037037],[0.2847916666666668,-0.259074074074074],[0.3026041666666667,-0.2711111111111111],[0.3026041666666667,-0.2711111111111111],[0.30666666666666675,-0.3248148148148148],[0.30666666666666675,-0.3248148148148148],[0.2911458333333333,-0.36148148148148146],[0.27999999999999997,-0.4251851851851852],[0.26437499999999997,-0.46888888888888886],[0.26437499999999997,-0.46888888888888886],[0.2539583333333333,-0.497037037037037],[0.2415625000000001,-0.5438888888888889],[0.2303124999999999,-0.607037037037037],[0.22302083333333325,-0.6283333333333333],[0.22302083333333325,-0.6283333333333333],[0.2022916666666667,-0.5822222222222222],[0.16354166666666667,-0.528888888888889],[0.16354166666666667,-0.528888888888889],[0.12270833333333328,-0.4898148148148148],[0.10250000000000009,-0.49833333333333335],[0.10250000000000009,-0.49833333333333335],[0.09177083333333323,-0.47481481481481475],[0.07843749999999995,-0.4418518518518519],[0.05270833333333336,-0.4003703703703704],[0.05270833333333336,-0.4003703703703704],[0.03156249999999995,-0.3285185185185185],[0.027291666666666714,-0.27388888888888885],[0.027291666666666714,-0.27388888888888885],[0.03218749999999997,-0.3085185185185186],[0.025833333333333285,-0.2553703703703703],[0.025833333333333285,-0.2553703703703703],[0.02520833333333338,-0.2490740740740741],[0.04541666666666669,-0.22777777777777777],[0.05677083333333333,-0.17240740740740745],[0.050416666666666644,-0.16518518518518516],[0.050416666666666644,-0.16518518518518516],[0.03760416666666669,-0.16777777777777783],[0.03760416666666669,-0.16777777777777783],[0.03354166666666671,-0.20111111111111116],[0.03354166666666671,-0.20111111111111116],[0.03166666666666664,-0.22814814814814813],[0.03166666666666664,-0.22814814814814813],[0.011249999999999953,-0.20166666666666663],[-0.03583333333333331,-0.1766666666666666],[-0.057083333333333285,-0.22111111111111106],[-0.09895833333333333,-0.207962962962963],[-0.11802083333333328,-0.192037037037037],[-0.14020833333333335,-0.2044444444444444],[-0.14020833333333335,-0.2044444444444444],[-0.15135416666666662,-0.15092592592592594],[-0.12760416666666666,-0.16500000000000004],[-0.12760416666666666,-0.16500000000000004],[-0.11541666666666663,-0.13129629629629624],[-0.10687500000000003,-0.10777777777777775],[-0.09739583333333333,-0.15481481481481485],[-0.06270833333333338,-0.14759259259259258],[-0.06270833333333338,-0.14759259259259258],[-0.04604166666666672,-0.15407407407407406],[0.020937500000000022,-0.18407407407407403],[0.04041666666666662,-0.14518518518518514],[0.103125,-0.16259259259259262],[0.14958333333333323,-0.22037037037037038],[0.17468750000000005,-0.23018518518518521],[0.17468750000000005,-0.23018518518518521],[0.20864583333333328,-0.20629629629629626],[0.20864583333333328,-0.20629629629629626],[0.22520833333333337,-0.16500000000000004],[0.22520833333333337,-0.16500000000000004],[0.2607291666666666,-0.13629629629629633],[0.30406250000000007,-0.14018518518518516],[0.3492708333333333,-0.11555555555555551],[0.3492708333333333,-0.11555555555555551],[0.3792708333333332,-0.10870370370370368],[0.3970833333333334,-0.11833333333333329],[0.39395833333333335,-0.11814814814814817],[0.4006249999999999,-0.1403703703703704],[0.40729166666666666,-0.16259259259259262],[0.3870833333333332,-0.2205555555555556],[0.3835416666666667,-0.302962962962963],[0.3888541666666666,-0.3396296296296296],[0.3888541666666666,-0.3396296296296296],[0.35906250000000006,-0.3727777777777778],[0.33541666666666664,-0.40425925925925926],[0.30666666666666675,-0.4359259259259259],[0.303125,-0.44833333333333336],[0.2751041666666666,-0.4542592592592593],[0.24479166666666666,-0.4324074074074074],[0.21906249999999997,-0.3877777777777777],[0.21906249999999997,-0.3877777777777777],[0.21729166666666658,-0.3490740740740741],[0.2103125000000001,-0.37592592592592594],[0.18385416666666668,-0.35462962962962963],[0.17177083333333343,-0.30833333333333335],[0.14645833333333325,-0.24259259259259258],[0.12614583333333323,-0.16129629629629633],[0.08854166666666667,-0.1868518518518518],[0.059062500000000046,-0.14425925925925923],[0.059062500000000046,-0.14425925925925923],[0.059687499999999956,-0.09685185185185187],[0.06333333333333328,-0.1574074074074074],[0.07614583333333323,-0.16629629629629633],[0.08677083333333328,-0.09296296296296294],[0.08979166666666671,-0.06666666666666667],[0.10458333333333343,-0.16129629629629633],[0.12645833333333342,-0.2770370370370371],[0.14229166666666657,-0.35185185185185186],[0.1834374999999999,-0.45499999999999996],[0.2303124999999999,-0.5377777777777777],[0.24958333333333324,-0.6401851851851852],[0.2685416666666666,-0.6833333333333333],[0.27312500000000006,-0.7646296296296295],[0.2765625,-0.8022222222222222],[0.2798958333333334,-0.8640740740740741],[0.2856250000000001,-0.8124074074074074],[0.2942708333333333,-0.7859259259259259],[0.30364583333333334,-0.7470370370370369],[0.29187500000000005,-0.7188888888888889],[0.2821875000000001,-0.6972222222222222],[0.2700000000000001,-0.6607407407407407],[0.2335416666666667,-0.5655555555555555],[0.2022916666666667,-0.4838888888888889],[0.18677083333333327,-0.38259259259259265],[0.1586458333333333,-0.3396296296296296],[0.1560416666666666,-0.2511111111111112],[0.1560416666666666,-0.2511111111111112],[0.13270833333333343,-0.25333333333333335],[0.1209374999999999,-0.305],[0.12468750000000005,-0.3118518518518518],[0.1118750000000001,-0.27555555555555555],[0.10020833333333339,-0.2838888888888889],[0.10552083333333329,-0.325],[0.1099999999999999,-0.3248148148148148],[0.1099999999999999,-0.3248148148148148],[0.09364583333333343,-0.3731481481481482],[0.10729166666666666,-0.4209259259259259],[0.07520833333333338,-0.4214814814814815],[0.07333333333333343,-0.39518518518518514],[0.06145833333333333,-0.31925925925925924],[0.059583333333333384,-0.2855555555555555],[0.05666666666666664,-0.2814814814814815],[0.04697916666666669,-0.20925925925925926],[0.04697916666666669,-0.20925925925925926],[0.04125000000000002,-0.11444444444444446],[0.036145833333333384,-0.05499999999999998],[0.04385416666666669,-0.010740740740740657],[0.03854166666666667,0.09648148148148153],[0.059375,0.12481481481481477],[0.06291666666666665,0.15777777777777785],[0.06812500000000009,0.14518518518518514],[0.06541666666666662,0.17629629629629637],[0.07572916666666671,0.1737037037037036],[0.09562499999999995,0.1300000000000001],[0.12010416666666662,0.04222222222222214],[0.13479166666666675,-0.04537037037037037],[0.14989583333333342,-0.15],[0.15229166666666671,-0.20259259259259255],[0.15166666666666656,-0.3303703703703703],[0.11875,-0.3490740740740741],[0.08583333333333343,-0.3677777777777778],[0.04583333333333333,-0.37648148148148153],[0.003541666666666643,-0.39222222222222225],[-0.036145833333333384,-0.38740740740740737],[-0.084375,-0.3611111111111111],[-0.11177083333333329,-0.3140740740740741],[-0.15052083333333333,-0.32518518518518524],[-0.19197916666666662,-0.3022222222222222],[-0.24083333333333337,-0.2014814814814815],[-0.2573958333333334,-0.14333333333333328],[-0.27395833333333336,-0.08518518518518518],[-0.27802083333333333,-0.08592592592592588],[-0.2919791666666666,-0.06148148148148146],[-0.3047916666666667,-0.03259259259259263],[-0.3185416666666666,-0.034444444444444486],[-0.34312499999999996,-0.06314814814814819],[-0.3611458333333334,-0.030740740740740784],[-0.3572916666666667,-0.06370370370370367],[-0.3572916666666667,-0.06370370370370367],[-0.35093749999999996,-0.1359259259259259],[-0.33479166666666665,-0.17],[-0.3241666666666667,-0.2088888888888889],[-0.31052083333333336,-0.19018518518518515]]","[[-0.02791666666666662,-0.3066666666666667,0.00009999999403476068],[-0.02791666666666662,-0.3066666666666667,0.012200000017877244],[-0.00916666666666662,-0.39148148148148143,0.02870000001787787],[-0.025416666666666643,-0.4087037037037037,0.04670000001787855],[-0.02510416666666669,-0.3940740740740741,0.06349999999999767],[-0.02833333333333338,-0.36925925925925923,0.08240000000596126],[-0.02020833333333331,-0.44537037037037036,0.10030000001192008],[-0.019583333333333286,-0.425,0.11530000001192064],[-0.013437499999999976,-0.45925925925925926,0.13180000001192127],[-0.00458333333333331,-0.42981481481481487,0.15090000000595438],[0.0010416666666666667,-0.5027777777777778,0.16659999999403396],[0.004166666666666667,-0.53,0.18220000001787895],[0.013645833333333357,-0.5814814814814815,0.1989000000059562],[0.014999999999999977,-0.6311111111111112,0.21420000001787542],[0.025312499999999953,-0.7514814814814815,0.22880000001191547],[0.05562499999999997,-0.8605555555555555,0.24899999999999523],[0.06156250000000003,-0.8575925925925927,0.26520000001787736],[0.0671875,-0.9092592592592592,0.2805999999940383],[0.0671875,-0.9092592592592592,0.295499999999997],[0.07291666666666667,-0.8711111111111111,0.3122000000178815],[0.08812499999999991,-0.892037037037037,0.3325999999940379],[0.08677083333333328,-0.9033333333333333,0.34830000001191763],[0.1046875,-0.932962962962963,0.3663000000119183],[0.10791666666666658,-0.9246296296296297,0.38190000000595603],[0.11979166666666667,-0.9072222222222222,0.4017000000178754],[0.11979166666666667,-0.9072222222222222,0.41199999999999903],[0.1212500000000001,-0.8881481481481482,0.42870000001787645],[0.11458333333333333,-0.8629629629629629,0.4458000000119213],[0.11822916666666666,-0.8603703703703705,0.4629000000059591],[0.1345833333333334,-0.8288888888888889,0.47880000001191547],[0.15093750000000009,-0.7974074074074075,0.4994999999999976],[0.15093750000000009,-0.7974074074074075,0.5120000000000005],[0.1544791666666666,-0.7955555555555556,0.5288000000119197],[0.1578125,-0.7025925925925925,0.5467000000178786],[0.16614583333333333,-0.6129629629629629,0.5620999999940395],[0.18083333333333323,-0.5301851851851852,0.5820000000000007],[0.1955208333333334,-0.4474074074074075,0.5984000000059595],[0.22197916666666656,-0.39740740740740743,0.6154000000059554],[0.24427083333333333,-0.3496296296296296,0.631200000017877],[0.26541666666666663,-0.2855555555555555,0.6498000000119148],[0.26760416666666675,-0.222037037037037,0.665900000005955],[0.2847916666666668,-0.259074074074074,0.6819000000059603],[0.3026041666666667,-0.2711111111111111,0.6998000000119191],[0.3026041666666667,-0.2711111111111111,0.7129000000059591],[0.30666666666666675,-0.3248148148148148,0.7288000000119155],[0.30666666666666675,-0.3248148148148148,0.7454999999999998],[0.2911458333333333,-0.36148148148148146,0.7620999999940352],[0.27999999999999997,-0.4251851851851852,0.7787000000178779],[0.26437499999999997,-0.46888888888888886,0.8019999999999996],[0.26437499999999997,-0.46888888888888886,0.8119999999999976],[0.2539583333333333,-0.497037037037037,0.8287000000178821],[0.2415625000000001,-0.5438888888888889,0.8479000000059571],[0.2303124999999999,-0.607037037037037,0.8658000000119159],[0.22302083333333325,-0.6283333333333333,0.8854000000059585],[0.22302083333333325,-0.6283333333333333,0.8957000000178752],[0.2022916666666667,-0.5822222222222222,0.9123000000119177],[0.16354166666666667,-0.528888888888889,0.9289000000059602],[0.16354166666666667,-0.528888888888889,0.9484999999999957],[0.12270833333333328,-0.4898148148148148,0.9622000000178801],[0.10250000000000009,-0.49833333333333335,0.9789000000059573],[0.10250000000000009,-0.49833333333333335,1.0010999999940395],[0.09177083333333323,-0.47481481481481475,1.012300000011919],[0.07843749999999995,-0.4418518518518519,1.0338000000119152],[0.05270833333333336,-0.4003703703703704,1.0519999999999996],[0.05270833333333336,-0.4003703703703704,1.0623000000119163],[0.03156249999999995,-0.3285185185185185,1.0790000000000006],[0.027291666666666714,-0.27388888888888885,1.102599999994034],[0.027291666666666714,-0.27388888888888885,1.1123000000119205],[0.03218749999999997,-0.3085185185185186,1.1287000000178793],[0.025833333333333285,-0.2553703703703703,1.1518000000119173],[0.025833333333333285,-0.2553703703703703,1.1620999999940338],[0.02520833333333338,-0.2490740740740741,1.1788000000119183],[0.04541666666666669,-0.22777777777777777,1.1958000000119213],[0.05677083333333333,-0.17240740740740745,1.215300000011915],[0.050416666666666644,-0.16518518518518516,1.234599999994039],[0.050416666666666644,-0.16518518518518516,1.2455999999940346],[0.03760416666666669,-0.16777777777777783,1.2620999999940352],[0.03760416666666669,-0.16777777777777783,1.2818000000119198],[0.03354166666666671,-0.20111111111111116,1.2955999999940389],[0.03354166666666671,-0.20111111111111116,1.319499999999998],[0.03166666666666664,-0.22814814814814813,1.3397000000178778],[0.03166666666666664,-0.22814814814814813,1.3462000000178804],[0.011249999999999953,-0.20166666666666663,1.3619999999999948],[-0.03583333333333331,-0.1766666666666666,1.3787000000178793],[-0.057083333333333285,-0.22111111111111106,1.3954000000059565],[-0.09895833333333333,-0.207962962962963,1.4145999999940386],[-0.11802083333333328,-0.192037037037037,1.4312000000178813],[-0.14020833333333335,-0.2044444444444444,1.4455999999940374],[-0.14020833333333335,-0.2044444444444444,1.4648000000119197],[-0.15135416666666662,-0.15092592592592594,1.4789999999999992],[-0.12760416666666666,-0.16500000000000004,1.4989000000059605],[-0.12760416666666666,-0.16500000000000004,1.5143000000119216],[-0.11541666666666663,-0.13129629629629624,1.5289999999999964],[-0.10687500000000003,-0.10777777777777775,1.5454000000059551],[-0.09739583333333333,-0.15481481481481485,1.5620999999940395],[-0.06270833333333338,-0.14759259259259258,1.5823000000119194],[-0.06270833333333338,-0.14759259259259258,1.595700000017878],[-0.04604166666666672,-0.15407407407407406,1.6119999999999948],[0.020937500000000022,-0.18407407407407403,1.6294000000059583],[0.04041666666666662,-0.14518518518518514,1.6454000000059565],[0.103125,-0.16259259259259262,1.6654000000059597],[0.14958333333333323,-0.22037037037037038,1.6793000000119207],[0.17468750000000005,-0.23018518518518521,1.6954000000059608],[0.17468750000000005,-0.23018518518518521,1.7123000000119148],[0.20864583333333328,-0.20629629629629626,1.7287000000178807],[0.20864583333333328,-0.20629629629629626,1.7454999999999998],[0.22520833333333337,-0.16500000000000004,1.7620000000000005],[0.22520833333333337,-0.16500000000000004,1.7788000000119197],[0.2607291666666666,-0.13629629629629633,1.7954000000059551],[0.30406250000000007,-0.14018518518518516,1.8122000000178815],[0.3492708333333333,-0.11555555555555551,1.8323000000119194],[0.3492708333333333,-0.11555555555555551,1.8454999999999941],[0.3792708333333332,-0.10870370370370368,1.8620999999940366],[0.3970833333333334,-0.11833333333333329,1.8800999999940373],[0.39395833333333335,-0.11814814814814817,1.8953000000119218],[0.4006249999999999,-0.1403703703703704,1.915099999994034],[0.40729166666666666,-0.16259259259259262,1.932200000017879],[0.3870833333333332,-0.2205555555555556,1.9480999999940352],[0.3835416666666667,-0.302962962962963,1.9654999999999987],[0.3888541666666666,-0.3396296296296296,1.9857000000178786],[0.3888541666666666,-0.3396296296296296,1.9959999999999951],[0.35906250000000006,-0.3727777777777778,2.012099999994035],[0.33541666666666664,-0.40425925925925926,2.0294999999999987],[0.30666666666666675,-0.4359259259259259,2.0474999999999994],[0.303125,-0.44833333333333336,2.0619999999999976],[0.2751041666666666,-0.4542592592592593,2.0820999999940355],[0.24479166666666666,-0.4324074074074074,2.0982000000178758],[0.21906249999999997,-0.3877777777777777,2.115200000017879],[0.21906249999999997,-0.3877777777777777,2.1285999999940373],[0.21729166666666658,-0.3490740740740741,2.1500999999940333],[0.2103125000000001,-0.37592592592592594,2.1663000000119155],[0.18385416666666668,-0.35462962962962963,2.1812000000178813],[0.17177083333333343,-0.30833333333333335,2.199200000017882],[0.14645833333333325,-0.24259259259259258,2.2149000000059544],[0.12614583333333323,-0.16129629629629633,2.229200000017876],[0.08854166666666667,-0.1868518518518518,2.2482000000178815],[0.059062500000000046,-0.14425925925925923,2.2637000000178773],[0.059062500000000046,-0.14425925925925923,2.2788000000119197],[0.059687499999999956,-0.09685185185185187,2.295400000005955],[0.06333333333333328,-0.1574074074074074,2.3120999999940395],[0.07614583333333323,-0.16629629629629633,2.331900000005959],[0.08677083333333328,-0.09296296296296294,2.3465999999940337],[0.08979166666666671,-0.06666666666666667,2.3662000000178764],[0.10458333333333343,-0.16129629629629633,2.381900000005956],[0.12645833333333342,-0.2770370370370371,2.4000999999940333],[0.14229166666666657,-0.35185185185185186,2.41580000001192],[0.1834374999999999,-0.45499999999999996,2.4317000000178766],[0.2303124999999999,-0.5377777777777777,2.4472000000178795],[0.24958333333333324,-0.6401851851851852,2.4625999999940333],[0.2685416666666666,-0.6833333333333333,2.4788000000119155],[0.27312500000000006,-0.7646296296296295,2.4998000000119163],[0.2765625,-0.8022222222222222,2.515499999999996],[0.2798958333333334,-0.8640740740740741,2.5322000000178804],[0.2856250000000001,-0.8124074074074074,2.547700000017876],[0.2942708333333333,-0.7859259259259259,2.562400000005958],[0.30364583333333334,-0.7470370370370369,2.5822000000178775],[0.29187500000000005,-0.7188888888888889,2.597999999999999],[0.2821875000000001,-0.6972222222222222,2.615200000017879],[0.2700000000000001,-0.6607407407407407,2.6314999999999955],[0.2335416666666667,-0.5655555555555555,2.649800000011915],[0.2022916666666667,-0.4838888888888889,2.66580000001192],[0.18677083333333327,-0.38259259259259265,2.681999999999995],[0.1586458333333333,-0.3396296296296296,2.6984999999999957],[0.1560416666666666,-0.2511111111111112,2.715099999994038],[0.1560416666666666,-0.2511111111111112,2.7340999999940365],[0.13270833333333343,-0.25333333333333335,2.7455999999940346],[0.1209374999999999,-0.305,2.7620000000000005],[0.12468750000000005,-0.3118518518518518,2.778599999994036],[0.1118750000000001,-0.27555555555555555,2.7974000000059576],[0.10020833333333339,-0.2838888888888889,2.8160999999940373],[0.10552083333333329,-0.325,2.8324000000059613],[0.1099999999999999,-0.3248148148148148,2.8475999999940385],[0.1099999999999999,-0.3248148148148148,2.8619999999999948],[0.09364583333333343,-0.3731481481481482,2.878800000011921],[0.10729166666666666,-0.4209259259259259,2.895300000011922],[0.07520833333333338,-0.4214814814814815,2.9147000000178807],[0.07333333333333343,-0.39518518518518514,2.9285999999940344],[0.06145833333333333,-0.31925925925925924,2.945400000005961],[0.059583333333333384,-0.2855555555555555,2.961999999999996],[0.05666666666666664,-0.2814814814814815,2.9787000000178807],[0.04697916666666669,-0.20925925925925926,2.9994999999999976],[0.04697916666666669,-0.20925925925925926,3.012099999994035],[0.04125000000000002,-0.11444444444444446,3.028700000017878],[0.036145833333333384,-0.05499999999999998,3.045499999999997],[0.04385416666666669,-0.010740740740740657,3.0619999999999976],[0.03854166666666667,0.09648148148148153,3.081900000005959],[0.059375,0.12481481481481477,3.0984999999999943],[0.06291666666666665,0.15777777777777785,3.1150999999940368],[0.06812500000000009,0.14518518518518514,3.1309000000059584],[0.06541666666666662,0.17629629629629637,3.1454000000059565],[0.07572916666666671,0.1737037037037036,3.1662000000178807],[0.09562499999999995,0.1300000000000001,3.1819000000059603],[0.12010416666666662,0.04222222222222214,3.198400000005961],[0.13479166666666675,-0.04537037037037037,3.2148000000119197],[0.14989583333333342,-0.15,3.2340999999940365],[0.15229166666666671,-0.20259259259259255,3.2482000000178815],[0.15166666666666656,-0.3303703703703703,3.2640999999940377],[0.11875,-0.3490740740740741,3.2813000000119175],[0.08583333333333343,-0.3677777777777778,3.297800000011918],[0.04583333333333333,-0.37648148148148153,3.317200000017877],[0.003541666666666643,-0.39222222222222225,3.33270000001788],[-0.036145833333333384,-0.38740740740740737,3.3480999999940337],[-0.084375,-0.3611111111111111,3.365200000017879],[-0.11177083333333329,-0.3140740740740741,3.3800999999940373],[-0.15052083333333333,-0.32518518518518524,3.3970999999940403],[-0.19197916666666662,-0.3022222222222222,3.4155999999940363],[-0.24083333333333337,-0.2014814814814815,3.433],[-0.2573958333333334,-0.14333333333333328,3.448900000005956],[-0.27395833333333336,-0.08518518518518518,3.464599999994036],[-0.27802083333333333,-0.08592592592592588,3.4800999999940387],[-0.2919791666666666,-0.06148148148148146,3.4998000000119163],[-0.3047916666666667,-0.03259259259259263,3.5157000000178797],[-0.3185416666666666,-0.034444444444444486,3.5327000000178757],[-0.34312499999999996,-0.06314814814814819,3.547800000011918],[-0.3611458333333334,-0.030740740740740784,3.566300000011921],[-0.3572916666666667,-0.06370370370370367,3.582800000011922],[-0.3572916666666667,-0.06370370370370367,3.595700000017878],[-0.35093749999999996,-0.1359259259259259,3.6119999999999948],[-0.33479166666666665,-0.17,3.6305999999940397],[-0.3241666666666667,-0.2088888888888889,3.649499999999996],[-0.31052083333333336,-0.19018518518518515,3.665200000017876]]","[0.00009999999403476068,0.012200000017877244,0.02870000001787787,0.04670000001787855,0.06349999999999767,0.08240000000596126,0.10030000001192008,0.11530000001192064,0.13180000001192127,0.15090000000595438,0.16659999999403396,0.18220000001787895,0.1989000000059562,0.21420000001787542,0.22880000001191547,0.24899999999999523,0.26520000001787736,0.2805999999940383,0.295499999999997,0.3122000000178815,0.3325999999940379,0.34830000001191763,0.3663000000119183,0.38190000000595603,0.4017000000178754,0.41199999999999903,0.42870000001787645,0.4458000000119213,0.4629000000059591,0.47880000001191547,0.4994999999999976,0.5120000000000005,0.5288000000119197,0.5467000000178786,0.5620999999940395,0.5820000000000007,0.5984000000059595,0.6154000000059554,0.631200000017877,0.6498000000119148,0.665900000005955,0.6819000000059603,0.6998000000119191,0.7129000000059591,0.7288000000119155,0.7454999999999998,0.7620999999940352,0.7787000000178779,0.8019999999999996,0.8119999999999976,0.8287000000178821,0.8479000000059571,0.8658000000119159,0.8854000000059585,0.8957000000178752,0.9123000000119177,0.9289000000059602,0.9484999999999957,0.9622000000178801,0.9789000000059573,1.0010999999940395,1.012300000011919,1.0338000000119152,1.0519999999999996,1.0623000000119163,1.0790000000000006,1.102599999994034,1.1123000000119205,1.1287000000178793,1.1518000000119173,1.1620999999940338,1.1788000000119183,1.1958000000119213,1.215300000011915,1.234599999994039,1.2455999999940346,1.2620999999940352,1.2818000000119198,1.2955999999940389,1.319499999999998,1.3397000000178778,1.3462000000178804,1.3619999999999948,1.3787000000178793,1.3954000000059565,1.4145999999940386,1.4312000000178813,1.4455999999940374,1.4648000000119197,1.4789999999999992,1.4989000000059605,1.5143000000119216,1.5289999999999964,1.5454000000059551,1.5620999999940395,1.5823000000119194,1.595700000017878,1.6119999999999948,1.6294000000059583,1.6454000000059565,1.6654000000059597,1.6793000000119207,1.6954000000059608,1.7123000000119148,1.7287000000178807,1.7454999999999998,1.7620000000000005,1.7788000000119197,1.7954000000059551,1.8122000000178815,1.8323000000119194,1.8454999999999941,1.8620999999940366,1.8800999999940373,1.8953000000119218,1.915099999994034,1.932200000017879,1.9480999999940352,1.9654999999999987,1.9857000000178786,1.9959999999999951,2.012099999994035,2.0294999999999987,2.0474999999999994,2.0619999999999976,2.0820999999940355,2.0982000000178758,2.115200000017879,2.1285999999940373,2.1500999999940333,2.1663000000119155,2.1812000000178813,2.199200000017882,2.2149000000059544,2.229200000017876,2.2482000000178815,2.2637000000178773,2.2788000000119197,2.295400000005955,2.3120999999940395,2.331900000005959,2.3465999999940337,2.3662000000178764,2.381900000005956,2.4000999999940333,2.41580000001192,2.4317000000178766,2.4472000000178795,2.4625999999940333,2.4788000000119155,2.4998000000119163,2.515499999999996,2.5322000000178804,2.547700000017876,2.562400000005958,2.5822000000178775,2.597999999999999,2.615200000017879,2.6314999999999955,2.649800000011915,2.66580000001192,2.681999999999995,2.6984999999999957,2.715099999994038,2.7340999999940365,2.7455999999940346,2.7620000000000005,2.778599999994036,2.7974000000059576,2.8160999999940373,2.8324000000059613,2.8475999999940385,2.8619999999999948,2.878800000011921,2.895300000011922,2.9147000000178807,2.9285999999940344,2.945400000005961,2.961999999999996,2.9787000000178807,2.9994999999999976,3.012099999994035,3.028700000017878,3.045499999999997,3.0619999999999976,3.081900000005959,3.0984999999999943,3.1150999999940368,3.1309000000059584,3.1454000000059565,3.1662000000178807,3.1819000000059603,3.198400000005961,3.2148000000119197,3.2340999999940365,3.2482000000178815,3.2640999999940377,3.2813000000119175,3.297800000011918,3.317200000017877,3.33270000001788,3.3480999999940337,3.365200000017879,3.3800999999940373,3.3970999999940403,3.4155999999940363,3.433,3.448900000005956,3.464599999994036,3.4800999999940387,3.4998000000119163,3.5157000000178797,3.5327000000178757,3.547800000011918,3.566300000011921,3.582800000011922,3.595700000017878,3.6119999999999948,3.6305999999940397,3.649499999999996,3.665200000017876]","[1732687167802,1732687167811,1732687167827,1732687167845,1732687167862,1732687167881,1732687167899,1732687167914,1732687167931,1732687167950,1732687167965,1732687167981,1732687167998,1732687168013,1732687168028,1732687168048,1732687168064,1732687168079,1732687168094,1732687168111,1732687168131,1732687168147,1732687168165,1732687168181,1732687168200,1732687168211,1732687168227,1732687168245,1732687168262,1732687168277,1732687168298,1732687168311,1732687168327,1732687168345,1732687168361,1732687168381,1732687168397,1732687168414,1732687168430,1732687168449,1732687168465,1732687168481,1732687168499,1732687168512,1732687168528,1732687168544,1732687168561,1732687168577,1732687168601,1732687168611,1732687168627,1732687168647,1732687168665,1732687168684,1732687168694,1732687168711,1732687168728,1732687168747,1732687168761,1732687168778,1732687168800,1732687168811,1732687168833,1732687168851,1732687168861,1732687168878,1732687168901,1732687168911,1732687168928,1732687168951,1732687168961,1732687168978,1732687168995,1732687169014,1732687169033,1732687169044,1732687169061,1732687169081,1732687169094,1732687169118,1732687169138,1732687169145,1732687169161,1732687169177,1732687169194,1732687169213,1732687169230,1732687169244,1732687169263,1732687169278,1732687169298,1732687169313,1732687169328,1732687169344,1732687169361,1732687169381,1732687169394,1732687169411,1732687169428,1732687169444,1732687169464,1732687169478,1732687169494,1732687169511,1732687169527,1732687169544,1732687169561,1732687169578,1732687169594,1732687169611,1732687169631,1732687169644,1732687169661,1732687169679,1732687169694,1732687169714,1732687169731,1732687169747,1732687169764,1732687169784,1732687169795,1732687169811,1732687169828,1732687169846,1732687169861,1732687169881,1732687169897,1732687169914,1732687169927,1732687169949,1732687169965,1732687169980,1732687169998,1732687170014,1732687170028,1732687170047,1732687170062,1732687170078,1732687170094,1732687170111,1732687170131,1732687170145,1732687170165,1732687170181,1732687170199,1732687170215,1732687170230,1732687170246,1732687170261,1732687170278,1732687170299,1732687170314,1732687170331,1732687170346,1732687170361,1732687170381,1732687170397,1732687170414,1732687170430,1732687170449,1732687170465,1732687170481,1732687170497,1732687170514,1732687170533,1732687170544,1732687170561,1732687170577,1732687170596,1732687170615,1732687170631,1732687170646,1732687170661,1732687170678,1732687170694,1732687170713,1732687170727,1732687170744,1732687170761,1732687170777,1732687170798,1732687170811,1732687170827,1732687170844,1732687170861,1732687170881,1732687170897,1732687170914,1732687170930,1732687170944,1732687170965,1732687170981,1732687170997,1732687171014,1732687171033,1732687171047,1732687171063,1732687171080,1732687171097,1732687171116,1732687171131,1732687171147,1732687171164,1732687171179,1732687171196,1732687171214,1732687171232,1732687171248,1732687171263,1732687171279,1732687171299,1732687171314,1732687171331,1732687171346,1732687171365,1732687171382,1732687171394,1732687171411,1732687171429,1732687171448,1732687171464]","[[933.2,374.4],[933.2,374.4],[951.2,328.6],[935.6,319.3],[935.9,327.2],[932.8,340.6],[940.6,299.5],[941.2,310.5],[947.1,292],[955.6,307.9],[961,268.5],[964,253.8],[973.1,226],[974.4,199.2],[984.3,134.2],[1013.4,75.3],[1019.1,76.9],[1024.5,49],[1024.5,49],[1030,69.6],[1044.6,58.3],[1043.3,52.2],[1060.5,36.2],[1063.6,40.7],[1075,50.1],[1075,50.1],[1076.4,60.4],[1070,74],[1073.5,75.4],[1089.2,92.4],[1104.9,109.4],[1104.9,109.4],[1108.3,110.4],[1111.5,160.6],[1119.5,209],[1133.6,253.7],[1147.7,298.4],[1173.1,325.4],[1194.5,351.2],[1214.8,385.8],[1216.9,420.1],[1233.4,400.1],[1250.5,393.6],[1250.5,393.6],[1254.4,364.6],[1254.4,364.6],[1239.5,344.8],[1228.8,310.4],[1213.8,286.8],[1213.8,286.8],[1203.8,271.6],[1191.9,246.3],[1181.1,212.2],[1174.1,200.7],[1174.1,200.7],[1154.2,225.6],[1117,254.4],[1117,254.4],[1077.8,275.5],[1058.4,270.9],[1058.4,270.9],[1048.1,283.6],[1035.3,301.4],[1010.6,323.8],[1010.6,323.8],[990.3,362.6],[986.2,392.1],[986.2,392.1],[990.9,373.4],[984.8,402.1],[984.8,402.1],[984.2,405.5],[1003.6,417],[1014.5,446.9],[1008.4,450.8],[1008.4,450.8],[996.1,449.4],[996.1,449.4],[992.2,431.4],[992.2,431.4],[990.4,416.8],[990.4,416.8],[970.8,431.1],[925.6,444.6],[905.2,420.6],[865,427.7],[846.7,436.3],[825.4,429.6],[825.4,429.6],[814.7,458.5],[837.5,450.9],[837.5,450.9],[849.2,469.1],[857.4,481.8],[866.5,456.4],[899.8,460.3],[899.8,460.3],[915.8,456.8],[980.1,440.6],[998.8,461.6],[1059,452.2],[1103.6,421],[1127.7,415.7],[1127.7,415.7],[1160.3,428.6],[1160.3,428.6],[1176.2,450.9],[1176.2,450.9],[1210.3,466.4],[1251.9,464.3],[1295.3,477.6],[1295.3,477.6],[1324.1,481.3],[1341.2,476.1],[1338.2,476.2],[1344.6,464.2],[1351,452.2],[1331.6,420.9],[1328.2,376.4],[1333.3,356.6],[1333.3,356.6],[1304.7,338.7],[1282,321.7],[1254.4,304.6],[1251,297.9],[1224.1,294.7],[1195,306.5],[1170.3,330.6],[1170.3,330.6],[1168.6,351.5],[1161.9,337],[1136.5,348.5],[1124.9,373.5],[1100.6,409],[1081.1,452.9],[1045,439.1],[1016.7,462.1],[1016.7,462.1],[1017.3,487.7],[1020.8,455],[1033.1,450.2],[1043.3,489.8],[1046.2,504],[1060.4,452.9],[1081.4,390.4],[1096.6,350],[1136.1,294.3],[1181.1,249.6],[1199.6,194.3],[1217.8,171],[1222.2,127.1],[1225.5,106.8],[1228.7,73.4],[1234.2,101.3],[1242.5,115.6],[1251.5,136.6],[1240.2,151.8],[1230.9,163.5],[1219.2,183.2],[1184.2,234.6],[1154.2,278.7],[1139.3,333.4],[1112.3,356.6],[1109.8,404.4],[1109.8,404.4],[1087.4,403.2],[1076.1,375.3],[1079.7,371.6],[1067.4,391.2],[1056.2,386.7],[1061.3,364.5],[1065.6,364.6],[1065.6,364.6],[1049.9,338.5],[1063,312.7],[1032.2,312.4],[1030.4,326.6],[1019,367.6],[1017.2,385.8],[1014.4,388],[1005.1,427],[1005.1,427],[999.6,478.2],[994.7,510.3],[1002.1,534.2],[997,592.1],[1017,607.4],[1020.4,625.2],[1025.4,618.4],[1022.8,635.2],[1032.7,633.8],[1051.8,610.2],[1075.3,562.8],[1089.4,515.5],[1103.9,459],[1106.2,430.6],[1105.6,361.6],[1074,351.5],[1042.4,341.4],[1004,336.7],[963.4,328.2],[925.3,330.8],[879,345],[852.7,370.4],[815.5,364.4],[775.7,376.8],[728.8,431.2],[712.9,462.6],[697,494],[693.1,493.6],[679.7,506.8],[667.4,522.4],[654.2,521.4],[630.6,505.9],[613.3,523.4],[617,505.6],[617,505.6],[623.1,466.6],[638.6,448.2],[648.8,427.2],[661.9,437.3]]","[-0.142,0.42599999999999993]","[0.142,0.42599999999999993]","[0.42599999999999993,0.42599999999999993]","[-0.42599999999999993,0.142]","[-0.42599999999999993,-0.142]","[-0.42599999999999993,-0.42599999999999993]","[-0.142,0.142]","[0.142,0.142]","[0.42599999999999993,0.142]","[-0.142,-0.142]","[0.142,-0.142]","[0.42599999999999993,-0.142]","[-0.142,-0.42599999999999993]","[0.142,-0.42599999999999993]","[0.42599999999999993,-0.42599999999999993]",0,1,1,1,1,1,Laptop,20,40,7,3,50,5,3,60,4
