inst1_resp.keys,inst1_resp.rt,calibrationMouse.x,calibrationMouse.y,calibrationMouse.leftButton,calibrationMouse.midButton,calibrationMouse.rightButton,calibrationClick.x,calibrationClick.y,calibrationClick.leftButton,calibrationClick.midButton,calibrationClick.rightButton,trialsc.thisRepN,trialsc.thisTrialN,trialsc.thisN,trialsc.thisIndex,trialsc.ran,calibration_x,calibration_y,participant,session,date,expName,psychopyVersion,OS,frameRate,calibrationClick.clicked_name,ScreenRes_pixels,Camera_pixels,mouse_2.x,mouse_2.y,mouse_2.leftButton,mouse_2.midButton,mouse_2.rightButton,mouse_2.time,mouse_2.clicked_name,mouse.x,mouse.y,mouse.leftButton,mouse.midButton,mouse.rightButton,mouse.time,mouse.clicked_name,Choice,Trial,TrialDuration,MOUSE_GAZE,ET_GAZE,ET_GAZE_x_T,time,unixTime,ET_GAZE_NF,Loc_Bus_label,Loc_Metro_label,Loc_RH_label,Loc_Cost_label,Loc_Travel_label,Loc_Comfort_label,Loc_Bus_cost,Loc_Metro_cost,Loc_RH_cost,Loc_Bus_travel,Loc_Metro_travel,Loc_RH_travel,Loc_Bus_comfort,Loc_Metro_comfort,Loc_RH_comfort,trials.thisRepN,trials.thisTrialN,trials.thisN,trials.thisIndex,trials.ran,Block,Device,RH_cost,RH_travel_time,RH_Comfort,metro_cost,metro_travel_time,metro_Comfort,Bus_cost,Bus_travel_time,Bus_Comfort
space,1.8318,-0.023958333,0.168518519,1,0,0,0.009375,-0.188888889,0,0,0,0,0,0,9,1,0,-0.67,47,001,2024-11-27_13h54.11.509,Attention_exp_legacy,2023.1.0,Win32,59.88023952,,,,,,,,,,,,,,,,,,,,,,,,,,,,,,,,,,,,,,,,,,,,,,,,,,,,,,,,,
,,,,,,,0.335416667,-0.342592593,1,0,0,0,1,1,15,1,0.33,-0.33,47,001,2024-11-27_13h54.11.509,Attention_exp_legacy,2023.1.0,Win32,59.88023952,,,,,,,,,,,,,,,,,,,,,,,,,,,,,,,,,,,,,,,,,,,,,,,,,,,,,,,,,
,,,,,,,0.665625,0.683333333,1,0,0,0,2,2,19,1,0.67,0.67,47,001,2024-11-27_13h54.11.509,Attention_exp_legacy,2023.1.0,Win32,59.88023952,,,,,,,,,,,,,,,,,,,,,,,,,,,,,,,,,,,,,,,,,,,,,,,,,,,,,,,,,
,,,,,,,0.002083333,0.011111111,1,0,0,0,3,3,11,1,0,0,47,001,2024-11-27_13h54.11.509,Attention_exp_legacy,2023.1.0,Win32,59.88023952,,,,,,,,,,,,,,,,,,,,,,,,,,,,,,,,,,,,,,,,,,,,,,,,,,,,,,,,,
,,,,,,,-0.33125,-0.003703704,1,0,0,0,4,4,6,1,-0.33,0,47,001,2024-11-27_13h54.11.509,Attention_exp_legacy,2023.1.0,Win32,59.88023952,calibration_square,,,,,,,,,,,,,,,,,,,,,,,,,,,,,,,,,,,,,,,,,,,,,,,,,,,,,,,,
,,,,,,,0.339583333,0.674074074,1,0,0,0,5,5,18,1,0.33,0.67,47,001,2024-11-27_13h54.11.509,Attention_exp_legacy,2023.1.0,Win32,59.88023952,calibration_square,,,,,,,,,,,,,,,,,,,,,,,,,,,,,,,,,,,,,,,,,,,,,,,,,,,,,,,,
,,,,,,,-0.336458333,-0.675925926,1,0,0,0,6,6,4,1,-0.33,-0.67,47,001,2024-11-27_13h54.11.509,Attention_exp_legacy,2023.1.0,Win32,59.88023952,calibration_square,,,,,,,,,,,,,,,,,,,,,,,,,,,,,,,,,,,,,,,,,,,,,,,,,,,,,,,,
,,,,,,,0.001041667,-0.316666667,1,0,0,0,7,7,10,1,0,-0.33,47,001,2024-11-27_13h54.11.509,Attention_exp_legacy,2023.1.0,Win32,59.88023952,,,,,,,,,,,,,,,,,,,,,,,,,,,,,,,,,,,,,,,,,,,,,,,,,,,,,,,,,
,,,,,,,-0.676041667,-0.324074074,1,0,0,0,8,8,1,1,-0.67,-0.33,47,001,2024-11-27_13h54.11.509,Attention_exp_legacy,2023.1.0,Win32,59.88023952,calibration_square,,,,,,,,,,,,,,,,,,,,,,,,,,,,,,,,,,,,,,,,,,,,,,,,,,,,,,,,
,,,,,,,-0.316666667,0.340740741,1,0,0,0,9,9,7,1,-0.33,0.33,47,001,2024-11-27_13h54.11.509,Attention_exp_legacy,2023.1.0,Win32,59.88023952,,,,,,,,,,,,,,,,,,,,,,,,,,,,,,,,,,,,,,,,,,,,,,,,,,,,,,,,,
,,,,,,,0.666666667,-0.664814815,1,0,0,0,10,10,20,1,0.67,-0.67,47,001,2024-11-27_13h54.11.509,Attention_exp_legacy,2023.1.0,Win32,59.88023952,calibration_square,,,,,,,,,,,,,,,,,,,,,,,,,,,,,,,,,,,,,,,,,,,,,,,,,,,,,,,,
,,,,,,,0.33125,0.337037037,1,0,0,0,11,11,17,1,0.33,0.33,47,001,2024-11-27_13h54.11.509,Attention_exp_legacy,2023.1.0,Win32,59.88023952,calibration_square,,,,,,,,,,,,,,,,,,,,,,,,,,,,,,,,,,,,,,,,,,,,,,,,,,,,,,,,
,,,,,,,0,0.67037037,1,0,0,0,12,12,13,1,0,0.67,47,001,2024-11-27_13h54.11.509,Attention_exp_legacy,2023.1.0,Win32,59.88023952,calibration_square,,,,,,,,,,,,,,,,,,,,,,,,,,,,,,,,,,,,,,,,,,,,,,,,,,,,,,,,
,,,,,,,-0.332291667,0.675925926,1,0,0,0,13,13,8,1,-0.33,0.67,47,001,2024-11-27_13h54.11.509,Attention_exp_legacy,2023.1.0,Win32,59.88023952,calibration_square,,,,,,,,,,,,,,,,,,,,,,,,,,,,,,,,,,,,,,,,,,,,,,,,,,,,,,,,
,,,,,,,-0.332291667,0.675925926,0,0,0,0,14,14,5,1,-0.33,-0.33,47,001,2024-11-27_13h54.11.509,Attention_exp_legacy,2023.1.0,Win32,59.88023952,,,,,,,,,,,,,,,,,,,,,,,,,,,,,,,,,,,,,,,,,,,,,,,,,,,,,,,,,
,,,,,,,-0.332291667,0.675925926,0,0,0,0,15,15,16,1,0.33,0,47,001,2024-11-27_13h54.11.509,Attention_exp_legacy,2023.1.0,Win32,59.88023952,,,,,,,,,,,,,,,,,,,,,,,,,,,,,,,,,,,,,,,,,,,,,,,,,,,,,,,,,
,,,,,,,0.333333333,-0.655555556,1,0,0,0,16,16,14,1,0.33,-0.67,47,001,2024-11-27_13h54.11.509,Attention_exp_legacy,2023.1.0,Win32,59.88023952,,,,,,,,,,,,,,,,,,,,,,,,,,,,,,,,,,,,,,,,,,,,,,,,,,,,,,,,,
,,,,,,,-0.676041667,-0.001851852,1,0,0,0,17,17,2,1,-0.67,0,47,001,2024-11-27_13h54.11.509,Attention_exp_legacy,2023.1.0,Win32,59.88023952,calibration_square,,,,,,,,,,,,,,,,,,,,,,,,,,,,,,,,,,,,,,,,,,,,,,,,,,,,,,,,
,,,,,,,-0.002083333,0.324074074,1,0,0,0,18,18,12,1,0,0.33,47,001,2024-11-27_13h54.11.509,Attention_exp_legacy,2023.1.0,Win32,59.88023952,calibration_square,,,,,,,,,,,,,,,,,,,,,,,,,,,,,,,,,,,,,,,,,,,,,,,,,,,,,,,,
,,,,,,,-0.671875,0.325925926,1,0,0,0,19,19,3,1,-0.67,0.33,47,001,2024-11-27_13h54.11.509,Attention_exp_legacy,2023.1.0,Win32,59.88023952,calibration_square,,,,,,,,,,,,,,,,,,,,,,,,,,,,,,,,,,,,,,,,,,,,,,,,,,,,,,,,
,,,,,,,-0.677083333,-0.666666667,1,0,0,0,20,20,0,1,-0.67,-0.67,47,001,2024-11-27_13h54.11.509,Attention_exp_legacy,2023.1.0,Win32,59.88023952,calibration_square,,,,,,,,,,,,,,,,,,,,,,,,,,,,,,,,,,,,,,,,,,,,,,,,,,,,,,,,
,,,,,,,,,,,,,,,,,,,47,001,2024-11-27_13h54.11.509,Attention_exp_legacy,2023.1.0,Win32,59.88023952,,"[1920,1080]","[640,480]",[-0.013541666666666667],[-0.512962962962963],[1],[0],[0],[5.246400000005963],"[""StartButton""]",[0.18333333333333332],[0.17962962962962964],[1],[0],[0],[3.4543000000119264],"[""RH_label""]",RH_label,1,4.465,"[[-0.013541666666666667,-0.512962962962963],[-0.013541666666666667,-0.512962962962963],[-0.013541666666666667,-0.512962962962963],[-0.013541666666666667,-0.512962962962963],[-0.013541666666666667,-0.512962962962963],[-0.013541666666666667,-0.512962962962963],[-0.013541666666666667,-0.512962962962963],[-0.013541666666666667,-0.512962962962963],[-0.013541666666666667,-0.512962962962963],[-0.013541666666666667,-0.512962962962963],[-0.013541666666666667,-0.512962962962963],[-0.013541666666666667,-0.512962962962963],[-0.013541666666666667,-0.512962962962963],[-0.013541666666666667,-0.512962962962963],[-0.013541666666666667,-0.512962962962963],[-0.013541666666666667,-0.512962962962963],[-0.013541666666666667,-0.512962962962963],[-0.014583333333333334,-0.5148148148148148],[-0.014583333333333334,-0.5203703703703704],[-0.014583333333333334,-0.5222222222222223],[-0.014583333333333334,-0.524074074074074],[-0.014583333333333334,-0.524074074074074],[-0.014583333333333334,-0.524074074074074],[-0.014583333333333334,-0.524074074074074],[-0.014583333333333334,-0.524074074074074],[-0.014583333333333334,-0.524074074074074],[-0.014583333333333334,-0.524074074074074],[-0.014583333333333334,-0.524074074074074],[-0.014583333333333334,-0.524074074074074],[-0.014583333333333334,-0.524074074074074],[-0.014583333333333334,-0.524074074074074],[-0.014583333333333334,-0.524074074074074],[-0.014583333333333334,-0.524074074074074],[-0.014583333333333334,-0.524074074074074],[-0.014583333333333334,-0.524074074074074],[-0.014583333333333334,-0.524074074074074],[-0.014583333333333334,-0.524074074074074],[-0.014583333333333334,-0.524074074074074],[-0.014583333333333334,-0.524074074074074],[-0.014583333333333334,-0.524074074074074],[-0.014583333333333334,-0.524074074074074],[-0.014583333333333334,-0.524074074074074],[-0.014583333333333334,-0.524074074074074],[-0.0125,-0.5203703703703704],[0.0020833333333333333,-0.5018518518518519],[0.010416666666666666,-0.4925925925925926],[0.016666666666666666,-0.47962962962962963],[0.025,-0.4666666666666667],[0.040625,-0.4425925925925926],[0.057291666666666664,-0.4166666666666667],[0.075,-0.3888888888888889],[0.09479166666666666,-0.3574074074074074],[0.11041666666666666,-0.32407407407407407],[0.121875,-0.3],[0.13125,-0.2759259259259259],[0.13541666666666666,-0.2611111111111111],[0.1375,-0.24814814814814815],[0.1375,-0.23703703703703705],[0.1375,-0.22962962962962963],[0.1375,-0.21851851851851853],[0.1375,-0.21666666666666667],[0.1375,-0.2111111111111111],[0.1375,-0.2111111111111111],[0.13645833333333332,-0.2111111111111111],[0.134375,-0.20925925925925926],[0.134375,-0.20925925925925926],[0.134375,-0.20925925925925926],[0.134375,-0.20925925925925926],[0.134375,-0.20925925925925926],[0.134375,-0.20925925925925926],[0.134375,-0.20925925925925926],[0.134375,-0.20925925925925926],[0.134375,-0.20925925925925926],[0.134375,-0.20925925925925926],[0.134375,-0.20925925925925926],[0.134375,-0.20925925925925926],[0.134375,-0.20925925925925926],[0.134375,-0.20925925925925926],[0.134375,-0.20925925925925926],[0.134375,-0.20555555555555555],[0.13854166666666667,-0.1925925925925926],[0.14583333333333334,-0.1814814814814815],[0.14791666666666667,-0.17592592592592593],[0.14895833333333333,-0.1685185185185185],[0.15104166666666666,-0.15555555555555556],[0.15208333333333332,-0.14814814814814814],[0.15520833333333334,-0.13703703703703704],[0.159375,-0.11666666666666667],[0.165625,-0.0962962962962963],[0.17291666666666666,-0.06851851851851852],[0.18020833333333333,-0.053703703703703705],[0.18541666666666667,-0.03888888888888889],[0.18854166666666666,-0.03148148148148148],[0.19270833333333334,-0.022222222222222223],[0.19895833333333332,-0.009259259259259259],[0.20520833333333333,0.001851851851851852],[0.20729166666666668,0.007407407407407408],[0.21041666666666667,0.014814814814814815],[0.21354166666666666,0.022222222222222223],[0.21458333333333332,0.025925925925925925],[0.215625,0.02962962962962963],[0.21666666666666667,0.03148148148148148],[0.21666666666666667,0.03148148148148148],[0.21666666666666667,0.03148148148148148],[0.21666666666666667,0.03148148148148148],[0.21666666666666667,0.03148148148148148],[0.21666666666666667,0.03148148148148148],[0.21666666666666667,0.03148148148148148],[0.21666666666666667,0.03148148148148148],[0.21666666666666667,0.03148148148148148],[0.21666666666666667,0.03148148148148148],[0.21666666666666667,0.03148148148148148],[0.21666666666666667,0.03148148148148148],[0.21666666666666667,0.03333333333333333],[0.21666666666666667,0.03518518518518519],[0.21666666666666667,0.040740740740740744],[0.21458333333333332,0.05],[0.2125,0.05555555555555555],[0.21145833333333333,0.05740740740740741],[0.21145833333333333,0.05740740740740741],[0.209375,0.06111111111111111],[0.20729166666666668,0.06851851851851852],[0.20729166666666668,0.07222222222222222],[0.203125,0.08333333333333333],[0.20104166666666667,0.08888888888888889],[0.20104166666666667,0.09074074074074075],[0.20104166666666667,0.09259259259259259],[0.196875,0.1037037037037037],[0.19270833333333334,0.12037037037037036],[0.190625,0.13148148148148148],[0.18958333333333333,0.13703703703703704],[0.18854166666666666,0.14074074074074075],[0.1875,0.14814814814814814],[0.1875,0.1537037037037037],[0.184375,0.16666666666666666],[0.18333333333333332,0.17222222222222222],[0.18333333333333332,0.17777777777777778],[0.18333333333333332,0.17962962962962964],[0.18333333333333332,0.18333333333333332],[0.18333333333333332,0.18518518518518517],[0.18333333333333332,0.19074074074074074],[0.18333333333333332,0.19444444444444445],[0.18333333333333332,0.19444444444444445],[0.18333333333333332,0.19444444444444445],[0.18333333333333332,0.19444444444444445],[0.18333333333333332,0.19444444444444445],[0.18333333333333332,0.19444444444444445],[0.18333333333333332,0.19444444444444445],[0.18333333333333332,0.19444444444444445],[0.18333333333333332,0.19444444444444445],[0.18333333333333332,0.19444444444444445],[0.18333333333333332,0.19444444444444445],[0.18333333333333332,0.19444444444444445],[0.18333333333333332,0.19444444444444445],[0.18333333333333332,0.19444444444444445],[0.18333333333333332,0.19444444444444445],[0.18333333333333332,0.19444444444444445],[0.18333333333333332,0.19444444444444445],[0.18333333333333332,0.19444444444444445],[0.18333333333333332,0.19444444444444445],[0.18333333333333332,0.19444444444444445],[0.18333333333333332,0.19444444444444445],[0.18333333333333332,0.19444444444444445],[0.18333333333333332,0.19444444444444445],[0.18333333333333332,0.19444444444444445],[0.18333333333333332,0.19444444444444445],[0.18333333333333332,0.19444444444444445],[0.18333333333333332,0.19444444444444445],[0.18333333333333332,0.19444444444444445],[0.18333333333333332,0.19444444444444445],[0.18333333333333332,0.19444444444444445],[0.18333333333333332,0.19444444444444445],[0.18333333333333332,0.19444444444444445],[0.18333333333333332,0.19444444444444445],[0.184375,0.1925925925925926],[0.184375,0.19074074074074074],[0.184375,0.18888888888888888],[0.184375,0.18703703703703703],[0.184375,0.18703703703703703],[0.184375,0.18703703703703703],[0.184375,0.18703703703703703],[0.184375,0.18703703703703703],[0.184375,0.18703703703703703],[0.184375,0.18518518518518517],[0.184375,0.18333333333333332],[0.184375,0.18333333333333332],[0.184375,0.18333333333333332],[0.184375,0.18333333333333332],[0.184375,0.18333333333333332],[0.184375,0.18333333333333332],[0.184375,0.18333333333333332],[0.184375,0.18333333333333332],[0.184375,0.18333333333333332],[0.184375,0.18333333333333332],[0.184375,0.18333333333333332],[0.184375,0.18333333333333332],[0.184375,0.18333333333333332],[0.18333333333333332,0.1814814814814815],[0.18333333333333332,0.17962962962962964],[0.18333333333333332,0.17962962962962964],[0.18333333333333332,0.17962962962962964],[0.18333333333333332,0.17962962962962964],[0.18333333333333332,0.17962962962962964],[0.18333333333333332,0.17962962962962964],[0.18333333333333332,0.17962962962962964],[0.18333333333333332,0.17962962962962964],[0.18333333333333332,0.17962962962962964],[0.18333333333333332,0.17962962962962964],[0.18333333333333332,0.17962962962962964],[0.18333333333333332,0.17962962962962964],[0.18333333333333332,0.17962962962962964],[0.18333333333333332,0.17962962962962964],[0.18333333333333332,0.17962962962962964],[0.18333333333333332,0.17962962962962964],[0.18333333333333332,0.17962962962962964],[0.18333333333333332,0.17962962962962964],[0.18333333333333332,0.17962962962962964],[0.18333333333333332,0.17962962962962964],[0.18333333333333332,0.17962962962962964],[0.18333333333333332,0.17962962962962964],[0.18333333333333332,0.17962962962962964],[0.18333333333333332,0.17962962962962964],[0.18333333333333332,0.17962962962962964],[0.18333333333333332,0.17962962962962964],[0.18333333333333332,0.17962962962962964],[0.18333333333333332,0.17962962962962964],[0.18333333333333332,0.17962962962962964],[0.18333333333333332,0.17962962962962964],[0.18333333333333332,0.17962962962962964],[0.18333333333333332,0.17962962962962964],[0.18333333333333332,0.17962962962962964],[0.18333333333333332,0.17962962962962964],[0.18333333333333332,0.17962962962962964],[0.18333333333333332,0.17962962962962964],[0.18333333333333332,0.17962962962962964],[0.18333333333333332,0.17962962962962964],[0.18333333333333332,0.17962962962962964],[0.18333333333333332,0.17962962962962964],[0.18333333333333332,0.17962962962962964],[0.18333333333333332,0.17962962962962964],[0.18333333333333332,0.17962962962962964],[0.18333333333333332,0.17962962962962964],[0.18333333333333332,0.17962962962962964],[0.18333333333333332,0.17962962962962964],[0.18333333333333332,0.17962962962962964],[0.18333333333333332,0.17962962962962964],[0.18333333333333332,0.17962962962962964],[0.18333333333333332,0.17962962962962964],[0.18333333333333332,0.17962962962962964],[0.18333333333333332,0.17962962962962964],[0.18333333333333332,0.17962962962962964],[0.18333333333333332,0.17962962962962964],[0.18333333333333332,0.17962962962962964],[0.18333333333333332,0.17962962962962964],[0.18333333333333332,0.17962962962962964],[0.18333333333333332,0.17962962962962964],[0.18333333333333332,0.17962962962962964],[0.18333333333333332,0.17962962962962964],[0.18333333333333332,0.17962962962962964],[0.18333333333333332,0.17962962962962964],[0.18333333333333332,0.17962962962962964],[0.18333333333333332,0.17962962962962964],[0.18333333333333332,0.17962962962962964],[0.18333333333333332,0.17962962962962964],[0.18333333333333332,0.17962962962962964],[0.18333333333333332,0.17962962962962964],[0.18333333333333332,0.17962962962962964]]","[[-0.16968749999999996,0.34740740740740744],[-0.16968749999999996,0.34740740740740744],[-0.1704166666666667,0.3698148148148149],[-0.16343749999999999,0.38185185185185194],[-0.15750000000000006,0.39018518518518525],[-0.13947916666666665,0.3712962962962963],[-0.11447916666666665,0.35037037037037044],[-0.1046875,0.3562962962962963],[-0.11270833333333338,0.3744444444444445],[-0.10812499999999996,0.38185185185185194],[-0.10052083333333334,0.3866666666666666],[-0.10093749999999997,0.3853703703703704],[-0.10708333333333328,0.3874074074074075],[-0.12260416666666671,0.3985185185185186],[-0.14166666666666666,0.40981481481481474],[-0.17062499999999994,0.4388888888888889],[-0.20656249999999995,0.4699999999999999],[-0.22822916666666668,0.47074074074074085],[-0.2195833333333333,0.4757407407407407],[-0.22270833333333329,0.4618518518518518],[-0.2172916666666667,0.44833333333333336],[-0.20760416666666662,0.43574074074074065],[-0.1921875,0.4198148148148149],[-0.16687500000000005,0.4301851851851851],[-0.13802083333333334,0.4403703703703703],[-0.10895833333333335,0.46333333333333343],[-0.07989583333333337,0.48629629629629634],[-0.06875,0.47925925925925916],[-0.08666666666666671,0.4655555555555555],[-0.08520833333333329,0.5003703703703705],[-0.06333333333333328,0.5425925925925926],[-0.04572916666666664,0.5838888888888888],[-0.04458333333333329,0.6081481481481481],[-0.05166666666666669,0.6074074074074074],[-0.051979166666666646,0.6211111111111111],[-0.07354166666666669,0.5833333333333334],[-0.07354166666666669,0.5833333333333334],[-0.09010416666666667,0.5527777777777778],[-0.07947916666666661,0.5577777777777778],[-0.06770833333333333,0.5833333333333334],[-0.05427083333333336,0.5829629629629629],[-0.04906250000000002,0.57],[-0.04906250000000002,0.57],[-0.04385416666666669,0.557037037037037],[-0.03760416666666669,0.5498148148148148],[-0.013020833333333334,0.5453703703703704],[0.011458333333333333,0.527962962962963],[0.05499999999999995,0.5596296296296297],[0.0974999999999999,0.5464814814814816],[0.1125,0.5270370370370371],[0.1125,0.5270370370370371],[0.13114583333333343,0.5127777777777778],[0.12145833333333324,0.4770370370370371],[0.12145833333333324,0.4770370370370371],[0.11979166666666667,0.44537037037037036],[0.11979166666666667,0.44537037037037036],[0.1256249999999999,0.4546296296296296],[0.15166666666666656,0.47185185185185174],[0.15166666666666656,0.47185185185185174],[0.15093750000000009,0.47185185185185174],[0.1421875,0.456111111111111],[0.13541666666666666,0.4300000000000001],[0.13541666666666666,0.4300000000000001],[0.14677083333333343,0.4449999999999999],[0.18604166666666658,0.48648148148148157],[0.1881249999999999,0.48296296296296287],[0.20927083333333343,0.49722222222222223],[0.20927083333333343,0.49722222222222223],[0.23427083333333343,0.5205555555555555],[0.22291666666666668,0.4903703703703703],[0.22072916666666675,0.45777777777777784],[0.22510416666666658,0.44074074074074077],[0.22510416666666658,0.44074074074074077],[0.23083333333333325,0.43796296296296294],[0.20322916666666657,0.45703703703703696],[0.17468750000000005,0.4396296296296296],[0.14166666666666666,0.4053703703703703],[0.12177083333333343,0.42296296296296293],[0.115625,0.3992592592592593],[0.07989583333333337,0.36148148148148157],[0.07989583333333337,0.36148148148148157],[0.08031249999999991,0.33555555555555566],[0.033749999999999974,0.36425925925925934],[-0.0109375,0.3918518518518519],[-0.0109375,0.3918518518518519],[-0.02666666666666669,0.372037037037037],[-0.01864583333333331,0.34574074074074085],[-0.03177083333333333,0.35240740740740734],[-0.03177083333333333,0.35240740740740734],[-0.02833333333333338,0.3337037037037038],[0.013645833333333357,0.28055555555555556],[0.004166666666666667,0.2511111111111112],[0.004166666666666667,0.2511111111111112],[0.008229166666666643,0.2322222222222222],[0.02312500000000005,0.2242592592592593],[0.06812500000000009,0.17037037037037037],[0.06812500000000009,0.17037037037037037],[0.1337500000000001,0.10425925925925918],[0.17041666666666658,0.08555555555555563],[0.21645833333333328,0.05351851851851848],[0.21645833333333328,0.05351851851851848],[0.21062500000000003,-0.00722222222222218],[0.21020833333333327,-0.04944444444444453],[0.21020833333333327,-0.04944444444444453],[0.2013541666666666,-0.08796296296296297],[0.225,-0.12129629629629629],[0.225,-0.12129629629629629],[0.23104166666666662,-0.1648148148148148],[0.23104166666666662,-0.1648148148148148],[0.2118750000000001,-0.21148148148148146],[0.20166666666666658,-0.24962962962962965],[0.17416666666666672,-0.2705555555555556],[0.12354166666666658,-0.3074074074074074],[0.12354166666666658,-0.3074074074074074],[0.11760416666666676,-0.31500000000000006],[0.15625,-0.29907407407407405],[0.17291666666666666,-0.2718518518518519],[0.17291666666666666,-0.2718518518518519],[0.1736458333333334,-0.2479629629629629],[0.1662499999999999,-0.2088888888888889],[0.1662499999999999,-0.2088888888888889],[0.17479166666666662,-0.1809259259259259],[0.17479166666666662,-0.1809259259259259],[0.17354166666666657,-0.15129629629629626],[0.175,-0.13351851851851856],[0.17374999999999996,-0.12259259259259257],[0.17374999999999996,-0.12259259259259257],[0.19249999999999995,-0.07629629629629628],[0.19249999999999995,-0.07629629629629628],[0.13562500000000005,-0.08333333333333333],[0.11885416666666657,-0.0794444444444444],[0.08802083333333334,-0.08129629629629626],[0.08802083333333334,-0.08129629629629626],[0.08406250000000005,-0.08925925925925923],[0.08406250000000005,-0.08925925925925923],[0.10125000000000005,-0.10314814814814813],[0.09958333333333323,-0.1014814814814815],[0.09958333333333323,-0.1014814814814815],[0.1015625,-0.12074074074074072],[0.09947916666666666,-0.14092592592592595],[0.09677083333333343,-0.14870370370370373],[0.08729166666666661,-0.17777777777777778],[0.12468750000000005,-0.18870370370370365],[0.12468750000000005,-0.18870370370370365],[0.12729166666666672,-0.19907407407407407],[0.11354166666666667,-0.20388888888888893],[0.09114583333333333,-0.2064814814814815],[0.057291666666666664,-0.19592592592592595],[0.04791666666666667,-0.16666666666666666],[0.04083333333333338,-0.11925925925925922],[0.042812500000000024,-0.07999999999999997],[0.04479166666666667,-0.05129629629629638],[0.043229166666666666,-0.005000000000000084],[0.030729166666666665,0.042407407407407366],[0.02312500000000005,0.049629629629629544],[0.03697916666666667,0.060370370370370414],[0.05270833333333336,0.1],[0.06843750000000005,0.12981481481481486],[0.058541666666666714,0.11925925925925922],[0.059583333333333384,0.10277777777777777],[0.04583333333333333,0.09407407407407399],[0.04458333333333329,0.102962962962963],[0.04458333333333329,0.102962962962963],[0.06625000000000002,0.0742592592592593],[0.06625000000000002,0.0742592592592593],[0.0775000000000001,0.05314814814814823],[0.0696875000000001,0.06592592592592597],[0.07322916666666662,0.05685185185185194],[0.07322916666666662,0.05685185185185194],[0.057291666666666664,0.037037037037037035],[0.041770833333333354,0.018518518518518517],[0.050729166666666714,0.015370370370370286],[0.06416666666666669,0.02370370370370362],[0.06416666666666669,0.02370370370370362],[0.07864583333333333,0.03370370370370379],[0.07864583333333333,0.03370370370370379],[0.08927083333333338,0.0020370370370370794],[0.07895833333333328,-0.009999999999999959],[0.07895833333333328,-0.009999999999999959],[0.08072916666666667,-0.028888888888888933],[0.09322916666666667,-0.05537037037037033],[0.0990624999999999,-0.07314814814814814],[0.11583333333333339,-0.10648148148148148],[0.11583333333333339,-0.10648148148148148],[0.13395833333333323,-0.12388888888888884],[0.1443749999999999,-0.12740740740740744],[0.14260416666666675,-0.13796296296296295],[0.16124999999999995,-0.14425925925925923],[0.1712500000000001,-0.12518518518518523],[0.1868750000000001,-0.11296296296296296],[0.18937499999999996,-0.10574074074074079],[0.19281249999999991,-0.0712962962962963],[0.19281249999999991,-0.0712962962962963],[0.19874999999999995,-0.05092592592592592],[0.19822916666666662,-0.027777777777777776],[0.19562499999999997,-0.02629629629629638],[0.19562499999999997,-0.02629629629629638],[0.19802083333333323,-0.028888888888888933],[0.20666666666666675,-0.03555555555555564],[0.19041666666666662,-0.026111111111111154],[0.17833333333333337,-0.03425925925925926],[0.16833333333333325,-0.027407407407407325],[0.18239583333333323,-0.005555555555555556],[0.18239583333333323,-0.005555555555555556],[0.196875,-0.0001851851851852273],[0.20125000000000004,0.007407407407407408],[0.20010416666666658,0.027037037037037078],[0.20104166666666667,0.02759259259259255],[0.19385416666666658,0.025925925925925925],[0.19718749999999996,0.023333333333333376],[0.20499999999999996,0.0003703703703704546],[0.22302083333333325,0.012592592592592508],[0.24479166666666666,0.018888888888888972],[0.21458333333333332,-0.011296296296296339],[0.1884375000000001,-0.04462962962962967],[0.1443749999999999,-0.07259259259259257],[0.1443749999999999,-0.07259259259259257],[0.13666666666666671,-0.09370370370370375],[0.12708333333333333,-0.10203703703703708],[0.12750000000000009,-0.1051851851851852],[0.11666666666666667,-0.09648148148148153],[0.11666666666666667,-0.09648148148148153],[0.10166666666666657,-0.0868518518518518],[0.06854166666666663,-0.11518518518518517],[0.05479166666666669,-0.12740740740740744],[0.05499999999999995,-0.13777777777777775],[0.04041666666666662,-0.12759259259259256],[0.08083333333333324,-0.10685185185185184],[0.059062500000000046,-0.11148148148148146],[0.06437499999999995,-0.10981481481481484],[0.058541666666666714,-0.11370370370370367],[0.05395833333333329,-0.10981481481481484],[0.05510416666666664,-0.12611111111111115],[0.05510416666666664,-0.12611111111111115],[0.05562499999999997,-0.0933333333333333],[0.03812500000000003,-0.09518518518518514],[0.04520833333333331,-0.0544444444444444],[0.06302083333333333,-0.05944444444444449],[0.03854166666666667,-0.04407407407407399],[0.036458333333333336,-0.018888888888888972],[0.018229166666666668,0.011296296296296339],[0.004166666666666667,0.034444444444444486],[-0.0014583333333333095,0.03129629629629625],[-0.0014583333333333095,0.03129629629629625],[0.0017708333333333807,0.04888888888888885],[0.0034374999999999527,0.03740740740740749],[-0.008124999999999953,0.04388888888888897],[-0.024791666666666618,0.04814814814814815],[-0.024687500000000046,0.06481481481481481],[-0.011770833333333286,0.057037037037036956],[-0.011770833333333286,0.057037037037036956],[-0.002708333333333357,0.03351851851851856],[-0.002291666666666714,0.018518518518518517],[-0.002291666666666714,0.018518518518518517],[-0.0048958333333333805,0.010925925925925884],[-0.016354166666666715,0.006296296296296254],[-0.03927083333333338,0.0020370370370370794],[-0.05791666666666669,-0.009444444444444486],[-0.05791666666666669,-0.009444444444444486],[-0.05677083333333333,0.002962962962963005],[-0.05364583333333333,-0.012222222222222264],[-0.071875,-0.009629629629629714],[-0.10062500000000002,-0.005185185185185101],[-0.10218750000000003,0.0198148148148149],[-0.09718749999999995,0.011296296296296339],[-0.10750000000000005,0.02296296296296292],[-0.11614583333333334,0.03351851851851856]]","[[-0.16968749999999996,0.34740740740740744,0.00020000001788389454],[-0.16968749999999996,0.34740740740740744,0.048700000017880996],[-0.1704166666666667,0.3698148148148149,0.06030000001192093],[-0.16343749999999999,0.38185185185185194,0.07699999999999818],[-0.15750000000000006,0.39018518518518525,0.09359999999404067],[-0.13947916666666665,0.3712962962962963,0.11040000000595995],[-0.11447916666666665,0.35037037037037044,0.13120000001788412],[-0.1046875,0.3562962962962963,0.14709999999404033],[-0.11270833333333338,0.3744444444444445,0.1639000000059596],[-0.10812499999999996,0.38185185185185194,0.1802000000178836],[-0.10052083333333334,0.3866666666666666,0.1947000000178818],[-0.10093749999999997,0.3853703703703704,0.2134000000059615],[-0.10708333333333328,0.3874074074074075,0.22980000001192025],[-0.12260416666666671,0.3985185185185186,0.24750000000000227],[-0.14166666666666666,0.40981481481481474,0.2607000000178843],[-0.17062499999999994,0.4388888888888889,0.277000000000001],[-0.20656249999999995,0.4699999999999999,0.29370000001788554],[-0.22822916666666668,0.47074074074074085,0.3140999999940419],[-0.2195833333333333,0.4757407407407407,0.33109999999403783],[-0.22270833333333329,0.4618518518518518,0.3468000000119247],[-0.2172916666666667,0.44833333333333336,0.36090000000596234],[-0.20760416666666662,0.43574074074074065,0.3770999999940443],[-0.1921875,0.4198148148148149,0.39420000001788225],[-0.16687500000000005,0.4301851851851851,0.41340000000596433],[-0.13802083333333334,0.4403703703703703,0.4277000000178859],[-0.10895833333333335,0.46333333333333343,0.4437000000178841],[-0.07989583333333337,0.48629629629629634,0.4604000000059614],[-0.06875,0.47925925925925916,0.4778000000119249],[-0.08666666666666671,0.4655555555555555,0.49359999999403925],[-0.08520833333333329,0.5003703703703705,0.5119000000059586],[-0.06333333333333328,0.5425925925925926,0.5297000000178826],[-0.04572916666666664,0.5838888888888888,0.5469000000059623],[-0.04458333333333329,0.6081481481481481,0.5630000000000024],[-0.05166666666666669,0.6074074074074074,0.57709999999404],[-0.051979166666666646,0.6211111111111111,0.5935999999940407],[-0.07354166666666669,0.5833333333333334,0.61040000000596],[-0.07354166666666669,0.5833333333333334,0.6270999999940443],[-0.09010416666666667,0.5527777777777778,0.6437000000178799],[-0.07947916666666661,0.5577777777777778,0.6602000000178805],[-0.06770833333333333,0.5833333333333334,0.6775999999940439],[-0.05427083333333336,0.5829629629629629,0.6935999999940421],[-0.04906250000000002,0.57,0.7148000000119197],[-0.04906250000000002,0.57,0.7270000000000039],[-0.04385416666666669,0.557037037037037,0.7478000000119209],[-0.03760416666666669,0.5498148148148148,0.7635000000000005],[-0.013020833333333334,0.5453703703703704,0.7795999999940406],[0.011458333333333333,0.527962962962963,0.7984000000059623],[0.05499999999999995,0.5596296296296297,0.8140999999940419],[0.0974999999999999,0.5464814814814816,0.8305000000000007],[0.1125,0.5270370370370371,0.8514000000059596],[0.1125,0.5270370370370371,0.8605000000000018],[0.13114583333333343,0.5127777777777778,0.8773000000119211],[0.12145833333333324,0.4770370370370371,0.8953000000119218],[0.12145833333333324,0.4770370370370371,0.9158000000119202],[0.11979166666666667,0.44537037037037036,0.9274000000059601],[0.11979166666666667,0.44537037037037036,0.9439000000059607],[0.1256249999999999,0.4546296296296296,0.9605000000000032],[0.15166666666666656,0.47185185185185174,0.9822000000178832],[0.15166666666666656,0.47185185185185174,0.993900000005965],[0.15093750000000009,0.47185185185185174,1.0105999999940423],[0.1421875,0.456111111111111,1.0290000000000035],[0.13541666666666666,0.4300000000000001,1.0525999999940439],[0.13541666666666666,0.4300000000000001,1.0604000000059628],[0.14677083333333343,0.4449999999999999,1.0774000000059587],[0.18604166666666658,0.48648148148148157,1.094200000017885],[0.1881249999999999,0.48296296296296287,1.1103000000119252],[0.20927083333333343,0.49722222222222223,1.1270000000000024],[0.20927083333333343,0.49722222222222223,1.1437000000178799],[0.23427083333333343,0.5205555555555555,1.1604000000059642],[0.22291666666666668,0.4903703703703703,1.1784999999999997],[0.22072916666666675,0.45777777777777784,1.193599999994042],[0.22510416666666658,0.44074074074074077,1.2150000000000034],[0.22510416666666658,0.44074074074074077,1.2270000000000039],[0.23083333333333325,0.43796296296296294,1.2438000000119231],[0.20322916666666657,0.45703703703703696,1.2604000000059656],[0.17468750000000005,0.4396296296296296,1.277000000000001],[0.14166666666666666,0.4053703703703703,1.2935999999940435],[0.12177083333333343,0.42296296296296293,1.313300000011921],[0.115625,0.3992592592592593,1.3309000000059612],[0.07989583333333337,0.36148148148148157,1.3514000000059596],[0.07989583333333337,0.36148148148148157,1.3605000000000018],[0.08031249999999991,0.33555555555555566,1.377300000011921],[0.033749999999999974,0.36425925925925934,1.3965000000000032],[-0.0109375,0.3918518518518519,1.4164000000059644],[-0.0109375,0.3918518518518519,1.4272000000178835],[-0.02666666666666669,0.372037037037037,1.4439000000059607],[-0.01864583333333331,0.34574074074074085,1.463000000000001],[-0.03177083333333333,0.35240740740740734,1.4813000000119203],[-0.03177083333333333,0.35240740740740734,1.4938000000119231],[-0.02833333333333338,0.3337037037037038,1.5107000000178843],[0.013645833333333357,0.28055555555555556,1.5280999999940406],[0.004166666666666667,0.2511111111111112,1.550300000011923],[0.004166666666666667,0.2511111111111112,1.5605999999940394],[0.008229166666666643,0.2322222222222222,1.5774000000059587],[0.02312500000000005,0.2242592592592593,1.5957000000178851],[0.06812500000000009,0.17037037037037037,1.6169000000059626],[0.06812500000000009,0.17037037037037037,1.6270999999940443],[0.1337500000000001,0.10425925925925918,1.6439000000059636],[0.17041666666666658,0.08555555555555563,1.660499999999999],[0.21645833333333328,0.05351851851851848,1.6825000000000045],[0.21645833333333328,0.05351851851851848,1.6937000000178841],[0.21062500000000003,-0.00722222222222218,1.710599999994038],[0.21020833333333327,-0.04944444444444453,1.7294000000059597],[0.21020833333333327,-0.04944444444444453,1.7438000000119231],[0.2013541666666666,-0.08796296296296297,1.7603000000119238],[0.225,-0.12129629629629629,1.7819000000059617],[0.225,-0.12129629629629629,1.7937000000178855],[0.23104166666666662,-0.1648148148148148,1.8104000000059628],[0.23104166666666662,-0.1648148148148148,1.8269999999999982],[0.2118750000000001,-0.21148148148148146,1.8437000000178827],[0.20166666666666658,-0.24962962962962965,1.8610000000000042],[0.17416666666666672,-0.2705555555555556,1.8770000000000024],[0.12354166666666658,-0.3074074074074074,1.8943000000119241],[0.12354166666666658,-0.3074074074074074,1.9138000000119249],[0.11760416666666676,-0.31500000000000006,1.9274000000059601],[0.15625,-0.29907407407407405,1.9464000000059656],[0.17291666666666666,-0.2718518518518519,1.9670999999940406],[0.17291666666666666,-0.2718518518518519,1.9770999999940386],[0.1736458333333334,-0.2479629629629629,1.993900000005965],[0.1662499999999999,-0.2088888888888889,2.018599999994038],[0.1662499999999999,-0.2088888888888889,2.049500000000002],[0.17479166666666662,-0.1809259259259259,2.055599999994044],[0.17479166666666662,-0.1809259259259259,2.0620999999940395],[0.17354166666666657,-0.15129629629629626,2.077200000017882],[0.175,-0.13351851851851856,2.0969000000059594],[0.17374999999999996,-0.12259259259259257,2.1155000000000044],[0.17374999999999996,-0.12259259259259257,2.127300000011921],[0.19249999999999995,-0.07629629629629628,2.14670000001788],[0.19249999999999995,-0.07629629629629628,2.160499999999999],[0.13562500000000005,-0.08333333333333333,2.177500000000002],[0.11885416666666657,-0.0794444444444444,2.193800000011926],[0.08802083333333334,-0.08129629629629626,2.214700000017885],[0.08802083333333334,-0.08129629629629626,2.2273000000119225],[0.08406250000000005,-0.08925925925925923,2.243900000005965],[0.08406250000000005,-0.08925925925925923,2.2604000000059656],[0.10125000000000005,-0.10314814814814813,2.279300000011922],[0.09958333333333323,-0.1014814814814815,2.29790000000596],[0.09958333333333323,-0.1014814814814815,2.3105000000000047],[0.1015625,-0.12074074074074072,2.327300000011924],[0.09947916666666666,-0.14092592592592595,2.346400000005964],[0.09677083333333343,-0.14870370370370373,2.361000000000004],[0.08729166666666661,-0.17777777777777778,2.3809000000059655],[0.12468750000000005,-0.18870370370370365,2.395000000000003],[0.12468750000000005,-0.18870370370370365,2.410400000005964],[0.12729166666666672,-0.19907407407407407,2.4270999999940415],[0.11354166666666667,-0.20388888888888893,2.443700000017884],[0.09114583333333333,-0.2064814814814815,2.463099999994043],[0.057291666666666664,-0.19592592592592595,2.4797000000178855],[0.04791666666666667,-0.16666666666666666,2.4967000000178814],[0.04083333333333338,-0.11925925925925922,2.511800000011924],[0.042812500000000024,-0.07999999999999997,2.5294999999999987],[0.04479166666666667,-0.05129629629629638,2.5475999999940413],[0.043229166666666666,-0.005000000000000084,2.5628000000119258],[0.030729166666666665,0.042407407407407366,2.577300000011924],[0.02312500000000005,0.049629629629629544,2.5935999999940478],[0.03697916666666667,0.060370370370370414,2.610300000011925],[0.05270833333333336,0.1,2.631099999994042],[0.06843750000000005,0.12981481481481486,2.647300000011917],[0.058541666666666714,0.11925925925925922,2.663599999994041],[0.059583333333333384,0.10277777777777777,2.678300000011923],[0.04583333333333333,0.09407407407407399,2.693599999994042],[0.04458333333333329,0.102962962962963,2.7155999999940477],[0.04458333333333329,0.102962962962963,2.7269999999999968],[0.06625000000000002,0.0742592592592593,2.7437000000178884],[0.06625000000000002,0.0742592592592593,2.760200000017882],[0.0775000000000001,0.05314814814814823,2.777000000000008],[0.0696875000000001,0.06592592592592597,2.7979999999999947],[0.07322916666666662,0.05685185185185194,2.814],[0.07322916666666662,0.05685185185185194,2.8270000000000053],[0.057291666666666664,0.037037037037037035,2.8437000000178827],[0.041770833333333354,0.018518518518518517,2.86040000000596],[0.050729166666666714,0.015370370370370286,2.8814000000059607],[0.06416666666666669,0.02370370370370362,2.89670000001788],[0.06416666666666669,0.02370370370370362,2.910400000005957],[0.07864583333333333,0.03370370370370379,2.9312000000178884],[0.07864583333333333,0.03370370370370379,2.943800000011926],[0.08927083333333338,0.0020370370370370794,2.9605000000000032],[0.07895833333333328,-0.009999999999999959,2.980700000017883],[0.07895833333333328,-0.009999999999999959,2.9935999999940393],[0.08072916666666667,-0.028888888888888933,3.0103000000119167],[0.09322916666666667,-0.05537037037037033,3.028599999994036],[0.0990624999999999,-0.07314814814814814,3.047800000011925],[0.11583333333333339,-0.10648148148148148,3.0629000000059605],[0.11583333333333339,-0.10648148148148148,3.0800000000000054],[0.13395833333333323,-0.12388888888888884,3.0938000000119175],[0.1443749999999999,-0.12740740740740744,3.1104999999999947],[0.14260416666666675,-0.13796296296296295,3.1315999999940445],[0.16124999999999995,-0.14425925925925923,3.1469999999999985],[0.1712500000000001,-0.12518518518518523,3.163500000000006],[0.1868750000000001,-0.11296296296296296,3.179900000005965],[0.18937499999999996,-0.10574074074074079,3.1950000000000003],[0.19281249999999991,-0.0712962962962963,3.2157000000178826],[0.19281249999999991,-0.0712962962962963,3.2269999999999968],[0.19874999999999995,-0.05092592592592592,3.2437000000178884],[0.19822916666666662,-0.027777777777777776,3.2635000000000005],[0.19562499999999997,-0.02629629629629638,3.282400000005957],[0.19562499999999997,-0.02629629629629638,3.2935999999940364],[0.19802083333333323,-0.028888888888888933,3.314],[0.20666666666666675,-0.03555555555555564,3.330999999999996],[0.19041666666666662,-0.026111111111111154,3.3470000000000013],[0.17833333333333337,-0.03425925925925926,3.3615999999940342],[0.16833333333333325,-0.027407407407407325,3.381200000017877],[0.18239583333333323,-0.005555555555555556,3.3963000000119266],[0.18239583333333323,-0.005555555555555556,3.4103000000119224],[0.196875,-0.0001851851851852273,3.4269999999999996],[0.20125000000000004,0.007407407407407408,3.443599999994042],[0.20010416666666658,0.027037037037037078,3.464500000000008],[0.20104166666666667,0.02759259259259255,3.479900000005962],[0.19385416666666658,0.025925925925925925,3.4937000000178884],[0.19718749999999996,0.023333333333333376,3.511700000017889],[0.20499999999999996,0.0003703703703704546,3.527200000017878],[0.22302083333333325,0.012592592592592508,3.547800000011925],[0.24479166666666666,0.018888888888888972,3.5659999999999954],[0.21458333333333332,-0.011296296296296339,3.581099999994045],[0.1884375000000001,-0.04462962962962967,3.5968000000119176],[0.1443749999999999,-0.07259259259259257,3.6175999999940345],[0.1443749999999999,-0.07259259259259257,3.6270000000000024],[0.13666666666666671,-0.09370370370370375,3.64370000001788],[0.12708333333333333,-0.10203703703703708,3.6603000000119224],[0.12750000000000009,-0.1051851851851852,3.6795999999940463],[0.11666666666666667,-0.09648148148148153,3.695200000017884],[0.11666666666666667,-0.09648148148148153,3.7104000000059685],[0.10166666666666657,-0.0868518518518518,3.7269999999999968],[0.06854166666666663,-0.11518518518518517,3.7435999999940393],[0.05479166666666669,-0.12740740740740744,3.7607000000178843],[0.05499999999999995,-0.13777777777777775,3.778500000000001],[0.04041666666666662,-0.12759259259259256,3.797800000011925],[0.08083333333333324,-0.10685185185185184,3.8137000000178816],[0.059062500000000046,-0.11148148148148146,3.831099999994045],[0.06437499999999995,-0.10981481481481484,3.846700000017883],[0.058541666666666714,-0.11370370370370367,3.8653000000119206],[0.05395833333333329,-0.10981481481481484,3.8815999999940445],[0.05510416666666664,-0.12611111111111115,3.8970999999940474],[0.05510416666666664,-0.12611111111111115,3.910400000005957],[0.05562499999999997,-0.0933333333333333,3.9269999999999996],[0.03812500000000003,-0.09518518518518514,3.948400000005968],[0.04520833333333331,-0.0544444444444444,3.9649999999999963],[0.06302083333333333,-0.05944444444444449,3.9804000000059645],[0.03854166666666667,-0.04407407407407399,3.9949000000059627],[0.036458333333333336,-0.018888888888888972,4.011800000011924],[0.018229166666666668,0.011296296296296339,4.029599999994041],[0.004166666666666667,0.034444444444444486,4.047700000017876],[-0.0014583333333333095,0.03129629629629625,4.063700000017882],[-0.0014583333333333095,0.03129629629629625,4.077000000000005],[0.0017708333333333807,0.04888888888888885,4.093700000017883],[0.0034374999999999527,0.03740740740740749,4.110300000011925],[-0.008124999999999953,0.04388888888888897,4.129599999994035],[-0.024791666666666618,0.04814814814814815,4.1469999999999985],[-0.024687500000000046,0.06481481481481481,4.163500000000006],[-0.011770833333333286,0.057037037037036956,4.180200000017884],[-0.011770833333333286,0.057037037037036956,4.193700000017877],[-0.002708333333333357,0.03351851851851856,4.2103000000119195],[-0.002291666666666714,0.018518518518518517,4.2304000000059645],[-0.002291666666666714,0.018518518518518517,4.243599999994039],[-0.0048958333333333805,0.010925925925925884,4.260300000011917],[-0.016354166666666715,0.006296296296296254,4.277000000000008],[-0.03927083333333338,0.0020370370370370794,4.293599999994036],[-0.05791666666666669,-0.009444444444444486,4.313400000005963],[-0.05791666666666669,-0.009444444444444486,4.326900000005956],[-0.05677083333333333,0.002962962962963005,4.343599999994048],[-0.05364583333333333,-0.012222222222222264,4.360200000017876],[-0.071875,-0.009629629629629714,4.381099999994042],[-0.10062500000000002,-0.005185185185185101,4.3969999999999985],[-0.10218750000000003,0.0198148148148149,4.413599999994041],[-0.09718749999999995,0.011296296296296339,4.429599999994046],[-0.10750000000000005,0.02296296296296292,4.448400000005968],[-0.11614583333333334,0.03351851851851856,4.464999999999996]]","[0.00020000001788389454,0.048700000017880996,0.06030000001192093,0.07699999999999818,0.09359999999404067,0.11040000000595995,0.13120000001788412,0.14709999999404033,0.1639000000059596,0.1802000000178836,0.1947000000178818,0.2134000000059615,0.22980000001192025,0.24750000000000227,0.2607000000178843,0.277000000000001,0.29370000001788554,0.3140999999940419,0.33109999999403783,0.3468000000119247,0.36090000000596234,0.3770999999940443,0.39420000001788225,0.41340000000596433,0.4277000000178859,0.4437000000178841,0.4604000000059614,0.4778000000119249,0.49359999999403925,0.5119000000059586,0.5297000000178826,0.5469000000059623,0.5630000000000024,0.57709999999404,0.5935999999940407,0.61040000000596,0.6270999999940443,0.6437000000178799,0.6602000000178805,0.6775999999940439,0.6935999999940421,0.7148000000119197,0.7270000000000039,0.7478000000119209,0.7635000000000005,0.7795999999940406,0.7984000000059623,0.8140999999940419,0.8305000000000007,0.8514000000059596,0.8605000000000018,0.8773000000119211,0.8953000000119218,0.9158000000119202,0.9274000000059601,0.9439000000059607,0.9605000000000032,0.9822000000178832,0.993900000005965,1.0105999999940423,1.0290000000000035,1.0525999999940439,1.0604000000059628,1.0774000000059587,1.094200000017885,1.1103000000119252,1.1270000000000024,1.1437000000178799,1.1604000000059642,1.1784999999999997,1.193599999994042,1.2150000000000034,1.2270000000000039,1.2438000000119231,1.2604000000059656,1.277000000000001,1.2935999999940435,1.313300000011921,1.3309000000059612,1.3514000000059596,1.3605000000000018,1.377300000011921,1.3965000000000032,1.4164000000059644,1.4272000000178835,1.4439000000059607,1.463000000000001,1.4813000000119203,1.4938000000119231,1.5107000000178843,1.5280999999940406,1.550300000011923,1.5605999999940394,1.5774000000059587,1.5957000000178851,1.6169000000059626,1.6270999999940443,1.6439000000059636,1.660499999999999,1.6825000000000045,1.6937000000178841,1.710599999994038,1.7294000000059597,1.7438000000119231,1.7603000000119238,1.7819000000059617,1.7937000000178855,1.8104000000059628,1.8269999999999982,1.8437000000178827,1.8610000000000042,1.8770000000000024,1.8943000000119241,1.9138000000119249,1.9274000000059601,1.9464000000059656,1.9670999999940406,1.9770999999940386,1.993900000005965,2.018599999994038,2.049500000000002,2.055599999994044,2.0620999999940395,2.077200000017882,2.0969000000059594,2.1155000000000044,2.127300000011921,2.14670000001788,2.160499999999999,2.177500000000002,2.193800000011926,2.214700000017885,2.2273000000119225,2.243900000005965,2.2604000000059656,2.279300000011922,2.29790000000596,2.3105000000000047,2.327300000011924,2.346400000005964,2.361000000000004,2.3809000000059655,2.395000000000003,2.410400000005964,2.4270999999940415,2.443700000017884,2.463099999994043,2.4797000000178855,2.4967000000178814,2.511800000011924,2.5294999999999987,2.5475999999940413,2.5628000000119258,2.577300000011924,2.5935999999940478,2.610300000011925,2.631099999994042,2.647300000011917,2.663599999994041,2.678300000011923,2.693599999994042,2.7155999999940477,2.7269999999999968,2.7437000000178884,2.760200000017882,2.777000000000008,2.7979999999999947,2.814,2.8270000000000053,2.8437000000178827,2.86040000000596,2.8814000000059607,2.89670000001788,2.910400000005957,2.9312000000178884,2.943800000011926,2.9605000000000032,2.980700000017883,2.9935999999940393,3.0103000000119167,3.028599999994036,3.047800000011925,3.0629000000059605,3.0800000000000054,3.0938000000119175,3.1104999999999947,3.1315999999940445,3.1469999999999985,3.163500000000006,3.179900000005965,3.1950000000000003,3.2157000000178826,3.2269999999999968,3.2437000000178884,3.2635000000000005,3.282400000005957,3.2935999999940364,3.314,3.330999999999996,3.3470000000000013,3.3615999999940342,3.381200000017877,3.3963000000119266,3.4103000000119224,3.4269999999999996,3.443599999994042,3.464500000000008,3.479900000005962,3.4937000000178884,3.511700000017889,3.527200000017878,3.547800000011925,3.5659999999999954,3.581099999994045,3.5968000000119176,3.6175999999940345,3.6270000000000024,3.64370000001788,3.6603000000119224,3.6795999999940463,3.695200000017884,3.7104000000059685,3.7269999999999968,3.7435999999940393,3.7607000000178843,3.778500000000001,3.797800000011925,3.8137000000178816,3.831099999994045,3.846700000017883,3.8653000000119206,3.8815999999940445,3.8970999999940474,3.910400000005957,3.9269999999999996,3.948400000005968,3.9649999999999963,3.9804000000059645,3.9949000000059627,4.011800000011924,4.029599999994041,4.047700000017876,4.063700000017882,4.077000000000005,4.093700000017883,4.110300000011925,4.129599999994035,4.1469999999999985,4.163500000000006,4.180200000017884,4.193700000017877,4.2103000000119195,4.2304000000059645,4.243599999994039,4.260300000011917,4.277000000000008,4.293599999994036,4.313400000005963,4.326900000005956,4.343599999994048,4.360200000017876,4.381099999994042,4.3969999999999985,4.413599999994041,4.429599999994046,4.448400000005968,4.464999999999996]","[1732686903575,1732686903613,1732686903625,1732686903642,1732686903658,1732686903675,1732686903696,1732686903712,1732686903729,1732686903745,1732686903759,1732686903778,1732686903794,1732686903812,1732686903825,1732686903842,1732686903858,1732686903879,1732686903896,1732686903911,1732686903926,1732686903942,1732686903959,1732686903978,1732686903992,1732686904008,1732686904025,1732686904042,1732686904058,1732686904076,1732686904094,1732686904112,1732686904128,1732686904142,1732686904158,1732686904175,1732686904192,1732686904208,1732686904225,1732686904242,1732686904258,1732686904280,1732686904292,1732686904313,1732686904328,1732686904344,1732686904363,1732686904379,1732686904395,1732686904416,1732686904425,1732686904442,1732686904460,1732686904480,1732686904492,1732686904509,1732686904525,1732686904547,1732686904559,1732686904575,1732686904594,1732686904617,1732686904625,1732686904642,1732686904659,1732686904675,1732686904692,1732686904708,1732686904725,1732686904743,1732686904758,1732686904780,1732686904792,1732686904808,1732686904825,1732686904842,1732686904858,1732686904878,1732686904895,1732686904916,1732686904925,1732686904942,1732686904961,1732686904981,1732686904992,1732686905009,1732686905028,1732686905046,1732686905058,1732686905075,1732686905093,1732686905115,1732686905125,1732686905142,1732686905160,1732686905182,1732686905192,1732686905209,1732686905225,1732686905247,1732686905258,1732686905275,1732686905294,1732686905309,1732686905325,1732686905347,1732686905358,1732686905375,1732686905392,1732686905408,1732686905426,1732686905442,1732686905459,1732686905479,1732686905492,1732686905511,1732686905532,1732686905542,1732686905559,1732686905583,1732686905614,1732686905620,1732686905627,1732686905642,1732686905662,1732686905680,1732686905692,1732686905711,1732686905725,1732686905742,1732686905758,1732686905779,1732686905792,1732686905809,1732686905825,1732686905844,1732686905863,1732686905875,1732686905892,1732686905911,1732686905926,1732686905946,1732686905960,1732686905975,1732686905992,1732686906008,1732686906028,1732686906044,1732686906061,1732686906076,1732686906094,1732686906112,1732686906127,1732686906142,1732686906158,1732686906175,1732686906196,1732686906212,1732686906228,1732686906243,1732686906258,1732686906280,1732686906292,1732686906308,1732686906325,1732686906342,1732686906363,1732686906379,1732686906392,1732686906408,1732686906425,1732686906446,1732686906461,1732686906475,1732686906496,1732686906508,1732686906525,1732686906545,1732686906558,1732686906575,1732686906593,1732686906612,1732686906628,1732686906645,1732686906658,1732686906675,1732686906696,1732686906712,1732686906728,1732686906745,1732686906760,1732686906780,1732686906792,1732686906808,1732686906828,1732686906847,1732686906858,1732686906879,1732686906896,1732686906912,1732686906926,1732686906946,1732686906961,1732686906975,1732686906992,1732686907008,1732686907029,1732686907045,1732686907058,1732686907076,1732686907092,1732686907112,1732686907131,1732686907146,1732686907162,1732686907182,1732686907192,1732686907208,1732686907225,1732686907244,1732686907260,1732686907275,1732686907292,1732686907308,1732686907325,1732686907343,1732686907362,1732686907378,1732686907396,1732686907411,1732686907430,1732686907446,1732686907462,1732686907475,1732686907492,1732686907513,1732686907530,1732686907545,1732686907560,1732686907576,1732686907594,1732686907612,1732686907628,1732686907642,1732686907658,1732686907675,1732686907694,1732686907712,1732686907728,1732686907745,1732686907758,1732686907775,1732686907795,1732686907808,1732686907825,1732686907842,1732686907858,1732686907878,1732686907892,1732686907908,1732686907925,1732686907946,1732686907962,1732686907978,1732686907994,1732686908013,1732686908030]","[[797.1,727.6],[797.1,727.6],[796.4,739.7],[803.1,746.2],[808.8,750.7],[826.1,740.5],[850.1,729.2],[859.5,732.4],[851.8,742.2],[856.2,746.2],[863.5,748.8],[863.1,748.1],[857.2,749.2],[842.3,755.2],[824,761.3],[796.2,777],[761.7,793.8],[740.9,794.2],[749.2,796.9],[746.2,789.4],[751.4,782.1],[760.7,775.3],[775.5,766.7],[799.8,772.3],[827.5,777.8],[855.4,790.2],[883.3,802.6],[894,798.8],[876.8,791.4],[878.2,810.2],[899.2,833],[916.1,855.3],[917.2,868.4],[910.4,868],[910.1,875.4],[889.4,855],[889.4,855],[873.5,838.5],[883.7,841.2],[895,855],[907.9,854.8],[912.9,847.8],[912.9,847.8],[917.9,840.8],[923.9,836.9],[947.5,834.5],[971,825.1],[1012.8,842.2],[1053.6,835.1],[1068,824.6],[1068,824.6],[1085.9,816.9],[1076.6,797.6],[1076.6,797.6],[1075,780.5],[1075,780.5],[1080.6,785.5],[1105.6,794.8],[1105.6,794.8],[1104.9,794.8],[1096.5,786.3],[1090,772.2],[1090,772.2],[1100.9,780.3],[1138.6,802.7],[1140.6,800.8],[1160.9,808.5],[1160.9,808.5],[1184.9,821.1],[1174,804.8],[1171.9,787.2],[1176.1,778],[1176.1,778],[1181.6,776.5],[1155.1,786.8],[1127.7,777.4],[1096,758.9],[1076.9,768.4],[1071,755.6],[1036.7,735.2],[1036.7,735.2],[1037.1,721.2],[992.4,736.7],[949.5,751.6],[949.5,751.6],[934.4,740.9],[942.1,726.7],[929.5,730.3],[929.5,730.3],[932.8,720.2],[973.1,691.5],[964,675.6],[964,675.6],[967.9,665.4],[982.2,661.1],[1025.4,632],[1025.4,632],[1088.4,596.3],[1123.6,586.2],[1167.8,568.9],[1167.8,568.9],[1162.2,536.1],[1161.8,513.3],[1161.8,513.3],[1153.3,492.5],[1176,474.5],[1176,474.5],[1181.8,451],[1181.8,451],[1163.4,425.8],[1153.6,405.2],[1127.2,393.9],[1078.6,374],[1078.6,374],[1072.9,369.9],[1110,378.5],[1126,393.2],[1126,393.2],[1126.7,406.1],[1119.6,427.2],[1119.6,427.2],[1127.8,442.3],[1127.8,442.3],[1126.6,458.3],[1128,467.9],[1126.8,473.8],[1126.8,473.8],[1144.8,498.8],[1144.8,498.8],[1090.2,495],[1074.1,497.1],[1044.5,496.1],[1044.5,496.1],[1040.7,491.8],[1040.7,491.8],[1057.2,484.3],[1055.6,485.2],[1055.6,485.2],[1057.5,474.8],[1055.5,463.9],[1052.9,459.7],[1043.8,444],[1079.7,438.1],[1079.7,438.1],[1082.2,432.5],[1069,429.9],[1047.5,428.5],[1015,434.2],[1006,450],[999.2,475.6],[1001.1,496.8],[1003,512.3],[1001.5,537.3],[989.5,562.9],[982.2,566.8],[995.5,572.6],[1010.6,594],[1025.7,610.1],[1016.2,604.4],[1017.2,595.5],[1004,590.8],[1002.8,595.6],[1002.8,595.6],[1023.6,580.1],[1023.6,580.1],[1034.4,568.7],[1026.9,575.6],[1030.3,570.7],[1030.3,570.7],[1015,560],[1000.1,550],[1008.7,548.3],[1021.6,552.8],[1021.6,552.8],[1035.5,558.2],[1035.5,558.2],[1045.7,541.1],[1035.8,534.6],[1035.8,534.6],[1037.5,524.4],[1049.5,510.1],[1055.1,500.5],[1071.2,482.5],[1071.2,482.5],[1088.6,473.1],[1098.6,471.2],[1096.9,465.5],[1114.8,462.1],[1124.4,472.4],[1139.4,479],[1141.8,482.9],[1145.1,501.5],[1145.1,501.5],[1150.8,512.5],[1150.3,525],[1147.8,525.8],[1147.8,525.8],[1150.1,524.4],[1158.4,520.8],[1142.8,525.9],[1131.2,521.5],[1121.6,525.2],[1135.1,537],[1135.1,537],[1149,539.9],[1153.2,544],[1152.1,554.6],[1153,554.9],[1146.1,554],[1149.3,552.6],[1156.8,540.2],[1174.1,546.8],[1195,550.2],[1166,533.9],[1140.9,515.9],[1098.6,500.8],[1098.6,500.8],[1091.2,489.4],[1082,484.9],[1082.4,483.2],[1072,487.9],[1072,487.9],[1057.6,493.1],[1025.8,477.8],[1012.6,471.2],[1012.8,465.6],[998.8,471.1],[1037.6,482.3],[1016.7,479.8],[1021.8,480.7],[1016.2,478.6],[1011.8,480.7],[1012.9,471.9],[1012.9,471.9],[1013.4,489.6],[996.6,488.6],[1003.4,510.6],[1020.5,507.9],[997,516.2],[995,529.8],[977.5,546.1],[964,558.6],[958.6,556.9],[958.6,556.9],[961.7,566.4],[963.3,560.2],[952.2,563.7],[936.2,566],[936.3,575],[948.7,570.8],[948.7,570.8],[957.4,558.1],[957.8,550],[957.8,550],[955.3,545.9],[944.3,543.4],[922.3,541.1],[904.4,534.9],[904.4,534.9],[905.5,541.6],[908.5,533.4],[891,534.8],[863.4,537.2],[861.9,550.7],[866.7,546.1],[856.8,552.4],[848.5,558.1]]","[-0.056692,0.170076]","[0.056692,0.170076]","[0.170076,0.170076]","[-0.170076,-0.170076]","[-0.170076,-0.056692]","[-0.170076,0.056692]","[-0.056692,-0.170076]","[0.056692,-0.170076]","[0.170076,-0.170076]","[-0.056692,-0.056692]","[0.056692,-0.056692]","[0.170076,-0.056692]","[-0.056692,0.056692]","[0.056692,0.056692]","[0.170076,0.056692]",0,0,0,0,1,4,Smartphone,25,20,8,1,60,4,1,60,3
