inst1_resp.keys,inst1_resp.rt,calibrationMouse.x,calibrationMouse.y,calibrationMouse.leftButton,calibrationMouse.midButton,calibrationMouse.rightButton,calibrationClick.x,calibrationClick.y,calibrationClick.leftButton,calibrationClick.midButton,calibrationClick.rightButton,trialsc.thisRepN,trialsc.thisTrialN,trialsc.thisN,trialsc.thisIndex,trialsc.ran,calibration_x,calibration_y,participant,session,date,expName,psychopyVersion,OS,frameRate,calibrationClick.clicked_name,ScreenRes_pixels,Camera_pixels,mouse_2.x,mouse_2.y,mouse_2.leftButton,mouse_2.midButton,mouse_2.rightButton,mouse_2.time,mouse_2.clicked_name,mouse.x,mouse.y,mouse.leftButton,mouse.midButton,mouse.rightButton,mouse.time,mouse.clicked_name,Choice,Trial,TrialDuration,MOUSE_GAZE,ET_GAZE,ET_GAZE_x_T,time,unixTime,ET_GAZE_NF,Loc_Bus_label,Loc_Metro_label,Loc_RH_label,Loc_Cost_label,Loc_Travel_label,Loc_Comfort_label,Loc_Bus_cost,Loc_Metro_cost,Loc_RH_cost,Loc_Bus_travel,Loc_Metro_travel,Loc_RH_travel,Loc_Bus_comfort,Loc_Metro_comfort,Loc_RH_comfort,trials.thisRepN,trials.thisTrialN,trials.thisN,trials.thisIndex,trials.ran,Block,Device,RH_cost,RH_travel_time,RH_Comfort,metro_cost,metro_travel_time,metro_Comfort,Bus_cost,Bus_travel_time,Bus_Comfort
space,2.3606,-0.0375,-0.003703704,1,0,0,-0.659375,-0.32962963,1,0,0,0,0,0,1,1,-0.67,-0.33,32,001,2024-11-26_12h00.18.232,Attention_exp_legacy,2023.1.0,Win32,59.88023952,,,,,,,,,,,,,,,,,,,,,,,,,,,,,,,,,,,,,,,,,,,,,,,,,,,,,,,,,
,,,,,,,-0.004166667,0.677777778,1,0,0,0,1,1,13,1,0,0.67,32,001,2024-11-26_12h00.18.232,Attention_exp_legacy,2023.1.0,Win32,59.88023952,calibration_square,,,,,,,,,,,,,,,,,,,,,,,,,,,,,,,,,,,,,,,,,,,,,,,,,,,,,,,,
,,,,,,,-0.667708333,0.327777778,1,0,0,0,2,2,3,1,-0.67,0.33,32,001,2024-11-26_12h00.18.232,Attention_exp_legacy,2023.1.0,Win32,59.88023952,calibration_square,,,,,,,,,,,,,,,,,,,,,,,,,,,,,,,,,,,,,,,,,,,,,,,,,,,,,,,,
,,,,,,,-0.330208333,0.005555556,1,0,0,0,3,3,6,1,-0.33,0,32,001,2024-11-26_12h00.18.232,Attention_exp_legacy,2023.1.0,Win32,59.88023952,calibration_square,,,,,,,,,,,,,,,,,,,,,,,,,,,,,,,,,,,,,,,,,,,,,,,,,,,,,,,,
,,,,,,,-0.003125,-0.32037037,1,0,0,0,4,4,10,1,0,-0.33,32,001,2024-11-26_12h00.18.232,Attention_exp_legacy,2023.1.0,Win32,59.88023952,calibration_square,,,,,,,,,,,,,,,,,,,,,,,,,,,,,,,,,,,,,,,,,,,,,,,,,,,,,,,,
,,,,,,,0.6625,-0.664814815,1,0,0,0,5,5,20,1,0.67,-0.67,32,001,2024-11-26_12h00.18.232,Attention_exp_legacy,2023.1.0,Win32,59.88023952,calibration_square,,,,,,,,,,,,,,,,,,,,,,,,,,,,,,,,,,,,,,,,,,,,,,,,,,,,,,,,
,,,,,,,-0.320833333,-0.318518519,1,0,0,0,6,6,5,1,-0.33,-0.33,32,001,2024-11-26_12h00.18.232,Attention_exp_legacy,2023.1.0,Win32,59.88023952,,,,,,,,,,,,,,,,,,,,,,,,,,,,,,,,,,,,,,,,,,,,,,,,,,,,,,,,,
,,,,,,,0.344791667,-0.327777778,1,0,0,0,7,7,15,1,0.33,-0.33,32,001,2024-11-26_12h00.18.232,Attention_exp_legacy,2023.1.0,Win32,59.88023952,,,,,,,,,,,,,,,,,,,,,,,,,,,,,,,,,,,,,,,,,,,,,,,,,,,,,,,,,
,,,,,,,-0.334375,0.32037037,1,0,0,0,8,8,7,1,-0.33,0.33,32,001,2024-11-26_12h00.18.232,Attention_exp_legacy,2023.1.0,Win32,59.88023952,calibration_square,,,,,,,,,,,,,,,,,,,,,,,,,,,,,,,,,,,,,,,,,,,,,,,,,,,,,,,,
,,,,,,,-0.667708333,-0.674074074,1,0,0,0,9,9,0,1,-0.67,-0.67,32,001,2024-11-26_12h00.18.232,Attention_exp_legacy,2023.1.0,Win32,59.88023952,calibration_square,,,,,,,,,,,,,,,,,,,,,,,,,,,,,,,,,,,,,,,,,,,,,,,,,,,,,,,,
,,,,,,,-0.009375,0.011111111,1,0,0,0,10,10,11,1,0,0,32,001,2024-11-26_12h00.18.232,Attention_exp_legacy,2023.1.0,Win32,59.88023952,,,,,,,,,,,,,,,,,,,,,,,,,,,,,,,,,,,,,,,,,,,,,,,,,,,,,,,,,
,,,,,,,0.323958333,-0.001851852,1,0,0,0,11,11,16,1,0.33,0,32,001,2024-11-26_12h00.18.232,Attention_exp_legacy,2023.1.0,Win32,59.88023952,calibration_square,,,,,,,,,,,,,,,,,,,,,,,,,,,,,,,,,,,,,,,,,,,,,,,,,,,,,,,,
,,,,,,,-0.003125,0.331481481,1,0,0,0,12,12,12,1,0,0.33,32,001,2024-11-26_12h00.18.232,Attention_exp_legacy,2023.1.0,Win32,59.88023952,calibration_square,,,,,,,,,,,,,,,,,,,,,,,,,,,,,,,,,,,,,,,,,,,,,,,,,,,,,,,,
,,,,,,,-0.673958333,0.005555556,1,0,0,0,13,13,2,1,-0.67,0,32,001,2024-11-26_12h00.18.232,Attention_exp_legacy,2023.1.0,Win32,59.88023952,calibration_square,,,,,,,,,,,,,,,,,,,,,,,,,,,,,,,,,,,,,,,,,,,,,,,,,,,,,,,,
,,,,,,,-0.338541667,0.681481481,1,0,0,0,14,14,8,1,-0.33,0.67,32,001,2024-11-26_12h00.18.232,Attention_exp_legacy,2023.1.0,Win32,59.88023952,,,,,,,,,,,,,,,,,,,,,,,,,,,,,,,,,,,,,,,,,,,,,,,,,,,,,,,,,
,,,,,,,0.003125,-0.651851852,1,0,0,0,15,15,9,1,0,-0.67,32,001,2024-11-26_12h00.18.232,Attention_exp_legacy,2023.1.0,Win32,59.88023952,,,,,,,,,,,,,,,,,,,,,,,,,,,,,,,,,,,,,,,,,,,,,,,,,,,,,,,,,
,,,,,,,0.66875,0.655555556,1,0,0,0,16,16,19,1,0.67,0.67,32,001,2024-11-26_12h00.18.232,Attention_exp_legacy,2023.1.0,Win32,59.88023952,,,,,,,,,,,,,,,,,,,,,,,,,,,,,,,,,,,,,,,,,,,,,,,,,,,,,,,,,
,,,,,,,0.321875,0.666666667,1,0,0,0,17,17,18,1,0.33,0.67,32,001,2024-11-26_12h00.18.232,Attention_exp_legacy,2023.1.0,Win32,59.88023952,calibration_square,,,,,,,,,,,,,,,,,,,,,,,,,,,,,,,,,,,,,,,,,,,,,,,,,,,,,,,,
,,,,,,,-0.320833333,-0.683333333,1,0,0,0,18,18,4,1,-0.33,-0.67,32,001,2024-11-26_12h00.18.232,Attention_exp_legacy,2023.1.0,Win32,59.88023952,,,,,,,,,,,,,,,,,,,,,,,,,,,,,,,,,,,,,,,,,,,,,,,,,,,,,,,,,
,,,,,,,0.33125,-0.674074074,1,0,0,0,19,19,14,1,0.33,-0.67,32,001,2024-11-26_12h00.18.232,Attention_exp_legacy,2023.1.0,Win32,59.88023952,calibration_square,,,,,,,,,,,,,,,,,,,,,,,,,,,,,,,,,,,,,,,,,,,,,,,,,,,,,,,,
,,,,,,,0.338541667,0.316666667,1,0,0,0,20,20,17,1,0.33,0.33,32,001,2024-11-26_12h00.18.232,Attention_exp_legacy,2023.1.0,Win32,59.88023952,,,,,,,,,,,,,,,,,,,,,,,,,,,,,,,,,,,,,,,,,,,,,,,,,,,,,,,,,
,,,,,,,,,,,,,,,,,,,32,001,2024-11-26_12h00.18.232,Attention_exp_legacy,2023.1.0,Win32,59.88023952,,"[1920,1080]","[640,480]",[0.07291666666666667],[-0.4981481481481482],[1],[0],[0],[1.5468999999985158],"[""StartButton""]",[0.253125],[0.6240740740740741],[1],[0],[0],[2.9639999999999986],"[""Metro_label""]",Metro_label,1,3.9757,"[[0.008333333333333333,-0.11851851851851852],[0.008333333333333333,-0.11851851851851852],[0.008333333333333333,-0.11851851851851852],[0.008333333333333333,-0.11851851851851852],[0.008333333333333333,-0.11851851851851852],[0.008333333333333333,-0.11851851851851852],[0.008333333333333333,-0.11851851851851852],[0.008333333333333333,-0.11851851851851852],[0.008333333333333333,-0.11851851851851852],[0.008333333333333333,-0.11851851851851852],[0.008333333333333333,-0.11851851851851852],[0.008333333333333333,-0.11851851851851852],[0.008333333333333333,-0.11851851851851852],[0.008333333333333333,-0.11851851851851852],[0.008333333333333333,-0.11851851851851852],[0.008333333333333333,-0.11851851851851852],[0.008333333333333333,-0.11851851851851852],[0.008333333333333333,-0.11851851851851852],[0.008333333333333333,-0.11851851851851852],[0.008333333333333333,-0.11851851851851852],[0.008333333333333333,-0.11851851851851852],[0.008333333333333333,-0.11851851851851852],[0.008333333333333333,-0.11851851851851852],[0.008333333333333333,-0.11851851851851852],[0.008333333333333333,-0.11851851851851852],[0.008333333333333333,-0.11851851851851852],[0.008333333333333333,-0.11851851851851852],[0.008333333333333333,-0.11851851851851852],[0.008333333333333333,-0.11851851851851852],[0.008333333333333333,-0.11851851851851852],[0.008333333333333333,-0.11851851851851852],[0.008333333333333333,-0.11851851851851852],[0.008333333333333333,-0.11851851851851852],[0.008333333333333333,-0.11851851851851852],[0.008333333333333333,-0.11851851851851852],[0.008333333333333333,-0.11851851851851852],[0.008333333333333333,-0.11851851851851852],[0.008333333333333333,-0.11851851851851852],[0.008333333333333333,-0.11851851851851852],[0.008333333333333333,-0.11851851851851852],[0.008333333333333333,-0.11851851851851852],[0.008333333333333333,-0.11851851851851852],[0.008333333333333333,-0.11851851851851852],[0.008333333333333333,-0.11851851851851852],[0.008333333333333333,-0.11851851851851852],[0.008333333333333333,-0.11851851851851852],[0.008333333333333333,-0.11851851851851852],[0.008333333333333333,-0.11851851851851852],[0.008333333333333333,-0.11851851851851852],[0.008333333333333333,-0.11851851851851852],[0.008333333333333333,-0.11851851851851852],[0.008333333333333333,-0.11851851851851852],[0.008333333333333333,-0.11851851851851852],[0.008333333333333333,-0.11851851851851852],[0.008333333333333333,-0.11851851851851852],[0.008333333333333333,-0.11851851851851852],[0.008333333333333333,-0.11851851851851852],[0.008333333333333333,-0.11851851851851852],[0.008333333333333333,-0.11851851851851852],[0.008333333333333333,-0.11851851851851852],[0.008333333333333333,-0.11851851851851852],[0.008333333333333333,-0.11851851851851852],[0.008333333333333333,-0.11851851851851852],[0.008333333333333333,-0.11851851851851852],[0.008333333333333333,-0.11851851851851852],[0.008333333333333333,-0.11851851851851852],[0.008333333333333333,-0.11851851851851852],[0.008333333333333333,-0.11851851851851852],[0.008333333333333333,-0.11851851851851852],[0.008333333333333333,-0.11851851851851852],[0.008333333333333333,-0.11851851851851852],[0.008333333333333333,-0.11851851851851852],[0.008333333333333333,-0.11851851851851852],[0.008333333333333333,-0.11851851851851852],[0.008333333333333333,-0.11851851851851852],[0.008333333333333333,-0.11851851851851852],[0.008333333333333333,-0.11851851851851852],[0.008333333333333333,-0.11851851851851852],[0.008333333333333333,-0.11851851851851852],[0.008333333333333333,-0.11851851851851852],[0.008333333333333333,-0.11851851851851852],[0.008333333333333333,-0.11851851851851852],[0.008333333333333333,-0.11851851851851852],[0.008333333333333333,-0.11851851851851852],[0.008333333333333333,-0.11851851851851852],[0.008333333333333333,-0.11851851851851852],[0.008333333333333333,-0.11851851851851852],[0.008333333333333333,-0.11851851851851852],[0.008333333333333333,-0.11851851851851852],[0.008333333333333333,-0.11851851851851852],[0.008333333333333333,-0.11851851851851852],[0.008333333333333333,-0.11851851851851852],[0.008333333333333333,-0.11851851851851852],[0.008333333333333333,-0.11851851851851852],[0.008333333333333333,-0.11851851851851852],[0.008333333333333333,-0.11851851851851852],[0.011458333333333333,-0.11481481481481481],[0.014583333333333334,-0.10740740740740741],[0.021875,-0.09814814814814815],[0.030208333333333334,-0.08888888888888889],[0.05,-0.05925925925925926],[0.05625,-0.05],[0.07395833333333333,-0.022222222222222223],[0.09791666666666667,0.018518518518518517],[0.140625,0.0962962962962963],[0.16979166666666667,0.1648148148148148],[0.18645833333333334,0.20555555555555555],[0.2,0.2388888888888889],[0.20833333333333334,0.26296296296296295],[0.215625,0.28888888888888886],[0.22395833333333334,0.3148148148148148],[0.23125,0.337037037037037],[0.234375,0.3592592592592593],[0.2375,0.3851851851851852],[0.24166666666666667,0.42777777777777776],[0.24479166666666666,0.4537037037037037],[0.24895833333333334,0.4777777777777778],[0.25104166666666666,0.49444444444444446],[0.253125,0.512962962962963],[0.253125,0.5259259259259259],[0.2552083333333333,0.5407407407407407],[0.25625,0.5537037037037037],[0.25729166666666664,0.5611111111111111],[0.259375,0.5740740740740741],[0.259375,0.575925925925926],[0.259375,0.5796296296296296],[0.259375,0.5833333333333334],[0.259375,0.5907407407407408],[0.259375,0.5925925925925926],[0.259375,0.5981481481481481],[0.259375,0.6018518518518519],[0.259375,0.6055555555555555],[0.259375,0.6111111111111112],[0.259375,0.6166666666666667],[0.259375,0.6259259259259259],[0.259375,0.6296296296296297],[0.259375,0.6314814814814815],[0.259375,0.6333333333333333],[0.259375,0.6333333333333333],[0.259375,0.6333333333333333],[0.259375,0.6333333333333333],[0.259375,0.6333333333333333],[0.259375,0.6333333333333333],[0.259375,0.6333333333333333],[0.259375,0.6333333333333333],[0.259375,0.6333333333333333],[0.259375,0.6333333333333333],[0.259375,0.6333333333333333],[0.259375,0.6333333333333333],[0.259375,0.6333333333333333],[0.259375,0.6333333333333333],[0.259375,0.6333333333333333],[0.259375,0.6333333333333333],[0.259375,0.6333333333333333],[0.259375,0.6333333333333333],[0.259375,0.6333333333333333],[0.259375,0.6333333333333333],[0.259375,0.6333333333333333],[0.25833333333333336,0.6333333333333333],[0.25625,0.6333333333333333],[0.25625,0.6333333333333333],[0.25625,0.6333333333333333],[0.25625,0.6333333333333333],[0.2552083333333333,0.6296296296296297],[0.2552083333333333,0.6277777777777778],[0.253125,0.6277777777777778],[0.253125,0.6277777777777778],[0.253125,0.6240740740740741],[0.253125,0.6240740740740741],[0.253125,0.6240740740740741],[0.253125,0.6240740740740741],[0.253125,0.6240740740740741],[0.253125,0.6240740740740741],[0.253125,0.6240740740740741],[0.253125,0.6240740740740741],[0.253125,0.6240740740740741],[0.253125,0.6240740740740741],[0.253125,0.6240740740740741],[0.253125,0.6240740740740741],[0.253125,0.6240740740740741],[0.253125,0.6240740740740741],[0.253125,0.6240740740740741],[0.253125,0.6240740740740741],[0.253125,0.6240740740740741],[0.253125,0.6240740740740741],[0.253125,0.6240740740740741],[0.253125,0.6240740740740741],[0.253125,0.6240740740740741],[0.253125,0.6240740740740741],[0.253125,0.6240740740740741],[0.253125,0.6240740740740741],[0.253125,0.6240740740740741],[0.253125,0.6240740740740741],[0.253125,0.6240740740740741],[0.253125,0.6240740740740741],[0.253125,0.6240740740740741],[0.2520833333333333,0.6222222222222222],[0.2520833333333333,0.6222222222222222],[0.2520833333333333,0.6222222222222222],[0.2520833333333333,0.6222222222222222],[0.2520833333333333,0.6222222222222222],[0.2520833333333333,0.6222222222222222],[0.2520833333333333,0.6222222222222222],[0.2520833333333333,0.6222222222222222],[0.2520833333333333,0.6222222222222222],[0.2520833333333333,0.6222222222222222],[0.2520833333333333,0.6222222222222222],[0.2520833333333333,0.6222222222222222],[0.2520833333333333,0.6222222222222222],[0.2520833333333333,0.6222222222222222],[0.2520833333333333,0.6222222222222222],[0.2520833333333333,0.6222222222222222],[0.2520833333333333,0.6222222222222222],[0.2520833333333333,0.6222222222222222],[0.2520833333333333,0.6222222222222222],[0.2520833333333333,0.6222222222222222],[0.2520833333333333,0.6185185185185185],[0.2520833333333333,0.6185185185185185],[0.2520833333333333,0.6185185185185185],[0.2520833333333333,0.6185185185185185],[0.2520833333333333,0.6185185185185185],[0.2520833333333333,0.6185185185185185],[0.2520833333333333,0.6185185185185185],[0.2520833333333333,0.6185185185185185],[0.2520833333333333,0.6185185185185185],[0.2520833333333333,0.6185185185185185],[0.2520833333333333,0.6185185185185185],[0.2520833333333333,0.6185185185185185],[0.2520833333333333,0.6185185185185185],[0.2520833333333333,0.6185185185185185],[0.2520833333333333,0.6185185185185185],[0.2520833333333333,0.6185185185185185],[0.2520833333333333,0.6185185185185185],[0.25104166666666666,0.6185185185185185],[0.25,0.6166666666666667],[0.25,0.6166666666666667],[0.25,0.6166666666666667],[0.25,0.6166666666666667]]","[[-0.365625,0.09444444444444444],[-0.365625,0.09444444444444444],[-0.3732291666666666,0.0772222222222223],[-0.3732291666666666,0.0772222222222223],[-0.3494791666666667,0.08592592592592588],[-0.3501041666666667,0.08277777777777787],[-0.3333333333333333,0.07240740740740745],[-0.30874999999999997,0.05018518518518523],[-0.30874999999999997,0.05018518518518523],[-0.31666666666666665,0.06481481481481481],[-0.3141666666666667,0.14148148148148143],[-0.3116666666666667,0.21814814814814806],[-0.32364583333333335,0.32888888888888895],[-0.3408333333333334,0.41944444444444445],[-0.36833333333333335,0.4705555555555556],[-0.415,0.472037037037037],[-0.42520833333333335,0.5035185185185185],[-0.4491666666666667,0.5703703703703704],[-0.46541666666666665,0.644074074074074],[-0.4640625,0.6527777777777778],[-0.46062500000000006,0.6157407407407407],[-0.4653125000000001,0.5890740740740741],[-0.47,0.5624074074074075],[-0.47,0.5624074074074075],[-0.4501041666666667,0.48092592592592603],[-0.41989583333333336,0.3449999999999999],[-0.41989583333333336,0.3449999999999999],[-0.419375,0.25759259259259265],[-0.3961458333333333,0.17314814814814813],[-0.3765625,0.06055555555555564],[-0.3765625,0.06055555555555564],[-0.3680208333333333,-0.10592592592592591],[-0.34104166666666663,-0.17481481481481478],[-0.3140625,-0.24370370370370376],[-0.28624999999999995,-0.4057407407407408],[-0.25843750000000004,-0.5677777777777778],[-0.25,-0.6548148148148148],[-0.26145833333333335,-0.6359259259259259],[-0.25541666666666674,-0.6418518518518519],[-0.2516666666666667,-0.667962962962963],[-0.24791666666666667,-0.6940740740740741],[-0.23885416666666662,-0.6601851851851852],[-0.23333333333333334,-0.6957407407407408],[-0.23552083333333335,-0.7446296296296296],[-0.24312499999999998,-0.7166666666666667],[-0.3204166666666667,-0.5803703703703703],[-0.3204166666666667,-0.5803703703703703],[-0.3977083333333333,-0.4440740740740741],[-0.511875,-0.36444444444444446],[-0.61875,-0.2861111111111111],[-0.7614583333333333,-0.1896296296296296],[-0.8909374999999999,-0.09222222222222225],[-1.0090625,0.028518518518518478],[-1.1421875,0.13870370370370366],[-1.2792708333333331,0.25500000000000006],[-1.4071875,0.32981481481481484],[-1.480625,0.36148148148148157],[-1.5540625000000001,0.3931481481481481],[-1.5596875,0.4125925925925925],[-1.5538541666666668,0.3242592592592593],[-1.5313541666666666,0.23870370370370367],[-1.5313541666666666,0.23870370370370367],[-1.4825000000000002,0.26481481481481484],[-1.3820833333333333,0.2168518518518519],[-1.2666666666666666,0.1794444444444444],[-1.1182291666666666,0.15166666666666662],[-0.9707291666666666,0.15425925925925918],[-0.8183333333333334,0.10425925925925918],[-0.6607291666666666,0.08111111111111102],[-0.5132291666666666,0.07296296296296292],[-0.39489583333333333,0.1764814814814814],[-0.25895833333333335,0.26592592592592595],[-0.1648958333333333,0.24296296296296305],[-0.13572916666666662,0.2577777777777779],[-0.11947916666666672,0.2881481481481482],[-0.1376041666666667,0.3479629629629629],[-0.1376041666666667,0.3479629629629629],[-0.11927083333333334,0.3675925925925926],[-0.10218750000000003,0.35981481481481475],[-0.09031250000000005,0.32518518518518524],[-0.11312500000000002,0.3446296296296297],[-0.11312500000000002,0.3446296296296297],[-0.12552083333333333,0.36148148148148157],[-0.12552083333333333,0.36148148148148157],[-0.1655208333333333,0.35481481481481486],[-0.19500000000000003,0.3235185185185186],[-0.21770833333333334,0.2992592592592593],[-0.23083333333333336,0.26888888888888896],[-0.23333333333333334,0.19611111111111107],[-0.2578125,0.2205555555555556],[-0.27072916666666663,0.2598148148148147],[-0.27072916666666663,0.2598148148148147],[-0.3039583333333333,0.2572222222222222],[-0.3330208333333334,0.23111111111111102],[-0.36520833333333336,0.18055555555555555],[-0.38864583333333336,0.1638888888888889],[-0.4203125,0.17166666666666675],[-0.3921875,0.1955555555555556],[-0.371875,0.2],[-0.3532291666666667,0.22481481481481477],[-0.33406250000000004,0.21148148148148158],[-0.31572916666666667,0.18092592592592602],[-0.3578125,0.2403703703703703],[-0.37218749999999995,0.19574074074074083],[-0.37218749999999995,0.19574074074074083],[-0.36656249999999996,0.22333333333333338],[-0.3302083333333333,0.25462962962962965],[-0.24791666666666667,0.2272222222222223],[-0.23218749999999996,0.1766666666666666],[-0.259375,0.1883333333333334],[-0.259375,0.1883333333333334],[-0.22552083333333334,0.12962962962962962],[-0.20864583333333328,0.09277777777777782],[-0.19312499999999996,0.025370370370370456],[-0.0860416666666667,-0.07592592592592592],[-0.007291666666666667,-0.07462962962962966],[-0.007291666666666667,-0.07462962962962966],[0.0756249999999999,-0.15685185185185183],[0.10968749999999995,-0.22259259259259256],[0.08010416666666677,-0.18851851851851853],[0.10385416666666672,-0.18333333333333332],[0.15093750000000009,-0.26055555555555554],[0.16208333333333325,-0.2770370370370371],[0.1728125000000001,-0.327962962962963],[0.1728125000000001,-0.327962962962963],[0.1560416666666666,-0.3111111111111111],[0.1571875000000001,-0.305],[0.17927083333333324,-0.3512962962962963],[0.1716666666666666,-0.37907407407407406],[0.18218750000000009,-0.4270370370370371],[0.2578125,-0.5294444444444444],[0.28010416666666677,-0.602962962962963],[0.33312499999999995,-0.6462962962962963],[0.3541666666666667,-0.7142592592592593],[0.3541666666666667,-0.7142592592592593],[0.35437500000000005,-0.72],[0.35437500000000005,-0.72],[0.396875,-0.7683333333333333],[0.39385416666666656,-0.8133333333333334],[0.37697916666666675,-0.8174074074074074],[0.37697916666666675,-0.8174074074074074],[0.3553124999999999,-0.7598148148148148],[0.37822916666666656,-0.7296296296296296],[0.37822916666666656,-0.7296296296296296],[0.3463541666666667,-0.7025925925925925],[0.2826041666666666,-0.6327777777777778],[0.22083333333333333,-0.5753703703703703],[0.17000000000000004,-0.4935185185185185],[0.1259375000000001,-0.45870370370370367],[0.06927083333333334,-0.40129629629629626],[0.06927083333333334,-0.40129629629629626],[0.051041666666666666,-0.35055555555555556],[0.027708333333333356,-0.3227777777777778],[0.027708333333333356,-0.3227777777777778],[0.017812500000000023,-0.3394444444444445],[-0.03208333333333328,-0.3435185185185185],[-0.03208333333333328,-0.3435185185185185],[-0.07458333333333336,-0.33111111111111113],[-0.09906250000000003,-0.34148148148148144],[-0.02374999999999995,-0.29259259259259257],[-0.02374999999999995,-0.29259259259259257],[0.06625000000000002,-0.2505555555555556],[0.15854166666666672,-0.17759259259259255],[0.22947916666666662,-0.10870370370370368],[0.22947916666666662,-0.10870370370370368],[0.25145833333333345,-0.14481481481481479],[0.25145833333333345,-0.14481481481481479],[0.37833333333333335,-0.122037037037037],[0.43083333333333323,-0.1712962962962963],[0.47322916666666665,-0.19500000000000003],[0.47322916666666665,-0.19500000000000003],[0.5533333333333333,-0.15481481481481485],[0.6335416666666667,-0.17259259259259258],[0.6119791666666666,-0.23722222222222225],[0.6151041666666667,-0.21296296296296297],[0.6415625000000001,-0.3168518518518519],[0.6559375000000001,-0.4262962962962963],[0.6922916666666665,-0.4301851851851852],[0.6195833333333333,-0.445],[0.6584374999999999,-0.38740740740740737],[0.6584374999999999,-0.38740740740740737],[0.6936458333333334,-0.34222222222222226],[0.6727083333333332,-0.35055555555555556],[0.6714583333333333,-0.347037037037037],[0.6702083333333334,-0.3435185185185185],[0.6702083333333334,-0.3435185185185185],[0.5978125000000001,-0.4477777777777778],[0.5416666666666666,-0.41277777777777774],[0.5162499999999999,-0.3998148148148148],[0.46906249999999994,-0.42907407407407405],[0.4761458333333332,-0.4116666666666667],[0.4460416666666667,-0.39462962962962966],[0.3955208333333334,-0.41703703703703704],[0.3634375000000001,-0.4498148148148148],[0.3634375000000001,-0.4498148148148148],[0.3632291666666667,-0.47370370370370374],[0.3226041666666667,-0.49000000000000005],[0.3226041666666667,-0.49000000000000005],[0.3241666666666667,-0.482962962962963],[0.31791666666666674,-0.625],[0.31791666666666674,-0.625],[0.2960416666666667,-0.7144444444444444],[0.3116666666666667,-0.7622222222222222],[0.2951041666666666,-0.8968518518518519],[0.2951041666666666,-0.8968518518518519],[0.27854166666666674,-1.0314814814814814],[0.27854166666666674,-1.0314814814814814],[0.3163541666666667,-1.1225925925925926],[0.3558333333333332,-1.210925925925926],[0.3558333333333332,-1.210925925925926],[0.31302083333333336,-1.292962962962963],[0.3382291666666667,-1.357777777777778],[0.35302083333333345,-1.4201851851851852],[0.29187500000000005,-1.3972222222222221],[0.2734375,-1.416111111111111],[0.2445833333333333,-1.4351851851851851],[0.2359375,-1.4307407407407409],[0.23072916666666668,-1.3488888888888888],[0.1931250000000001,-1.2994444444444446],[0.17114583333333327,-1.2524074074074074],[0.17697916666666677,-1.174074074074074],[0.15520833333333334,-1.1205555555555555],[0.15239583333333329,-1.0894444444444444],[0.21239583333333342,-1.041111111111111],[0.21239583333333342,-1.041111111111111],[0.2259375000000001,-0.9298148148148149],[0.24052083333333343,-0.8311111111111111],[0.23489583333333333,-0.7559259259259259],[0.23187499999999991,-0.7438888888888888],[0.22822916666666657,-0.6825925925925926],[0.22822916666666657,-0.6825925925925926],[0.20729166666666668,-0.6216666666666667],[0.20906250000000004,-0.5927777777777778],[0.22927083333333323,-0.5507407407407408],[0.21729166666666658,-0.5188888888888888],[0.19375,-0.46351851851851855],[0.19229166666666658,-0.45018518518518524],[0.17614583333333325,-0.4474074074074075]]","[[-0.365625,0.09444444444444444,0.00029999999701857405],[-0.365625,0.09444444444444444,0.049700000002978584],[-0.3732291666666666,0.0772222222222223,0.06279999999701857],[-0.3732291666666666,0.0772222222222223,0.07379999999702136],[-0.3494791666666667,0.08592592592592588,0.09039999999851034],[-0.3501041666666667,0.08277777777777787,0.10720000000298313],[-0.3333333333333333,0.07240740740740745,0.12349999999999994],[-0.30874999999999997,0.05018518518518523,0.14029999999701914],[-0.30874999999999997,0.05018518518518523,0.15710000000149194],[-0.31666666666666665,0.06481481481481481,0.17360000000149256],[-0.3141666666666667,0.14148148148148143,0.1902999999970234],[-0.3116666666666667,0.21814814814814806,0.20689999999851238],[-0.32364583333333335,0.32888888888888895,0.22379999999701994],[-0.3408333333333334,0.41944444444444445,0.24029999999702056],[-0.36833333333333335,0.4705555555555556,0.25920000000298415],[-0.415,0.472037037037037,0.2742999999970195],[-0.42520833333333335,0.5035185185185185,0.29210000000148995],[-0.4491666666666667,0.5703703703703704,0.3068999999985138],[-0.46541666666666665,0.644074074074074,0.32360000000149114],[-0.4640625,0.6527777777777778,0.34129999999701965],[-0.46062500000000006,0.6157407407407407,0.35829999999702267],[-0.4653125000000001,0.5890740740740741,0.3737999999970185],[-0.47,0.5624074074074075,0.3903999999985146],[-0.47,0.5624074074074075,0.4070000000000036],[-0.4501041666666667,0.48092592592592603,0.4237000000029809],[-0.41989583333333336,0.3449999999999999,0.4407000000029839],[-0.41989583333333336,0.3449999999999999,0.46089999999851017],[-0.419375,0.25759259259259265,0.4762000000029829],[-0.3961458333333333,0.17314814814814813,0.49450000000000216],[-0.3765625,0.06055555555555564,0.5091000000014887],[-0.3765625,0.06055555555555564,0.523600000001494],[-0.3680208333333333,-0.10592592592592591,0.540200000002983],[-0.34104166666666663,-0.17481481481481478,0.5568999999985138],[-0.3140625,-0.24370370370370376,0.5736000000014911],[-0.28624999999999995,-0.4057407407407408,0.5912000000029849],[-0.25843750000000004,-0.5677777777777778,0.606899999998511],[-0.25,-0.6548148148148148,0.6262000000029815],[-0.26145833333333335,-0.6359259259259259,0.6402999999970191],[-0.25541666666666674,-0.6418518518518519,0.6570000000000036],[-0.2516666666666667,-0.667962962962963,0.6746000000014902],[-0.24791666666666667,-0.6940740740740741,0.6902999999970234],[-0.23885416666666662,-0.6601851851851852,0.7090000000000032],[-0.23333333333333334,-0.6957407407407408,0.7235000000000014],[-0.23552083333333335,-0.7446296296296296,0.7402000000029787],[-0.24312499999999998,-0.7166666666666667,0.7583999999985096],[-0.3204166666666667,-0.5803703703703703,0.773600000001494],[-0.3204166666666667,-0.5803703703703703,0.7903999999985132],[-0.3977083333333333,-0.4440740740740741,0.8068999999985138],[-0.511875,-0.36444444444444446,0.8236000000014911],[-0.61875,-0.2861111111111111,0.8431000000014919],[-0.7614583333333333,-0.1896296296296296,0.8580000000000041],[-0.8909374999999999,-0.09222222222222225,0.873899999998514],[-1.0090625,0.028518518518518478,0.8902000000029844],[-1.1421875,0.13870370370370366,0.9068999999985081],[-1.2792708333333331,0.25500000000000006,0.9260000000000019],[-1.4071875,0.32981481481481484,0.9402999999970234],[-1.480625,0.36148148148148157,0.9570000000000007],[-1.5540625000000001,0.3931481481481481,0.9736000000014897],[-1.5596875,0.4125925925925925,0.9902000000029787],[-1.5538541666666668,0.3242592592592593,1.007399999998512],[-1.5313541666666666,0.23870370370370367,1.023600000001494],[-1.5313541666666666,0.23870370370370367,1.040200000002983],[-1.4825000000000002,0.26481481481481484,1.0571000000014905],[-1.3820833333333333,0.2168518518518519,1.0737000000029795],[-1.2666666666666666,0.1794444444444444,1.0907999999970244],[-1.1182291666666666,0.15166666666666662,1.106899999998511],[-0.9707291666666666,0.15425925925925918,1.1235],[-0.8183333333333334,0.10425925925925918,1.1402999999970191],[-0.6607291666666666,0.08111111111111102,1.1570000000000036],[-0.5132291666666666,0.07296296296296292,1.1739999999999995],[-0.39489583333333333,0.1764814814814814,1.1905000000000001],[-0.25895833333333335,0.26592592592592595,1.2100000000000009],[-0.1648958333333333,0.24296296296296305,1.2255000000000038],[-0.13572916666666662,0.2577777777777779,1.2402999999970206],[-0.11947916666666672,0.2881481481481482,1.2597000000029794],[-0.1376041666666667,0.3479629629629629,1.2734999999999985],[-0.1376041666666667,0.3479629629629629,1.2902999999970177],[-0.11927083333333334,0.3675925925925926,1.3068999999985138],[-0.10218750000000003,0.35981481481481475,1.3236000000014911],[-0.09031250000000005,0.32518518518518524,1.3406000000014942],[-0.11312500000000002,0.3446296296296297,1.3571000000014948],[-0.11312500000000002,0.3446296296296297,1.3735],[-0.12552083333333333,0.36148148148148157,1.390500000000003],[-0.12552083333333333,0.36148148148148157,1.4072999999970222],[-0.1655208333333333,0.35481481481481486,1.4237999999970228],[-0.19500000000000003,0.3235185185185186,1.4402000000029815],[-0.21770833333333334,0.2992592592592593,1.4602000000029847],[-0.23083333333333336,0.26888888888888896,1.4746000000014945],[-0.23333333333333334,0.19611111111111107,1.490399999998509],[-0.2578125,0.2205555555555556,1.5080000000000027],[-0.27072916666666663,0.2598148148148147,1.523600000001494],[-0.27072916666666663,0.2598148148148147,1.5402999999970177],[-0.3039583333333333,0.2572222222222222,1.5570000000000022],[-0.3330208333333334,0.23111111111111102,1.5736000000014911],[-0.36520833333333336,0.18055555555555555,1.5926000000014895],[-0.38864583333333336,0.1638888888888889,1.6069999999999993],[-0.4203125,0.17166666666666675,1.6258999999985093],[-0.3921875,0.1955555555555556,1.640500000000003],[-0.371875,0.2,1.6603999999985106],[-0.3532291666666667,0.22481481481481477,1.6776000000014903],[-0.33406250000000004,0.21148148148148158,1.6935000000000002],[-0.31572916666666667,0.18092592592592602,1.7076000000014915],[-0.3578125,0.2403703703703703,1.7240000000000038],[-0.37218749999999995,0.19574074074074083,1.7452999999970231],[-0.37218749999999995,0.19574074074074083,1.7571000000014934],[-0.36656249999999996,0.22333333333333338,1.7737000000029823],[-0.3302083333333333,0.25462962962962965,1.7927000000029807],[-0.24791666666666667,0.2272222222222223,1.8071000000014905],[-0.23218749999999996,0.1766666666666666,1.8241000000014935],[-0.259375,0.1883333333333334,1.8436000000014943],[-0.259375,0.1883333333333334,1.857299999997018],[-0.22552083333333334,0.12962962962962962,1.8737999999970185],[-0.20864583333333328,0.09277777777777782,1.8903999999985146],[-0.19312499999999996,0.025370370370370456,1.9115000000000038],[-0.0860416666666667,-0.07592592592592592,1.926700000002981],[-0.007291666666666667,-0.07462962962962966,1.9433999999985119],[-0.007291666666666667,-0.07462962962962966,1.9600000000000009],[0.0756249999999999,-0.15685185185185183,1.9738999999985083],[0.10968749999999995,-0.22259259259259256,1.990399999998509],[0.08010416666666677,-0.18851851851851853,2.0105000000000004],[0.10385416666666672,-0.18333333333333332,2.0275000000000034],[0.15093750000000009,-0.26055555555555554,2.0427999999970226],[0.16208333333333325,-0.2770370370370371,2.0631000000014907],[0.1728125000000001,-0.327962962962963,2.0782999999970215],[0.1728125000000001,-0.327962962962963,2.0903999999985103],[0.1560416666666666,-0.3111111111111111,2.1071000000014948],[0.1571875000000001,-0.305,2.127299999997021],[0.17927083333333324,-0.3512962962962963,2.1424999999999983],[0.1716666666666666,-0.37907407407407406,2.161200000002978],[0.18218750000000009,-0.4270370370370371,2.1783999999985113],[0.2578125,-0.5294444444444444,2.1932999999970235],[0.28010416666666677,-0.602962962962963,2.2072000000029846],[0.33312499999999995,-0.6462962962962963,2.223700000002978],[0.3541666666666667,-0.7142592592592593,2.2447999999970207],[0.3541666666666667,-0.7142592592592593,2.2571000000014934],[0.35437500000000005,-0.72,2.2737000000029823],[0.35437500000000005,-0.72,2.2927999999970226],[0.396875,-0.7683333333333333,2.307000000000002],[0.39385416666666656,-0.8133333333333334,2.3271000000014936],[0.37697916666666675,-0.8174074074074074,2.342700000002985],[0.37697916666666675,-0.8174074074074074,2.3569999999999993],[0.3553124999999999,-0.7598148148148148,2.3735],[0.37822916666666656,-0.7296296296296296,2.390299999997019],[0.37822916666666656,-0.7296296296296296,2.407299999997022],[0.3463541666666667,-0.7025925925925925,2.425200000002981],[0.2826041666666666,-0.6327777777777778,2.4402999999970234],[0.22083333333333333,-0.5753703703703703,2.458100000001494],[0.17000000000000004,-0.4935185185185185,2.4736000000014897],[0.1259375000000001,-0.45870370370370367,2.4932999999970207],[0.06927083333333334,-0.40129629629629626,2.509299999997019],[0.06927083333333334,-0.40129629629629626,2.523600000001494],[0.051041666666666666,-0.35055555555555556,2.5402999999970177],[0.027708333333333356,-0.3227777777777778,2.562899999998514],[0.027708333333333356,-0.3227777777777778,2.573500000000003],[0.017812500000000023,-0.3394444444444445,2.5903999999985103],[-0.03208333333333328,-0.3435185185185185,2.6071000000014948],[-0.03208333333333328,-0.3435185185185185,2.6236000000014883],[-0.07458333333333336,-0.33111111111111113,2.640299999997019],[-0.09906250000000003,-0.34148148148148144,2.6622999999970176],[-0.02374999999999995,-0.29259259259259257,2.676799999997023],[-0.02374999999999995,-0.29259259259259257,2.6902999999970234],[0.06625000000000002,-0.2505555555555556,2.7068999999985124],[0.15854166666666672,-0.17759259259259255,2.723700000002978],[0.22947916666666662,-0.10870370370370368,2.744100000001488],[0.22947916666666662,-0.10870370370370368,2.7572999999970236],[0.25145833333333345,-0.14481481481481479,2.7737000000029823],[0.25145833333333345,-0.14481481481481479,2.790200000002983],[0.37833333333333335,-0.122037037037037,2.8096000000014882],[0.43083333333333323,-0.1712962962962963,2.8282000000029797],[0.47322916666666665,-0.19500000000000003,2.8437999999970245],[0.47322916666666665,-0.19500000000000003,2.8571000000014948],[0.5533333333333333,-0.15481481481481485,2.8736000000014883],[0.6335416666666667,-0.17259259259259258,2.8902000000029844],[0.6119791666666666,-0.23722222222222225,2.906899999998508],[0.6151041666666667,-0.21296296296296297,2.9257000000029834],[0.6415625000000001,-0.3168518518518519,2.9402999999970234],[0.6559375000000001,-0.4262962962962963,2.95920000000298],[0.6922916666666665,-0.4301851851851852,2.9742999999970223],[0.6195833333333333,-0.445,2.995299999997023],[0.6584374999999999,-0.38740740740740737,3.0098999999985097],[0.6584374999999999,-0.38740740740740737,3.0234999999999985],[0.6936458333333334,-0.34222222222222226,3.0402999999970177],[0.6727083333333332,-0.35055555555555556,3.0622999999970233],[0.6714583333333333,-0.347037037037037,3.0786000000014937],[0.6702083333333334,-0.3435185185185185,3.0932000000029802],[0.6702083333333334,-0.3435185185185185,3.106899999998511],[0.5978125000000001,-0.4477777777777778,3.1236000000014883],[0.5416666666666666,-0.41277777777777774,3.140299999997019],[0.5162499999999999,-0.3998148148148148,3.1572000000029803],[0.46906249999999994,-0.42907407407407405,3.1762000000029786],[0.4761458333333332,-0.4116666666666667,3.1932999999970235],[0.4460416666666667,-0.39462962962962966,3.210000000000001],[0.3955208333333334,-0.41703703703703704,3.225500000000004],[0.3634375000000001,-0.4498148148148148,3.244500000000002],[0.3634375000000001,-0.4498148148148148,3.2568999999985095],[0.3632291666666667,-0.47370370370370374,3.2734999999999985],[0.3226041666666667,-0.49000000000000005,3.2952999999970203],[0.3226041666666667,-0.49000000000000005,3.306899999998514],[0.3241666666666667,-0.482962962962963,3.323600000001491],[0.31791666666666674,-0.625,3.344200000002978],[0.31791666666666674,-0.625,3.3569999999999993],[0.2960416666666667,-0.7144444444444444,3.3737000000029838],[0.3116666666666667,-0.7622222222222222,3.3902000000029844],[0.2951041666666666,-0.8968518518518519,3.4117999999970223],[0.2951041666666666,-0.8968518518518519,3.4236000000014926],[0.27854166666666674,-1.0314814814814814,3.4402000000029815],[0.27854166666666674,-1.0314814814814814,3.4570000000000007],[0.3163541666666667,-1.1225925925925926,3.4736000000014897],[0.3558333333333332,-1.210925925925926,3.495600000001488],[0.3558333333333332,-1.210925925925926,3.5068999999985095],[0.31302083333333336,-1.292962962962963,3.523600000001494],[0.3382291666666667,-1.357777777777778,3.5407000000029782],[0.35302083333333345,-1.4201851851851852,3.557000000000002],[0.29187500000000005,-1.3972222222222221,3.573600000001491],[0.2734375,-1.416111111111111,3.5936000000014943],[0.2445833333333333,-1.4351851851851851,3.60910000000149],[0.2359375,-1.4307407407407409,3.627299999997021],[0.23072916666666668,-1.3488888888888888,3.645700000002982],[0.1931250000000001,-1.2994444444444446,3.6617000000029805],[0.17114583333333327,-1.2524074074074074,3.6758999999985136],[0.17697916666666677,-1.174074074074074,3.6902000000029815],[0.15520833333333334,-1.1205555555555555,3.70789999999851],[0.15239583333333329,-1.0894444444444444,3.72379999999702],[0.21239583333333342,-1.041111111111111,3.744700000002979],[0.21239583333333342,-1.041111111111111,3.7568999999985095],[0.2259375000000001,-0.9298148148148149,3.773600000001494],[0.24052083333333343,-0.8311111111111111,3.790399999998513],[0.23489583333333333,-0.7559259259259259,3.806899999998514],[0.23187499999999991,-0.7438888888888888,3.8266000000014913],[0.22822916666666657,-0.6825925925925926,3.8430000000000035],[0.22822916666666657,-0.6825925925925926,3.8571000000014948],[0.20729166666666668,-0.6216666666666667,3.8735],[0.20906250000000004,-0.5927777777777778,3.890500000000003],[0.22927083333333323,-0.5507407407407408,3.91129999999702],[0.21729166666666658,-0.5188888888888888,3.9266000000014927],[0.19375,-0.46351851851851855,3.9432000000029817],[0.19229166666666658,-0.45018518518518524,3.9602000000029847],[0.17614583333333325,-0.4474074074074075,3.9757000000029805]]","[0.00029999999701857405,0.049700000002978584,0.06279999999701857,0.07379999999702136,0.09039999999851034,0.10720000000298313,0.12349999999999994,0.14029999999701914,0.15710000000149194,0.17360000000149256,0.1902999999970234,0.20689999999851238,0.22379999999701994,0.24029999999702056,0.25920000000298415,0.2742999999970195,0.29210000000148995,0.3068999999985138,0.32360000000149114,0.34129999999701965,0.35829999999702267,0.3737999999970185,0.3903999999985146,0.4070000000000036,0.4237000000029809,0.4407000000029839,0.46089999999851017,0.4762000000029829,0.49450000000000216,0.5091000000014887,0.523600000001494,0.540200000002983,0.5568999999985138,0.5736000000014911,0.5912000000029849,0.606899999998511,0.6262000000029815,0.6402999999970191,0.6570000000000036,0.6746000000014902,0.6902999999970234,0.7090000000000032,0.7235000000000014,0.7402000000029787,0.7583999999985096,0.773600000001494,0.7903999999985132,0.8068999999985138,0.8236000000014911,0.8431000000014919,0.8580000000000041,0.873899999998514,0.8902000000029844,0.9068999999985081,0.9260000000000019,0.9402999999970234,0.9570000000000007,0.9736000000014897,0.9902000000029787,1.007399999998512,1.023600000001494,1.040200000002983,1.0571000000014905,1.0737000000029795,1.0907999999970244,1.106899999998511,1.1235,1.1402999999970191,1.1570000000000036,1.1739999999999995,1.1905000000000001,1.2100000000000009,1.2255000000000038,1.2402999999970206,1.2597000000029794,1.2734999999999985,1.2902999999970177,1.3068999999985138,1.3236000000014911,1.3406000000014942,1.3571000000014948,1.3735,1.390500000000003,1.4072999999970222,1.4237999999970228,1.4402000000029815,1.4602000000029847,1.4746000000014945,1.490399999998509,1.5080000000000027,1.523600000001494,1.5402999999970177,1.5570000000000022,1.5736000000014911,1.5926000000014895,1.6069999999999993,1.6258999999985093,1.640500000000003,1.6603999999985106,1.6776000000014903,1.6935000000000002,1.7076000000014915,1.7240000000000038,1.7452999999970231,1.7571000000014934,1.7737000000029823,1.7927000000029807,1.8071000000014905,1.8241000000014935,1.8436000000014943,1.857299999997018,1.8737999999970185,1.8903999999985146,1.9115000000000038,1.926700000002981,1.9433999999985119,1.9600000000000009,1.9738999999985083,1.990399999998509,2.0105000000000004,2.0275000000000034,2.0427999999970226,2.0631000000014907,2.0782999999970215,2.0903999999985103,2.1071000000014948,2.127299999997021,2.1424999999999983,2.161200000002978,2.1783999999985113,2.1932999999970235,2.2072000000029846,2.223700000002978,2.2447999999970207,2.2571000000014934,2.2737000000029823,2.2927999999970226,2.307000000000002,2.3271000000014936,2.342700000002985,2.3569999999999993,2.3735,2.390299999997019,2.407299999997022,2.425200000002981,2.4402999999970234,2.458100000001494,2.4736000000014897,2.4932999999970207,2.509299999997019,2.523600000001494,2.5402999999970177,2.562899999998514,2.573500000000003,2.5903999999985103,2.6071000000014948,2.6236000000014883,2.640299999997019,2.6622999999970176,2.676799999997023,2.6902999999970234,2.7068999999985124,2.723700000002978,2.744100000001488,2.7572999999970236,2.7737000000029823,2.790200000002983,2.8096000000014882,2.8282000000029797,2.8437999999970245,2.8571000000014948,2.8736000000014883,2.8902000000029844,2.906899999998508,2.9257000000029834,2.9402999999970234,2.95920000000298,2.9742999999970223,2.995299999997023,3.0098999999985097,3.0234999999999985,3.0402999999970177,3.0622999999970233,3.0786000000014937,3.0932000000029802,3.106899999998511,3.1236000000014883,3.140299999997019,3.1572000000029803,3.1762000000029786,3.1932999999970235,3.210000000000001,3.225500000000004,3.244500000000002,3.2568999999985095,3.2734999999999985,3.2952999999970203,3.306899999998514,3.323600000001491,3.344200000002978,3.3569999999999993,3.3737000000029838,3.3902000000029844,3.4117999999970223,3.4236000000014926,3.4402000000029815,3.4570000000000007,3.4736000000014897,3.495600000001488,3.5068999999985095,3.523600000001494,3.5407000000029782,3.557000000000002,3.573600000001491,3.5936000000014943,3.60910000000149,3.627299999997021,3.645700000002982,3.6617000000029805,3.6758999999985136,3.6902000000029815,3.70789999999851,3.72379999999702,3.744700000002979,3.7568999999985095,3.773600000001494,3.790399999998513,3.806899999998514,3.8266000000014913,3.8430000000000035,3.8571000000014948,3.8735,3.890500000000003,3.91129999999702,3.9266000000014927,3.9432000000029817,3.9602000000029847,3.9757000000029805]","[1732593659952,1732593659991,1732593660004,1732593660015,1732593660031,1732593660048,1732593660065,1732593660081,1732593660098,1732593660115,1732593660131,1732593660148,1732593660165,1732593660181,1732593660200,1732593660215,1732593660233,1732593660248,1732593660265,1732593660282,1732593660299,1732593660315,1732593660331,1732593660348,1732593660365,1732593660382,1732593660402,1732593660417,1732593660436,1732593660450,1732593660465,1732593660481,1732593660498,1732593660515,1732593660532,1732593660548,1732593660567,1732593660581,1732593660598,1732593660616,1732593660631,1732593660650,1732593660665,1732593660681,1732593660699,1732593660715,1732593660732,1732593660748,1732593660765,1732593660784,1732593660799,1732593660815,1732593660831,1732593660848,1732593660867,1732593660881,1732593660898,1732593660915,1732593660931,1732593660948,1732593660965,1732593660981,1732593660998,1732593661015,1732593661032,1732593661048,1732593661065,1732593661081,1732593661098,1732593661115,1732593661131,1732593661151,1732593661167,1732593661181,1732593661201,1732593661215,1732593661231,1732593661248,1732593661265,1732593661282,1732593661298,1732593661315,1732593661332,1732593661348,1732593661365,1732593661381,1732593661401,1732593661416,1732593661431,1732593661449,1732593661465,1732593661481,1732593661498,1732593661515,1732593661534,1732593661548,1732593661567,1732593661582,1732593661602,1732593661619,1732593661635,1732593661649,1732593661665,1732593661686,1732593661698,1732593661715,1732593661734,1732593661748,1732593661765,1732593661785,1732593661798,1732593661815,1732593661831,1732593661853,1732593661868,1732593661884,1732593661901,1732593661915,1732593661931,1732593661952,1732593661969,1732593661984,1732593662004,1732593662019,1732593662031,1732593662048,1732593662068,1732593662084,1732593662102,1732593662119,1732593662134,1732593662148,1732593662165,1732593662186,1732593662198,1732593662215,1732593662234,1732593662248,1732593662268,1732593662284,1732593662298,1732593662315,1732593662331,1732593662348,1732593662366,1732593662381,1732593662399,1732593662415,1732593662434,1732593662450,1732593662465,1732593662481,1732593662504,1732593662515,1732593662531,1732593662548,1732593662565,1732593662581,1732593662603,1732593662618,1732593662631,1732593662648,1732593662665,1732593662685,1732593662698,1732593662715,1732593662731,1732593662751,1732593662769,1732593662785,1732593662798,1732593662815,1732593662831,1732593662848,1732593662867,1732593662881,1732593662900,1732593662916,1732593662936,1732593662951,1732593662965,1732593662981,1732593663003,1732593663020,1732593663034,1732593663048,1732593663065,1732593663081,1732593663098,1732593663117,1732593663134,1732593663151,1732593663167,1732593663186,1732593663198,1732593663215,1732593663236,1732593663248,1732593663265,1732593663285,1732593663298,1732593663315,1732593663331,1732593663353,1732593663365,1732593663381,1732593663398,1732593663415,1732593663437,1732593663448,1732593663465,1732593663482,1732593663498,1732593663515,1732593663535,1732593663550,1732593663568,1732593663587,1732593663603,1732593663617,1732593663631,1732593663649,1732593663665,1732593663686,1732593663698,1732593663715,1732593663731,1732593663748,1732593663768,1732593663784,1732593663798,1732593663815,1732593663832,1732593663852,1732593663868,1732593663884,1732593663901,1732593663917]","[[609,591],[609,591],[601.7,581.7],[601.7,581.7],[624.5,586.4],[623.9,584.7],[640,579.1],[663.6,567.1],[663.6,567.1],[656,575],[658.4,616.4],[660.8,657.8],[649.3,717.6],[632.8,766.5],[606.4,794.1],[561.6,794.9],[551.8,811.9],[528.8,848],[513.2,887.8],[514.5,892.5],[517.8,872.5],[513.3,858.1],[508.8,843.7],[508.8,843.7],[527.9,799.7],[556.9,726.3],[556.9,726.3],[557.4,679.1],[579.7,633.5],[598.5,572.7],[598.5,572.7],[606.7,482.8],[632.6,445.6],[658.5,408.4],[685.2,320.9],[711.9,233.4],[720,186.4],[709,196.6],[714.8,193.4],[718.4,179.3],[722,165.2],[730.7,183.5],[736,164.3],[733.9,137.9],[726.6,153],[652.4,226.6],[652.4,226.6],[578.2,300.2],[468.6,343.2],[366,385.5],[229,437.6],[104.7,490.2],[-8.7,555.4],[-136.5,614.9],[-268.1,677.7],[-390.9,718.1],[-461.4,735.2],[-531.9,752.3],[-537.3,762.8],[-531.7,715.1],[-510.1,668.9],[-510.1,668.9],[-463.2,683],[-366.8,657.1],[-256,636.9],[-113.5,621.9],[28.1,623.3],[174.4,596.3],[325.7,583.8],[467.3,579.4],[580.9,635.3],[711.4,683.6],[801.7,671.2],[829.7,679.2],[845.3,695.6],[827.9,727.9],[827.9,727.9],[845.5,738.5],[861.9,734.3],[873.3,715.6],[851.4,726.1],[851.4,726.1],[839.5,735.2],[839.5,735.2],[801.1,731.6],[772.8,714.7],[751,701.6],[738.4,685.2],[736,645.9],[712.5,659.1],[700.1,680.3],[700.1,680.3],[668.2,678.9],[640.3,664.8],[609.4,637.5],[586.9,628.5],[556.5,632.7],[583.5,645.6],[603,648],[620.9,661.4],[639.3,654.2],[656.9,637.7],[616.5,669.8],[602.7,645.7],[602.7,645.7],[608.1,660.6],[643,677.5],[722,662.7],[737.1,635.4],[711,641.7],[711,641.7],[743.5,610],[759.7,590.1],[774.6,553.7],[877.4,499],[953,499.7],[953,499.7],[1032.6,455.3],[1065.3,419.8],[1036.9,438.2],[1059.7,441],[1104.9,399.3],[1115.6,390.4],[1125.9,362.9],[1125.9,362.9],[1109.8,372],[1110.9,375.3],[1132.1,350.3],[1124.8,335.3],[1134.9,309.4],[1207.5,254.1],[1228.9,214.4],[1279.8,191],[1300,154.3],[1300,154.3],[1300.2,151.2],[1300.2,151.2],[1341,125.1],[1338.1,100.8],[1321.9,98.6],[1321.9,98.6],[1301.1,129.7],[1323.1,146],[1323.1,146],[1292.5,160.6],[1231.3,198.3],[1172,229.3],[1123.2,273.5],[1080.9,292.3],[1026.5,323.3],[1026.5,323.3],[1009,350.7],[986.6,365.7],[986.6,365.7],[977.1,356.7],[929.2,354.5],[929.2,354.5],[888.4,361.2],[864.9,355.6],[937.2,382],[937.2,382],[1023.6,404.7],[1112.2,444.1],[1180.3,481.3],[1180.3,481.3],[1201.4,461.8],[1201.4,461.8],[1323.2,474.1],[1373.6,447.5],[1414.3,434.7],[1414.3,434.7],[1491.2,456.4],[1568.2,446.8],[1547.5,411.9],[1550.5,425],[1575.9,368.9],[1589.7,309.8],[1624.6,307.7],[1554.8,299.7],[1592.1,330.8],[1592.1,330.8],[1625.9,355.2],[1605.8,350.7],[1604.6,352.6],[1603.4,354.5],[1603.4,354.5],[1533.9,298.2],[1480,317.1],[1455.6,324.1],[1410.3,308.3],[1417.1,317.7],[1388.2,326.9],[1339.7,314.8],[1308.9,297.1],[1308.9,297.1],[1308.7,284.2],[1269.7,275.4],[1269.7,275.4],[1271.2,279.2],[1265.2,202.5],[1265.2,202.5],[1244.2,154.2],[1259.2,128.4],[1243.3,55.7],[1243.3,55.7],[1227.4,-17],[1227.4,-17],[1263.7,-66.2],[1301.6,-113.9],[1301.6,-113.9],[1260.5,-158.2],[1284.7,-193.2],[1298.9,-226.9],[1240.2,-214.5],[1222.5,-224.7],[1194.8,-235],[1186.5,-232.6],[1181.5,-188.4],[1145.4,-161.7],[1124.3,-136.3],[1129.9,-94],[1109,-65.1],[1106.3,-48.3],[1163.9,-22.2],[1163.9,-22.2],[1176.9,37.9],[1190.9,91.2],[1185.5,131.8],[1182.6,138.3],[1179.1,171.4],[1179.1,171.4],[1159,204.3],[1160.7,219.9],[1180.1,242.6],[1168.6,259.8],[1146,289.7],[1144.6,296.9],[1129.1,298.4]]","[-0.2,0.6000000000000001]","[0.2,0.6000000000000001]","[0.6000000000000001,0.6000000000000001]","[-0.6000000000000001,-0.6000000000000001]","[-0.6000000000000001,-0.2]","[-0.6000000000000001,0.2]","[-0.2,-0.6000000000000001]","[0.2,-0.6000000000000001]","[0.6000000000000001,-0.6000000000000001]","[-0.2,-0.2]","[0.2,-0.2]","[0.6000000000000001,-0.2]","[-0.2,0.2]","[0.2,0.2]","[0.6000000000000001,0.2]",0,0,0,0,1,4,Monitor,25,20,8,1,60,4,1,60,3
,,,,,,,,,,,,,,,,,,,32,001,2024-11-26_12h00.18.232,Attention_exp_legacy,2023.1.0,Win32,59.88023952,,,,,,,,,,,[-0.196875],[0.5962962962962963],[1],[0],[0],[1.7805000000000035],"[""Bus_label""]",Bus_label,2,2.7832,"[[0.25,0.6166666666666667],[0.25,0.6166666666666667],[0.25,0.6166666666666667],[0.25,0.6166666666666667],[0.25,0.6166666666666667],[0.25,0.6166666666666667],[0.25,0.6166666666666667],[0.25,0.6166666666666667],[0.25,0.6166666666666667],[0.25,0.6166666666666667],[0.25,0.6166666666666667],[0.25,0.6166666666666667],[0.25,0.6166666666666667],[0.25,0.6166666666666667],[0.25,0.6166666666666667],[0.25,0.6166666666666667],[0.25,0.6166666666666667],[0.25,0.6166666666666667],[0.25,0.6166666666666667],[0.25,0.6166666666666667],[0.25,0.6166666666666667],[0.25,0.6166666666666667],[0.25,0.6166666666666667],[0.25,0.6166666666666667],[0.25,0.6166666666666667],[0.25,0.6166666666666667],[0.25,0.6166666666666667],[0.25,0.6166666666666667],[0.25,0.6166666666666667],[0.25,0.6166666666666667],[0.25,0.6166666666666667],[0.25,0.6166666666666667],[0.25,0.6166666666666667],[0.25,0.6166666666666667],[0.25,0.6166666666666667],[0.25,0.6166666666666667],[0.25,0.6166666666666667],[0.25,0.6166666666666667],[0.25,0.6166666666666667],[0.25,0.6166666666666667],[0.25,0.6166666666666667],[0.25,0.6166666666666667],[0.25,0.6166666666666667],[0.25,0.6166666666666667],[0.25,0.6166666666666667],[0.25,0.6166666666666667],[0.25,0.6166666666666667],[0.25,0.6166666666666667],[0.25,0.6166666666666667],[0.25,0.6166666666666667],[0.25,0.6166666666666667],[0.25,0.6166666666666667],[0.25,0.6166666666666667],[0.25,0.6166666666666667],[0.25,0.6166666666666667],[0.25,0.6166666666666667],[0.25,0.6166666666666667],[0.25,0.6166666666666667],[0.25,0.6166666666666667],[0.25,0.6166666666666667],[0.25,0.6166666666666667],[0.25,0.6166666666666667],[0.25,0.6166666666666667],[0.25,0.6166666666666667],[0.25,0.6166666666666667],[0.25,0.6166666666666667],[0.25,0.6166666666666667],[0.25,0.6166666666666667],[0.25,0.6166666666666667],[0.25,0.6166666666666667],[0.25,0.6166666666666667],[0.25,0.6166666666666667],[0.25,0.6166666666666667],[0.25,0.6166666666666667],[0.25,0.6166666666666667],[0.25,0.6166666666666667],[0.25,0.6166666666666667],[0.25,0.6166666666666667],[0.25,0.6166666666666667],[0.246875,0.6148148148148148],[0.23958333333333334,0.6129629629629629],[0.22395833333333334,0.6111111111111112],[0.2,0.6111111111111112],[0.16979166666666667,0.6111111111111112],[0.140625,0.6111111111111112],[0.115625,0.6148148148148148],[0.090625,0.6148148148148148],[0.06770833333333333,0.6222222222222222],[0.04375,0.6222222222222222],[0.016666666666666666,0.6240740740740741],[-0.022916666666666665,0.6240740740740741],[-0.046875,0.6240740740740741],[-0.06770833333333333,0.6240740740740741],[-0.07708333333333334,0.6240740740740741],[-0.103125,0.6240740740740741],[-0.11770833333333333,0.6240740740740741],[-0.12604166666666666,0.6240740740740741],[-0.134375,0.6240740740740741],[-0.140625,0.6240740740740741],[-0.15520833333333334,0.6240740740740741],[-0.16770833333333332,0.6185185185185185],[-0.18020833333333333,0.6111111111111112],[-0.190625,0.6018518518518519],[-0.19583333333333333,0.5962962962962963],[-0.196875,0.5962962962962963],[-0.196875,0.5962962962962963],[-0.196875,0.5962962962962963],[-0.196875,0.5962962962962963],[-0.196875,0.5962962962962963],[-0.196875,0.5962962962962963],[-0.196875,0.5962962962962963],[-0.196875,0.5962962962962963],[-0.196875,0.5962962962962963],[-0.196875,0.5962962962962963],[-0.196875,0.5962962962962963],[-0.196875,0.5962962962962963],[-0.196875,0.5962962962962963],[-0.196875,0.5944444444444444],[-0.196875,0.5796296296296296],[-0.19479166666666667,0.5425925925925926],[-0.18854166666666666,0.4925925925925926],[-0.184375,0.4388888888888889],[-0.17083333333333334,0.36666666666666664],[-0.16041666666666668,0.2833333333333333],[-0.146875,0.2111111111111111],[-0.13958333333333334,0.16111111111111112],[-0.13229166666666667,0.1259259259259259],[-0.12916666666666668,0.10185185185185185],[-0.12604166666666666,0.08518518518518518],[-0.125,0.07407407407407407],[-0.12395833333333334,0.07037037037037037],[-0.12291666666666666,0.06851851851851852],[-0.12291666666666666,0.06851851851851852],[-0.12291666666666666,0.06851851851851852],[-0.12291666666666666,0.06851851851851852],[-0.12291666666666666,0.06851851851851852],[-0.12291666666666666,0.06851851851851852],[-0.12291666666666666,0.06851851851851852],[-0.12291666666666666,0.06851851851851852],[-0.12291666666666666,0.06851851851851852],[-0.12291666666666666,0.06851851851851852],[-0.12291666666666666,0.06851851851851852],[-0.12291666666666666,0.06851851851851852],[-0.12291666666666666,0.06851851851851852],[-0.12291666666666666,0.06851851851851852],[-0.12291666666666666,0.06851851851851852],[-0.12291666666666666,0.06851851851851852],[-0.12291666666666666,0.06851851851851852],[-0.12291666666666666,0.06851851851851852],[-0.12291666666666666,0.06851851851851852],[-0.12291666666666666,0.06851851851851852],[-0.12291666666666666,0.06851851851851852],[-0.12291666666666666,0.06851851851851852],[-0.12291666666666666,0.06851851851851852],[-0.12291666666666666,0.06851851851851852],[-0.12291666666666666,0.06851851851851852],[-0.12291666666666666,0.06851851851851852],[-0.12291666666666666,0.06851851851851852],[-0.12291666666666666,0.06851851851851852],[-0.12291666666666666,0.06851851851851852],[-0.12291666666666666,0.06851851851851852],[-0.12291666666666666,0.06851851851851852],[-0.12291666666666666,0.06851851851851852],[-0.12291666666666666,0.06851851851851852],[-0.12291666666666666,0.06851851851851852],[-0.12291666666666666,0.06851851851851852],[-0.12291666666666666,0.06851851851851852],[-0.12291666666666666,0.06851851851851852]]","[[-0.12572916666666673,0.03944444444444436],[-0.14635416666666667,0.011481481481481566],[-0.14635416666666667,0.011481481481481566],[-0.14708333333333337,0.008333333333333333],[-0.13218749999999999,-0.0012962962962963806],[-0.11083333333333331,-0.05796296296296299],[-0.07854166666666665,-0.09111111111111109],[-0.09145833333333328,-0.07037037037037037],[-0.09145833333333328,-0.07037037037037037],[-0.10437500000000005,-0.049629629629629544],[-0.115625,-0.10166666666666663],[-0.1304166666666667,-0.16018518518518518],[-0.12895833333333329,-0.23851851851851855],[-0.12895833333333329,-0.23851851851851855],[-0.11020833333333328,-0.3125925925925926],[-0.09739583333333333,-0.3942592592592592],[-0.09739583333333333,-0.3942592592592592],[-0.1015625,-0.49166666666666664],[-0.1015625,-0.49166666666666664],[-0.10416666666666667,-0.4981481481481482],[-0.10989583333333333,-0.4801851851851852],[-0.09312499999999997,-0.5281481481481481],[-0.03239583333333336,-0.5937037037037037],[-0.03239583333333336,-0.5937037037037037],[0.02833333333333338,-0.5574074074074075],[0.02833333333333338,-0.5574074074074075],[0.09833333333333343,-0.5109259259259259],[0.13624999999999995,-0.47981481481481486],[0.1568749999999999,-0.452962962962963],[0.13427083333333342,-0.37666666666666665],[0.10760416666666663,-0.2957407407407407],[0.09322916666666667,-0.27870370370370373],[0.09322916666666667,-0.27870370370370373],[0.08604166666666657,-0.2518518518518518],[0.08916666666666657,-0.26129629629629636],[0.04479166666666667,-0.27018518518518514],[-0.05010416666666669,-0.30111111111111116],[-0.15072916666666672,-0.3357407407407408],[-0.21927083333333333,-0.355],[-0.2530208333333333,-0.3685185185185185],[-0.2561458333333333,-0.3888888888888889],[-0.2592708333333333,-0.40925925925925927],[-0.28479166666666667,-0.4214814814814815],[-0.31437499999999996,-0.46796296296296297],[-0.3320833333333333,-0.465],[-0.3376041666666667,-0.48814814814814816],[-0.3376041666666667,-0.48814814814814816],[-0.2942708333333333,-0.45499999999999996],[-0.28854166666666664,-0.43074074074074076],[-0.25104166666666666,-0.40129629629629626],[-0.28010416666666665,-0.3827777777777778],[-0.26375000000000004,-0.36944444444444446],[-0.24739583333333334,-0.35611111111111116],[-0.2755208333333333,-0.3303703703703703],[-0.30364583333333334,-0.30462962962962964],[-0.3258333333333333,-0.24129629629629631],[-0.35666666666666663,-0.13481481481481483],[-0.3748958333333333,-0.0735185185185185],[-0.3555208333333333,-0.003333333333333249],[-0.3793750000000001,0.0001851851851852273],[-0.37145833333333333,0.008888888888888804],[-0.3858333333333333,0.02240740740740745],[-0.3858333333333333,0.02240740740740745],[-0.3936458333333333,0.056296296296296254],[-0.37302083333333336,0.05944444444444449],[-0.34822916666666665,0.05277777777777778],[-0.39895833333333336,-0.0198148148148149],[-0.4496875000000001,-0.09240740740740737],[-0.5057291666666667,-0.10018518518518522],[-0.5617708333333333,-0.10796296296296298],[-0.6248958333333333,-0.03981481481481482],[-0.688125,0.019259259259259216],[-0.7668750000000001,0.0514814814814814],[-0.8639583333333333,0.06796296296296304],[-0.9429166666666667,0.11462962962962958],[-1.0357291666666666,0.1698148148148149],[-1.0811458333333335,0.24018518518518528],[-1.0917708333333331,0.2766666666666666],[-1.1080208333333335,0.25925925925925924],[-1.1385416666666666,0.2505555555555555],[-1.0130208333333333,0.15537037037037033],[-0.8954166666666666,0.08666666666666659],[-0.7668750000000001,0.010185185185185186],[-0.6240625000000001,-0.08851851851851854],[-0.5213541666666667,-0.2346296296296296],[-0.5213541666666667,-0.2346296296296296],[-0.40895833333333337,-0.3794444444444444],[-0.2267708333333334,-0.5305555555555556],[-0.11520833333333336,-0.5811111111111111],[0.012395833333333309,-0.6544444444444444],[0.12374999999999996,-0.7240740740740741],[0.08010416666666677,-0.7603703703703704],[0.07614583333333323,-0.7525925925925926],[0.07614583333333323,-0.7525925925925926],[0.06708333333333343,-0.8122222222222223],[-0.002812500000000047,-0.8127777777777777],[-0.003854166666666714,-0.7505555555555555],[-0.003854166666666714,-0.7505555555555555],[0.004479166666666619,-0.7038888888888889],[-0.04020833333333336,-0.7155555555555555],[-0.04906250000000002,-0.7938888888888889],[-0.09812500000000005,-0.7887037037037037],[-0.11666666666666667,-0.7959259259259259],[-0.11364583333333336,-0.6988888888888889],[-0.14583333333333334,-0.7222222222222222],[-0.12364583333333339,-0.7361111111111112],[-0.12364583333333339,-0.7361111111111112],[-0.035416666666666666,-0.7212962962962963],[0.024062500000000025,-0.7218518518518519],[0.06197916666666667,-0.6701851851851851],[0.08312499999999995,-0.553888888888889],[0.0678124999999999,-0.4977777777777778],[0.0678124999999999,-0.4977777777777778],[0.04510416666666662,-0.495],[0.034375,-0.5231481481481481],[0.019583333333333286,-0.6168518518518519],[-0.02041666666666669,-0.6572222222222222],[-0.08645833333333333,-0.6311111111111112],[-0.13166666666666665,-0.662962962962963],[-0.17687499999999995,-0.6948148148148148],[-0.1967708333333333,-0.7022222222222222],[-0.1967708333333333,-0.7022222222222222],[-0.24083333333333337,-0.7407407407407407],[-0.24083333333333337,-0.7407407407407407],[-0.20302083333333332,-0.78],[-0.20302083333333332,-0.78],[-0.1310416666666666,-0.7364814814814815],[-0.06302083333333333,-0.6596296296296296],[0.004999999999999952,-0.5827777777777777],[0.10104166666666667,-0.5483333333333333],[0.10104166666666667,-0.5483333333333333],[0.17458333333333323,-0.492037037037037],[0.20958333333333337,-0.5218518518518519],[0.24864583333333337,-0.515],[0.27072916666666674,-0.6177777777777779],[0.3307291666666667,-0.6655555555555556],[0.3307291666666667,-0.6655555555555556],[0.3238541666666668,-0.6612962962962964],[0.32614583333333325,-0.7055555555555556],[0.34520833333333345,-0.7357407407407408],[0.2091666666666666,-0.741111111111111],[0.07385416666666676,-0.6985185185185185],[0.010625000000000048,-0.6698148148148148],[-0.042604166666666644,-0.5672222222222223],[-0.15666666666666665,-0.49444444444444446],[-0.15666666666666665,-0.49444444444444446],[-0.2635416666666667,-0.372037037037037],[-0.4203125,-0.3194444444444444],[-0.4203125,-0.3194444444444444],[-0.5726041666666667,-0.225],[-0.7117708333333332,-0.1824074074074074],[-0.8876041666666666,-0.20666666666666672],[-0.9083333333333333,-0.25574074074074077],[-0.9308333333333334,-0.205],[-1.0261458333333333,-0.17074074074074072],[-1.1268749999999998,-0.20259259259259255],[-1.1815624999999998,-0.1388888888888889],[-1.2360416666666665,-0.08351851851851856],[-1.254375,0.01777777777777782],[-1.254375,0.01777777777777782],[-1.2666666666666666,0.057777777777777865],[-1.2967708333333334,0.035740740740740656],[-1.2996875,0.0764814814814814],[-1.2940625,0.1814814814814815],[-1.2923958333333334,0.1596296296296297],[-1.3126041666666666,0.09370370370370375],[-1.295625,0.17740740740740732],[-1.2650000000000001,0.12962962962962962]]","[[-0.12572916666666673,0.03944444444444436,0.00019999999553022008],[-0.14635416666666667,0.011481481481481566,0.018899999998509998],[-0.14635416666666667,0.011481481481481566,0.03289999999850579],[-0.14708333333333337,0.008333333333333333,0.04960000000149023],[-0.13218749999999999,-0.0012962962962963806,0.06639999999850943],[-0.11083333333333331,-0.05796296296296299,0.08289999999851005],[-0.07854166666666665,-0.09111111111111109,0.10060000000149216],[-0.09145833333333328,-0.07037037037037037,0.11629999999701823],[-0.09145833333333328,-0.07037037037037037,0.13299999999999557],[-0.10437500000000005,-0.049629629629629544,0.14960000000149165],[-0.115625,-0.10166666666666663,0.1662999999970154],[-0.1304166666666667,-0.16018518518518518,0.1839999999999975],[-0.12895833333333329,-0.23851851851851855,0.1996000000014888],[-0.12895833333333329,-0.23851851851851855,0.2161999999955313],[-0.11020833333333328,-0.3125925925925926,0.232999999999997],[-0.09739583333333333,-0.3942592592592592,0.2497999999970162],[-0.09739583333333333,-0.3942592592592592,0.2662999999970168],[-0.1015625,-0.49166666666666664,0.2828999999985058],[-0.1015625,-0.49166666666666664,0.29960000000149023],[-0.10416666666666667,-0.4981481481481482,0.3162999999970211],[-0.10989583333333333,-0.4801851851851852,0.33289999999851005],[-0.09312499999999997,-0.5281481481481481,0.35060000000149216],[-0.03239583333333336,-0.5937037037037037,0.36629999999701823],[-0.03239583333333336,-0.5937037037037037,0.3828999999985072],[0.02833333333333338,-0.5574074074074075,0.39960000000149165],[0.02833333333333338,-0.5574074074074075,0.41710000000148995],[0.09833333333333343,-0.5109259259259259,0.4328999999985115],[0.13624999999999995,-0.47981481481481486,0.4496000000014888],[0.1568749999999999,-0.452962962962963,0.4693999999985081],[0.13427083333333342,-0.37666666666666665,0.4831999999955272],[0.10760416666666663,-0.2957407407407407,0.5037999999970211],[0.09322916666666667,-0.27870370370370373,0.5187999999970216],[0.09322916666666667,-0.27870370370370373,0.5328999999985058],[0.08604166666666657,-0.2518518518518518,0.5496000000014902],[0.08916666666666657,-0.26129629629629636,0.5662999999970211],[0.04479166666666667,-0.27018518518518514,0.58289999999851],[-0.05010416666666669,-0.30111111111111116,0.6016000000014898],[-0.15072916666666672,-0.3357407407407408,0.6161999999955299],[-0.21927083333333333,-0.355,0.6328999999985072],[-0.2530208333333333,-0.3685185185185185,0.6496000000014917],[-0.2561458333333333,-0.3888888888888889,0.670899999998511],[-0.2592708333333333,-0.40925925925925927,0.6848999999985068],[-0.28479166666666667,-0.4214814814814815,0.699799999997019],[-0.31437499999999996,-0.46796296296296297,0.7192999999970198],[-0.3320833333333333,-0.465,0.7349999999999994],[-0.3376041666666667,-0.48814814814814816,0.7539999999999978],[-0.3376041666666667,-0.48814814814814816,0.7663999999985052],[-0.2942708333333333,-0.45499999999999996,0.7828999999985058],[-0.28854166666666664,-0.43074074074074076,0.7996000000014902],[-0.25104166666666666,-0.40129629629629626,0.8162999999970211],[-0.28010416666666665,-0.3827777777777778,0.83289999999851],[-0.26375000000000004,-0.36944444444444446,0.8516000000014898],[-0.24739583333333334,-0.35611111111111116,0.869499999999995],[-0.2755208333333333,-0.3303703703703703,0.8831999999955258],[-0.30364583333333334,-0.30462962962962964,0.8996000000014917],[-0.3258333333333333,-0.24129629629629631,0.916199999995527],[-0.35666666666666663,-0.13481481481481483,0.9338999999985091],[-0.3748958333333333,-0.0735185185185185,0.9496999999955307],[-0.3555208333333333,-0.003333333333333249,0.9666999999955266],[-0.3793750000000001,0.0001851851851852273,0.982999999999997],[-0.37145833333333333,0.008888888888888804,0.9996999999955278],[-0.3858333333333333,0.02240740740740745,1.0191000000014867],[-0.3858333333333333,0.02240740740740745,1.0328999999985058],[-0.3936458333333333,0.056296296296296254,1.0496000000014902],[-0.37302083333333336,0.05944444444444449,1.0674999999999955],[-0.34822916666666665,0.05277777777777778,1.08289999999851],[-0.39895833333333336,-0.0198148148148149,1.1012999999970177],[-0.4496875000000001,-0.09240740740740737,1.1166000000014904],[-0.5057291666666667,-0.10018518518518522,1.1331999999955258],[-0.5617708333333333,-0.10796296296296298,1.1496000000014917],[-0.6248958333333333,-0.03981481481481482,1.1668999999985061],[-0.688125,0.019259259259259216,1.1839999999999975],[-0.7668750000000001,0.0514814814814814,1.2016000000014913],[-0.8639583333333333,0.06796296296296304,1.2161999999955313],[-0.9429166666666667,0.11462962962962958,1.2328999999985086],[-1.0357291666666666,0.1698148148148149,1.249600000001486],[-1.0811458333333335,0.24018518518518528,1.268499999999996],[-1.0917708333333331,0.2766666666666666,1.2838999999985106],[-1.1080208333333335,0.25925925925925924,1.2999999999999972],[-1.1385416666666666,0.2505555555555555,1.3183999999985119],[-1.0130208333333333,0.15537037037037033,1.3376999999955288],[-0.8954166666666666,0.08666666666666659,1.3522999999970153],[-0.7668750000000001,0.010185185185185186,1.3712999999970208],[-0.6240625000000001,-0.08851851851851854,1.385799999997019],[-0.5213541666666667,-0.2346296296296296,1.4036999999955313],[-0.5213541666666667,-0.2346296296296296,1.4164999999999992],[-0.40895833333333337,-0.3794444444444444,1.4361000000014883],[-0.2267708333333334,-0.5305555555555556,1.4498999999985074],[-0.11520833333333336,-0.5811111111111111,1.468699999995529],[0.012395833333333309,-0.6544444444444444,1.4851999999955297],[0.12374999999999996,-0.7240740740740741,1.5041000000014861],[0.08010416666666677,-0.7603703703703704,1.5187999999970216],[0.07614583333333323,-0.7525925925925926,1.538199999995527],[0.07614583333333323,-0.7525925925925926,1.549699999995525],[0.06708333333333343,-0.8122222222222223,1.5666000000014861],[-0.002812500000000047,-0.8127777777777777,1.5829999999999984],[-0.003854166666666714,-0.7505555555555555,1.6031000000014899],[-0.003854166666666714,-0.7505555555555555,1.6162999999970182],[0.004479166666666619,-0.7038888888888889,1.633100000001491],[-0.04020833333333336,-0.7155555555555555,1.6497999999970219],[-0.04906250000000002,-0.7938888888888889,1.6709999999999994],[-0.09812500000000005,-0.7887037037037037,1.6856999999955278],[-0.11666666666666667,-0.7959259259259259,1.7018999999985098],[-0.11364583333333336,-0.6988888888888889,1.7194999999999965],[-0.14583333333333334,-0.7222222222222222,1.7362999999970157],[-0.12364583333333339,-0.7361111111111112,1.754199999995528],[-0.12364583333333339,-0.7361111111111112,1.7665000000000006],[-0.035416666666666666,-0.7212962962962963,1.7828999999985058],[0.024062500000000025,-0.7218518518518519,1.8013999999985089],[0.06197916666666667,-0.6701851851851851,1.8161999999955256],[0.08312499999999995,-0.553888888888889,1.837600000001487],[0.0678124999999999,-0.4977777777777778,1.8526999999955294],[0.0678124999999999,-0.4977777777777778,1.8662999999970182],[0.04510416666666662,-0.495,1.8829999999999956],[0.034375,-0.5231481481481481,1.8996000000014917],[0.019583333333333286,-0.6168518518518519,1.9200000000000017],[-0.02041666666666669,-0.6572222222222222,1.9356999999955278],[-0.08645833333333333,-0.6311111111111112,1.9536000000014866],[-0.13166666666666665,-0.662962962962963,1.970199999995529],[-0.17687499999999995,-0.6948148148148148,1.985999999999997],[-0.1967708333333333,-0.7022222222222222,2.0066999999955257],[-0.1967708333333333,-0.7022222222222222,2.016399999998505],[-0.24083333333333337,-0.7407407407407407,2.0331000000014896],[-0.24083333333333337,-0.7407407407407407,2.0497999999970204],[-0.20302083333333332,-0.78,2.0731999999955306],[-0.20302083333333332,-0.78,2.0829999999999984],[-0.1310416666666666,-0.7364814814814815,2.099899999998506],[-0.06302083333333333,-0.6596296296296296,2.1163999999985066],[0.004999999999999952,-0.5827777777777777,2.135799999997019],[0.10104166666666667,-0.5483333333333333,2.151799999997017],[0.10104166666666667,-0.5483333333333333,2.1666999999955294],[0.17458333333333323,-0.492037037037037,2.183100000001488],[0.20958333333333337,-0.5218518518518519,2.1995000000000005],[0.24864583333333337,-0.515,2.2192999999970198],[0.27072916666666674,-0.6177777777777779,2.235100000001488],[0.3307291666666667,-0.6655555555555556,2.254399999998512],[0.3307291666666667,-0.6655555555555556,2.266299999997017],[0.3238541666666668,-0.6612962962962964,2.282899999998506],[0.32614583333333325,-0.7055555555555556,2.2996000000014902],[0.34520833333333345,-0.7357407407407408,2.3161999999955256],[0.2091666666666666,-0.741111111111111,2.33289999999851],[0.07385416666666676,-0.6985185185185185,2.350699999995527],[0.010625000000000048,-0.6698148148148148,2.3674999999999997],[-0.042604166666666644,-0.5672222222222223,2.3832999999970212],[-0.15666666666666665,-0.49444444444444446,2.3996000000014917],[-0.15666666666666665,-0.49444444444444446,2.4162999999970154],[-0.2635416666666667,-0.372037037037037,2.4328999999985115],[-0.4203125,-0.3194444444444444,2.4499999999999957],[-0.4203125,-0.3194444444444444,2.4662999999970197],[-0.5726041666666667,-0.225,2.4828999999985086],[-0.7117708333333332,-0.1824074074074074,2.4994999999999976],[-0.8876041666666666,-0.20666666666666672,2.5172999999970216],[-0.9083333333333333,-0.25574074074074077,2.532899999998506],[-0.9308333333333334,-0.205,2.552699999995525],[-1.0261458333333333,-0.17074074074074072,2.5715000000000003],[-1.1268749999999998,-0.20259259259259255,2.5874999999999986],[-1.1815624999999998,-0.1388888888888889,2.6026999999955294],[-1.2360416666666665,-0.08351851851851856,2.61619999999553],[-1.254375,0.01777777777777782,2.6358999999985073],[-1.254375,0.01777777777777782,2.6496000000014917],[-1.2666666666666666,0.057777777777777865,2.666399999998511],[-1.2967708333333334,0.035740740740740656,2.684299999997016],[-1.2996875,0.0764814814814814,2.699600000001489],[-1.2940625,0.1814814814814815,2.719399999998508],[-1.2923958333333334,0.1596296296296297,2.7332999999970156],[-1.3126041666666666,0.09370370370370375,2.7494999999999976],[-1.295625,0.17740740740740732,2.768499999999996],[-1.2650000000000001,0.12962962962962962,2.7831999999955315]]","[0.00019999999553022008,0.018899999998509998,0.03289999999850579,0.04960000000149023,0.06639999999850943,0.08289999999851005,0.10060000000149216,0.11629999999701823,0.13299999999999557,0.14960000000149165,0.1662999999970154,0.1839999999999975,0.1996000000014888,0.2161999999955313,0.232999999999997,0.2497999999970162,0.2662999999970168,0.2828999999985058,0.29960000000149023,0.3162999999970211,0.33289999999851005,0.35060000000149216,0.36629999999701823,0.3828999999985072,0.39960000000149165,0.41710000000148995,0.4328999999985115,0.4496000000014888,0.4693999999985081,0.4831999999955272,0.5037999999970211,0.5187999999970216,0.5328999999985058,0.5496000000014902,0.5662999999970211,0.58289999999851,0.6016000000014898,0.6161999999955299,0.6328999999985072,0.6496000000014917,0.670899999998511,0.6848999999985068,0.699799999997019,0.7192999999970198,0.7349999999999994,0.7539999999999978,0.7663999999985052,0.7828999999985058,0.7996000000014902,0.8162999999970211,0.83289999999851,0.8516000000014898,0.869499999999995,0.8831999999955258,0.8996000000014917,0.916199999995527,0.9338999999985091,0.9496999999955307,0.9666999999955266,0.982999999999997,0.9996999999955278,1.0191000000014867,1.0328999999985058,1.0496000000014902,1.0674999999999955,1.08289999999851,1.1012999999970177,1.1166000000014904,1.1331999999955258,1.1496000000014917,1.1668999999985061,1.1839999999999975,1.2016000000014913,1.2161999999955313,1.2328999999985086,1.249600000001486,1.268499999999996,1.2838999999985106,1.2999999999999972,1.3183999999985119,1.3376999999955288,1.3522999999970153,1.3712999999970208,1.385799999997019,1.4036999999955313,1.4164999999999992,1.4361000000014883,1.4498999999985074,1.468699999995529,1.4851999999955297,1.5041000000014861,1.5187999999970216,1.538199999995527,1.549699999995525,1.5666000000014861,1.5829999999999984,1.6031000000014899,1.6162999999970182,1.633100000001491,1.6497999999970219,1.6709999999999994,1.6856999999955278,1.7018999999985098,1.7194999999999965,1.7362999999970157,1.754199999995528,1.7665000000000006,1.7828999999985058,1.8013999999985089,1.8161999999955256,1.837600000001487,1.8526999999955294,1.8662999999970182,1.8829999999999956,1.8996000000014917,1.9200000000000017,1.9356999999955278,1.9536000000014866,1.970199999995529,1.985999999999997,2.0066999999955257,2.016399999998505,2.0331000000014896,2.0497999999970204,2.0731999999955306,2.0829999999999984,2.099899999998506,2.1163999999985066,2.135799999997019,2.151799999997017,2.1666999999955294,2.183100000001488,2.1995000000000005,2.2192999999970198,2.235100000001488,2.254399999998512,2.266299999997017,2.282899999998506,2.2996000000014902,2.3161999999955256,2.33289999999851,2.350699999995527,2.3674999999999997,2.3832999999970212,2.3996000000014917,2.4162999999970154,2.4328999999985115,2.4499999999999957,2.4662999999970197,2.4828999999985086,2.4994999999999976,2.5172999999970216,2.532899999998506,2.552699999995525,2.5715000000000003,2.5874999999999986,2.6026999999955294,2.61619999999553,2.6358999999985073,2.6496000000014917,2.666399999998511,2.684299999997016,2.699600000001489,2.719399999998508,2.7332999999970156,2.7494999999999976,2.768499999999996,2.7831999999955315]","[1732593664934,1732593664951,1732593664965,1732593664981,1732593664998,1732593665015,1732593665032,1732593665048,1732593665065,1732593665081,1732593665098,1732593665116,1732593665131,1732593665148,1732593665165,1732593665181,1732593665198,1732593665215,1732593665231,1732593665248,1732593665265,1732593665282,1732593665298,1732593665315,1732593665331,1732593665349,1732593665365,1732593665381,1732593665401,1732593665415,1732593665435,1732593665450,1732593665465,1732593665481,1732593665498,1732593665515,1732593665533,1732593665548,1732593665565,1732593665581,1732593665603,1732593665617,1732593665631,1732593665651,1732593665667,1732593665686,1732593665698,1732593665715,1732593665731,1732593665748,1732593665765,1732593665783,1732593665801,1732593665815,1732593665831,1732593665848,1732593665866,1732593665881,1732593665898,1732593665915,1732593665931,1732593665951,1732593665965,1732593665981,1732593665999,1732593666015,1732593666033,1732593666048,1732593666065,1732593666081,1732593666099,1732593666116,1732593666133,1732593666148,1732593666165,1732593666181,1732593666200,1732593666216,1732593666232,1732593666250,1732593666269,1732593666284,1732593666303,1732593666317,1732593666335,1732593666348,1732593666368,1732593666382,1732593666400,1732593666417,1732593666436,1732593666450,1732593666470,1732593666481,1732593666498,1732593666515,1732593666535,1732593666548,1732593666565,1732593666581,1732593666603,1732593666617,1732593666634,1732593666651,1732593666668,1732593666686,1732593666698,1732593666715,1732593666733,1732593666748,1732593666769,1732593666784,1732593666798,1732593666815,1732593666831,1732593666852,1732593666867,1732593666885,1732593666902,1732593666918,1732593666938,1732593666948,1732593666965,1732593666981,1732593667005,1732593667015,1732593667032,1732593667048,1732593667067,1732593667083,1732593667098,1732593667115,1732593667131,1732593667151,1732593667167,1732593667186,1732593667198,1732593667215,1732593667231,1732593667248,1732593667265,1732593667282,1732593667299,1732593667315,1732593667331,1732593667348,1732593667365,1732593667382,1732593667398,1732593667415,1732593667431,1732593667449,1732593667465,1732593667484,1732593667503,1732593667519,1732593667534,1732593667548,1732593667568,1732593667581,1732593667598,1732593667616,1732593667631,1732593667651,1732593667665,1732593667681,1732593667700,1732593667715]","[[839.3,561.3],[819.5,546.2],[819.5,546.2],[818.8,544.5],[833.1,539.3],[853.6,508.7],[884.6,490.8],[872.2,502],[872.2,502],[859.8,513.2],[849,485.1],[834.8,453.5],[836.2,411.2],[836.2,411.2],[854.2,371.2],[866.5,327.1],[866.5,327.1],[862.5,274.5],[862.5,274.5],[860,271],[854.5,280.7],[870.6,254.8],[928.9,219.4],[928.9,219.4],[987.2,239],[987.2,239],[1054.4,264.1],[1090.8,280.9],[1110.6,295.4],[1088.9,336.6],[1063.3,380.3],[1049.5,389.5],[1049.5,389.5],[1042.6,404],[1045.6,398.9],[1003,394.1],[911.9,377.4],[815.3,358.7],[749.5,348.3],[717.1,341],[714.1,330],[711.1,319],[686.6,312.4],[658.2,287.3],[641.2,288.9],[635.9,276.4],[635.9,276.4],[677.5,294.3],[683,307.4],[719,323.3],[691.1,333.3],[706.8,340.5],[722.5,347.7],[695.5,361.6],[668.5,375.5],[647.2,409.7],[617.6,467.2],[600.1,500.3],[618.7,538.2],[595.8,540.1],[603.4,544.8],[589.6,552.1],[589.6,552.1],[582.1,570.4],[601.9,572.1],[625.7,568.5],[577,529.3],[528.3,490.1],[474.5,485.9],[420.7,481.7],[360.1,518.5],[299.4,550.4],[223.8,567.8],[130.6,576.7],[54.8,601.9],[-34.3,631.7],[-77.9,669.7],[-88.1,689.4],[-103.7,680],[-133,675.3],[-12.5,623.9],[100.4,586.8],[223.8,545.5],[360.9,492.2],[459.5,413.3],[459.5,413.3],[567.4,335.1],[742.3,253.5],[849.4,226.2],[971.9,186.6],[1078.8,149],[1036.9,129.4],[1033.1,133.6],[1033.1,133.6],[1024.4,101.4],[957.3,101.1],[956.3,134.7],[956.3,134.7],[964.3,159.9],[921.4,153.6],[912.9,111.3],[865.8,114.1],[848,110.2],[850.9,162.6],[820,150],[841.3,142.5],[841.3,142.5],[926,150.5],[983.1,150.2],[1019.5,178.1],[1039.8,240.9],[1025.1,271.2],[1025.1,271.2],[1003.3,272.7],[993,257.5],[978.8,206.9],[940.4,185.1],[877,199.2],[833.6,182],[790.2,164.8],[771.1,160.8],[771.1,160.8],[728.8,140],[728.8,140],[765.1,118.8],[765.1,118.8],[834.2,142.3],[899.5,183.8],[964.8,225.3],[1057,243.9],[1057,243.9],[1127.6,274.3],[1161.2,258.2],[1198.7,261.9],[1219.9,206.4],[1277.5,180.6],[1277.5,180.6],[1270.9,182.9],[1273.1,159],[1291.4,142.7],[1160.8,139.8],[1030.9,162.8],[970.2,178.3],[919.1,233.7],[809.6,273],[809.6,273],[707,339.1],[556.5,367.5],[556.5,367.5],[410.3,418.5],[276.7,441.5],[107.9,428.4],[88,401.9],[66.4,429.3],[-25.1,447.8],[-121.8,430.6],[-174.3,465],[-226.6,494.9],[-244.2,549.6],[-244.2,549.6],[-256,571.2],[-284.9,559.3],[-287.7,581.3],[-282.3,638],[-280.7,626.2],[-300.1,590.6],[-283.8,635.8],[-254.4,610]]","[-0.2,0.6000000000000001]","[0.2,0.6000000000000001]","[0.6000000000000001,0.6000000000000001]","[-0.6000000000000001,-0.2]","[-0.6000000000000001,0.2]","[-0.6000000000000001,-0.6000000000000001]","[-0.2,-0.2]","[0.2,-0.2]","[0.6000000000000001,-0.2]","[-0.2,0.2]","[0.2,0.2]","[0.6000000000000001,0.2]","[-0.2,-0.6000000000000001]","[0.2,-0.6000000000000001]","[0.6000000000000001,-0.6000000000000001]",0,1,1,1,1,4,Monitor,20,40,8,2,70,4,2,70,5
