inst1_resp.keys,inst1_resp.rt,calibrationMouse.x,calibrationMouse.y,calibrationMouse.leftButton,calibrationMouse.midButton,calibrationMouse.rightButton,calibrationClick.x,calibrationClick.y,calibrationClick.leftButton,calibrationClick.midButton,calibrationClick.rightButton,trialsc.thisRepN,trialsc.thisTrialN,trialsc.thisN,trialsc.thisIndex,trialsc.ran,calibration_x,calibration_y,participant,session,date,expName,psychopyVersion,OS,frameRate,calibrationClick.clicked_name,ScreenRes_pixels,Camera_pixels,mouse_2.x,mouse_2.y,mouse_2.leftButton,mouse_2.midButton,mouse_2.rightButton,mouse_2.time,mouse_2.clicked_name,mouse.x,mouse.y,mouse.leftButton,mouse.midButton,mouse.rightButton,mouse.time,mouse.clicked_name,Choice,Trial,TrialDuration,MOUSE_GAZE,ET_GAZE,ET_GAZE_x_T,time,unixTime,ET_GAZE_NF,Loc_Bus_label,Loc_Metro_label,Loc_RH_label,Loc_Cost_label,Loc_Travel_label,Loc_Comfort_label,Loc_Bus_cost,Loc_Metro_cost,Loc_RH_cost,Loc_Bus_travel,Loc_Metro_travel,Loc_RH_travel,Loc_Bus_comfort,Loc_Metro_comfort,Loc_RH_comfort,trials.thisRepN,trials.thisTrialN,trials.thisN,trials.thisIndex,trials.ran,Block,Device,RH_cost,RH_travel_time,RH_Comfort,metro_cost,metro_travel_time,metro_Comfort,Bus_cost,Bus_travel_time,Bus_Comfort
space,1.4648,0.222916667,-0.031481481,1,0,0,-0.326041667,-0.311111111,1,0,0,0,0,0,5,1,-0.33,-0.33,44,001,2024-11-26_15h16.22.330,Attention_exp_legacy,2023.1.0,Win32,59.88023952,,,,,,,,,,,,,,,,,,,,,,,,,,,,,,,,,,,,,,,,,,,,,,,,,,,,,,,,,
,,,,,,,-0.004166667,0.675925926,1,0,0,0,1,1,13,1,0,0.67,44,001,2024-11-26_15h16.22.330,Attention_exp_legacy,2023.1.0,Win32,59.88023952,calibration_square,,,,,,,,,,,,,,,,,,,,,,,,,,,,,,,,,,,,,,,,,,,,,,,,,,,,,,,,
,,,,,,,-0.334375,-0.014814815,1,0,0,0,2,2,6,1,-0.33,0,44,001,2024-11-26_15h16.22.330,Attention_exp_legacy,2023.1.0,Win32,59.88023952,,,,,,,,,,,,,,,,,,,,,,,,,,,,,,,,,,,,,,,,,,,,,,,,,,,,,,,,,
,,,,,,,0.351041667,-0.718518519,1,0,0,0,3,3,14,1,0.33,-0.67,44,001,2024-11-26_15h16.22.330,Attention_exp_legacy,2023.1.0,Win32,59.88023952,,,,,,,,,,,,,,,,,,,,,,,,,,,,,,,,,,,,,,,,,,,,,,,,,,,,,,,,,
,,,,,,,-0.332291667,0.35,1,0,0,0,4,4,7,1,-0.33,0.33,44,001,2024-11-26_15h16.22.330,Attention_exp_legacy,2023.1.0,Win32,59.88023952,,,,,,,,,,,,,,,,,,,,,,,,,,,,,,,,,,,,,,,,,,,,,,,,,,,,,,,,,
,,,,,,,0.33125,0.681481481,1,0,0,0,5,5,18,1,0.33,0.67,44,001,2024-11-26_15h16.22.330,Attention_exp_legacy,2023.1.0,Win32,59.88023952,,,,,,,,,,,,,,,,,,,,,,,,,,,,,,,,,,,,,,,,,,,,,,,,,,,,,,,,,
,,,,,,,0.65625,0.668518519,1,0,0,0,6,6,19,1,0.67,0.67,44,001,2024-11-26_15h16.22.330,Attention_exp_legacy,2023.1.0,Win32,59.88023952,,,,,,,,,,,,,,,,,,,,,,,,,,,,,,,,,,,,,,,,,,,,,,,,,,,,,,,,,
,,,,,,,-0.319791667,-0.675925926,1,0,0,0,7,7,4,1,-0.33,-0.67,44,001,2024-11-26_15h16.22.330,Attention_exp_legacy,2023.1.0,Win32,59.88023952,,,,,,,,,,,,,,,,,,,,,,,,,,,,,,,,,,,,,,,,,,,,,,,,,,,,,,,,,
,,,,,,,-0.678125,0.340740741,1,0,0,0,8,8,3,1,-0.67,0.33,44,001,2024-11-26_15h16.22.330,Attention_exp_legacy,2023.1.0,Win32,59.88023952,,,,,,,,,,,,,,,,,,,,,,,,,,,,,,,,,,,,,,,,,,,,,,,,,,,,,,,,,
,,,,,,,-0.669791667,-0.668518519,1,0,0,0,9,9,0,1,-0.67,-0.67,44,001,2024-11-26_15h16.22.330,Attention_exp_legacy,2023.1.0,Win32,59.88023952,calibration_square,,,,,,,,,,,,,,,,,,,,,,,,,,,,,,,,,,,,,,,,,,,,,,,,,,,,,,,,
,,,,,,,-0.008333333,-0.648148148,1,0,0,0,10,10,9,1,0,-0.67,44,001,2024-11-26_15h16.22.330,Attention_exp_legacy,2023.1.0,Win32,59.88023952,,,,,,,,,,,,,,,,,,,,,,,,,,,,,,,,,,,,,,,,,,,,,,,,,,,,,,,,,
,,,,,,,0,0.314814815,1,0,0,0,11,11,12,1,0,0.33,44,001,2024-11-26_15h16.22.330,Attention_exp_legacy,2023.1.0,Win32,59.88023952,,,,,,,,,,,,,,,,,,,,,,,,,,,,,,,,,,,,,,,,,,,,,,,,,,,,,,,,,
,,,,,,,0.66875,-0.687037037,1,0,0,0,12,12,20,1,0.67,-0.67,44,001,2024-11-26_15h16.22.330,Attention_exp_legacy,2023.1.0,Win32,59.88023952,,,,,,,,,,,,,,,,,,,,,,,,,,,,,,,,,,,,,,,,,,,,,,,,,,,,,,,,,
,,,,,,,0.003125,-0.312962963,1,0,0,0,13,13,10,1,0,-0.33,44,001,2024-11-26_15h16.22.330,Attention_exp_legacy,2023.1.0,Win32,59.88023952,,,,,,,,,,,,,,,,,,,,,,,,,,,,,,,,,,,,,,,,,,,,,,,,,,,,,,,,,
,,,,,,,0.326041667,0.005555556,1,0,0,0,14,14,16,1,0.33,0,44,001,2024-11-26_15h16.22.330,Attention_exp_legacy,2023.1.0,Win32,59.88023952,calibration_square,,,,,,,,,,,,,,,,,,,,,,,,,,,,,,,,,,,,,,,,,,,,,,,,,,,,,,,,
,,,,,,,-0.669791667,-0.32962963,1,0,0,0,15,15,1,1,-0.67,-0.33,44,001,2024-11-26_15h16.22.330,Attention_exp_legacy,2023.1.0,Win32,59.88023952,calibration_square,,,,,,,,,,,,,,,,,,,,,,,,,,,,,,,,,,,,,,,,,,,,,,,,,,,,,,,,
,,,,,,,0.31875,-0.327777778,1,0,0,0,16,16,15,1,0.33,-0.33,44,001,2024-11-26_15h16.22.330,Attention_exp_legacy,2023.1.0,Win32,59.88023952,,,,,,,,,,,,,,,,,,,,,,,,,,,,,,,,,,,,,,,,,,,,,,,,,,,,,,,,,
,,,,,,,-0.33125,0.696296296,1,0,0,0,17,17,8,1,-0.33,0.67,44,001,2024-11-26_15h16.22.330,Attention_exp_legacy,2023.1.0,Win32,59.88023952,,,,,,,,,,,,,,,,,,,,,,,,,,,,,,,,,,,,,,,,,,,,,,,,,,,,,,,,,
,,,,,,,0.00625,0.014814815,1,0,0,0,18,18,11,1,0,0,44,001,2024-11-26_15h16.22.330,Attention_exp_legacy,2023.1.0,Win32,59.88023952,,,,,,,,,,,,,,,,,,,,,,,,,,,,,,,,,,,,,,,,,,,,,,,,,,,,,,,,,
,,,,,,,-0.685416667,0.005555556,1,0,0,0,19,19,2,1,-0.67,0,44,001,2024-11-26_15h16.22.330,Attention_exp_legacy,2023.1.0,Win32,59.88023952,,,,,,,,,,,,,,,,,,,,,,,,,,,,,,,,,,,,,,,,,,,,,,,,,,,,,,,,,
,,,,,,,0.320833333,0.322222222,1,0,0,0,20,20,17,1,0.33,0.33,44,001,2024-11-26_15h16.22.330,Attention_exp_legacy,2023.1.0,Win32,59.88023952,calibration_square,,,,,,,,,,,,,,,,,,,,,,,,,,,,,,,,,,,,,,,,,,,,,,,,,,,,,,,,
,,,,,,,,,,,,,,,,,,,44,001,2024-11-26_15h16.22.330,Attention_exp_legacy,2023.1.0,Win32,59.88023952,,"[1920,1080]","[640,480]",[0.017708333333333333],[-0.5222222222222223],[1],[0],[0],[1.1522999999970196],"[""StartButton""]","[0.4552083333333333,0.421875]","[0.3962962962962963,0.4462962962962963]","[1,1]","[0,0]","[0,0]","[2.437299999997016,2.949899999991054]","[""RH_label"",""RH_label""]",RH_label,1,3.4602,"[[0.13229166666666667,-0.0962962962962963],[0.13229166666666667,-0.0962962962962963],[0.13229166666666667,-0.0962962962962963],[0.13229166666666667,-0.0962962962962963],[0.13229166666666667,-0.0962962962962963],[0.13229166666666667,-0.0962962962962963],[0.13229166666666667,-0.0962962962962963],[0.13229166666666667,-0.0962962962962963],[0.13229166666666667,-0.0962962962962963],[0.13229166666666667,-0.0962962962962963],[0.13229166666666667,-0.0962962962962963],[0.13229166666666667,-0.0962962962962963],[0.13229166666666667,-0.0962962962962963],[0.13229166666666667,-0.0962962962962963],[0.13229166666666667,-0.0962962962962963],[0.13229166666666667,-0.0962962962962963],[0.13229166666666667,-0.0962962962962963],[0.13229166666666667,-0.0962962962962963],[0.13229166666666667,-0.0962962962962963],[0.13229166666666667,-0.0962962962962963],[0.13229166666666667,-0.0962962962962963],[0.13229166666666667,-0.0962962962962963],[0.13229166666666667,-0.0962962962962963],[0.13229166666666667,-0.0962962962962963],[0.13229166666666667,-0.0962962962962963],[0.13229166666666667,-0.0962962962962963],[0.13229166666666667,-0.0962962962962963],[0.13229166666666667,-0.0962962962962963],[0.13229166666666667,-0.0962962962962963],[0.13229166666666667,-0.09444444444444444],[0.13333333333333333,-0.09074074074074075],[0.14375,-0.07037037037037037],[0.15,-0.05555555555555555],[0.16041666666666668,-0.03518518518518519],[0.17395833333333333,-0.005555555555555556],[0.19479166666666667,0.040740740740740744],[0.221875,0.0962962962962963],[0.24583333333333332,0.1425925925925926],[0.26666666666666666,0.18333333333333332],[0.290625,0.22592592592592592],[0.30625,0.2537037037037037],[0.3125,0.26481481481481484],[0.3260416666666667,0.2814814814814815],[0.34791666666666665,0.30925925925925923],[0.365625,0.3277777777777778],[0.38645833333333335,0.35],[0.4083333333333333,0.37222222222222223],[0.428125,0.3925925925925926],[0.44895833333333335,0.412962962962963],[0.46875,0.43333333333333335],[0.4822916666666667,0.4462962962962963],[0.49270833333333336,0.45925925925925926],[0.5,0.4666666666666667],[0.5010416666666667,0.4685185185185185],[0.5020833333333333,0.4722222222222222],[0.503125,0.4759259259259259],[0.503125,0.48518518518518516],[0.503125,0.4925925925925926],[0.503125,0.5037037037037037],[0.503125,0.512962962962963],[0.4979166666666667,0.5277777777777778],[0.49375,0.5388888888888889],[0.484375,0.5537037037037037],[0.47291666666666665,0.5722222222222222],[0.459375,0.587037037037037],[0.44375,0.6037037037037037],[0.42916666666666664,0.6185185185185185],[0.40208333333333335,0.65],[0.384375,0.6685185185185185],[0.36354166666666665,0.6814814814814815],[0.346875,0.6944444444444444],[0.33125,0.7074074074074074],[0.3125,0.7148148148148148],[0.3,0.7222222222222222],[0.29270833333333335,0.7296296296296296],[0.2864583333333333,0.7333333333333333],[0.28229166666666666,0.7351851851851852],[0.2760416666666667,0.7351851851851852],[0.27291666666666664,0.7388888888888889],[0.2708333333333333,0.7388888888888889],[0.2677083333333333,0.7388888888888889],[0.26666666666666666,0.7388888888888889],[0.265625,0.7407407407407407],[0.2625,0.7407407407407407],[0.26145833333333335,0.7407407407407407],[0.259375,0.7407407407407407],[0.25729166666666664,0.7425925925925926],[0.2552083333333333,0.7425925925925926],[0.2552083333333333,0.7425925925925926],[0.253125,0.7425925925925926],[0.2520833333333333,0.7425925925925926],[0.2520833333333333,0.7425925925925926],[0.2520833333333333,0.7425925925925926],[0.2520833333333333,0.7425925925925926],[0.2520833333333333,0.7425925925925926],[0.2520833333333333,0.7425925925925926],[0.2520833333333333,0.7425925925925926],[0.2520833333333333,0.7425925925925926],[0.2520833333333333,0.7425925925925926],[0.2520833333333333,0.7425925925925926],[0.2520833333333333,0.7425925925925926],[0.2520833333333333,0.7425925925925926],[0.2520833333333333,0.7425925925925926],[0.2520833333333333,0.7425925925925926],[0.2520833333333333,0.7425925925925926],[0.2520833333333333,0.7425925925925926],[0.2520833333333333,0.7425925925925926],[0.2520833333333333,0.7425925925925926],[0.2520833333333333,0.7425925925925926],[0.2520833333333333,0.7425925925925926],[0.2520833333333333,0.7425925925925926],[0.2520833333333333,0.7425925925925926],[0.2520833333333333,0.7425925925925926],[0.2520833333333333,0.7425925925925926],[0.2520833333333333,0.7425925925925926],[0.2635416666666667,0.7425925925925926],[0.2791666666666667,0.737037037037037],[0.2947916666666667,0.7277777777777777],[0.315625,0.7166666666666667],[0.33125,0.7055555555555556],[0.34791666666666665,0.6944444444444444],[0.3645833333333333,0.674074074074074],[0.3802083333333333,0.6481481481481481],[0.39375,0.6240740740740741],[0.415625,0.5796296296296296],[0.42083333333333334,0.5592592592592592],[0.4239583333333333,0.5462962962962963],[0.43020833333333336,0.5222222222222223],[0.4354166666666667,0.5018518518518519],[0.43854166666666666,0.48518518518518516],[0.440625,0.4777777777777778],[0.44375,0.46296296296296297],[0.44895833333333335,0.4444444444444444],[0.453125,0.42962962962962964],[0.45416666666666666,0.4166666666666667],[0.4552083333333333,0.40925925925925927],[0.4552083333333333,0.40925925925925927],[0.4552083333333333,0.40925925925925927],[0.4552083333333333,0.4074074074074074],[0.4552083333333333,0.4],[0.4552083333333333,0.3962962962962963],[0.4552083333333333,0.3962962962962963],[0.4552083333333333,0.3962962962962963],[0.4552083333333333,0.3962962962962963],[0.4552083333333333,0.3962962962962963],[0.4552083333333333,0.3962962962962963],[0.4552083333333333,0.3962962962962963],[0.4552083333333333,0.3962962962962963],[0.4552083333333333,0.3962962962962963],[0.4552083333333333,0.3962962962962963],[0.4552083333333333,0.3962962962962963],[0.4552083333333333,0.3962962962962963],[0.4552083333333333,0.3962962962962963],[0.4552083333333333,0.3962962962962963],[0.4552083333333333,0.3962962962962963],[0.4552083333333333,0.3962962962962963],[0.4552083333333333,0.3962962962962963],[0.4552083333333333,0.3962962962962963],[0.4552083333333333,0.3962962962962963],[0.4552083333333333,0.3962962962962963],[0.4552083333333333,0.3962962962962963],[0.4552083333333333,0.3962962962962963],[0.4552083333333333,0.3962962962962963],[0.4552083333333333,0.39444444444444443],[0.45208333333333334,0.39814814814814814],[0.44375,0.4111111111111111],[0.434375,0.42592592592592593],[0.42604166666666665,0.4388888888888889],[0.42291666666666666,0.4444444444444444],[0.421875,0.4462962962962963],[0.421875,0.4462962962962963],[0.421875,0.4462962962962963],[0.421875,0.4462962962962963],[0.421875,0.4462962962962963],[0.421875,0.4462962962962963],[0.421875,0.4462962962962963],[0.421875,0.4462962962962963],[0.421875,0.4462962962962963],[0.421875,0.4462962962962963],[0.421875,0.4462962962962963],[0.421875,0.4462962962962963],[0.421875,0.4462962962962963],[0.421875,0.4462962962962963],[0.421875,0.4462962962962963],[0.421875,0.4462962962962963],[0.421875,0.4462962962962963],[0.421875,0.4462962962962963],[0.421875,0.4462962962962963],[0.421875,0.4462962962962963],[0.421875,0.4462962962962963],[0.421875,0.4462962962962963],[0.421875,0.4462962962962963],[0.421875,0.4462962962962963],[0.421875,0.4462962962962963],[0.421875,0.4462962962962963],[0.421875,0.4462962962962963],[0.421875,0.4462962962962963],[0.421875,0.4462962962962963],[0.421875,0.4462962962962963],[0.421875,0.4462962962962963],[0.421875,0.4462962962962963],[0.421875,0.4462962962962963],[0.421875,0.4462962962962963],[0.421875,0.4462962962962963],[0.421875,0.4462962962962963],[0.421875,0.4462962962962963],[0.421875,0.4462962962962963]]","[[0.04458333333333329,-0.011111111111111112],[0.04458333333333329,-0.011111111111111112],[0.06656249999999998,-0.04203703703703712],[0.06072916666666662,-0.06018518518518518],[0.05489583333333338,-0.07833333333333335],[0.03250000000000005,-0.09129629629629632],[0.03250000000000005,-0.09129629629629632],[0.010104166666666714,-0.10425925925925927],[0.020729166666666642,-0.13759259259259263],[0.027291666666666714,-0.18203703703703705],[0.03156249999999995,-0.2242592592592593],[0.03156249999999995,-0.2242592592592593],[0.033958333333333354,-0.24666666666666665],[0.027395833333333286,-0.24666666666666665],[0.015104166666666667,-0.2448148148148148],[0.0203125,-0.2507407407407407],[0.022812499999999975,-0.2507407407407407],[0.019791666666666666,-0.2512962962962963],[0.01552083333333331,-0.2644444444444445],[0.01552083333333331,-0.2644444444444445],[-0.026979166666666644,-0.22148148148148153],[-0.05145833333333331,-0.19222222222222224],[-0.07197916666666669,-0.16574074074074074],[-0.09197916666666663,-0.15629629629629627],[-0.10302083333333331,-0.16925925925925922],[-0.10302083333333331,-0.16925925925925922],[-0.12364583333333339,-0.17555555555555558],[-0.1554166666666667,-0.16574074074074074],[-0.1844791666666667,-0.1618518518518518],[-0.21302083333333333,-0.11981481481481479],[-0.21302083333333333,-0.11981481481481479],[-0.18822916666666673,-0.07925925925925928],[-0.18374999999999997,-0.07259259259259257],[-0.17864583333333334,-0.06296296296296296],[-0.1625,-0.030555555555555555],[-0.15364583333333334,0.01055555555555564],[-0.14479166666666668,0.051666666666666625],[-0.12989583333333338,0.06925925925925921],[-0.1125,0.0794444444444444],[-0.09343750000000005,0.07462962962962955],[-0.025520833333333333,0.028518518518518478],[-0.025520833333333333,0.028518518518518478],[-0.03322916666666664,0.008333333333333333],[-0.022708333333333285,0.0011111111111111532],[-0.025416666666666643,0.009259259259259259],[-0.025416666666666643,0.009259259259259259],[-0.043124999999999976,-0.0025925925925925505],[-0.0009374999999999763,-0.03518518518518519],[0.04125000000000002,-0.06777777777777783],[0.06666666666666667,-0.07592592592592592],[0.09208333333333343,-0.08407407407407404],[0.09208333333333343,-0.08407407407407404],[0.12947916666666662,-0.10925925925925926],[0.11708333333333343,-0.10499999999999998],[0.12822916666666656,-0.11259259259259262],[0.14364583333333342,-0.14018518518518516],[0.14364583333333342,-0.14018518518518516],[0.1634375000000001,-0.1624074074074074],[0.1929166666666667,-0.17907407407407405],[0.21375000000000005,-0.2207407407407407],[0.21375000000000005,-0.2207407407407407],[0.2345833333333334,-0.26240740740740737],[0.26145833333333335,-0.3096296296296296],[0.24656250000000005,-0.3416666666666667],[0.21802083333333327,-0.3416666666666667],[0.21875,-0.3646296296296296],[0.24645833333333325,-0.40666666666666673],[0.24645833333333325,-0.40666666666666673],[0.2756249999999999,-0.4207407407407407],[0.3134375000000001,-0.45611111111111113],[0.3134375000000001,-0.45611111111111113],[0.32177083333333345,-0.46055555555555555],[0.2861458333333334,-0.427962962962963],[0.26020833333333326,-0.40055555555555555],[0.24666666666666662,-0.4196296296296297],[0.24666666666666662,-0.4196296296296297],[0.29677083333333343,-0.42407407407407405],[0.3785416666666668,-0.4524074074074074],[0.44479166666666664,-0.47740740740740745],[0.44479166666666664,-0.47740740740740745],[0.440625,-0.4872222222222223],[0.42552083333333335,-0.5214814814814815],[0.4018749999999999,-0.5387037037037037],[0.4018749999999999,-0.5387037037037037],[0.4037499999999999,-0.5774074074074075],[0.41989583333333325,-0.6344444444444445],[0.42635416666666665,-0.6862962962962963],[0.43875000000000003,-0.6722222222222223],[0.4292708333333332,-0.687962962962963],[0.4041666666666667,-0.6783333333333333],[0.4041666666666667,-0.6783333333333333],[0.3640625,-0.6962962962962963],[0.37000000000000005,-0.6955555555555556],[0.38864583333333325,-0.7003703703703703],[0.3962500000000001,-0.6868518518518518],[0.39812500000000006,-0.6883333333333334],[0.39812500000000006,-0.6883333333333334],[0.3857291666666666,-0.6714814814814816],[0.39177083333333323,-0.6635185185185185],[0.39375,-0.6598148148148149],[0.39572916666666674,-0.6561111111111111],[0.36479166666666674,-0.6387037037037037],[0.36479166666666674,-0.6387037037037037],[0.35208333333333336,-0.5955555555555556],[0.36260416666666656,-0.6053703703703703],[0.3727083333333333,-0.5790740740740741],[0.39375,-0.5668518518518519],[0.4111458333333334,-0.5588888888888889],[0.42854166666666677,-0.5509259259259259],[0.4265625,-0.5133333333333333],[0.42458333333333326,-0.49296296296296294],[0.4258333333333333,-0.47370370370370374],[0.4439583333333334,-0.4696296296296297],[0.4470833333333334,-0.45203703703703707],[0.4243750000000001,-0.3962962962962963],[0.39562499999999995,-0.37333333333333335],[0.3941666666666668,-0.3731481481481482],[0.3883333333333333,-0.3787037037037037],[0.3663541666666667,-0.3718518518518519],[0.3554166666666667,-0.4094444444444445],[0.3554166666666667,-0.4094444444444445],[0.33052083333333326,-0.4431481481481482],[0.3099999999999999,-0.47481481481481475],[0.29229166666666656,-0.5027777777777778],[0.2647916666666667,-0.5418518518518519],[0.27197916666666655,-0.5831481481481481],[0.27197916666666655,-0.5831481481481481],[0.29572916666666677,-0.6116666666666667],[0.27677083333333335,-0.6388888888888888],[0.27677083333333335,-0.6388888888888888],[0.28062500000000007,-0.6227777777777778],[0.3029166666666666,-0.5866666666666667],[0.3151041666666667,-0.5268518518518519],[0.32833333333333337,-0.5257407407407407],[0.3476041666666667,-0.5309259259259259],[0.3564583333333334,-0.5509259259259259],[0.37177083333333344,-0.5559259259259259],[0.3523958333333333,-0.5587037037037037],[0.3523958333333333,-0.5587037037037037],[0.3757291666666667,-0.5772222222222222],[0.3757291666666667,-0.5772222222222222],[0.37781250000000005,-0.5507407407407408],[0.38291666666666657,-0.5585185185185185],[0.3857291666666666,-0.5987037037037037],[0.3885416666666667,-0.6388888888888888],[0.3941666666666668,-0.6390740740740741],[0.38614583333333335,-0.633888888888889],[0.37260416666666674,-0.5968518518518519],[0.3741666666666667,-0.5753703703703703],[0.38312499999999994,-0.5990740740740741],[0.35187499999999994,-0.5803703703703703],[0.3540625000000001,-0.6257407407407407],[0.35302083333333345,-0.6135185185185186],[0.3466666666666666,-0.5983333333333334],[0.3403125000000001,-0.5831481481481481],[0.33312499999999995,-0.5757407407407407],[0.3263541666666666,-0.587037037037037],[0.33958333333333335,-0.5796296296296296],[0.3671875,-0.5983333333333334],[0.3754166666666668,-0.5590740740740741],[0.37395833333333334,-0.5975925925925926],[0.37395833333333334,-0.5975925925925926],[0.3712500000000001,-0.5531481481481482],[0.3564583333333334,-0.5944444444444444],[0.35791666666666655,-0.5798148148148149],[0.359375,-0.5651851851851851],[0.359375,-0.5651851851851851],[0.37260416666666674,-0.5742592592592592],[0.3865624999999999,-0.534074074074074],[0.38250000000000006,-0.5624074074074074],[0.38250000000000006,-0.5624074074074074],[0.37374999999999997,-0.5424074074074073],[0.37218749999999995,-0.5188888888888888],[0.38468749999999996,-0.462037037037037],[0.41281249999999997,-0.45796296296296296],[0.4580208333333334,-0.4046296296296296],[0.49229166666666657,-0.4101851851851852],[0.5205208333333334,-0.43148148148148147],[0.5479166666666667,-0.4064814814814815],[0.5483333333333335,-0.4033333333333334],[0.558125,-0.3809259259259259],[0.5527083333333332,-0.37518518518518523],[0.5520833333333334,-0.3857407407407408],[0.5496875,-0.41444444444444445],[0.5361458333333334,-0.43277777777777776],[0.48250000000000004,-0.4398148148148148],[0.48250000000000004,-0.4398148148148148],[0.44343750000000004,-0.4609259259259259],[0.4033333333333334,-0.4479629629629629],[0.3832291666666668,-0.452962962962963],[0.36875,-0.4537037037037037],[0.3571875000000001,-0.45629629629629626],[0.3511458333333332,-0.4644444444444445],[0.34249999999999997,-0.4777777777777778],[0.33916666666666656,-0.45851851851851855],[0.34406249999999994,-0.4203703703703704],[0.3694791666666667,-0.4137037037037037],[0.3663541666666667,-0.40314814814814814],[0.3845833333333334,-0.42185185185185187],[0.3845833333333334,-0.42185185185185187],[0.37052083333333335,-0.3881481481481482],[0.38697916666666665,-0.40240740740740744],[0.38697916666666665,-0.40240740740740744],[0.4022916666666667,-0.40499999999999997],[0.4169791666666666,-0.40055555555555555],[0.4391666666666666,-0.38129629629629624],[0.4391666666666666,-0.38129629629629624]]","[[0.04458333333333329,-0.011111111111111112,0.00020000000298381337],[0.04458333333333329,-0.011111111111111112,0.04820000000298563],[0.06656249999999998,-0.04203703703703712,0.06029999999702085],[0.06072916666666662,-0.06018518518518518,0.07700000000000529],[0.05489583333333338,-0.07833333333333335,0.09700000000000131],[0.03250000000000005,-0.09129629629629632,0.11340000000596717],[0.03250000000000005,-0.09129629629629632,0.12700000000000244],[0.010104166666666714,-0.10425925925925927,0.14359999999404494],[0.020729166666666642,-0.13759259259259263,0.16029999999702227],[0.027291666666666714,-0.18203703703703705,0.17929999999702062],[0.03156249999999995,-0.2242592592592593,0.1954000000059608],[0.03156249999999995,-0.2242592592592593,0.21029999999701943],[0.033958333333333354,-0.24666666666666665,0.226900000005962],[0.027395833333333286,-0.24666666666666665,0.24359999999403925],[0.015104166666666667,-0.2448148148148148,0.2602000000029818],[0.0203125,-0.2507407407407407,0.277000000000001],[0.022812499999999975,-0.2507407407407407,0.2935999999940435],[0.019791666666666666,-0.2512962962962963,0.3122000000029814],[0.01552083333333331,-0.2644444444444445,0.3340000000000032],[0.01552083333333331,-0.2644444444444445,0.346500000000006],[-0.026979166666666644,-0.22148148148148153,0.3602999999970251],[-0.05145833333333331,-0.19222222222222224,0.3769000000059606],[-0.07197916666666669,-0.16574074074074074,0.3945999999940426],[-0.09197916666666663,-0.15629629629629627,0.4104000000059642],[-0.10302083333333331,-0.16925925925925922,0.4292999999970206],[-0.10302083333333331,-0.16925925925925922,0.4472999999970213],[-0.12364583333333339,-0.17555555555555558,0.4632000000029848],[-0.1554166666666667,-0.16574074074074074,0.47700000000000387],[-0.1844791666666667,-0.1618518518518518,0.49359999999403925],[-0.21302083333333333,-0.11981481481481479,0.5172999999970216],[-0.21302083333333333,-0.11981481481481479,0.527000000000001],[-0.18822916666666673,-0.07925925925925928,0.5437999999970202],[-0.18374999999999997,-0.07259259259259257,0.5605999999940394],[-0.17864583333333334,-0.06296296296296296,0.5785999999940401],[-0.1625,-0.030555555555555555,0.5969000000059665],[-0.15364583333333334,0.01055555555555564,0.6115999999940414],[-0.14479166666666668,0.051666666666666625,0.629599999994042],[-0.12989583333333338,0.06925925925925921,0.6437999999970216],[-0.1125,0.0794444444444444,0.6605000000000061],[-0.09343750000000005,0.07462962962962955,0.6810999999940393],[-0.025520833333333333,0.028518518518518478,0.6964000000059656],[-0.025520833333333333,0.028518518518518478,0.7105000000000032],[-0.03322916666666664,0.008333333333333333,0.7270999999940457],[-0.022708333333333285,0.0011111111111111532,0.7454000000059651],[-0.025416666666666643,0.009259259259259259,0.7635000000000005],[-0.025416666666666643,0.009259259259259259,0.7770999999940429],[-0.043124999999999976,-0.0025925925925925505,0.797099999994046],[-0.0009374999999999763,-0.03518518518518519,0.8125],[0.04125000000000002,-0.06777777777777783,0.82709999999404],[0.06666666666666667,-0.07592592592592592,0.8437000000029826],[0.09208333333333343,-0.08407407407407404,0.8622000000029857],[0.09208333333333343,-0.08407407407407404,0.8770999999940443],[0.12947916666666662,-0.10925925925925926,0.8937999999970216],[0.11708333333333343,-0.10499999999999998,0.9105000000000061],[0.12822916666666656,-0.11259259259259262,0.9310999999940393],[0.14364583333333342,-0.14018518518518516,0.9460000000000051],[0.14364583333333342,-0.14018518518518516,0.9604000000059614],[0.1634375000000001,-0.1624074074074074,0.9772999999970224],[0.1929166666666667,-0.17907407407407405,0.9954000000059651],[0.21375000000000005,-0.2207407407407407,1.0152000000029844],[0.21375000000000005,-0.2207407407407407,1.027099999994043],[0.2345833333333334,-0.26240740740740737,1.0462000000029832],[0.26145833333333335,-0.3096296296296296,1.0605999999940394],[0.24656250000000005,-0.3416666666666667,1.07709999999404],[0.21802083333333327,-0.3416666666666667,1.0937000000029826],[0.21875,-0.3646296296296296,1.1122000000029857],[0.24645833333333325,-0.40666666666666673,1.127400000005963],[0.24645833333333325,-0.40666666666666673,1.1437999999970216],[0.2756249999999999,-0.4207407407407407,1.160500000000006],[0.3134375000000001,-0.45611111111111113,1.1825999999940393],[0.3134375000000001,-0.45611111111111113,1.193700000002984],[0.32177083333333345,-0.46055555555555555,1.210599999994045],[0.2861458333333334,-0.427962962962963,1.2270999999940457],[0.26020833333333326,-0.40055555555555555,1.2452999999970231],[0.24666666666666662,-0.4196296296296297,1.264000000000003],[0.24666666666666662,-0.4196296296296297,1.277099999994043],[0.29677083333333343,-0.42407407407407405,1.2970000000000041],[0.3785416666666668,-0.4524074074074074,1.3125999999940419],[0.44479166666666664,-0.47740740740740745,1.3324000000059613],[0.44479166666666664,-0.47740740740740745,1.3484000000059666],[0.440625,-0.4872222222222223,1.3605000000000018],[0.42552083333333335,-0.5214814814814815,1.3770999999940443],[0.4018749999999999,-0.5387037037037037,1.3977999999970194],[0.4018749999999999,-0.5387037037037037,1.4104000000059642],[0.4037499999999999,-0.5774074074074075,1.4270999999940415],[0.41989583333333325,-0.6344444444444445,1.443799999997026],[0.42635416666666665,-0.6862962962962963,1.4622999999970219],[0.43875000000000003,-0.6722222222222223,1.4772000000029806],[0.4292708333333332,-0.687962962962963,1.4935999999940393],[0.4041666666666667,-0.6783333333333333,1.5150000000000006],[0.4041666666666667,-0.6783333333333333,1.527099999994043],[0.3640625,-0.6962962962962963,1.5435999999940435],[0.37000000000000005,-0.6955555555555556,1.561799999997021],[0.38864583333333325,-0.7003703703703703,1.5769000000059634],[0.3962500000000001,-0.6868518518518518,1.5970000000000013],[0.39812500000000006,-0.6883333333333334,1.6114000000059647],[0.39812500000000006,-0.6883333333333334,1.6269000000059606],[0.3857291666666666,-0.6714814814814816,1.643599999994045],[0.39177083333333323,-0.6635185185185185,1.6602999999970223],[0.39375,-0.6598148148148149,1.6799999999999997],[0.39572916666666674,-0.6561111111111111,1.6950999999940422],[0.36479166666666674,-0.6387037037037037,1.7105000000000032],[0.36479166666666674,-0.6387037037037037,1.7270000000000039],[0.35208333333333336,-0.5955555555555556,1.7435999999940393],[0.36260416666666656,-0.6053703703703703,1.7637999999970262],[0.3727083333333333,-0.5790740740740741,1.7780999999940406],[0.39375,-0.5668518518518519,1.7972999999970227],[0.4111458333333334,-0.5588888888888889,1.8125],[0.42854166666666677,-0.5509259259259259,1.8272999999970239],[0.4265625,-0.5133333333333333,1.8462000000029803],[0.42458333333333326,-0.49296296296296294,1.8615999999940414],[0.4258333333333333,-0.47370370370370374,1.8769000000059606],[0.4439583333333334,-0.4696296296296297,1.8947000000029846],[0.4470833333333334,-0.45203703703703707,1.9105999999940408],[0.4243750000000001,-0.3962962962962963,1.9270000000000067],[0.39562499999999995,-0.37333333333333335,1.9465999999940422],[0.3941666666666668,-0.3731481481481482,1.9632000000029848],[0.3883333333333333,-0.3787037037037037,1.9792999999970249],[0.3663541666666667,-0.3718518518518519,1.9980000000000047],[0.3554166666666667,-0.4094444444444445,2.015599999994045],[0.3554166666666667,-0.4094444444444445,2.027099999994043],[0.33052083333333326,-0.4431481481481482,2.0437999999970202],[0.3099999999999999,-0.47481481481481475,2.0635000000000048],[0.29229166666666656,-0.5027777777777778,2.0775999999940424],[0.2647916666666667,-0.5418518518518519,2.0967999999970246],[0.27197916666666655,-0.5831481481481481,2.1159999999999997],[0.27197916666666655,-0.5831481481481481,2.1270999999940443],[0.29572916666666677,-0.6116666666666667,2.1439000000059636],[0.27677083333333335,-0.6388888888888888,2.166900000005967],[0.27677083333333335,-0.6388888888888888,2.1770999999940415],[0.28062500000000007,-0.6227777777777778,2.193799999997026],[0.3029166666666666,-0.5866666666666667,2.2105000000000032],[0.3151041666666667,-0.5268518518518519,2.230599999994041],[0.32833333333333337,-0.5257407407407407,2.2459000000059604],[0.3476041666666667,-0.5309259259259259,2.2637000000029843],[0.3564583333333334,-0.5509259259259259,2.2819000000059617],[0.37177083333333344,-0.5559259259259259,2.297000000000004],[0.3523958333333333,-0.5587037037037037,2.3130999999940443],[0.3523958333333333,-0.5587037037037037,2.328000000000003],[0.3757291666666667,-0.5772222222222222,2.3475999999940456],[0.3757291666666667,-0.5772222222222222,2.360400000005967],[0.37781250000000005,-0.5507407407407408,2.3769000000059606],[0.38291666666666657,-0.5585185185185185,2.3945000000000007],[0.3857291666666666,-0.5987037037037037,2.4115000000000038],[0.3885416666666667,-0.6388888888888888,2.431299999997023],[0.3941666666666668,-0.6390740740740741,2.44759999999404],[0.38614583333333335,-0.633888888888889,2.463900000005964],[0.37260416666666674,-0.5968518518518519,2.4795000000000016],[0.3741666666666667,-0.5753703703703703,2.4935999999940393],[0.38312499999999994,-0.5990740740740741,2.5150000000000006],[0.35187499999999994,-0.5803703703703703,2.530099999994043],[0.3540625000000001,-0.6257407407407407,2.5484000000059623],[0.35302083333333345,-0.6135185185185186,2.5635999999940395],[0.3466666666666666,-0.5983333333333334,2.5775999999940424],[0.3403125000000001,-0.5831481481481481,2.597200000002985],[0.33312499999999995,-0.5757407407407407,2.6139000000059625],[0.3263541666666666,-0.587037037037037,2.631299999997026],[0.33958333333333335,-0.5796296296296296,2.6470999999940403],[0.3671875,-0.5983333333333334,2.6624000000059667],[0.3754166666666668,-0.5590740740740741,2.680599999994044],[0.37395833333333334,-0.5975925925925926,2.69609999999404],[0.37395833333333334,-0.5975925925925926,2.7102000000029847],[0.3712500000000001,-0.5531481481481482,2.727000000000004],[0.3564583333333334,-0.5944444444444444,2.747900000005963],[0.35791666666666655,-0.5798148148148149,2.7642999999970215],[0.359375,-0.5651851851851851,2.7787999999970197],[0.359375,-0.5651851851851851,2.797799999997025],[0.37260416666666674,-0.5742592592592592,2.8105000000000047],[0.3865624999999999,-0.534074074074074,2.8277000000029844],[0.38250000000000006,-0.5624074074074074,2.8482999999970247],[0.38250000000000006,-0.5624074074074074,2.8602000000029832],[0.37374999999999997,-0.5424074074074073,2.8770000000000024],[0.37218749999999995,-0.5188888888888888,2.893599999994045],[0.38468749999999996,-0.462037037037037,2.9102999999970223],[0.41281249999999997,-0.45796296296296296,2.926900000005965],[0.4580208333333334,-0.4046296296296296,2.943599999994042],[0.49229166666666657,-0.4101851851851852,2.9602999999970194],[0.5205208333333334,-0.43148148148148147,2.976900000005962],[0.5479166666666667,-0.4064814814814815,2.9935999999940393],[0.5483333333333335,-0.4033333333333334,3.0102999999970237],[0.558125,-0.3809259259259259,3.030000000000001],[0.5527083333333332,-0.37518518518518523,3.046299999997025],[0.5520833333333334,-0.3857407407407408,3.060900000005965],[0.5496875,-0.41444444444444445,3.0775999999940424],[0.5361458333333334,-0.43277777777777776,3.096599999994041],[0.48250000000000004,-0.4398148148148148,3.1125000000000043],[0.48250000000000004,-0.4398148148148148,3.1269000000059606],[0.44343750000000004,-0.4609259259259259,3.143599999994045],[0.4033333333333334,-0.4479629629629629,3.1602000000029804],[0.3832291666666668,-0.452962962962963,3.176900000005965],[0.36875,-0.4537037037037037,3.1947999999970236],[0.3571875000000001,-0.45629629629629626,3.2104000000059614],[0.3511458333333332,-0.4644444444444445,3.226900000005962],[0.34249999999999997,-0.4777777777777778,3.2435999999940393],[0.33916666666666656,-0.45851851851851855,3.2602999999970237],[0.34406249999999994,-0.4203703703703704,3.2782000000029825],[0.3694791666666667,-0.4137037037037037,3.2935999999940435],[0.3663541666666667,-0.40314814814814814,3.312599999994042],[0.3845833333333334,-0.42185185185185187,3.333299999997024],[0.3845833333333334,-0.42185185185185187,3.3435999999940407],[0.37052083333333335,-0.3881481481481482,3.3602000000029832],[0.38697916666666665,-0.40240740740740744,3.3769000000059606],[0.38697916666666665,-0.40240740740740744,3.393599999994045],[0.4022916666666667,-0.40499999999999997,3.410400000005964],[0.4169791666666666,-0.40055555555555555,3.4300999999940416],[0.4391666666666666,-0.38129629629629624,3.4457999999970212],[0.4391666666666666,-0.38129629629629624,3.4602000000029847]]","[0.00020000000298381337,0.04820000000298563,0.06029999999702085,0.07700000000000529,0.09700000000000131,0.11340000000596717,0.12700000000000244,0.14359999999404494,0.16029999999702227,0.17929999999702062,0.1954000000059608,0.21029999999701943,0.226900000005962,0.24359999999403925,0.2602000000029818,0.277000000000001,0.2935999999940435,0.3122000000029814,0.3340000000000032,0.346500000000006,0.3602999999970251,0.3769000000059606,0.3945999999940426,0.4104000000059642,0.4292999999970206,0.4472999999970213,0.4632000000029848,0.47700000000000387,0.49359999999403925,0.5172999999970216,0.527000000000001,0.5437999999970202,0.5605999999940394,0.5785999999940401,0.5969000000059665,0.6115999999940414,0.629599999994042,0.6437999999970216,0.6605000000000061,0.6810999999940393,0.6964000000059656,0.7105000000000032,0.7270999999940457,0.7454000000059651,0.7635000000000005,0.7770999999940429,0.797099999994046,0.8125,0.82709999999404,0.8437000000029826,0.8622000000029857,0.8770999999940443,0.8937999999970216,0.9105000000000061,0.9310999999940393,0.9460000000000051,0.9604000000059614,0.9772999999970224,0.9954000000059651,1.0152000000029844,1.027099999994043,1.0462000000029832,1.0605999999940394,1.07709999999404,1.0937000000029826,1.1122000000029857,1.127400000005963,1.1437999999970216,1.160500000000006,1.1825999999940393,1.193700000002984,1.210599999994045,1.2270999999940457,1.2452999999970231,1.264000000000003,1.277099999994043,1.2970000000000041,1.3125999999940419,1.3324000000059613,1.3484000000059666,1.3605000000000018,1.3770999999940443,1.3977999999970194,1.4104000000059642,1.4270999999940415,1.443799999997026,1.4622999999970219,1.4772000000029806,1.4935999999940393,1.5150000000000006,1.527099999994043,1.5435999999940435,1.561799999997021,1.5769000000059634,1.5970000000000013,1.6114000000059647,1.6269000000059606,1.643599999994045,1.6602999999970223,1.6799999999999997,1.6950999999940422,1.7105000000000032,1.7270000000000039,1.7435999999940393,1.7637999999970262,1.7780999999940406,1.7972999999970227,1.8125,1.8272999999970239,1.8462000000029803,1.8615999999940414,1.8769000000059606,1.8947000000029846,1.9105999999940408,1.9270000000000067,1.9465999999940422,1.9632000000029848,1.9792999999970249,1.9980000000000047,2.015599999994045,2.027099999994043,2.0437999999970202,2.0635000000000048,2.0775999999940424,2.0967999999970246,2.1159999999999997,2.1270999999940443,2.1439000000059636,2.166900000005967,2.1770999999940415,2.193799999997026,2.2105000000000032,2.230599999994041,2.2459000000059604,2.2637000000029843,2.2819000000059617,2.297000000000004,2.3130999999940443,2.328000000000003,2.3475999999940456,2.360400000005967,2.3769000000059606,2.3945000000000007,2.4115000000000038,2.431299999997023,2.44759999999404,2.463900000005964,2.4795000000000016,2.4935999999940393,2.5150000000000006,2.530099999994043,2.5484000000059623,2.5635999999940395,2.5775999999940424,2.597200000002985,2.6139000000059625,2.631299999997026,2.6470999999940403,2.6624000000059667,2.680599999994044,2.69609999999404,2.7102000000029847,2.727000000000004,2.747900000005963,2.7642999999970215,2.7787999999970197,2.797799999997025,2.8105000000000047,2.8277000000029844,2.8482999999970247,2.8602000000029832,2.8770000000000024,2.893599999994045,2.9102999999970223,2.926900000005965,2.943599999994042,2.9602999999970194,2.976900000005962,2.9935999999940393,3.0102999999970237,3.030000000000001,3.046299999997025,3.060900000005965,3.0775999999940424,3.096599999994041,3.1125000000000043,3.1269000000059606,3.143599999994045,3.1602000000029804,3.176900000005965,3.1947999999970236,3.2104000000059614,3.226900000005962,3.2435999999940393,3.2602999999970237,3.2782000000029825,3.2935999999940435,3.312599999994042,3.333299999997024,3.3435999999940407,3.3602000000029832,3.3769000000059606,3.393599999994045,3.410400000005964,3.4300999999940416,3.4457999999970212,3.4602000000029847]","[1732605422657,1732605422695,1732605422707,1732605422724,1732605422744,1732605422760,1732605422774,1732605422790,1732605422807,1732605422826,1732605422842,1732605422857,1732605422874,1732605422890,1732605422907,1732605422924,1732605422940,1732605422959,1732605422981,1732605422993,1732605423007,1732605423024,1732605423041,1732605423057,1732605423076,1732605423094,1732605423110,1732605423124,1732605423140,1732605423164,1732605423174,1732605423191,1732605423207,1732605423225,1732605423244,1732605423258,1732605423276,1732605423290,1732605423307,1732605423328,1732605423343,1732605423357,1732605423374,1732605423392,1732605423410,1732605423424,1732605423444,1732605423459,1732605423474,1732605423490,1732605423509,1732605423524,1732605423540,1732605423557,1732605423578,1732605423593,1732605423607,1732605423624,1732605423642,1732605423662,1732605423674,1732605423693,1732605423707,1732605423724,1732605423740,1732605423759,1732605423774,1732605423790,1732605423807,1732605423829,1732605423840,1732605423857,1732605423874,1732605423892,1732605423911,1732605423924,1732605423944,1732605423959,1732605423979,1732605423995,1732605424007,1732605424024,1732605424044,1732605424057,1732605424074,1732605424090,1732605424109,1732605424124,1732605424140,1732605424162,1732605424174,1732605424190,1732605424208,1732605424224,1732605424244,1732605424258,1732605424274,1732605424290,1732605424307,1732605424327,1732605424342,1732605424357,1732605424374,1732605424390,1732605424410,1732605424425,1732605424444,1732605424459,1732605424474,1732605424493,1732605424508,1732605424524,1732605424541,1732605424557,1732605424574,1732605424593,1732605424610,1732605424626,1732605424645,1732605424662,1732605424674,1732605424690,1732605424710,1732605424724,1732605424744,1732605424763,1732605424774,1732605424791,1732605424813,1732605424824,1732605424840,1732605424857,1732605424877,1732605424893,1732605424910,1732605424929,1732605424944,1732605424960,1732605424975,1732605424994,1732605425007,1732605425024,1732605425041,1732605425058,1732605425078,1732605425094,1732605425111,1732605425126,1732605425140,1732605425162,1732605425177,1732605425195,1732605425210,1732605425224,1732605425244,1732605425261,1732605425278,1732605425294,1732605425309,1732605425327,1732605425343,1732605425357,1732605425374,1732605425395,1732605425411,1732605425425,1732605425444,1732605425457,1732605425474,1732605425495,1732605425507,1732605425524,1732605425540,1732605425557,1732605425574,1732605425590,1732605425607,1732605425624,1732605425640,1732605425657,1732605425677,1732605425693,1732605425708,1732605425724,1732605425743,1732605425759,1732605425774,1732605425790,1732605425807,1732605425824,1732605425841,1732605425857,1732605425874,1732605425890,1732605425907,1732605425925,1732605425940,1732605425959,1732605425980,1732605425990,1732605426007,1732605426024,1732605426040,1732605426057,1732605426077,1732605426092,1732605426107]","[[1002.8,534],[1002.8,534],[1023.9,517.3],[1018.3,507.5],[1012.7,497.7],[991.2,490.7],[991.2,490.7],[969.7,483.7],[979.9,465.7],[986.2,441.7],[990.3,418.9],[990.3,418.9],[992.6,406.8],[986.3,406.8],[974.5,407.8],[979.5,404.6],[981.9,404.6],[979,404.3],[974.9,397.2],[974.9,397.2],[934.1,420.4],[910.6,436.2],[890.9,450.5],[871.7,455.6],[861.1,448.6],[861.1,448.6],[841.3,445.2],[810.8,450.5],[782.9,452.6],[755.5,475.3],[755.5,475.3],[779.3,497.2],[783.6,500.8],[788.5,506],[804,523.5],[812.5,545.7],[821,567.9],[835.3,577.4],[852,582.9],[870.3,580.3],[935.5,555.4],[935.5,555.4],[928.1,544.5],[938.2,540.6],[935.6,545],[935.6,545],[918.6,538.6],[959.1,521],[999.6,503.4],[1024,499],[1048.4,494.6],[1048.4,494.6],[1084.3,481],[1072.4,483.3],[1083.1,479.2],[1097.9,464.3],[1097.9,464.3],[1116.9,452.3],[1145.2,443.3],[1165.2,420.8],[1165.2,420.8],[1185.2,398.3],[1211,372.8],[1196.7,355.5],[1169.3,355.5],[1170,343.1],[1196.6,320.4],[1196.6,320.4],[1224.6,312.8],[1260.9,293.7],[1260.9,293.7],[1268.9,291.3],[1234.7,308.9],[1209.8,323.7],[1196.8,313.4],[1196.8,313.4],[1244.9,311],[1323.4,295.7],[1387,282.2],[1387,282.2],[1383,276.9],[1368.5,258.4],[1345.8,249.1],[1345.8,249.1],[1347.6,228.2],[1363.1,197.4],[1369.3,169.4],[1381.2,177],[1372.1,168.5],[1348,173.7],[1348,173.7],[1309.5,164],[1315.2,164.4],[1333.1,161.8],[1340.4,169.1],[1342.2,168.3],[1342.2,168.3],[1330.3,177.4],[1336.1,181.7],[1338,183.7],[1339.9,185.7],[1310.2,195.1],[1310.2,195.1],[1298,218.4],[1308.1,213.1],[1317.8,227.3],[1338,233.9],[1354.7,238.2],[1371.4,242.5],[1369.5,262.8],[1367.6,273.8],[1368.8,284.2],[1386.2,286.4],[1389.2,295.9],[1367.4,326],[1339.8,338.4],[1338.4,338.5],[1332.8,335.5],[1311.7,339.2],[1301.2,318.9],[1301.2,318.9],[1277.3,300.7],[1257.6,283.6],[1240.6,268.5],[1214.2,247.4],[1221.1,225.1],[1221.1,225.1],[1243.9,209.7],[1225.7,195],[1225.7,195],[1229.4,203.7],[1250.8,223.2],[1262.5,255.5],[1275.2,256.1],[1293.7,253.3],[1302.2,242.5],[1316.9,239.8],[1298.3,238.3],[1298.3,238.3],[1320.7,228.3],[1320.7,228.3],[1322.7,242.6],[1327.6,238.4],[1330.3,216.7],[1333,195],[1338.4,194.9],[1330.7,197.7],[1317.7,217.7],[1319.2,229.3],[1327.8,216.5],[1297.8,226.6],[1299.9,202.1],[1298.9,208.7],[1292.8,216.9],[1286.7,225.1],[1279.8,229.1],[1273.3,223],[1286,227],[1312.5,216.9],[1320.4,238.1],[1319,217.3],[1319,217.3],[1316.4,241.3],[1302.2,219],[1303.6,226.9],[1305,234.8],[1305,234.8],[1317.7,229.9],[1331.1,251.6],[1327.2,236.3],[1327.2,236.3],[1318.8,247.1],[1317.3,259.8],[1329.3,290.5],[1356.3,292.7],[1399.7,321.5],[1432.6,318.5],[1459.7,307],[1486,320.5],[1486.4,322.2],[1495.8,334.3],[1490.6,337.4],[1490,331.7],[1487.7,316.2],[1474.7,306.3],[1423.2,302.5],[1423.2,302.5],[1385.7,291.1],[1347.2,298.1],[1327.9,295.4],[1314,295],[1302.9,293.6],[1297.1,289.2],[1288.8,282],[1285.6,292.4],[1290.3,313],[1314.7,316.6],[1311.7,322.3],[1329.2,312.2],[1329.2,312.2],[1315.7,330.4],[1331.5,322.7],[1331.5,322.7],[1346.2,321.3],[1360.3,323.7],[1381.6,334.1],[1381.6,334.1]]","[-0.142,0.42599999999999993]","[0.142,0.42599999999999993]","[0.42599999999999993,0.42599999999999993]","[-0.42599999999999993,0.142]","[-0.42599999999999993,-0.142]","[-0.42599999999999993,-0.42599999999999993]","[-0.142,0.142]","[0.142,0.142]","[0.42599999999999993,0.142]","[-0.142,-0.142]","[0.142,-0.142]","[0.42599999999999993,-0.142]","[-0.142,-0.42599999999999993]","[0.142,-0.42599999999999993]","[0.42599999999999993,-0.42599999999999993]",0,0,0,0,1,2,Laptop,15,20,8,3,70,4,3,60,4
,,,,,,,,,,,,,,,,,,,44,001,2024-11-26_15h16.22.330,Attention_exp_legacy,2023.1.0,Win32,59.88023952,,,,,,,,,,,"[0.425,0.425]","[0.4388888888888889,0.4388888888888889]","[1,1]","[0,0]","[0,0]","[2.9811000000089436,3.33870000000298]","[""RH_label"",""RH_label""]",RH_label,2,4.0023,"[[0.22708333333333333,0.7333333333333333],[0.22708333333333333,0.7333333333333333],[0.22708333333333333,0.7333333333333333],[0.22708333333333333,0.7333333333333333],[0.22708333333333333,0.7333333333333333],[0.22708333333333333,0.7333333333333333],[0.22708333333333333,0.7333333333333333],[0.22708333333333333,0.7333333333333333],[0.22708333333333333,0.7333333333333333],[0.22708333333333333,0.7333333333333333],[0.22708333333333333,0.7333333333333333],[0.22708333333333333,0.7333333333333333],[0.22708333333333333,0.7333333333333333],[0.22708333333333333,0.7333333333333333],[0.22708333333333333,0.7333333333333333],[0.22708333333333333,0.7333333333333333],[0.22708333333333333,0.7333333333333333],[0.22708333333333333,0.7333333333333333],[0.22708333333333333,0.7333333333333333],[0.22708333333333333,0.7333333333333333],[0.22708333333333333,0.7333333333333333],[0.22708333333333333,0.7333333333333333],[0.22708333333333333,0.7333333333333333],[0.22708333333333333,0.7333333333333333],[0.22708333333333333,0.7333333333333333],[0.22708333333333333,0.7333333333333333],[0.22708333333333333,0.7333333333333333],[0.22708333333333333,0.7333333333333333],[0.22708333333333333,0.7333333333333333],[0.22708333333333333,0.7333333333333333],[0.22708333333333333,0.7333333333333333],[0.22708333333333333,0.7333333333333333],[0.22708333333333333,0.7333333333333333],[0.22708333333333333,0.7333333333333333],[0.22708333333333333,0.7333333333333333],[0.22708333333333333,0.7333333333333333],[0.22708333333333333,0.7333333333333333],[0.22708333333333333,0.7333333333333333],[0.22708333333333333,0.7333333333333333],[0.22708333333333333,0.7333333333333333],[0.22708333333333333,0.7333333333333333],[0.22708333333333333,0.7333333333333333],[0.22708333333333333,0.7333333333333333],[0.22708333333333333,0.7333333333333333],[0.22708333333333333,0.7333333333333333],[0.22708333333333333,0.7333333333333333],[0.22708333333333333,0.7333333333333333],[0.22708333333333333,0.7333333333333333],[0.22708333333333333,0.7333333333333333],[0.22708333333333333,0.7333333333333333],[0.22708333333333333,0.7333333333333333],[0.22708333333333333,0.7333333333333333],[0.22708333333333333,0.7333333333333333],[0.22708333333333333,0.7333333333333333],[0.22708333333333333,0.7333333333333333],[0.22708333333333333,0.7333333333333333],[0.22708333333333333,0.7333333333333333],[0.22708333333333333,0.7333333333333333],[0.22708333333333333,0.7333333333333333],[0.22708333333333333,0.7333333333333333],[0.22708333333333333,0.7333333333333333],[0.22708333333333333,0.7333333333333333],[0.22708333333333333,0.7333333333333333],[0.22708333333333333,0.7333333333333333],[0.22708333333333333,0.7333333333333333],[0.22708333333333333,0.7333333333333333],[0.22708333333333333,0.7333333333333333],[0.22708333333333333,0.7333333333333333],[0.22708333333333333,0.7333333333333333],[0.22708333333333333,0.7333333333333333],[0.22708333333333333,0.7333333333333333],[0.22708333333333333,0.7333333333333333],[0.22708333333333333,0.7333333333333333],[0.22708333333333333,0.7333333333333333],[0.22708333333333333,0.7333333333333333],[0.22708333333333333,0.7333333333333333],[0.22708333333333333,0.7333333333333333],[0.22708333333333333,0.7333333333333333],[0.22708333333333333,0.7333333333333333],[0.22708333333333333,0.7333333333333333],[0.22708333333333333,0.7333333333333333],[0.22708333333333333,0.7333333333333333],[0.22708333333333333,0.7333333333333333],[0.22708333333333333,0.7333333333333333],[0.22708333333333333,0.7333333333333333],[0.22708333333333333,0.7333333333333333],[0.22708333333333333,0.7333333333333333],[0.22708333333333333,0.7333333333333333],[0.22708333333333333,0.7333333333333333],[0.22708333333333333,0.7333333333333333],[0.22708333333333333,0.7333333333333333],[0.22708333333333333,0.7333333333333333],[0.22708333333333333,0.7333333333333333],[0.22708333333333333,0.7333333333333333],[0.22708333333333333,0.7333333333333333],[0.22708333333333333,0.7333333333333333],[0.22708333333333333,0.7333333333333333],[0.22708333333333333,0.7333333333333333],[0.22708333333333333,0.7333333333333333],[0.22708333333333333,0.7333333333333333],[0.22708333333333333,0.7333333333333333],[0.22708333333333333,0.7333333333333333],[0.22708333333333333,0.7333333333333333],[0.22708333333333333,0.7333333333333333],[0.22708333333333333,0.7333333333333333],[0.22708333333333333,0.7333333333333333],[0.22708333333333333,0.7333333333333333],[0.22708333333333333,0.7333333333333333],[0.22708333333333333,0.7333333333333333],[0.22708333333333333,0.7333333333333333],[0.22708333333333333,0.7333333333333333],[0.22708333333333333,0.7333333333333333],[0.22708333333333333,0.7333333333333333],[0.22708333333333333,0.7333333333333333],[0.22708333333333333,0.7333333333333333],[0.22708333333333333,0.7333333333333333],[0.22708333333333333,0.7333333333333333],[0.22708333333333333,0.7333333333333333],[0.22708333333333333,0.7333333333333333],[0.22708333333333333,0.7333333333333333],[0.22708333333333333,0.7333333333333333],[0.22708333333333333,0.7333333333333333],[0.22708333333333333,0.7333333333333333],[0.22708333333333333,0.7333333333333333],[0.22708333333333333,0.7333333333333333],[0.22708333333333333,0.7333333333333333],[0.22708333333333333,0.7333333333333333],[0.22708333333333333,0.7333333333333333],[0.22708333333333333,0.7333333333333333],[0.22708333333333333,0.7333333333333333],[0.22708333333333333,0.7333333333333333],[0.22708333333333333,0.7333333333333333],[0.22708333333333333,0.7333333333333333],[0.22708333333333333,0.7333333333333333],[0.22708333333333333,0.7333333333333333],[0.22708333333333333,0.7333333333333333],[0.22708333333333333,0.7333333333333333],[0.22708333333333333,0.7333333333333333],[0.22708333333333333,0.7333333333333333],[0.22708333333333333,0.7333333333333333],[0.22708333333333333,0.7333333333333333],[0.22708333333333333,0.7333333333333333],[0.22708333333333333,0.7333333333333333],[0.22708333333333333,0.7333333333333333],[0.22708333333333333,0.7333333333333333],[0.22708333333333333,0.7333333333333333],[0.22708333333333333,0.7333333333333333],[0.22708333333333333,0.7333333333333333],[0.228125,0.7333333333333333],[0.2375,0.7333333333333333],[0.246875,0.7333333333333333],[0.253125,0.7333333333333333],[0.2604166666666667,0.7333333333333333],[0.26458333333333334,0.7296296296296296],[0.27291666666666664,0.7240740740740741],[0.28020833333333334,0.7185185185185186],[0.290625,0.7055555555555556],[0.2989583333333333,0.6925925925925925],[0.3104166666666667,0.6814814814814815],[0.31875,0.6666666666666666],[0.32916666666666666,0.6537037037037037],[0.3385416666666667,0.6388888888888888],[0.35208333333333336,0.6185185185185185],[0.36041666666666666,0.6018518518518519],[0.37083333333333335,0.5833333333333334],[0.378125,0.5685185185185185],[0.38229166666666664,0.5574074074074075],[0.390625,0.5388888888888889],[0.3927083333333333,0.5314814814814814],[0.39895833333333336,0.5148148148148148],[0.4083333333333333,0.4888888888888889],[0.4166666666666667,0.46296296296296297],[0.4197916666666667,0.45740740740740743],[0.4239583333333333,0.4425925925925926],[0.425,0.4388888888888889],[0.425,0.4388888888888889],[0.425,0.4388888888888889],[0.425,0.4388888888888889],[0.425,0.4388888888888889],[0.425,0.4388888888888889],[0.425,0.4388888888888889],[0.425,0.4388888888888889],[0.425,0.4388888888888889],[0.425,0.4388888888888889],[0.425,0.4388888888888889],[0.425,0.4388888888888889],[0.425,0.4388888888888889],[0.425,0.4388888888888889],[0.425,0.4388888888888889],[0.425,0.4388888888888889],[0.425,0.4388888888888889],[0.425,0.4388888888888889],[0.425,0.4388888888888889],[0.425,0.4388888888888889],[0.425,0.4388888888888889],[0.425,0.4388888888888889],[0.425,0.4388888888888889],[0.425,0.4388888888888889],[0.425,0.4388888888888889],[0.425,0.4388888888888889],[0.425,0.4388888888888889],[0.425,0.4388888888888889],[0.425,0.4388888888888889],[0.425,0.4388888888888889],[0.425,0.4388888888888889],[0.425,0.4388888888888889],[0.425,0.4388888888888889],[0.425,0.4388888888888889],[0.425,0.4388888888888889],[0.425,0.4388888888888889],[0.425,0.4388888888888889],[0.425,0.4388888888888889],[0.425,0.4388888888888889],[0.425,0.4388888888888889],[0.425,0.4388888888888889],[0.425,0.4388888888888889],[0.425,0.4388888888888889],[0.425,0.4388888888888889],[0.425,0.4388888888888889],[0.425,0.4388888888888889],[0.425,0.4388888888888889],[0.425,0.4388888888888889],[0.425,0.4388888888888889],[0.425,0.4388888888888889],[0.425,0.4388888888888889],[0.425,0.4388888888888889],[0.425,0.4388888888888889],[0.425,0.4388888888888889],[0.425,0.4388888888888889],[0.425,0.4388888888888889],[0.425,0.4388888888888889],[0.425,0.4388888888888889],[0.425,0.4388888888888889],[0.425,0.4388888888888889],[0.425,0.4388888888888889],[0.425,0.4388888888888889],[0.425,0.4388888888888889],[0.425,0.4388888888888889],[0.425,0.4388888888888889],[0.425,0.4388888888888889],[0.425,0.4388888888888889]]","[[0.2796875,-0.5783333333333334],[0.28916666666666657,-0.5866666666666667],[0.2875,-0.5603703703703704],[0.2875,-0.5603703703703704],[0.29145833333333326,-0.5259259259259259],[0.33624999999999994,-0.5518518518518518],[0.3310416666666666,-0.5650000000000001],[0.3311458333333334,-0.5864814814814815],[0.3333333333333333,-0.5996296296296296],[0.3333333333333333,-0.5996296296296296],[0.3310416666666666,-0.5994444444444444],[0.31572916666666656,-0.585],[0.32625000000000004,-0.5694444444444444],[0.33656249999999993,-0.5650000000000001],[0.36593749999999997,-0.5929629629629629],[0.35999999999999993,-0.6072222222222222],[0.3056250000000001,-0.5575925925925926],[0.25010416666666657,-0.4868518518518518],[0.16822916666666668,-0.42462962962962963],[0.11010416666666671,-0.35185185185185186],[0.04729166666666664,-0.30092592592592593],[-0.013333333333333286,-0.2803703703703703],[-0.05697916666666671,-0.2875925925925926],[-0.12989583333333338,-0.25037037037037035],[-0.1889583333333333,-0.2366666666666667],[-0.23718750000000005,-0.20259259259259255],[-0.26281249999999995,-0.20759259259259263],[-0.28239583333333335,-0.2505555555555556],[-0.27322916666666663,-0.2524074074074074],[-0.2617708333333333,-0.29907407407407405],[-0.27020833333333333,-0.2640740740740741],[-0.26875,-0.21277777777777773],[-0.32062499999999994,-0.13962962962962958],[-0.3430208333333333,-0.09981481481481477],[-0.3430208333333333,-0.09981481481481477],[-0.37927083333333333,-0.0338888888888888],[-0.38614583333333335,-0.002407407407407323],[-0.38958333333333334,0.02907407407407416],[-0.38822916666666674,0.056666666666666705],[-0.4040625,0.09907407407407408],[-0.43125,0.14166666666666666],[-0.43385416666666665,0.12444444444444452],[-0.46822916666666664,0.09055555555555551],[-0.47427083333333336,0.08444444444444449],[-0.47427083333333336,0.08444444444444449],[-0.5027083333333333,0.09000000000000004],[-0.5305208333333333,0.08722222222222227],[-0.5558333333333334,0.08425925925925926],[-0.5823958333333333,0.09092592592592597],[-0.5976041666666667,0.07666666666666662],[-0.6107291666666667,0.05685185185185194],[-0.640625,0.06277777777777774],[-0.640625,0.06277777777777774],[-0.6672916666666667,0.043703703703703745],[-0.6822916666666666,0.05962962962962971],[-0.7060416666666666,0.05129629629629638],[-0.6946875,0.03925925925925934],[-0.7021875000000001,0.037037037037037035],[-0.7208333333333333,0.04944444444444453],[-0.7221875,0.03685185185185181],[-0.7347916666666666,0.0992592592592593],[-0.74,0.12814814814814823],[-0.7382291666666667,0.16925925925925922],[-0.7382291666666667,0.16925925925925922],[-0.7269791666666666,0.22462962962962954],[-0.71625,0.2807407407407408],[-0.6943750000000001,0.32814814814814824],[-0.6852083333333333,0.3675925925925926],[-0.6595833333333334,0.3985185185185186],[-0.6595833333333334,0.3985185185185186],[-0.6426041666666666,0.4327777777777779],[-0.6391666666666667,0.48037037037037034],[-0.6185416666666667,0.497037037037037],[-0.5979166666666667,0.5137037037037037],[-0.5911458333333334,0.5177777777777778],[-0.5970833333333334,0.5325925925925926],[-0.5777083333333334,0.5290740740740741],[-0.5694791666666668,0.5342592592592592],[-0.5595833333333334,0.5390740740740741],[-0.5558333333333334,0.5461111111111111],[-0.5497916666666666,0.5479629629629629],[-0.54625,0.5518518518518518],[-0.48895833333333333,0.5455555555555556],[-0.43166666666666664,0.5392592592592593],[-0.34489583333333335,0.5296296296296297],[-0.25812499999999994,0.5199999999999999],[-0.184375,0.48870370370370364],[-0.10083333333333329,0.475],[-0.01895833333333338,0.46166666666666656],[-0.01895833333333338,0.46166666666666656],[0.05802083333333338,0.4272222222222223],[0.14270833333333333,0.4207407407407408],[0.2273958333333333,0.4142592592592593],[0.2556250000000001,0.40907407407407403],[0.27458333333333323,0.41444444444444434],[0.2709374999999999,0.4235185185185186],[0.24802083333333325,0.42685185185185187],[0.234375,0.45092592592592595],[0.21291666666666675,0.4579629629629629],[0.19145833333333329,0.465],[0.17052083333333337,0.4994444444444445],[0.13958333333333334,0.5111111111111111],[0.09645833333333324,0.5135185185185185],[0.05333333333333338,0.515925925925926],[0.05333333333333338,0.515925925925926],[0.028125,0.5083333333333333],[0.008854166666666666,0.5112962962962964],[0.008854166666666666,0.5199999999999999],[0.024895833333333308,0.5272222222222223],[0.02020833333333331,0.5261111111111112],[0.014583333333333334,0.5287037037037037],[0.013333333333333286,0.525],[0.013333333333333286,0.525],[0.021562500000000047,0.5292592592592592],[0.03916666666666669,0.5488888888888889],[0.05645833333333338,0.5640740740740741],[0.06510416666666667,0.5787037037037037],[0.0678124999999999,0.5827777777777778],[0.057187499999999974,0.5587037037037038],[0.030520833333333285,0.5361111111111111],[0.026250000000000048,0.522962962962963],[0.022916666666666665,0.5061111111111111],[0.027083333333333334,0.5025925925925926],[0.027083333333333334,0.5025925925925926],[0.02177083333333331,0.4911111111111112],[0.03354166666666671,0.4737037037037036],[0.057187499999999974,0.4244444444444445],[0.08083333333333324,0.37518518518518523],[0.11229166666666662,0.33666666666666656],[0.11229166666666662,0.33666666666666656],[0.1570833333333333,0.32629629629629636],[0.19395833333333337,0.3001851851851852],[0.23187499999999991,0.2681481481481481],[0.26979166666666665,0.2361111111111111],[0.2964583333333332,0.19592592592592584],[0.32041666666666657,0.15018518518518523],[0.3334374999999999,0.10055555555555547],[0.33489583333333334,0.08722222222222227],[0.3507291666666667,0.06500000000000004],[0.3507291666666667,0.06500000000000004],[0.33864583333333326,0.05648148148148148],[0.3265625,0.04796296296296292],[0.3323958333333332,0.06333333333333342],[0.33354166666666674,0.08296296296296288],[0.3285416666666668,0.09037037037037028],[0.3272916666666667,0.09259259259259259],[0.3223958333333333,0.10537037037037032],[0.3141666666666666,0.12185185185185177],[0.3212500000000001,0.14166666666666666],[0.30708333333333326,0.11166666666666658],[0.30010416666666656,0.04740740740740745],[0.2931250000000001,-0.016851851851851896],[0.2931250000000001,-0.016851851851851896],[0.28093750000000006,-0.07796296296296301],[0.2712500000000001,-0.15703703703703706],[0.2677083333333333,-0.22388888888888886],[0.2522916666666667,-0.2851851851851852],[0.23083333333333325,-0.33537037037037043],[0.209375,-0.38555555555555554],[0.17718749999999991,-0.48055555555555557],[0.15187499999999995,-0.5168518518518519],[0.14739583333333334,-0.5027777777777778],[0.14291666666666672,-0.48870370370370364],[0.14291666666666672,-0.48870370370370364],[0.12989583333333338,-0.4551851851851852],[0.11437499999999995,-0.40370370370370373],[0.08833333333333329,-0.35240740740740745],[0.09822916666666662,-0.3277777777777778],[0.12687499999999996,-0.290925925925926],[0.12687499999999996,-0.290925925925926],[0.15552083333333327,-0.25407407407407406],[0.17854166666666677,-0.2205555555555556],[0.17854166666666677,-0.2205555555555556],[0.1990624999999999,-0.18129629629629626],[0.21062500000000003,-0.18129629629629626],[0.23791666666666675,-0.19018518518518515],[0.2603125000000001,-0.205],[0.2775000000000001,-0.21722222222222223],[0.2989583333333333,-0.27555555555555555],[0.29635416666666664,-0.3127777777777777],[0.2951041666666666,-0.3648148148148148],[0.2938541666666666,-0.4168518518518519],[0.30447916666666663,-0.4009259259259259],[0.31760416666666674,-0.3907407407407407],[0.32937500000000003,-0.36740740740740735],[0.31708333333333344,-0.36518518518518517],[0.31708333333333344,-0.36518518518518517],[0.3245833333333332,-0.39037037037037037],[0.3384375000000001,-0.4272222222222222],[0.3585416666666667,-0.4177777777777778],[0.3692708333333333,-0.3675925925925926],[0.3765625,-0.3690740740740741],[0.37312500000000004,-0.3357407407407408],[0.3507291666666667,-0.3168518518518519],[0.34614583333333326,-0.34148148148148144],[0.34395833333333337,-0.38055555555555554],[0.3610416666666666,-0.36796296296296294],[0.36697916666666663,-0.3527777777777778],[0.3589583333333332,-0.3542592592592593],[0.3589583333333332,-0.3542592592592593],[0.3589583333333332,-0.3425925925925926],[0.3589583333333332,-0.3425925925925926],[0.3646874999999999,-0.33851851851851855],[0.36614583333333334,-0.2962962962962963],[0.36614583333333334,-0.2962962962962963],[0.3885416666666667,-0.3683333333333333],[0.40677083333333336,-0.4161111111111111],[0.4169791666666666,-0.3609259259259259],[0.4150000000000001,-0.3755555555555556],[0.4088541666666667,-0.37037037037037035],[0.3991666666666667,-0.41944444444444445],[0.3958333333333333,-0.4155555555555555],[0.3940624999999999,-0.4696296296296297],[0.3914583333333333,-0.5422222222222223],[0.39031250000000006,-0.6092592592592593],[0.38291666666666657,-0.5938888888888889],[0.36864583333333345,-0.5651851851851851],[0.3421875,-0.6098148148148148],[0.3408333333333334,-0.5888888888888889],[0.3256249999999999,-0.5981481481481481],[0.30833333333333335,-0.5918518518518519],[0.29749999999999993,-0.6127777777777778],[0.2760416666666667,-0.5366666666666667],[0.2595833333333334,-0.4766666666666666],[0.2598958333333333,-0.4311111111111111],[0.25625,-0.38851851851851854],[0.25593750000000004,-0.4125925925925926],[0.2603125000000001,-0.43148148148148147],[0.2535416666666668,-0.43629629629629635],[0.2504166666666668,-0.46277777777777773],[0.26052083333333326,-0.4475925925925926],[0.2587500000000001,-0.4111111111111111],[0.2587500000000001,-0.4111111111111111],[0.27156250000000004,-0.42055555555555557],[0.2928124999999999,-0.42314814814814816],[0.29968750000000005,-0.4262962962962963],[0.28447916666666656,-0.43074074074074076],[0.2851041666666667,-0.4148148148148148],[0.28895833333333343,-0.3877777777777777],[0.29104166666666675,-0.3705555555555556],[0.2929166666666667,-0.3512962962962963]]","[[0.2796875,-0.5783333333333334,0.00010000000894194727],[0.28916666666666657,-0.5866666666666667,0.017499999999998295],[0.2875,-0.5603703703703704,0.03720000000298285],[0.2875,-0.5603703703703704,0.04960000000894382],[0.29145833333333326,-0.5259259259259259,0.06629999999702108],[0.33624999999999994,-0.5518518518518518,0.08299999999999841],[0.3310416666666666,-0.5650000000000001,0.09960000000894098],[0.3311458333333334,-0.5864814814814815,0.12040000000595796],[0.3333333333333333,-0.5996296296296296,0.13540000000595853],[0.3333333333333333,-0.5996296296296296,0.14960000000893814],[0.3310416666666666,-0.5994444444444444,0.1662999999970225],[0.31572916666666656,-0.585,0.18299999999999983],[0.32625000000000004,-0.5694444444444444,0.19950000000000045],[0.33656249999999993,-0.5650000000000001,0.21629999999701965],[0.36593749999999997,-0.5929629629629629,0.23290000000596223],[0.35999999999999993,-0.6072222222222222,0.25010000000894195],[0.3056250000000001,-0.5575925925925926,0.2662999999970168],[0.25010416666666657,-0.4868518518518518,0.2829000000059594],[0.16822916666666668,-0.42462962962962963,0.2996000000089438],[0.11010416666666671,-0.35185185185185186,0.3162999999970211],[0.04729166666666664,-0.30092592592592593,0.3329999999999984],[-0.013333333333333286,-0.2803703703703703,0.34949999999999903],[-0.05697916666666671,-0.2875925925925926,0.3664000000059602],[-0.12989583333333338,-0.25037037037037035,0.38300000000000267],[-0.1889583333333333,-0.2366666666666667,0.39960000000893814],[-0.23718750000000005,-0.20259259259259255,0.41620000000298063],[-0.26281249999999995,-0.20759259259259263,0.43299999999999983],[-0.28239583333333335,-0.2505555555555556,0.4531000000089378],[-0.27322916666666663,-0.2524074074074074,0.4667000000029802],[-0.2617708333333333,-0.29907407407407405,0.4829000000059622],[-0.27020833333333333,-0.2640740740740741,0.49960000000893956],[-0.26875,-0.21277777777777773,0.5162999999970168],[-0.32062499999999994,-0.13962962962962958,0.5375000000000014],[-0.3430208333333333,-0.09981481481481477,0.5527000000029787],[-0.3430208333333333,-0.09981481481481477,0.5662999999970211],[-0.37927083333333333,-0.0338888888888888,0.5829999999999984],[-0.38614583333333335,-0.002407407407407323,0.599600000008941],[-0.38958333333333334,0.02907407407407416,0.6162000000029835],[-0.38822916666666674,0.056666666666666705,0.6331000000089446],[-0.4040625,0.09907407407407408,0.6496000000089381],[-0.43125,0.14166666666666666,0.6662999999970225],[-0.43385416666666665,0.12444444444444452,0.682900000005958],[-0.46822916666666664,0.09055555555555551,0.703700000002982],[-0.47427083333333336,0.08444444444444449,0.7190000000000012],[-0.47427083333333336,0.08444444444444449,0.732999999999997],[-0.5027083333333333,0.09000000000000004,0.7494999999999976],[-0.5305208333333333,0.08722222222222227,0.7662999999970168],[-0.5558333333333334,0.08425925925925926,0.7867999999970223],[-0.5823958333333333,0.09092592592592597,0.8016000000089392],[-0.5976041666666667,0.07666666666666662,0.8162999999970211],[-0.6107291666666667,0.05685185185185194,0.833299999997017],[-0.640625,0.06277777777777774,0.8549000000059621],[-0.640625,0.06277777777777774,0.866500000000002],[-0.6672916666666667,0.043703703703703745,0.8830000000000027],[-0.6822916666666666,0.05962962962962971,0.8996000000089381],[-0.7060416666666666,0.05129629629629638,0.9166000000089412],[-0.6946875,0.03925925925925934,0.9329999999999998],[-0.7021875000000001,0.037037037037037035,0.9495000000000005],[-0.7208333333333333,0.04944444444444453,0.9662999999970197],[-0.7221875,0.03685185185185181,0.9842999999970203],[-0.7347916666666666,0.0992592592592593,1.0014000000059582],[-0.74,0.12814814814814823,1.0177999999970169],[-0.7382291666666667,0.16925925925925922,1.0376000000089434],[-0.7382291666666667,0.16925925925925922,1.0496000000089438],[-0.7269791666666666,0.22462962962962954,1.066400000005963],[-0.71625,0.2807407407407408,1.0829000000059636],[-0.6943750000000001,0.32814814814814824,1.099600000008941],[-0.6852083333333333,0.3675925925925926,1.1197999999970207],[-0.6595833333333334,0.3985185185185186,1.1341000000089423],[-0.6595833333333334,0.3985185185185186,1.14970000000298],[-0.6426041666666666,0.4327777777777779,1.1662999999970225],[-0.6391666666666667,0.48037037037037034,1.182900000005958],[-0.6185416666666667,0.497037037037037,1.2031000000089378],[-0.5979166666666667,0.5137037037037037,1.2182000000029802],[-0.5911458333333334,0.5177777777777778,1.2332000000029808],[-0.5970833333333334,0.5325925925925926,1.2517000000029839],[-0.5777083333333334,0.5290740740740741,1.2664000000059588],[-0.5694791666666668,0.5342592592592592,1.2829000000059594],[-0.5595833333333334,0.5390740740740741,1.2996000000089438],[-0.5558333333333334,0.5461111111111111,1.3162000000029792],[-0.5497916666666666,0.5479629629629629,1.3352000000029776],[-0.54625,0.5518518518518518,1.3516000000089434],[-0.48895833333333333,0.5455555555555556,1.3695000000000022],[-0.43166666666666664,0.5392592592592593,1.3834000000059632],[-0.34489583333333335,0.5296296296296297,1.3996000000089381],[-0.25812499999999994,0.5199999999999999,1.4169000000059597],[-0.184375,0.48870370370370364,1.434400000005958],[-0.10083333333333329,0.475,1.4536000000089402],[-0.01895833333333338,0.46166666666666656,1.4692999999970198],[-0.01895833333333338,0.46166666666666656,1.4829000000059622],[0.05802083333333338,0.4272222222222223,1.4996000000089396],[0.14270833333333333,0.4207407407407408,1.5162999999970168],[0.2273958333333333,0.4142592592592593,1.5329000000059594],[0.2556250000000001,0.40907407407407403,1.5514000000059625],[0.27458333333333323,0.41444444444444434,1.5664999999999978],[0.2709374999999999,0.4235185185185186,1.5832000000029822],[0.24802083333333325,0.42685185185185187,1.599600000008941],[0.234375,0.45092592592592595,1.6162000000029835],[0.21291666666666675,0.4579629629629629,1.633499999999998],[0.19145833333333329,0.465,1.6525000000000034],[0.17052083333333337,0.4994444444444445,1.6692000000029807],[0.13958333333333334,0.5111111111111111,1.6832999999970184],[0.09645833333333324,0.5135185185185185,1.7032000000029797],[0.05333333333333338,0.515925925925926,1.7181000000089384],[0.05333333333333338,0.515925925925926,1.732999999999997],[0.028125,0.5083333333333333,1.7496000000089396],[0.008854166666666666,0.5112962962962964,1.7662999999970168],[0.008854166666666666,0.5199999999999999,1.7829000000059594],[0.024895833333333308,0.5272222222222223,1.7995000000000019],[0.02020833333333331,0.5261111111111112,1.8162000000029792],[0.014583333333333334,0.5287037037037037,1.8329000000059636],[0.013333333333333286,0.525,1.8562999999970202],[0.013333333333333286,0.525,1.8662999999970182],[0.021562500000000047,0.5292592592592592,1.8829000000059608],[0.03916666666666669,0.5488888888888889,1.8996000000089381],[0.05645833333333338,0.5640740740740741,1.9167999999970178],[0.06510416666666667,0.5787037037037037,1.932900000005958],[0.0678124999999999,0.5827777777777778,1.9496000000089424],[0.057187499999999974,0.5587037037037038,1.9662999999970197],[0.030520833333333285,0.5361111111111111,1.9827999999970203],[0.026250000000000048,0.522962962962963,1.9996000000089396],[0.022916666666666665,0.5061111111111111,2.016200000002982],[0.027083333333333334,0.5025925925925926,2.0327999999970174],[0.027083333333333334,0.5025925925925926,2.0497000000029786],[0.02177083333333331,0.4911111111111112,2.066200000002979],[0.03354166666666671,0.4737037037037036,2.084100000008938],[0.057187499999999974,0.4244444444444445,2.099600000008941],[0.08083333333333324,0.37518518518518523,2.1162000000029835],[0.11229166666666662,0.33666666666666656,2.134999999999998],[0.11229166666666662,0.33666666666666656,2.149600000008938],[0.1570833333333333,0.32629629629629636,2.1662999999970225],[0.19395833333333337,0.3001851851851852,2.182900000005958],[0.23187499999999991,0.2681481481481481,2.1995000000000005],[0.26979166666666665,0.2361111111111111,2.216200000002978],[0.2964583333333332,0.19592592592592584,2.2329000000059622],[0.32041666666666657,0.15018518518518523,2.2504000000059605],[0.3334374999999999,0.10055555555555547,2.266299999997017],[0.33489583333333334,0.08722222222222227,2.2827999999970174],[0.3507291666666667,0.06500000000000004,2.300799999997018],[0.3507291666666667,0.06500000000000004,2.316299999997021],[0.33864583333333326,0.05648148148148148,2.3329999999999984],[0.3265625,0.04796296296296292,2.349600000008941],[0.3323958333333332,0.06333333333333342,2.3662999999970182],[0.33354166666666674,0.08296296296296288,2.3840000000000003],[0.3285416666666668,0.09037037037037028,2.399600000008938],[0.3272916666666667,0.09259259259259259,2.4162999999970225],[0.3223958333333333,0.10537037037037032,2.433],[0.3141666666666666,0.12185185185185177,2.4516000000089377],[0.3212500000000001,0.14166666666666666,2.468499999999999],[0.30708333333333326,0.11166666666666658,2.483100000008939],[0.30010416666666656,0.04740740740740745,2.5],[0.2931250000000001,-0.016851851851851896,2.5217999999970218],[0.2931250000000001,-0.016851851851851896,2.533100000008943],[0.28093750000000006,-0.07796296296296301,2.5497000000029786],[0.2712500000000001,-0.15703703703703706,2.566400000005963],[0.2677083333333333,-0.22388888888888886,2.5859000000059638],[0.2522916666666667,-0.2851851851851852,2.604200000002983],[0.23083333333333325,-0.33537037037037043,2.619700000002979],[0.209375,-0.38555555555555554,2.638299999997024],[0.17718749999999991,-0.48055555555555557,2.6532999999970173],[0.15187499999999995,-0.5168518518518519,2.6687000000029784],[0.14739583333333334,-0.5027777777777778,2.6847000000029837],[0.14291666666666672,-0.48870370370370364,2.705900000005961],[0.14291666666666672,-0.48870370370370364,2.7164000000059616],[0.12989583333333338,-0.4551851851851852,2.733100000008939],[0.11437499999999995,-0.40370370370370373,2.7526000000089397],[0.08833333333333329,-0.35240740740740745,2.7719999999999985],[0.09822916666666662,-0.3277777777777778,2.7867999999970223],[0.12687499999999996,-0.290925925925926,2.8021000000089415],[0.12687499999999996,-0.290925925925926,2.816299999997021],[0.15552083333333327,-0.25407407407407406,2.8359000000059638],[0.17854166666666677,-0.2205555555555556,2.8567000000029807],[0.17854166666666677,-0.2205555555555556,2.866600000008944],[0.1990624999999999,-0.18129629629629626,2.8830000000000027],[0.21062500000000003,-0.18129629629629626,2.9026000000089383],[0.23791666666666675,-0.19018518518518515,2.918299999997018],[0.2603125000000001,-0.205,2.9349000000059604],[0.2775000000000001,-0.21722222222222223,2.952900000005961],[0.2989583333333333,-0.27555555555555555,2.9674000000059593],[0.29635416666666664,-0.3127777777777777,2.9827999999970203],[0.2951041666666666,-0.3648148148148148,2.9994999999999976],[0.2938541666666666,-0.4168518518518519,3.016200000002982],[0.30447916666666663,-0.4009259259259259,3.0329000000059594],[0.31760416666666674,-0.3907407407407407,3.05240000000596],[0.32937500000000003,-0.36740740740740735,3.0667999999970235],[0.31708333333333344,-0.36518518518518517,3.087400000005964],[0.31708333333333344,-0.36518518518518517,3.099499999999999],[0.3245833333333332,-0.39037037037037037,3.1162000000029835],[0.3384375000000001,-0.4272222222222222,3.133499999999998],[0.3585416666666667,-0.4177777777777778,3.1495000000000033],[0.3692708333333333,-0.3675925925925926,3.1662999999970225],[0.3765625,-0.3690740740740741,3.182900000005958],[0.37312500000000004,-0.3357407407407408,3.202200000002982],[0.3507291666666667,-0.3168518518518519,3.2174000000059593],[0.34614583333333326,-0.34148148148148144,3.232999999999997],[0.34395833333333337,-0.38055555555555554,3.250700000002979],[0.3610416666666666,-0.36796296296296294,3.266799999997019],[0.36697916666666663,-0.3527777777777778,3.2866000000089386],[0.3589583333333332,-0.3542592592592593,3.304799999997023],[0.3589583333333332,-0.3542592592592593,3.32260000000894],[0.3589583333333332,-0.3425925925925926,3.3404999999999987],[0.3589583333333332,-0.3425925925925926,3.349499999999999],[0.3646874999999999,-0.33851851851851855,3.36640000000596],[0.36614583333333334,-0.2962962962962963,3.3847000000029794],[0.36614583333333334,-0.2962962962962963,3.399600000008938],[0.3885416666666667,-0.3683333333333333,3.4162999999970225],[0.40677083333333336,-0.4161111111111111,3.437400000005958],[0.4169791666666666,-0.3609259259259259,3.4525000000000006],[0.4150000000000001,-0.3755555555555556,3.46670000000298],[0.4088541666666667,-0.37037037037037035,3.4829000000059622],[0.3991666666666667,-0.41944444444444445,3.4996000000089396],[0.3958333333333333,-0.4155555555555555,3.516299999997017],[0.3940624999999999,-0.4696296296296297,3.537200000002983],[0.3914583333333333,-0.5422222222222223,3.5521000000089415],[0.39031250000000006,-0.6092592592592593,3.566400000005963],[0.38291666666666657,-0.5938888888888889,3.5827999999970217],[0.36864583333333345,-0.5651851851851851,3.599499999999999],[0.3421875,-0.6098148148148148,3.6162000000029835],[0.3408333333333334,-0.5888888888888889,3.6331000000089446],[0.3256249999999999,-0.5981481481481481,3.6495000000000033],[0.30833333333333335,-0.5918518518518519,3.6662000000029806],[0.29749999999999993,-0.6127777777777778,3.682799999997023],[0.2760416666666667,-0.5366666666666667,3.6995000000000005],[0.2595833333333334,-0.4766666666666666,3.7162999999970197],[0.2598958333333333,-0.4311111111111111,3.732999999999997],[0.25625,-0.38851851851851854,3.749900000005958],[0.25593750000000004,-0.4125925925925926,3.766299999997017],[0.2603125000000001,-0.43148148148148147,3.7827999999970174],[0.2535416666666668,-0.43629629629629635,3.799600000008944],[0.2504166666666668,-0.46277777777777773,3.816200000002979],[0.26052083333333326,-0.4475925925925926,3.834799999997017],[0.2587500000000001,-0.4111111111111111,3.8546000000089435],[0.2587500000000001,-0.4111111111111111,3.8662999999970182],[0.27156250000000004,-0.42055555555555557,3.882900000005961],[0.2928124999999999,-0.42314814814814816,3.899600000008938],[0.29968750000000005,-0.4262962962962963,3.9187999999970202],[0.28447916666666656,-0.43074074074074076,3.934600000008942],[0.2851041666666667,-0.4148148148148148,3.953000000000003],[0.28895833333333343,-0.3877777777777777,3.96670000000298],[0.29104166666666675,-0.3705555555555556,3.9827999999970203],[0.2929166666666667,-0.3512962962962963,4.002299999997021]]","[0.00010000000894194727,0.017499999999998295,0.03720000000298285,0.04960000000894382,0.06629999999702108,0.08299999999999841,0.09960000000894098,0.12040000000595796,0.13540000000595853,0.14960000000893814,0.1662999999970225,0.18299999999999983,0.19950000000000045,0.21629999999701965,0.23290000000596223,0.25010000000894195,0.2662999999970168,0.2829000000059594,0.2996000000089438,0.3162999999970211,0.3329999999999984,0.34949999999999903,0.3664000000059602,0.38300000000000267,0.39960000000893814,0.41620000000298063,0.43299999999999983,0.4531000000089378,0.4667000000029802,0.4829000000059622,0.49960000000893956,0.5162999999970168,0.5375000000000014,0.5527000000029787,0.5662999999970211,0.5829999999999984,0.599600000008941,0.6162000000029835,0.6331000000089446,0.6496000000089381,0.6662999999970225,0.682900000005958,0.703700000002982,0.7190000000000012,0.732999999999997,0.7494999999999976,0.7662999999970168,0.7867999999970223,0.8016000000089392,0.8162999999970211,0.833299999997017,0.8549000000059621,0.866500000000002,0.8830000000000027,0.8996000000089381,0.9166000000089412,0.9329999999999998,0.9495000000000005,0.9662999999970197,0.9842999999970203,1.0014000000059582,1.0177999999970169,1.0376000000089434,1.0496000000089438,1.066400000005963,1.0829000000059636,1.099600000008941,1.1197999999970207,1.1341000000089423,1.14970000000298,1.1662999999970225,1.182900000005958,1.2031000000089378,1.2182000000029802,1.2332000000029808,1.2517000000029839,1.2664000000059588,1.2829000000059594,1.2996000000089438,1.3162000000029792,1.3352000000029776,1.3516000000089434,1.3695000000000022,1.3834000000059632,1.3996000000089381,1.4169000000059597,1.434400000005958,1.4536000000089402,1.4692999999970198,1.4829000000059622,1.4996000000089396,1.5162999999970168,1.5329000000059594,1.5514000000059625,1.5664999999999978,1.5832000000029822,1.599600000008941,1.6162000000029835,1.633499999999998,1.6525000000000034,1.6692000000029807,1.6832999999970184,1.7032000000029797,1.7181000000089384,1.732999999999997,1.7496000000089396,1.7662999999970168,1.7829000000059594,1.7995000000000019,1.8162000000029792,1.8329000000059636,1.8562999999970202,1.8662999999970182,1.8829000000059608,1.8996000000089381,1.9167999999970178,1.932900000005958,1.9496000000089424,1.9662999999970197,1.9827999999970203,1.9996000000089396,2.016200000002982,2.0327999999970174,2.0497000000029786,2.066200000002979,2.084100000008938,2.099600000008941,2.1162000000029835,2.134999999999998,2.149600000008938,2.1662999999970225,2.182900000005958,2.1995000000000005,2.216200000002978,2.2329000000059622,2.2504000000059605,2.266299999997017,2.2827999999970174,2.300799999997018,2.316299999997021,2.3329999999999984,2.349600000008941,2.3662999999970182,2.3840000000000003,2.399600000008938,2.4162999999970225,2.433,2.4516000000089377,2.468499999999999,2.483100000008939,2.5,2.5217999999970218,2.533100000008943,2.5497000000029786,2.566400000005963,2.5859000000059638,2.604200000002983,2.619700000002979,2.638299999997024,2.6532999999970173,2.6687000000029784,2.6847000000029837,2.705900000005961,2.7164000000059616,2.733100000008939,2.7526000000089397,2.7719999999999985,2.7867999999970223,2.8021000000089415,2.816299999997021,2.8359000000059638,2.8567000000029807,2.866600000008944,2.8830000000000027,2.9026000000089383,2.918299999997018,2.9349000000059604,2.952900000005961,2.9674000000059593,2.9827999999970203,2.9994999999999976,3.016200000002982,3.0329000000059594,3.05240000000596,3.0667999999970235,3.087400000005964,3.099499999999999,3.1162000000029835,3.133499999999998,3.1495000000000033,3.1662999999970225,3.182900000005958,3.202200000002982,3.2174000000059593,3.232999999999997,3.250700000002979,3.266799999997019,3.2866000000089386,3.304799999997023,3.32260000000894,3.3404999999999987,3.349499999999999,3.36640000000596,3.3847000000029794,3.399600000008938,3.4162999999970225,3.437400000005958,3.4525000000000006,3.46670000000298,3.4829000000059622,3.4996000000089396,3.516299999997017,3.537200000002983,3.5521000000089415,3.566400000005963,3.5827999999970217,3.599499999999999,3.6162000000029835,3.6331000000089446,3.6495000000000033,3.6662000000029806,3.682799999997023,3.6995000000000005,3.7162999999970197,3.732999999999997,3.749900000005958,3.766299999997017,3.7827999999970174,3.799600000008944,3.816200000002979,3.834799999997017,3.8546000000089435,3.8662999999970182,3.882900000005961,3.899600000008938,3.9187999999970202,3.934600000008942,3.953000000000003,3.96670000000298,3.9827999999970203,4.002299999997021]","[1732605427127,1732605427143,1732605427163,1732605427175,1732605427192,1732605427208,1732605427225,1732605427246,1732605427261,1732605427275,1732605427292,1732605427308,1732605427325,1732605427342,1732605427358,1732605427376,1732605427392,1732605427408,1732605427425,1732605427442,1732605427458,1732605427475,1732605427492,1732605427508,1732605427525,1732605427542,1732605427558,1732605427579,1732605427592,1732605427608,1732605427625,1732605427642,1732605427663,1732605427678,1732605427692,1732605427708,1732605427725,1732605427742,1732605427759,1732605427775,1732605427792,1732605427808,1732605427829,1732605427845,1732605427858,1732605427875,1732605427892,1732605427912,1732605427927,1732605427942,1732605427959,1732605427980,1732605427992,1732605428009,1732605428025,1732605428042,1732605428058,1732605428075,1732605428092,1732605428110,1732605428127,1732605428143,1732605428163,1732605428175,1732605428192,1732605428208,1732605428225,1732605428245,1732605428260,1732605428275,1732605428292,1732605428308,1732605428329,1732605428344,1732605428359,1732605428377,1732605428392,1732605428408,1732605428425,1732605428442,1732605428461,1732605428477,1732605428495,1732605428509,1732605428525,1732605428542,1732605428560,1732605428579,1732605428595,1732605428608,1732605428625,1732605428642,1732605428658,1732605428677,1732605428692,1732605428709,1732605428725,1732605428742,1732605428759,1732605428778,1732605428795,1732605428809,1732605428829,1732605428844,1732605428859,1732605428875,1732605428892,1732605428908,1732605428925,1732605428942,1732605428959,1732605428982,1732605428992,1732605429008,1732605429025,1732605429042,1732605429058,1732605429075,1732605429092,1732605429108,1732605429125,1732605429142,1732605429158,1732605429175,1732605429192,1732605429210,1732605429225,1732605429242,1732605429261,1732605429275,1732605429292,1732605429308,1732605429325,1732605429342,1732605429358,1732605429376,1732605429392,1732605429408,1732605429426,1732605429442,1732605429458,1732605429475,1732605429492,1732605429510,1732605429525,1732605429542,1732605429558,1732605429577,1732605429594,1732605429609,1732605429625,1732605429647,1732605429659,1732605429675,1732605429692,1732605429711,1732605429730,1732605429745,1732605429764,1732605429779,1732605429794,1732605429810,1732605429831,1732605429842,1732605429859,1732605429878,1732605429898,1732605429912,1732605429928,1732605429942,1732605429961,1732605429982,1732605429992,1732605430009,1732605430028,1732605430044,1732605430060,1732605430078,1732605430093,1732605430108,1732605430125,1732605430142,1732605430158,1732605430178,1732605430192,1732605430213,1732605430225,1732605430242,1732605430259,1732605430275,1732605430292,1732605430308,1732605430328,1732605430343,1732605430358,1732605430376,1732605430392,1732605430412,1732605430430,1732605430448,1732605430466,1732605430475,1732605430492,1732605430510,1732605430525,1732605430542,1732605430563,1732605430578,1732605430592,1732605430608,1732605430625,1732605430642,1732605430663,1732605430678,1732605430692,1732605430708,1732605430725,1732605430742,1732605430759,1732605430775,1732605430792,1732605430808,1732605430825,1732605430842,1732605430858,1732605430875,1732605430892,1732605430908,1732605430925,1732605430942,1732605430960,1732605430980,1732605430992,1732605431008,1732605431025,1732605431044,1732605431060,1732605431079,1732605431092,1732605431108,1732605431128]","[[1228.5,227.7],[1237.6,223.2],[1236,237.4],[1236,237.4],[1239.8,256],[1282.8,242],[1277.8,234.9],[1277.9,223.3],[1280,216.2],[1280,216.2],[1277.8,216.3],[1263.1,224.1],[1273.2,232.5],[1283.1,234.9],[1311.3,219.8],[1305.6,212.1],[1253.4,238.9],[1200.1,277.1],[1121.5,310.7],[1065.7,350],[1005.4,377.5],[947.2,388.6],[905.3,384.7],[835.3,404.8],[778.6,412.2],[732.3,430.6],[707.7,427.9],[688.9,404.7],[697.7,403.7],[708.7,378.5],[700.6,397.4],[702,425.1],[652.2,464.6],[630.7,486.1],[630.7,486.1],[595.9,521.7],[589.3,538.7],[586,555.7],[587.3,570.6],[572.1,593.5],[546,616.5],[543.5,607.2],[510.5,588.9],[504.7,585.6],[504.7,585.6],[477.4,588.6],[450.7,587.1],[426.4,585.5],[400.9,589.1],[386.3,581.4],[373.7,570.7],[345,573.9],[345,573.9],[319.4,563.6],[305,572.2],[282.2,567.7],[293.1,561.2],[285.9,560],[268,566.7],[266.7,559.9],[254.6,593.6],[249.6,609.2],[251.3,631.4],[251.3,631.4],[262.1,661.3],[272.4,691.6],[293.4,717.2],[302.2,738.5],[326.8,755.2],[326.8,755.2],[343.1,773.7],[346.4,799.4],[366.2,808.4],[386,817.4],[392.5,819.6],[386.8,827.6],[405.4,825.7],[413.3,828.5],[422.8,831.1],[426.4,834.9],[432.2,835.9],[435.6,838],[490.6,834.6],[545.6,831.2],[628.9,826],[712.2,820.8],[783,803.9],[863.2,796.5],[941.8,789.3],[941.8,789.3],[1015.7,770.7],[1097,767.2],[1178.3,763.7],[1205.4,760.9],[1223.6,763.8],[1220.1,768.7],[1198.1,770.5],[1185,783.5],[1164.4,787.3],[1143.8,791.1],[1123.7,809.7],[1094,816],[1052.6,817.3],[1011.2,818.6],[1011.2,818.6],[987,814.5],[968.5,816.1],[968.5,820.8],[983.9,824.7],[979.4,824.1],[974,825.5],[972.8,823.5],[972.8,823.5],[980.7,825.8],[997.6,836.4],[1014.2,844.6],[1022.5,852.5],[1025.1,854.7],[1014.9,841.7],[989.3,829.5],[985.2,822.4],[982,813.3],[986,811.4],[986,811.4],[980.9,805.2],[992.2,795.8],[1014.9,769.2],[1037.6,742.6],[1067.8,721.8],[1067.8,721.8],[1110.8,716.2],[1146.2,702.1],[1182.6,684.8],[1219,667.5],[1244.6,645.8],[1267.6,621.1],[1280.1,594.3],[1281.5,587.1],[1296.7,575.1],[1296.7,575.1],[1285.1,570.5],[1273.5,565.9],[1279.1,574.2],[1280.2,584.8],[1275.4,588.8],[1274.2,590],[1269.5,596.9],[1261.6,605.8],[1268.4,616.5],[1254.8,600.3],[1248.1,565.6],[1241.4,530.9],[1241.4,530.9],[1229.7,497.9],[1220.4,455.2],[1217,419.1],[1202.2,386],[1181.6,358.9],[1161,331.8],[1130.1,280.5],[1105.8,260.9],[1101.5,268.5],[1097.2,276.1],[1097.2,276.1],[1084.7,294.2],[1069.8,322],[1044.8,349.7],[1054.3,363],[1081.8,382.9],[1081.8,382.9],[1109.3,402.8],[1131.4,420.9],[1131.4,420.9],[1151.1,442.1],[1162.2,442.1],[1188.4,437.3],[1209.9,429.3],[1226.4,422.7],[1247,391.2],[1244.5,371.1],[1243.3,343],[1242.1,314.9],[1252.3,323.5],[1264.9,329],[1276.2,341.6],[1264.4,342.8],[1264.4,342.8],[1271.6,329.2],[1284.9,309.3],[1304.2,314.4],[1314.5,341.5],[1321.5,340.7],[1318.2,358.7],[1296.7,368.9],[1292.3,355.6],[1290.2,334.5],[1306.6,341.3],[1312.3,349.5],[1304.6,348.7],[1304.6,348.7],[1304.6,355],[1304.6,355],[1310.1,357.2],[1311.5,380],[1311.5,380],[1333,341.1],[1350.5,315.3],[1360.3,345.1],[1358.4,337.2],[1352.5,340],[1343.2,313.5],[1340,315.6],[1338.3,286.4],[1335.8,247.2],[1334.7,211],[1327.6,219.3],[1313.9,234.8],[1288.5,210.7],[1287.2,222],[1272.6,217],[1256,220.4],[1245.6,209.1],[1225,250.2],[1209.2,282.6],[1209.5,307.2],[1206,330.2],[1205.7,317.2],[1209.9,307],[1203.4,304.4],[1200.4,290.1],[1210.1,298.3],[1208.4,318],[1208.4,318],[1220.7,312.9],[1241.1,311.5],[1247.7,309.8],[1233.1,307.4],[1233.7,316],[1237.4,330.6],[1239.4,339.9],[1241.2,350.3]]","[-0.142,0.42599999999999993]","[0.142,0.42599999999999993]","[0.42599999999999993,0.42599999999999993]","[-0.42599999999999993,-0.42599999999999993]","[-0.42599999999999993,-0.142]","[-0.42599999999999993,0.142]","[-0.142,-0.42599999999999993]","[0.142,-0.42599999999999993]","[0.42599999999999993,-0.42599999999999993]","[-0.142,-0.142]","[0.142,-0.142]","[0.42599999999999993,-0.142]","[-0.142,0.142]","[0.142,0.142]","[0.42599999999999993,0.142]",0,1,1,1,1,2,Laptop,20,20,7,3,70,6,3,60,3
