inst1_resp.keys,inst1_resp.rt,calibrationMouse.x,calibrationMouse.y,calibrationMouse.leftButton,calibrationMouse.midButton,calibrationMouse.rightButton,calibrationClick.x,calibrationClick.y,calibrationClick.leftButton,calibrationClick.midButton,calibrationClick.rightButton,calibrationClick.clicked_name,trialsc.thisRepN,trialsc.thisTrialN,trialsc.thisN,trialsc.thisIndex,trialsc.ran,calibration_x,calibration_y,participant,session,date,expName,psychopyVersion,OS,frameRate,ScreenRes_pixels,Camera_pixels,mouse_2.x,mouse_2.y,mouse_2.leftButton,mouse_2.midButton,mouse_2.rightButton,mouse_2.time,mouse_2.clicked_name,mouse.x,mouse.y,mouse.leftButton,mouse.midButton,mouse.rightButton,mouse.time,mouse.clicked_name,Choice,Trial,TrialDuration,MOUSE_GAZE,ET_GAZE,ET_GAZE_x_T,time,unixTime,ET_GAZE_NF,Loc_Bus_label,Loc_Metro_label,Loc_RH_label,Loc_Cost_label,Loc_Travel_label,Loc_Comfort_label,Loc_Bus_cost,Loc_Metro_cost,Loc_RH_cost,Loc_Bus_travel,Loc_Metro_travel,Loc_RH_travel,Loc_Bus_comfort,Loc_Metro_comfort,Loc_RH_comfort,trials.thisRepN,trials.thisTrialN,trials.thisN,trials.thisIndex,trials.ran,Block,Device,RH_cost,RH_travel_time,RH_Comfort,metro_cost,metro_travel_time,metro_Comfort,Bus_cost,Bus_travel_time,Bus_Comfort
space,3.53,-0.026041667,-0.201851852,1,0,0,-0.670833333,0.005555556,1,0,0,calibration_square,0,0,0,2,1,-0.67,0,26,001,2024-11-26_11h47.50.444,Attention_exp_legacy,2023.1.0,Win32,59.88023952,,,,,,,,,,,,,,,,,,,,,,,,,,,,,,,,,,,,,,,,,,,,,,,,,,,,,,,,
,,,,,,,-0.332291667,0.668518519,1,0,0,calibration_square,0,1,1,8,1,-0.33,0.67,26,001,2024-11-26_11h47.50.444,Attention_exp_legacy,2023.1.0,Win32,59.88023952,,,,,,,,,,,,,,,,,,,,,,,,,,,,,,,,,,,,,,,,,,,,,,,,,,,,,,,,
,,,,,,,-0.675,-0.333333333,1,0,0,calibration_square,0,2,2,1,1,-0.67,-0.33,26,001,2024-11-26_11h47.50.444,Attention_exp_legacy,2023.1.0,Win32,59.88023952,,,,,,,,,,,,,,,,,,,,,,,,,,,,,,,,,,,,,,,,,,,,,,,,,,,,,,,,
,,,,,,,-0.330208333,0.342592593,1,0,0,,0,3,3,7,1,-0.33,0.33,26,001,2024-11-26_11h47.50.444,Attention_exp_legacy,2023.1.0,Win32,59.88023952,,,,,,,,,,,,,,,,,,,,,,,,,,,,,,,,,,,,,,,,,,,,,,,,,,,,,,,,
,,,,,,,0.66875,0.664814815,1,0,0,calibration_square,0,4,4,19,1,0.67,0.67,26,001,2024-11-26_11h47.50.444,Attention_exp_legacy,2023.1.0,Win32,59.88023952,,,,,,,,,,,,,,,,,,,,,,,,,,,,,,,,,,,,,,,,,,,,,,,,,,,,,,,,
,,,,,,,0.326041667,0.668518519,1,0,0,calibration_square,0,5,5,18,1,0.33,0.67,26,001,2024-11-26_11h47.50.444,Attention_exp_legacy,2023.1.0,Win32,59.88023952,,,,,,,,,,,,,,,,,,,,,,,,,,,,,,,,,,,,,,,,,,,,,,,,,,,,,,,,
,,,,,,,0.329166667,0.335185185,1,0,0,calibration_square,0,6,6,17,1,0.33,0.33,26,001,2024-11-26_11h47.50.444,Attention_exp_legacy,2023.1.0,Win32,59.88023952,,,,,,,,,,,,,,,,,,,,,,,,,,,,,,,,,,,,,,,,,,,,,,,,,,,,,,,,
,,,,,,,-0.340625,-0.672222222,1,0,0,,0,7,7,4,1,-0.33,-0.67,26,001,2024-11-26_11h47.50.444,Attention_exp_legacy,2023.1.0,Win32,59.88023952,,,,,,,,,,,,,,,,,,,,,,,,,,,,,,,,,,,,,,,,,,,,,,,,,,,,,,,,
,,,,,,,0.672916667,-0.681481481,1,0,0,,0,8,8,20,1,0.67,-0.67,26,001,2024-11-26_11h47.50.444,Attention_exp_legacy,2023.1.0,Win32,59.88023952,,,,,,,,,,,,,,,,,,,,,,,,,,,,,,,,,,,,,,,,,,,,,,,,,,,,,,,,
,,,,,,,-0.352083333,-0.001851852,1,0,0,,0,9,9,6,1,-0.33,0,26,001,2024-11-26_11h47.50.444,Attention_exp_legacy,2023.1.0,Win32,59.88023952,,,,,,,,,,,,,,,,,,,,,,,,,,,,,,,,,,,,,,,,,,,,,,,,,,,,,,,,
,,,,,,,-0.664583333,-0.67037037,1,0,0,calibration_square,0,10,10,0,1,-0.67,-0.67,26,001,2024-11-26_11h47.50.444,Attention_exp_legacy,2023.1.0,Win32,59.88023952,,,,,,,,,,,,,,,,,,,,,,,,,,,,,,,,,,,,,,,,,,,,,,,,,,,,,,,,
,,,,,,,0.332291667,-0.67962963,1,0,0,calibration_square,0,11,11,14,1,0.33,-0.67,26,001,2024-11-26_11h47.50.444,Attention_exp_legacy,2023.1.0,Win32,59.88023952,,,,,,,,,,,,,,,,,,,,,,,,,,,,,,,,,,,,,,,,,,,,,,,,,,,,,,,,
,,,,,,,-0.011458333,0.674074074,1,0,0,,0,12,12,13,1,0,0.67,26,001,2024-11-26_11h47.50.444,Attention_exp_legacy,2023.1.0,Win32,59.88023952,,,,,,,,,,,,,,,,,,,,,,,,,,,,,,,,,,,,,,,,,,,,,,,,,,,,,,,,
,,,,,,,-0.677083333,0.331481481,1,0,0,calibration_square,0,13,13,3,1,-0.67,0.33,26,001,2024-11-26_11h47.50.444,Attention_exp_legacy,2023.1.0,Win32,59.88023952,,,,,,,,,,,,,,,,,,,,,,,,,,,,,,,,,,,,,,,,,,,,,,,,,,,,,,,,
,,,,,,,0.336458333,-0.001851852,1,0,0,calibration_square,0,14,14,16,1,0.33,0,26,001,2024-11-26_11h47.50.444,Attention_exp_legacy,2023.1.0,Win32,59.88023952,,,,,,,,,,,,,,,,,,,,,,,,,,,,,,,,,,,,,,,,,,,,,,,,,,,,,,,,
,,,,,,,-0.332291667,-0.318518519,1,0,0,,0,15,15,5,1,-0.33,-0.33,26,001,2024-11-26_11h47.50.444,Attention_exp_legacy,2023.1.0,Win32,59.88023952,,,,,,,,,,,,,,,,,,,,,,,,,,,,,,,,,,,,,,,,,,,,,,,,,,,,,,,,
,,,,,,,-0.003125,0.337037037,1,0,0,calibration_square,0,16,16,12,1,0,0.33,26,001,2024-11-26_11h47.50.444,Attention_exp_legacy,2023.1.0,Win32,59.88023952,,,,,,,,,,,,,,,,,,,,,,,,,,,,,,,,,,,,,,,,,,,,,,,,,,,,,,,,
,,,,,,,0.329166667,-0.338888889,1,0,0,calibration_square,0,17,17,15,1,0.33,-0.33,26,001,2024-11-26_11h47.50.444,Attention_exp_legacy,2023.1.0,Win32,59.88023952,,,,,,,,,,,,,,,,,,,,,,,,,,,,,,,,,,,,,,,,,,,,,,,,,,,,,,,,
,,,,,,,-0.019791667,-0.677777778,1,0,0,,0,18,18,9,1,0,-0.67,26,001,2024-11-26_11h47.50.444,Attention_exp_legacy,2023.1.0,Win32,59.88023952,,,,,,,,,,,,,,,,,,,,,,,,,,,,,,,,,,,,,,,,,,,,,,,,,,,,,,,,
,,,,,,,-0.010416667,-0.322222222,1,0,0,,0,19,19,10,1,0,-0.33,26,001,2024-11-26_11h47.50.444,Attention_exp_legacy,2023.1.0,Win32,59.88023952,,,,,,,,,,,,,,,,,,,,,,,,,,,,,,,,,,,,,,,,,,,,,,,,,,,,,,,,
,,,,,,,-0.021875,-0.009259259,1,0,0,,0,20,20,11,1,0,0,26,001,2024-11-26_11h47.50.444,Attention_exp_legacy,2023.1.0,Win32,59.88023952,,,,,,,,,,,,,,,,,,,,,,,,,,,,,,,,,,,,,,,,,,,,,,,,,,,,,,,,
,,,,,,,,,,,,,,,,,,,,26,001,2024-11-26_11h47.50.444,Attention_exp_legacy,2023.1.0,Win32,59.88023952,"[1920,1080]","[640,480]",[0.0625],[-0.5314814814814814],[1],[0],[0],[17.067500000000003],"[""StartButton""]",[0.11875],[0.40370370370370373],[1],[0],[0],[6.066100000001484],"[""Metro_label""]",Metro_label,1,7.0891,"[[0.022916666666666665,-0.053703703703703705],[0.022916666666666665,-0.053703703703703705],[0.022916666666666665,-0.053703703703703705],[0.022916666666666665,-0.053703703703703705],[0.022916666666666665,-0.053703703703703705],[0.022916666666666665,-0.053703703703703705],[0.022916666666666665,-0.053703703703703705],[0.022916666666666665,-0.053703703703703705],[0.022916666666666665,-0.053703703703703705],[0.022916666666666665,-0.053703703703703705],[0.022916666666666665,-0.053703703703703705],[0.022916666666666665,-0.053703703703703705],[0.022916666666666665,-0.053703703703703705],[0.022916666666666665,-0.053703703703703705],[0.022916666666666665,-0.053703703703703705],[0.022916666666666665,-0.053703703703703705],[0.022916666666666665,-0.053703703703703705],[0.022916666666666665,-0.053703703703703705],[0.022916666666666665,-0.053703703703703705],[0.022916666666666665,-0.053703703703703705],[0.022916666666666665,-0.053703703703703705],[0.022916666666666665,-0.053703703703703705],[0.022916666666666665,-0.053703703703703705],[0.022916666666666665,-0.053703703703703705],[0.022916666666666665,-0.053703703703703705],[0.022916666666666665,-0.053703703703703705],[0.022916666666666665,-0.053703703703703705],[0.022916666666666665,-0.053703703703703705],[0.022916666666666665,-0.053703703703703705],[0.022916666666666665,-0.053703703703703705],[0.022916666666666665,-0.053703703703703705],[0.022916666666666665,-0.053703703703703705],[0.022916666666666665,-0.053703703703703705],[0.022916666666666665,-0.053703703703703705],[0.022916666666666665,-0.053703703703703705],[0.022916666666666665,-0.053703703703703705],[0.022916666666666665,-0.053703703703703705],[0.022916666666666665,-0.053703703703703705],[0.022916666666666665,-0.053703703703703705],[0.022916666666666665,-0.053703703703703705],[0.022916666666666665,-0.053703703703703705],[0.022916666666666665,-0.053703703703703705],[0.022916666666666665,-0.053703703703703705],[0.022916666666666665,-0.053703703703703705],[0.022916666666666665,-0.053703703703703705],[0.022916666666666665,-0.053703703703703705],[0.022916666666666665,-0.053703703703703705],[0.022916666666666665,-0.053703703703703705],[0.022916666666666665,-0.053703703703703705],[0.022916666666666665,-0.053703703703703705],[0.022916666666666665,-0.053703703703703705],[0.022916666666666665,-0.053703703703703705],[0.022916666666666665,-0.053703703703703705],[0.022916666666666665,-0.053703703703703705],[0.022916666666666665,-0.053703703703703705],[0.022916666666666665,-0.053703703703703705],[0.022916666666666665,-0.053703703703703705],[0.022916666666666665,-0.053703703703703705],[0.022916666666666665,-0.053703703703703705],[0.022916666666666665,-0.053703703703703705],[0.022916666666666665,-0.053703703703703705],[0.022916666666666665,-0.053703703703703705],[0.022916666666666665,-0.053703703703703705],[0.022916666666666665,-0.053703703703703705],[0.022916666666666665,-0.053703703703703705],[0.022916666666666665,-0.053703703703703705],[0.022916666666666665,-0.053703703703703705],[0.022916666666666665,-0.053703703703703705],[0.022916666666666665,-0.053703703703703705],[0.022916666666666665,-0.053703703703703705],[0.022916666666666665,-0.053703703703703705],[0.022916666666666665,-0.053703703703703705],[0.022916666666666665,-0.053703703703703705],[0.022916666666666665,-0.053703703703703705],[0.022916666666666665,-0.053703703703703705],[0.022916666666666665,-0.053703703703703705],[0.022916666666666665,-0.053703703703703705],[0.022916666666666665,-0.053703703703703705],[0.022916666666666665,-0.053703703703703705],[0.022916666666666665,-0.053703703703703705],[0.022916666666666665,-0.053703703703703705],[0.022916666666666665,-0.053703703703703705],[0.022916666666666665,-0.053703703703703705],[0.022916666666666665,-0.053703703703703705],[0.022916666666666665,-0.053703703703703705],[0.022916666666666665,-0.053703703703703705],[0.022916666666666665,-0.053703703703703705],[0.022916666666666665,-0.053703703703703705],[0.022916666666666665,-0.053703703703703705],[0.022916666666666665,-0.053703703703703705],[0.022916666666666665,-0.053703703703703705],[0.022916666666666665,-0.053703703703703705],[0.022916666666666665,-0.053703703703703705],[0.022916666666666665,-0.053703703703703705],[0.022916666666666665,-0.053703703703703705],[0.022916666666666665,-0.053703703703703705],[0.022916666666666665,-0.053703703703703705],[0.022916666666666665,-0.053703703703703705],[0.022916666666666665,-0.053703703703703705],[0.022916666666666665,-0.053703703703703705],[0.022916666666666665,-0.053703703703703705],[0.022916666666666665,-0.053703703703703705],[0.022916666666666665,-0.053703703703703705],[0.022916666666666665,-0.053703703703703705],[0.022916666666666665,-0.053703703703703705],[0.022916666666666665,-0.053703703703703705],[0.022916666666666665,-0.053703703703703705],[0.022916666666666665,-0.053703703703703705],[0.022916666666666665,-0.053703703703703705],[0.022916666666666665,-0.053703703703703705],[0.022916666666666665,-0.053703703703703705],[0.022916666666666665,-0.053703703703703705],[0.022916666666666665,-0.053703703703703705],[0.022916666666666665,-0.053703703703703705],[0.022916666666666665,-0.053703703703703705],[0.022916666666666665,-0.053703703703703705],[0.022916666666666665,-0.053703703703703705],[0.022916666666666665,-0.053703703703703705],[0.022916666666666665,-0.053703703703703705],[0.022916666666666665,-0.053703703703703705],[0.022916666666666665,-0.053703703703703705],[0.022916666666666665,-0.053703703703703705],[0.022916666666666665,-0.053703703703703705],[0.022916666666666665,-0.053703703703703705],[0.022916666666666665,-0.053703703703703705],[0.022916666666666665,-0.053703703703703705],[0.022916666666666665,-0.053703703703703705],[0.022916666666666665,-0.053703703703703705],[0.022916666666666665,-0.053703703703703705],[0.022916666666666665,-0.053703703703703705],[0.022916666666666665,-0.053703703703703705],[0.022916666666666665,-0.053703703703703705],[0.022916666666666665,-0.053703703703703705],[0.022916666666666665,-0.05],[0.025,-0.046296296296296294],[0.029166666666666667,-0.044444444444444446],[0.0375,-0.037037037037037035],[0.046875,-0.025925925925925925],[0.0625,-0.014814814814814815],[0.07083333333333333,-0.009259259259259259],[0.09479166666666666,0.005555555555555556],[0.11666666666666667,0.020370370370370372],[0.13958333333333334,0.037037037037037035],[0.1625,0.05555555555555555],[0.18020833333333333,0.06666666666666667],[0.2,0.08148148148148149],[0.21875,0.08703703703703704],[0.23854166666666668,0.09074074074074075],[0.25416666666666665,0.0962962962962963],[0.26979166666666665,0.10925925925925926],[0.26979166666666665,0.10925925925925926],[0.26979166666666665,0.10925925925925926],[0.26979166666666665,0.10925925925925926],[0.26979166666666665,0.10925925925925926],[0.26979166666666665,0.10925925925925926],[0.26979166666666665,0.10925925925925926],[0.26979166666666665,0.10925925925925926],[0.26979166666666665,0.10925925925925926],[0.26979166666666665,0.10925925925925926],[0.26979166666666665,0.10925925925925926],[0.26979166666666665,0.10925925925925926],[0.26979166666666665,0.10925925925925926],[0.26979166666666665,0.10925925925925926],[0.26979166666666665,0.10925925925925926],[0.26979166666666665,0.10925925925925926],[0.26979166666666665,0.10925925925925926],[0.26979166666666665,0.10925925925925926],[0.26979166666666665,0.10925925925925926],[0.26979166666666665,0.10925925925925926],[0.275,0.10925925925925926],[0.275,0.10740740740740741],[0.275,0.10740740740740741],[0.2791666666666667,0.10740740740740741],[0.29791666666666666,0.12222222222222222],[0.30416666666666664,0.12962962962962962],[0.31354166666666666,0.14814814814814814],[0.3333333333333333,0.1814814814814815],[0.34270833333333334,0.20185185185185187],[0.35208333333333336,0.21666666666666667],[0.35833333333333334,0.23333333333333334],[0.36666666666666664,0.24444444444444444],[0.37395833333333334,0.25555555555555554],[0.37916666666666665,0.26481481481481484],[0.384375,0.2722222222222222],[0.3875,0.2777777777777778],[0.3927083333333333,0.28888888888888886],[0.39791666666666664,0.30185185185185187],[0.40520833333333334,0.3148148148148148],[0.41041666666666665,0.3314814814814815],[0.41354166666666664,0.3388888888888889],[0.41770833333333335,0.35],[0.42083333333333334,0.3592592592592593],[0.425,0.37037037037037035],[0.43125,0.387037037037037],[0.4354166666666667,0.40185185185185185],[0.4395833333333333,0.4148148148148148],[0.4427083333333333,0.4222222222222222],[0.44375,0.42962962962962964],[0.446875,0.4388888888888889],[0.446875,0.4388888888888889],[0.446875,0.44074074074074077],[0.446875,0.44074074074074077],[0.446875,0.44074074074074077],[0.446875,0.44074074074074077],[0.446875,0.44074074074074077],[0.446875,0.44074074074074077],[0.446875,0.44074074074074077],[0.446875,0.44074074074074077],[0.446875,0.44074074074074077],[0.446875,0.44074074074074077],[0.446875,0.44074074074074077],[0.446875,0.44074074074074077],[0.446875,0.44074074074074077],[0.446875,0.44074074074074077],[0.446875,0.4425925925925926],[0.446875,0.4425925925925926],[0.44583333333333336,0.4425925925925926],[0.44583333333333336,0.4425925925925926],[0.44583333333333336,0.4425925925925926],[0.44583333333333336,0.4425925925925926],[0.44583333333333336,0.4425925925925926],[0.44583333333333336,0.4425925925925926],[0.44583333333333336,0.4425925925925926],[0.44375,0.4425925925925926],[0.44375,0.4425925925925926],[0.44375,0.4425925925925926],[0.4427083333333333,0.4425925925925926],[0.4427083333333333,0.4425925925925926],[0.4427083333333333,0.4425925925925926],[0.4427083333333333,0.4425925925925926],[0.4427083333333333,0.4425925925925926],[0.4427083333333333,0.4425925925925926],[0.4427083333333333,0.4425925925925926],[0.4427083333333333,0.4425925925925926],[0.4427083333333333,0.4425925925925926],[0.4427083333333333,0.4425925925925926],[0.4427083333333333,0.4425925925925926],[0.4427083333333333,0.4425925925925926],[0.4427083333333333,0.4425925925925926],[0.4427083333333333,0.4425925925925926],[0.4427083333333333,0.4425925925925926],[0.4427083333333333,0.4425925925925926],[0.4427083333333333,0.4425925925925926],[0.4427083333333333,0.4425925925925926],[0.4427083333333333,0.4425925925925926],[0.4427083333333333,0.4425925925925926],[0.4427083333333333,0.4425925925925926],[0.4427083333333333,0.4425925925925926],[0.4427083333333333,0.4425925925925926],[0.4427083333333333,0.4425925925925926],[0.440625,0.4425925925925926],[0.440625,0.4425925925925926],[0.440625,0.4425925925925926],[0.4395833333333333,0.44074074074074077],[0.4395833333333333,0.44074074074074077],[0.4395833333333333,0.44074074074074077],[0.4395833333333333,0.44074074074074077],[0.4395833333333333,0.44074074074074077],[0.43854166666666666,0.44074074074074077],[0.43854166666666666,0.44074074074074077],[0.43854166666666666,0.44074074074074077],[0.43854166666666666,0.44074074074074077],[0.4375,0.44074074074074077],[0.43645833333333334,0.44074074074074077],[0.43645833333333334,0.44074074074074077],[0.4354166666666667,0.44074074074074077],[0.4354166666666667,0.44074074074074077],[0.4354166666666667,0.44074074074074077],[0.4354166666666667,0.44074074074074077],[0.4354166666666667,0.44074074074074077],[0.4354166666666667,0.44074074074074077],[0.434375,0.44074074074074077],[0.43333333333333335,0.44074074074074077],[0.43333333333333335,0.44074074074074077],[0.43333333333333335,0.44074074074074077],[0.4322916666666667,0.44074074074074077],[0.4322916666666667,0.44074074074074077],[0.4322916666666667,0.44074074074074077],[0.43125,0.44074074074074077],[0.43125,0.44074074074074077],[0.43125,0.44074074074074077],[0.43020833333333336,0.44074074074074077],[0.42916666666666664,0.44074074074074077],[0.428125,0.44074074074074077],[0.428125,0.44074074074074077],[0.4270833333333333,0.44074074074074077],[0.42604166666666665,0.44074074074074077],[0.425,0.44074074074074077],[0.4239583333333333,0.44074074074074077],[0.421875,0.44074074074074077],[0.4166666666666667,0.44074074074074077],[0.41041666666666665,0.44074074074074077],[0.403125,0.44074074074074077],[0.390625,0.44074074074074077],[0.38645833333333335,0.44074074074074077],[0.375,0.44074074074074077],[0.3614583333333333,0.44074074074074077],[0.35,0.44074074074074077],[0.3385416666666667,0.44074074074074077],[0.3260416666666667,0.44074074074074077],[0.315625,0.4388888888888889],[0.30416666666666664,0.4351851851851852],[0.29583333333333334,0.43333333333333335],[0.2864583333333333,0.43148148148148147],[0.26875,0.42592592592592593],[0.26458333333333334,0.42407407407407405],[0.253125,0.4222222222222222],[0.240625,0.4166666666666667],[0.22708333333333333,0.40925925925925927],[0.215625,0.4],[0.19479166666666667,0.3925925925925926],[0.16979166666666667,0.3907407407407407],[0.13541666666666666,0.3907407407407407],[0.12395833333333334,0.3907407407407407],[0.096875,0.3907407407407407],[0.07083333333333333,0.3907407407407407],[0.042708333333333334,0.3907407407407407],[0.0375,0.3907407407407407],[0.023958333333333335,0.3907407407407407],[0.017708333333333333,0.3907407407407407],[0.015625,0.3907407407407407],[0.013541666666666667,0.3907407407407407],[0.011458333333333333,0.3907407407407407],[0.00625,0.3907407407407407],[0.0020833333333333333,0.3907407407407407],[-0.0010416666666666667,0.3925925925925926],[-0.004166666666666667,0.39444444444444443],[-0.008333333333333333,0.3962962962962963],[-0.013541666666666667,0.39814814814814814],[-0.013541666666666667,0.39814814814814814],[-0.015625,0.4],[-0.015625,0.4],[-0.015625,0.4],[-0.015625,0.4],[-0.015625,0.4],[-0.015625,0.4],[-0.015625,0.4],[-0.015625,0.4],[-0.015625,0.4],[-0.015625,0.4],[-0.015625,0.40185185185185185],[-0.009375,0.40370370370370373],[0.0020833333333333333,0.40370370370370373],[0.03125,0.40370370370370373],[0.05520833333333333,0.40370370370370373],[0.07708333333333334,0.40370370370370373],[0.09791666666666667,0.40370370370370373],[0.109375,0.40370370370370373],[0.115625,0.40370370370370373],[0.11770833333333333,0.40370370370370373],[0.11875,0.40370370370370373],[0.11875,0.40370370370370373],[0.11875,0.40370370370370373],[0.11875,0.40370370370370373],[0.11875,0.40370370370370373],[0.11875,0.40370370370370373],[0.11875,0.40370370370370373],[0.11875,0.40370370370370373],[0.11875,0.40370370370370373],[0.11875,0.40370370370370373],[0.11875,0.40370370370370373],[0.11875,0.40370370370370373],[0.11875,0.40370370370370373],[0.11875,0.40370370370370373],[0.11875,0.40370370370370373],[0.11875,0.40370370370370373],[0.11875,0.40370370370370373],[0.11875,0.40370370370370373],[0.11875,0.40370370370370373],[0.11875,0.40370370370370373],[0.11875,0.40370370370370373],[0.11875,0.40370370370370373],[0.11875,0.40370370370370373],[0.11875,0.40370370370370373],[0.11875,0.40370370370370373],[0.11875,0.40370370370370373],[0.11875,0.40370370370370373],[0.11875,0.40370370370370373],[0.11875,0.40370370370370373],[0.11875,0.40370370370370373],[0.11875,0.40370370370370373],[0.11875,0.40370370370370373],[0.11875,0.40370370370370373],[0.11875,0.40370370370370373],[0.11875,0.40370370370370373],[0.11875,0.40370370370370373],[0.11875,0.40370370370370373],[0.11875,0.40370370370370373],[0.11875,0.40370370370370373],[0.11875,0.40370370370370373],[0.11875,0.40370370370370373],[0.11875,0.40370370370370373],[0.11875,0.40370370370370373],[0.11875,0.40370370370370373],[0.11875,0.40370370370370373],[0.11875,0.40370370370370373],[0.11875,0.40370370370370373],[0.11875,0.40370370370370373],[0.11875,0.40370370370370373],[0.11875,0.40370370370370373],[0.11875,0.40370370370370373],[0.11875,0.40370370370370373],[0.11875,0.40370370370370373],[0.11875,0.40370370370370373],[0.11875,0.40370370370370373],[0.11875,0.40370370370370373],[0.11875,0.40370370370370373],[0.12291666666666666,0.40370370370370373],[0.128125,0.40370370370370373],[0.13541666666666666,0.40370370370370373],[0.14166666666666666,0.40370370370370373],[0.15104166666666666,0.40370370370370373],[0.159375,0.40370370370370373],[0.165625,0.4074074074074074],[0.16875,0.4074074074074074],[0.16979166666666667,0.4074074074074074],[0.16979166666666667,0.4074074074074074],[0.16979166666666667,0.4074074074074074],[0.16979166666666667,0.4074074074074074],[0.16979166666666667,0.4074074074074074],[0.16979166666666667,0.4074074074074074],[0.16979166666666667,0.4074074074074074],[0.16979166666666667,0.4074074074074074],[0.16979166666666667,0.4074074074074074],[0.16979166666666667,0.4074074074074074]]","[[0.03677083333333329,-0.01185185185185181],[0.03677083333333329,-0.01185185185185181],[0.027187500000000024,0.000925925925925926],[0.04031250000000005,-0.0198148148148149],[0.02520833333333338,-0.008703703703703788],[0.021249999999999977,0.01314814814814819],[0.03739583333333331,0.01444444444444436],[0.035208333333333286,0.0025925925925925505],[0.013333333333333286,-0.004444444444444402],[0.005104166666666643,-0.03037037037037033],[-0.010312499999999976,-0.06555555555555552],[0.026979166666666644,-0.03092592592592601],[0.051770833333333384,-0.07314814814814814],[0.05562499999999997,-0.06759259259259259],[0.05562499999999997,-0.06759259259259259],[0.07072916666666676,-0.11500000000000005],[0.08822916666666672,-0.13185185185185183],[0.08479166666666677,-0.14888888888888885],[0.08302083333333338,-0.14314814814814816],[0.08510416666666672,-0.16500000000000004],[0.08156249999999995,-0.18277777777777776],[0.0806250000000001,-0.20851851851851855],[0.049270833333333285,-0.2783333333333334],[0.022812499999999975,-0.3359259259259259],[0.019895833333333356,-0.37296296296296294],[0.002499999999999976,-0.38425925925925924],[-0.012916666666666642,-0.422037037037037],[-0.020833333333333332,-0.4468518518518519],[-0.012083333333333357,-0.4888888888888889],[-0.052083333333333336,-0.5787037037037037],[-0.052083333333333336,-0.5787037037037037],[-0.10895833333333335,-0.6131481481481482],[-0.15270833333333336,-0.6231481481481481],[-0.19364583333333332,-0.642962962962963],[-0.21447916666666664,-0.665],[-0.26802083333333326,-0.6996296296296296],[-0.28666666666666674,-0.7785185185185185],[-0.3232291666666666,-0.8438888888888889],[-0.3619791666666667,-0.9075925925925926],[-0.4111458333333334,-0.9724074074074075],[-0.4032291666666667,-0.9729629629629629],[-0.3862499999999999,-0.9827777777777779],[-0.3929166666666667,-1.042962962962963],[-0.39343750000000005,-1.0907407407407408],[-0.4257291666666667,-1.0475925925925926],[-0.41281249999999997,-1.037962962962963],[-0.4110416666666667,-0.9877777777777778],[-0.43854166666666666,-0.9203703703703704],[-0.42239583333333336,-0.7924074074074073],[-0.4234375,-0.6637037037037037],[-0.4234375,-0.6637037037037037],[-0.41510416666666666,-0.6137037037037036],[-0.4209375,-0.5018518518518519],[-0.40291666666666665,-0.4207407407407407],[-0.38645833333333335,-0.2603703703703704],[-0.38645833333333335,-0.2603703703703704],[-0.3663541666666667,-0.25703703703703706],[-0.36625,-0.22481481481481477],[-0.3758333333333333,-0.20537037037037034],[-0.3758333333333333,-0.20537037037037034],[-0.3416666666666667,-0.21740740740740735],[-0.3651041666666667,-0.29518518518518516],[-0.36520833333333336,-0.3461111111111111],[-0.37312500000000004,-0.32703703703703707],[-0.365,-0.38],[-0.36479166666666674,-0.3705555555555556],[-0.36906249999999996,-0.41944444444444445],[-0.3544791666666666,-0.38796296296296295],[-0.35187499999999994,-0.3675925925925926],[-0.325,-0.35037037037037033],[-0.3016666666666667,-0.28129629629629627],[-0.2508333333333333,-0.2640740740740741],[-0.2508333333333333,-0.2640740740740741],[-0.1796875,-0.22037037037037038],[-0.11010416666666671,-0.2212962962962963],[-0.051874999999999956,-0.17314814814814813],[-0.008124999999999953,-0.20055555555555557],[0.06156250000000003,-0.16777777777777783],[0.11395833333333343,-0.2242592592592593],[0.1865624999999999,-0.192037037037037],[0.22697916666666676,-0.21222222222222226],[0.2677083333333333,-0.21222222222222226],[0.27625000000000005,-0.192037037037037],[0.2694791666666667,-0.20481481481481487],[0.24770833333333328,-0.17962962962962964],[0.24770833333333328,-0.17962962962962964],[0.26375000000000004,-0.1814814814814815],[0.2904166666666666,-0.14574074074074073],[0.30104166666666665,-0.18277777777777776],[0.33447916666666655,-0.14648148148148152],[0.34739583333333335,-0.16518518518518516],[0.3576041666666666,-0.19185185185185188],[0.38916666666666655,-0.21388888888888888],[0.42000000000000004,-0.20999999999999996],[0.46687500000000004,-0.19370370370370374],[0.46687500000000004,-0.19370370370370374],[0.5193749999999999,-0.17907407407407405],[0.5412499999999999,-0.2257407407407407],[0.5339583333333332,-0.19296296296296295],[0.5608333333333334,-0.24259259259259258],[0.5622916666666666,-0.24500000000000002],[0.5507291666666667,-0.2748148148148148],[0.5751041666666665,-0.252962962962963],[0.5481250000000001,-0.2953703703703704],[0.5651041666666666,-0.3551851851851852],[0.5352083333333333,-0.4383333333333333],[0.5444791666666667,-0.5144444444444445],[0.5457291666666667,-0.5496296296296297],[0.5930208333333333,-0.6033333333333334],[0.5745833333333332,-0.5898148148148148],[0.5839583333333332,-0.55],[0.6045833333333335,-0.5059259259259259],[0.6008333333333333,-0.4457407407407407],[0.62,-0.3979629629629629],[0.6320833333333333,-0.2935185185185185],[0.6653125000000001,-0.24722222222222223],[0.6548958333333333,-0.19185185185185188],[0.6330208333333334,-0.12092592592592595],[0.6015625,-0.08055555555555556],[0.6015625,-0.08055555555555556],[0.5764583333333334,-0.028518518518518478],[0.5783333333333334,-0.05722222222222218],[0.5802083333333333,-0.08592592592592588],[0.6092708333333334,-0.07037037037037037],[0.6341666666666667,-0.04055555555555551],[0.5605208333333332,-0.11685185185185189],[0.5153125000000001,-0.1368518518518518],[0.4895833333333333,-0.18370370370370367],[0.47062499999999996,-0.19666666666666666],[0.4428124999999999,-0.20777777777777776],[0.43635416666666677,-0.22370370370370374],[0.4021874999999999,-0.23592592592592587],[0.3549999999999999,-0.22444444444444442],[0.28145833333333337,-0.2561111111111111],[0.28145833333333337,-0.2561111111111111],[0.2150000000000001,-0.2942592592592592],[0.2150000000000001,-0.2942592592592592],[0.22166666666666662,-0.2614814814814815],[0.21281249999999996,-0.21944444444444444],[0.19989583333333344,-0.15833333333333333],[0.19947916666666668,-0.1272222222222222],[0.1990624999999999,-0.09611111111111106],[0.15197916666666675,-0.09592592592592594],[0.09489583333333323,-0.0794444444444444],[0.022916666666666665,-0.05851851851851856],[-0.04614583333333329,-0.056296296296296254],[-0.06906249999999996,-0.03092592592592601],[-0.08760416666666669,-0.009814814814814731],[-0.08760416666666669,-0.009814814814814731],[-0.13354166666666673,-0.010925925925925884],[-0.13354166666666673,-0.010925925925925884],[-0.13635416666666664,0.017592592592592594],[-0.1397916666666667,-0.0001851851851852273],[-0.18458333333333338,-0.025],[-0.15208333333333332,0.006666666666666709],[-0.11583333333333339,0.04611111111111107],[-0.06166666666666672,0.03462962962962971],[-0.001145833333333357,0.09648148148148153],[0.03718750000000005,0.0705555555555556],[0.08010416666666677,0.11518518518518527],[0.13020833333333334,0.10629629629629625],[0.15302083333333344,0.08055555555555556],[0.19322916666666667,0.055000000000000084],[0.26614583333333336,0.08129629629629626],[0.2747916666666666,0.06388888888888888],[0.2838541666666667,0.069074074074074],[0.3116666666666667,0.06481481481481481],[0.34833333333333344,0.05333333333333325],[0.3607291666666666,0.07370370370370362],[0.36041666666666666,0.03037037037037033],[0.36041666666666666,0.03037037037037033],[0.3802083333333333,0.03092592592592601],[0.3780208333333334,0.037037037037037035],[0.38291666666666657,0.07851851851851847],[0.38291666666666657,0.07851851851851847],[0.38697916666666665,0.08777777777777773],[0.39989583333333345,0.09407407407407399],[0.41520833333333323,0.07888888888888893],[0.4076041666666666,0.09037037037037028],[0.37520833333333337,0.06185185185185181],[0.3334374999999999,0.05222222222222231],[0.31927083333333334,0.0418518518518519],[0.2686458333333334,0.08592592592592588],[0.2419791666666666,0.03740740740740749],[0.20145833333333343,0.020370370370370372],[0.18885416666666663,0.007407407407407408],[0.1556250000000001,-0.01629629629629621],[0.14020833333333324,-0.02907407407407416],[0.16416666666666657,-0.08111111111111113],[0.18937499999999996,-0.11425925925925924],[0.2375,-0.13444444444444448],[0.24552083333333338,-0.16055555555555553],[0.28395833333333326,-0.2366666666666667],[0.28395833333333326,-0.2366666666666667],[0.30458333333333343,-0.23851851851851855],[0.2595833333333334,-0.25925925925925924],[0.1961458333333333,-0.29666666666666663],[0.2163541666666667,-0.3007407407407407],[0.24416666666666675,-0.31722222222222224],[0.20947916666666658,-0.2927777777777778],[0.18468749999999995,-0.3140740740740741],[0.13270833333333343,-0.3212962962962963],[0.1345833333333334,-0.32537037037037037],[0.11083333333333342,-0.2959259259259259],[0.059375,-0.2581481481481481],[0.059375,-0.2581481481481481],[0.06895833333333339,-0.225],[0.10614583333333343,-0.255],[0.10614583333333343,-0.255],[0.09302083333333329,-0.19500000000000003],[0.05479166666666669,-0.22851851851851848],[0.06666666666666667,-0.222037037037037],[0.02822916666666669,-0.2044444444444444],[0.029062499999999977,-0.20407407407407405],[-0.012395833333333309,-0.18314814814814812],[0.018229166666666668,-0.21277777777777773],[0.1,-0.2903703703703704],[0.16239583333333343,-0.3244444444444444],[0.19958333333333325,-0.30777777777777776],[0.20520833333333333,-0.37648148148148153],[0.21802083333333327,-0.387037037037037],[0.20010416666666658,-0.3814814814814815],[0.23010416666666675,-0.37],[0.22239583333333332,-0.35833333333333334],[0.22239583333333332,-0.35833333333333334],[0.24364583333333342,-0.42388888888888887],[0.18718750000000003,-0.3905555555555555],[0.16833333333333325,-0.3562962962962963],[0.09343750000000005,-0.29203703703703704],[0.06104166666666669,-0.2698148148148148],[0.075,-0.2831481481481481],[0.08093750000000005,-0.2825925925925926],[0.08552083333333324,-0.34333333333333327],[0.10437500000000005,-0.38203703703703706],[0.14364583333333342,-0.3955555555555556],[0.1929166666666667,-0.377962962962963],[0.2287499999999999,-0.42111111111111105],[0.21135416666666676,-0.41500000000000004],[0.24812500000000004,-0.5068518518518518],[0.24083333333333337,-0.5564814814814815],[0.246875,-0.48759259259259263],[0.2349999999999999,-0.43796296296296294],[0.2453125,-0.3531481481481481],[0.2430208333333333,-0.3464814814814815],[0.22645833333333343,-0.2614814814814815],[0.20010416666666658,-0.2257407407407407],[0.20729166666666668,-0.1714814814814815],[0.20979166666666677,-0.1853703703703704],[0.21208333333333323,-0.12611111111111115],[0.21229166666666663,-0.07314814814814814],[0.1977083333333333,-0.09074074074074075],[0.1977083333333333,-0.09074074074074075],[0.21864583333333343,-0.15981481481481483],[0.25322916666666656,-0.21388888888888888],[0.26885416666666656,-0.2111111111111111],[0.2778125000000001,-0.27759259259259256],[0.2837500000000001,-0.290925925925926],[0.2933333333333332,-0.29611111111111105],[0.28760416666666655,-0.29259259259259257],[0.28760416666666655,-0.29259259259259257],[0.32041666666666657,-0.33648148148148144],[0.40166666666666656,-0.3712962962962963],[0.4712500000000001,-0.38925925925925925],[0.4712500000000001,-0.38925925925925925],[0.49760416666666674,-0.33722222222222226],[0.5094791666666666,-0.31740740740740736],[0.5334374999999999,-0.29611111111111105],[0.5839583333333332,-0.27462962962962967],[0.6422916666666666,-0.2183333333333333],[0.6429166666666667,-0.14314814814814816],[0.6622916666666666,0.03092592592592601],[0.6478125000000001,0.21425925925925934],[0.6478125000000001,0.21425925925925934],[0.6262500000000001,0.18574074074074065],[0.6151041666666667,0.12185185185185177],[0.6089583333333333,0.11481481481481481],[0.5622916666666666,0.06462962962962959],[0.5129166666666668,0.03185185185185194],[0.48499999999999993,-0.03888888888888889],[0.44656250000000003,-0.11777777777777781],[0.44656250000000003,-0.11777777777777781],[0.4747916666666666,-0.2796296296296296],[0.5120833333333332,-0.45314814814814813],[0.5107291666666666,-0.645],[0.4857291666666666,-0.6501851851851852],[0.46072916666666663,-0.6553703703703704],[0.4804166666666667,-0.675],[0.4804166666666667,-0.675],[0.47854166666666675,-0.6577777777777778],[0.5150000000000001,-0.625],[0.46427083333333335,-0.617037037037037],[0.43302083333333335,-0.6118518518518518],[0.39656250000000004,-0.5887037037037036],[0.36739583333333337,-0.5914814814814814],[0.36739583333333337,-0.5914814814814814],[0.37770833333333326,-0.5618518518518518],[0.37135416666666665,-0.5346296296296296],[0.3318749999999999,-0.4764814814814815],[0.2977083333333333,-0.4455555555555556],[0.2977083333333333,-0.4455555555555556],[0.3138541666666666,-0.44722222222222224],[0.259375,-0.5014814814814815],[0.25416666666666665,-0.5498148148148148],[0.21375000000000005,-0.5859259259259259],[0.19656250000000006,-0.5472222222222223],[0.19656250000000006,-0.5472222222222223],[0.18333333333333332,-0.5807407407407408],[0.16510416666666666,-0.5996296296296296],[0.13250000000000003,-0.5946296296296296],[0.13250000000000003,-0.5946296296296296],[0.13135416666666658,-0.6520370370370371],[0.10072916666666672,-0.633888888888889],[0.07447916666666667,-0.612037037037037],[0.07447916666666667,-0.612037037037037],[0.10447916666666662,-0.5803703703703703],[0.15656249999999997,-0.5325925925925926],[0.21572916666666658,-0.46648148148148144],[0.21572916666666658,-0.46648148148148144],[0.22604166666666667,-0.46407407407407414],[0.1955208333333334,-0.42666666666666664],[0.24562499999999995,-0.43555555555555553],[0.26114583333333335,-0.41],[0.2613541666666668,-0.3844444444444445],[0.2556250000000001,-0.4348148148148148],[0.2673958333333334,-0.47388888888888886],[0.2631249999999999,-0.5053703703703704],[0.26020833333333326,-0.4801851851851852],[0.23770833333333338,-0.4733333333333334],[0.23916666666666658,-0.5062962962962962],[0.23916666666666658,-0.5062962962962962],[0.27364583333333337,-0.44000000000000006],[0.22614583333333324,-0.4264814814814815],[0.215625,-0.3737037037037037],[0.21281249999999996,-0.32333333333333336],[0.22531249999999994,-0.28703703703703703],[0.2025000000000001,-0.22481481481481477],[0.1898958333333333,-0.16629629629629633],[0.1638541666666666,-0.1566666666666667],[0.14729166666666677,-0.15092592592592594],[0.13624999999999995,-0.10703703703703706],[0.13624999999999995,-0.10703703703703706],[0.10968749999999995,-0.1507407407407407],[0.09041666666666662,-0.12777777777777777],[0.10260416666666666,-0.16444444444444448],[0.08854166666666667,-0.17037037037037037],[0.06312500000000003,-0.17759259259259255],[0.1146874999999999,-0.16962962962962966],[0.1146874999999999,-0.16962962962962966],[0.14479166666666668,-0.19092592592592597],[0.18072916666666666,-0.19759259259259257],[0.18072916666666666,-0.19759259259259257],[0.1798958333333334,-0.19425925925925921],[0.1798958333333334,-0.19425925925925921],[0.16864583333333344,-0.225],[0.175,-0.2146296296296296],[0.18479166666666677,-0.24518518518518514],[0.16614583333333333,-0.2616666666666667],[0.18125,-0.2655555555555555],[0.1884375000000001,-0.24351851851851852],[0.1884375000000001,-0.24351851851851852],[0.1701041666666666,-0.2712962962962963],[0.13427083333333342,-0.22851851851851848],[0.08624999999999995,-0.21703703703703703],[0.10739583333333323,-0.15851851851851856],[0.11593749999999996,-0.13944444444444445],[0.11281249999999995,-0.10314814814814813],[0.10374999999999991,-0.07074074074074072],[0.10625,-0.06018518518518518],[0.10927083333333343,-0.13574074074074077],[0.14104166666666676,-0.15648148148148147],[0.14364583333333342,-0.1794444444444444],[0.16375000000000003,-0.2168518518518519],[0.15822916666666675,-0.19388888888888886],[0.14354166666666662,-0.2227777777777778],[0.15510416666666677,-0.21796296296296294],[0.15270833333333325,-0.2531481481481481],[0.13802083333333334,-0.267037037037037],[0.11885416666666657,-0.28481481481481485],[0.10833333333333334,-0.20722222222222217],[0.07302083333333324,-0.19500000000000003],[0.07302083333333324,-0.19500000000000003],[0.041562499999999974,-0.17999999999999997],[0.03885416666666662,-0.13407407407407404],[0.03718750000000005,-0.18222222222222217],[0.024270833333333287,-0.24277777777777781],[0.024270833333333287,-0.24277777777777781],[0.011666666666666714,-0.26222222222222225],[-0.00791666666666669,-0.2718518518518519],[0.007083333333333286,-0.2740740740740741],[0.008124999999999953,-0.317037037037037],[0.005624999999999976,-0.397037037037037],[0.009375,-0.4542592592592593],[-0.009895833333333333,-0.4903703703703704],[-0.035416666666666666,-0.5770370370370371],[-0.035416666666666666,-0.5770370370370371],[-0.053125,-0.6116666666666667],[-0.06291666666666665,-0.6301851851851852],[-0.0921875,-0.6605555555555556],[-0.07958333333333331,-0.6918518518518519],[-0.09874999999999995,-0.7068518518518518],[-0.09010416666666667,-0.6733333333333333],[-0.10020833333333339,-0.642962962962963],[-0.09041666666666662,-0.6174074074074074],[-0.07135416666666666,-0.5631481481481482],[-0.05541666666666671,-0.5588888888888889],[-0.03937499999999995,-0.5548148148148149],[-0.02645833333333331,-0.524074074074074],[-0.0013541666666666192,-0.5157407407407407],[-0.012812499999999952,-0.4318518518518518],[0.014687500000000023,-0.3683333333333333],[0.01552083333333331,-0.29666666666666663],[0.10031249999999996,-0.18185185185185182],[0.14510416666666662,-0.07537037037037035],[0.14510416666666662,-0.07537037037037035],[0.16822916666666668,-0.10259259259259255],[0.17020833333333343,-0.12777777777777777],[0.17291666666666666,-0.11814814814814817],[0.17437500000000009,-0.15407407407407406],[0.17239583333333333,-0.1359259259259259],[0.19197916666666662,-0.24407407407407408],[0.19197916666666662,-0.24407407407407408],[0.17114583333333327,-0.31370370370370365],[0.18854166666666666,-0.4270370370370371],[0.12708333333333333,-0.5503703703703704],[0.09427083333333333,-0.6488888888888888]]","[[0.03677083333333329,-0.01185185185185181,0.0002000000029909188],[0.03677083333333329,-0.01185185185185181,0.05029999999702284],[0.027187500000000024,0.000925925925925926,0.056100000001492845],[0.04031250000000005,-0.0198148148148149,0.07450000000000045],[0.02520833333333338,-0.008703703703703788,0.0905000000000058],[0.021249999999999977,0.01314814814814819,0.10839999999851102],[0.03739583333333331,0.01444444444444436,0.12289999999852341],[0.035208333333333286,0.0025925925925925505,0.1392000000029867],[0.013333333333333286,-0.004444444444444402,0.15800000000000125],[0.005104166666666643,-0.03037037037037033,0.17250000000001364],[-0.010312499999999976,-0.06555555555555552,0.18920000000298387],[0.026979166666666644,-0.03092592592592601,0.2071000000015033],[0.051770833333333384,-0.07314814814814814,0.22279999999702227],[0.05562499999999997,-0.06759259259259259,0.2421000000014999],[0.05562499999999997,-0.06759259259259259,0.2560000000000002],[0.07072916666666676,-0.11500000000000005,0.27250000000000796],[0.08822916666666672,-0.13185185185185183,0.2892000000029924],[0.08479166666666677,-0.14888888888888885,0.30589999999851614],[0.08302083333333338,-0.14314814814814816,0.32479999999702613],[0.08510416666666672,-0.16500000000000004,0.33920000000298955],[0.08156249999999995,-0.18277777777777776,0.3558999999985133],[0.0806250000000001,-0.20851851851851855,0.3725000000000023],[0.049270833333333285,-0.2783333333333334,0.3892000000029867],[0.022812499999999975,-0.3359259259259259,0.40829999999702693],[0.019895833333333356,-0.37296296296296294,0.4227999999970251],[0.002499999999999976,-0.38425925925925924,0.43920000000298387],[-0.012916666666666642,-0.422037037037037,0.4558999999985218],[-0.020833333333333332,-0.4468518518518519,0.47260000000149205],[-0.012083333333333357,-0.4888888888888889,0.4911000000014951],[-0.052083333333333336,-0.5787037037037037,0.5075000000000074],[-0.052083333333333336,-0.5787037037037037,0.5226000000015034],[-0.10895833333333335,-0.6131481481481482,0.5391000000014969],[-0.15270833333333336,-0.6231481481481481,0.5558999999985161],[-0.19364583333333332,-0.642962962962963,0.5748999999985216],[-0.21447916666666664,-0.665,0.5892000000029896],[-0.26802083333333326,-0.6996296296296296,0.6060000000000088],[-0.28666666666666674,-0.7785185185185185,0.6225000000000023],[-0.3232291666666666,-0.8438888888888889,0.6392000000029867],[-0.3619791666666667,-0.9075925925925926,0.6582999999970269],[-0.4111458333333334,-0.9724074074074075,0.6725000000000136],[-0.4032291666666667,-0.9729629629629629,0.6892000000029839],[-0.3862499999999999,-0.9827777777777779,0.7058999999985218],[-0.3929166666666667,-1.042962962962963,0.7225000000000108],[-0.39343750000000005,-1.0907407407407408,0.7412000000029906],[-0.4257291666666667,-1.0475925925925926,0.755899999998519],[-0.41281249999999997,-1.037962962962963,0.7726000000015034],[-0.4110416666666667,-0.9877777777777778,0.7892000000029924],[-0.43854166666666666,-0.9203703703703704,0.8062000000029883],[-0.42239583333333336,-0.7924074074074073,0.8252000000029938],[-0.4234375,-0.6637037037037037,0.8392999999970243],[-0.4234375,-0.6637037037037037,0.8560000000000088],[-0.41510416666666666,-0.6137037037037036,0.8726000000014977],[-0.4209375,-0.5018518518518519,0.8892000000029867],[-0.40291666666666665,-0.4207407407407407,0.9085000000000036],[-0.38645833333333335,-0.2603703703703704,0.9226000000014949],[-0.38645833333333335,-0.2603703703703704,0.9392000000029839],[-0.3663541666666667,-0.25703703703703706,0.9560000000000031],[-0.36625,-0.22481481481481477,0.972600000001492],[-0.3758333333333333,-0.20537037037037034,0.9927999999970325],[-0.3758333333333333,-0.20537037037037034,1.0057999999970235],[-0.3416666666666667,-0.21740740740740735,1.0226000000015034],[-0.3651041666666667,-0.29518518518518516,1.0392000000029924],[-0.36520833333333336,-0.3461111111111111,1.0557999999970207],[-0.37312500000000004,-0.32703703703703707,1.074600000001496],[-0.365,-0.38,1.089100000001494],[-0.36479166666666674,-0.3705555555555556,1.1090000000000089],[-0.36906249999999996,-0.41944444444444445,1.1241000000014907],[-0.3544791666666666,-0.38796296296296295,1.1392000000029867],[-0.35187499999999994,-0.3675925925925926,1.1577000000029898],[-0.325,-0.35037037037037033,1.1725000000000136],[-0.3016666666666667,-0.28129629629629627,1.1892000000029839],[-0.2508333333333333,-0.2640740740740741,1.2076000000014915],[-0.2508333333333333,-0.2640740740740741,1.2227999999970223],[-0.1796875,-0.22037037037037038,1.23929999999703],[-0.11010416666666671,-0.2212962962962963,1.255899999998519],[-0.051874999999999956,-0.17314814814814813,1.272500000000008],[-0.008124999999999953,-0.20055555555555557,1.2892000000029924],[0.06156250000000003,-0.16777777777777783,1.3058999999985161],[0.11395833333333343,-0.2242592592592593,1.3255000000000052],[0.1865624999999999,-0.192037037037037,1.3393999999985198],[0.22697916666666676,-0.21222222222222226,1.3558999999985133],[0.2677083333333333,-0.21222222222222226,1.3726000000014977],[0.27625000000000005,-0.192037037037037,1.3892000000029867],[0.2694791666666667,-0.20481481481481487,1.4091000000015015],[0.24770833333333328,-0.17962962962962964,1.4246000000014902],[0.24770833333333328,-0.17962962962962964,1.4391000000015026],[0.26375000000000004,-0.1814814814814815,1.4558999999985218],[0.2904166666666666,-0.14574074074074073,1.4725000000000108],[0.30104166666666665,-0.18277777777777776,1.4912000000029906],[0.33447916666666655,-0.14648148148148152,1.5068999999985095],[0.34739583333333335,-0.16518518518518516,1.525899999998515],[0.3576041666666666,-0.19185185185185188,1.5397000000029806],[0.38916666666666655,-0.21388888888888888,1.5558999999985161],[0.42000000000000004,-0.20999999999999996,1.574600000001496],[0.46687500000000004,-0.19370370370370374,1.5892000000029896],[0.46687500000000004,-0.19370370370370374,1.6058999999985133],[0.5193749999999999,-0.17907407407407405,1.6225000000000023],[0.5412499999999999,-0.2257407407407407,1.6392000000029867],[0.5339583333333332,-0.19296296296296295,1.6583999999985224],[0.5608333333333334,-0.24259259259259258,1.672600000001495],[0.5622916666666666,-0.24500000000000002,1.6892000000029839],[0.5507291666666667,-0.2748148148148148,1.7068999999985124],[0.5751041666666665,-0.252962962962963,1.722600000001492],[0.5481250000000001,-0.2953703703703704,1.741500000000002],[0.5651041666666666,-0.3551851851851852,1.7571000000015005],[0.5352083333333333,-0.4383333333333333,1.772500000000008],[0.5444791666666667,-0.5144444444444445,1.7906000000014899],[0.5457291666666667,-0.5496296296296297,1.8100000000000023],[0.5930208333333333,-0.6033333333333334,1.8247000000029914],[0.5745833333333332,-0.5898148148148148,1.8392000000029896],[0.5839583333333332,-0.55,1.855799999997032],[0.6045833333333335,-0.5059259259259259,1.8730000000000047],[0.6008333333333333,-0.4457407407407407,1.8892000000029867],[0.62,-0.3979629629629629,1.9085000000000036],[0.6320833333333333,-0.2935185185185185,1.9225000000000136],[0.6653125000000001,-0.24722222222222223,1.9391000000015026],[0.6548958333333333,-0.19185185185185188,1.9557999999970264],[0.6330208333333334,-0.12092592592592595,1.972600000001492],[0.6015625,-0.08055555555555556,1.9937000000029883],[0.6015625,-0.08055555555555556,2.0060000000000002],[0.5764583333333334,-0.028518518518518478,2.022500000000008],[0.5783333333333334,-0.05722222222222218,2.0401000000015017],[0.5802083333333333,-0.08592592592592588,2.055899999998516],[0.6092708333333334,-0.07037037037037037,2.074799999997026],[0.6341666666666667,-0.04055555555555551,2.090299999997029],[0.5605208333333332,-0.11685185185185189,2.1082999999970298],[0.5153125000000001,-0.1368518518518518,2.1230000000000047],[0.4895833333333333,-0.18370370370370367,2.1392000000029867],[0.47062499999999996,-0.19666666666666666,2.1580000000000013],[0.4428124999999999,-0.20777777777777776,2.172799999997025],[0.43635416666666677,-0.22370370370370374,2.1891000000015026],[0.4021874999999999,-0.23592592592592587,2.208100000001494],[0.3549999999999999,-0.22444444444444442,2.223000000000013],[0.28145833333333337,-0.2561111111111111,2.2439999999999998],[0.28145833333333337,-0.2561111111111111,2.2560000000000002],[0.2150000000000001,-0.2942592592592592,2.272899999998515],[0.2150000000000001,-0.2942592592592592,2.2893999999985226],[0.22166666666666662,-0.2614814814814815,2.3100000000000023],[0.21281249999999996,-0.21944444444444444,2.324399999998519],[0.19989583333333344,-0.15833333333333333,2.3392999999970243],[0.19947916666666668,-0.1272222222222222,2.3560000000000088],[0.1990624999999999,-0.09611111111111106,2.374200000002986],[0.15197916666666675,-0.09592592592592594,2.389399999998517],[0.09489583333333323,-0.0794444444444444,2.4080000000000013],[0.022916666666666665,-0.05851851851851856,2.4227000000029904],[-0.04614583333333329,-0.056296296296296254,2.4412000000029934],[-0.06906249999999996,-0.03092592592592601,2.4565000000000055],[-0.08760416666666669,-0.009814814814814731,2.4727000000029875],[-0.08760416666666669,-0.009814814814814731,2.4893999999985112],[-0.13354166666666673,-0.010925925925925884,2.507700000002984],[-0.13354166666666673,-0.010925925925925884,2.522500000000008],[-0.13635416666666664,0.017592592592592594,2.5392000000029924],[-0.1397916666666667,-0.0001851851851852273,2.5557999999970207],[-0.18458333333333338,-0.025,2.5753999999985098],[-0.15208333333333332,0.006666666666666709,2.590299999997029],[-0.11583333333333339,0.04611111111111107,2.608399999998511],[-0.06166666666666672,0.03462962962962971,2.6225000000000023],[-0.001145833333333357,0.09648148148148153,2.6391000000014913],[0.03718750000000005,0.0705555555555556,2.6581000000014967],[0.08010416666666677,0.11518518518518527,2.6725000000000136],[0.13020833333333334,0.10629629629629625,2.6891000000015026],[0.15302083333333344,0.08055555555555556,2.707000000000008],[0.19322916666666667,0.055000000000000084,2.7227000000029875],[0.26614583333333336,0.08129629629629626,2.7412999999970253],[0.2747916666666666,0.06388888888888888,2.755899999998519],[0.2838541666666667,0.069074074074074,2.7726000000015034],[0.3116666666666667,0.06481481481481481,2.7892000000029924],[0.34833333333333344,0.05333333333333325,2.8057999999970207],[0.3607291666666666,0.07370370370370362,2.8252999999970285],[0.36041666666666666,0.03037037037037033,2.8408999999985127],[0.36041666666666666,0.03037037037037033,2.8560000000000088],[0.3802083333333333,0.03092592592592601,2.8725000000000023],[0.3780208333333334,0.037037037037037035,2.8892999999970215],[0.38291666666666657,0.07851851851851847,2.9095000000000084],[0.38291666666666657,0.07851851851851847,2.9227000000029904],[0.38697916666666665,0.08777777777777773,2.9395000000000095],[0.39989583333333345,0.09407407407407399,2.956000000000003],[0.41520833333333323,0.07888888888888893,2.977399999998511],[0.4076041666666666,0.09037037037037028,2.9927999999970325],[0.37520833333333337,0.06185185185185181,3.007399999998512],[0.3334374999999999,0.05222222222222231,3.0253999999985126],[0.31927083333333334,0.0418518518518519,3.039500000000004],[0.2686458333333334,0.08592592592592588,3.0560000000000116],[0.2419791666666666,0.03740740740740749,3.0762000000029843],[0.20145833333333343,0.020370370370370372,3.0903999999985103],[0.18885416666666663,0.007407407407407408,3.107600000001497],[0.1556250000000001,-0.01629629629629621,3.122700000002993],[0.14020833333333324,-0.02907407407407416,3.144200000002982],[0.16416666666666657,-0.08111111111111113,3.15789999999852],[0.18937499999999996,-0.11425925925925924,3.1727000000029904],[0.2375,-0.13444444444444448,3.1925000000000097],[0.24552083333333338,-0.16055555555555553,3.2072000000029846],[0.28395833333333326,-0.2366666666666667,3.2228999999985177],[0.28395833333333326,-0.2366666666666667,3.23929999999703],[0.30458333333333343,-0.23851851851851855,3.257600000001503],[0.2595833333333334,-0.25925925925925924,3.2726000000015034],[0.1961458333333333,-0.29666666666666663,3.2893999999985226],[0.2163541666666667,-0.3007407407407407,3.3060000000000116],[0.24416666666666675,-0.31722222222222224,3.3252000000029938],[0.20947916666666658,-0.2927777777777778,3.3392000000029896],[0.18468749999999995,-0.3140740740740741,3.3560000000000088],[0.13270833333333343,-0.3212962962962963,3.3725000000000023],[0.1345833333333334,-0.32537037037037037,3.3892000000029867],[0.11083333333333342,-0.2959259259259259,3.4091000000015015],[0.059375,-0.2581481481481481,3.4247999999970204],[0.059375,-0.2581481481481481,3.439200000002984],[0.06895833333333339,-0.225,3.455899999998522],[0.10614583333333343,-0.255,3.472500000000011],[0.10614583333333343,-0.255,3.489200000002981],[0.09302083333333329,-0.19500000000000003,3.5057999999970235],[0.05479166666666669,-0.22851851851851848,3.522500000000008],[0.06666666666666667,-0.222037037037037,3.5392000000029924],[0.02822916666666669,-0.2044444444444444,3.5557999999970207],[0.029062499999999977,-0.20407407407407405,3.5745000000000005],[-0.012395833333333309,-0.18314814814814812,3.5932000000029802],[0.018229166666666668,-0.21277777777777773,3.609000000000009],[0.1,-0.2903703703703704,3.6231000000015],[0.16239583333333343,-0.3244444444444444,3.6391000000014913],[0.19958333333333325,-0.30777777777777776,3.6581000000014967],[0.20520833333333333,-0.37648148148148153,3.672399999998518],[0.21802083333333327,-0.387037037037037,3.692799999997021],[0.20010416666666658,-0.3814814814814815,3.7082000000029893],[0.23010416666666675,-0.37,3.723799999997027],[0.22239583333333332,-0.35833333333333334,3.743600000001493],[0.22239583333333332,-0.35833333333333334,3.7557999999970235],[0.24364583333333342,-0.42388888888888887,3.772500000000008],[0.18718750000000003,-0.3905555555555555,3.7897999999970295],[0.16833333333333325,-0.3562962962962963,3.8057999999970207],[0.09343750000000005,-0.29203703703703704,3.825000000000003],[0.06104166666666669,-0.2698148148148148,3.8396000000014965],[0.075,-0.2831481481481481,3.855799999997032],[0.08093750000000005,-0.2825925925925926,3.8725000000000023],[0.08552083333333324,-0.34333333333333327,3.8891000000014913],[0.10437500000000005,-0.38203703703703706,3.9080000000000013],[0.14364583333333342,-0.3955555555555556,3.9225000000000136],[0.1929166666666667,-0.377962962962963,3.9391000000015026],[0.2287499999999999,-0.42111111111111105,3.9557999999970264],[0.21135416666666676,-0.41500000000000004,3.972500000000011],[0.24812500000000004,-0.5068518518518518,3.9916000000014975],[0.24083333333333337,-0.5564814814814815,4.007700000002984],[0.246875,-0.48759259259259263,4.024000000000001],[0.2349999999999999,-0.43796296296296294,4.039100000001497],[0.2453125,-0.3531481481481481,4.055799999997021],[0.2430208333333333,-0.3464814814814815,4.074799999997026],[0.22645833333333343,-0.2614814814814815,4.0892000000029896],[0.20010416666666658,-0.2257407407407407,4.105799999997032],[0.20729166666666668,-0.1714814814814815,4.122500000000002],[0.20979166666666677,-0.1853703703703704,4.139200000002987],[0.21208333333333323,-0.12611111111111115,4.158799999997029],[0.21229166666666663,-0.07314814814814814,4.17270000000299],[0.1977083333333333,-0.09074074074074075,4.19550000000001],[0.1977083333333333,-0.09074074074074075,4.205799999997026],[0.21864583333333343,-0.15981481481481483,4.222600000001492],[0.25322916666666656,-0.21388888888888888,4.242500000000007],[0.26885416666666656,-0.2111111111111111,4.257700000002984],[0.2778125000000001,-0.27759259259259256,4.27389999999852],[0.2837500000000001,-0.290925925925926,4.289200000002992],[0.2933333333333332,-0.29611111111111105,4.305799999997021],[0.28760416666666655,-0.29259259259259257,4.3267999999970215],[0.28760416666666655,-0.29259259259259257,4.339100000001494],[0.32041666666666657,-0.33648148148148144,4.355899999998513],[0.40166666666666656,-0.3712962962962963,4.372500000000002],[0.4712500000000001,-0.38925925925925925,4.3951000000014915],[0.4712500000000001,-0.38925925925925925,4.4058999999985105],[0.49760416666666674,-0.33722222222222226,4.422500000000014],[0.5094791666666666,-0.31740740740740736,4.441799999997031],[0.5334374999999999,-0.29611111111111105,4.457799999997022],[0.5839583333333332,-0.27462962962962967,4.472399999998515],[0.6422916666666666,-0.2183333333333333,4.493000000000009],[0.6429166666666667,-0.14314814814814816,4.509700000002994],[0.6622916666666666,0.03092592592592601,4.525100000001501],[0.6478125000000001,0.21425925925925934,4.545399999998523],[0.6478125000000001,0.21425925925925934,4.555899999998516],[0.6262500000000001,0.18574074074074065,4.572500000000005],[0.6151041666666667,0.12185185185185177,4.589100000001494],[0.6089583333333333,0.11481481481481481,4.609500000000011],[0.5622916666666666,0.06462962962962959,4.624500000000012],[0.5129166666666668,0.03185185185185194,4.639100000001491],[0.48499999999999993,-0.03888888888888889,4.660100000001492],[0.44656250000000003,-0.11777777777777781,4.6743999999985135],[0.44656250000000003,-0.11777777777777781,4.689200000002984],[0.4747916666666666,-0.2796296296296296,4.706000000000003],[0.5120833333333332,-0.45314814814814813,4.728000000000009],[0.5107291666666666,-0.645,4.741899999998523],[0.4857291666666666,-0.6501851851851852,4.756],[0.46072916666666663,-0.6553703703703704,4.772700000002985],[0.4804166666666667,-0.675,4.792899999998511],[0.4804166666666667,-0.675,4.806000000000012],[0.47854166666666675,-0.6577777777777778,4.822700000002982],[0.5150000000000001,-0.625,4.844500000000011],[0.46427083333333335,-0.617037037037037,4.85910000000149],[0.43302083333333335,-0.6118518518518518,4.873899999998514],[0.39656250000000004,-0.5887037037037036,4.8892999999970215],[0.36739583333333337,-0.5914814814814814,4.912399999998513],[0.36739583333333337,-0.5914814814814814,4.922600000001495],[0.37770833333333326,-0.5618518518518518,4.939399999998514],[0.37135416666666665,-0.5346296296296296,4.9561000000014985],[0.3318749999999999,-0.4764814814814815,4.977500000000006],[0.2977083333333333,-0.4455555555555556,4.9931000000014905],[0.2977083333333333,-0.4455555555555556,5.006100000001496],[0.3138541666666666,-0.44722222222222224,5.025700000002985],[0.259375,-0.5014814814814815,5.040399999998513],[0.25416666666666665,-0.5498148148148148,5.056000000000012],[0.21375000000000005,-0.5859259259259259,5.076200000002984],[0.19656250000000006,-0.5472222222222223,5.094000000000008],[0.19656250000000006,-0.5472222222222223,5.106000000000009],[0.18333333333333332,-0.5807407407407408,5.122700000002993],[0.16510416666666666,-0.5996296296296296,5.14370000000298],[0.13250000000000003,-0.5946296296296296,5.159000000000006],[0.13250000000000003,-0.5946296296296296,5.17270000000299],[0.13135416666666658,-0.6520370370370371,5.193399999998519],[0.10072916666666672,-0.633888888888889,5.208500000000001],[0.07447916666666667,-0.612037037037037,5.228600000001492],[0.07447916666666667,-0.612037037037037,5.243200000002986],[0.10447916666666662,-0.5803703703703703,5.256],[0.15656249999999997,-0.5325925925925926,5.272600000001503],[0.21572916666666658,-0.46648148148148144,5.297000000000011],[0.21572916666666658,-0.46648148148148144,5.306000000000012],[0.22604166666666667,-0.46407407407407414,5.322700000002982],[0.1955208333333334,-0.42666666666666664,5.33939999999852],[0.24562499999999995,-0.43555555555555553,5.358799999997032],[0.26114583333333335,-0.41,5.374500000000012],[0.2613541666666668,-0.3844444444444445,5.389399999998517],[0.2556250000000001,-0.4348148148148148,5.410799999997025],[0.2673958333333334,-0.47388888888888886,5.426399999998523],[0.2631249999999999,-0.5053703703703704,5.441700000002982],[0.26020833333333326,-0.4801851851851852,5.4583999999985195],[0.23770833333333338,-0.4733333333333334,5.476899999998523],[0.23916666666666658,-0.5062962962962962,5.4931000000014905],[0.23916666666666658,-0.5062962962962962,5.5057999999970235],[0.27364583333333337,-0.44000000000000006,5.522700000002985],[0.22614583333333324,-0.4264814814814815,5.539100000001497],[0.215625,-0.3737037037037037,5.555799999997021],[0.21281249999999996,-0.32333333333333336,5.574700000002991],[0.22531249999999994,-0.28703703703703703,5.58939999999852],[0.2025000000000001,-0.22481481481481477,5.607299999997025],[0.1898958333333333,-0.16629629629629633,5.624600000001493],[0.1638541666666666,-0.1566666666666667,5.639600000001494],[0.14729166666666677,-0.15092592592592594,5.658399999998522],[0.13624999999999995,-0.10703703703703706,5.672399999998518],[0.13624999999999995,-0.10703703703703706,5.692600000001491],[0.10968749999999995,-0.1507407407407407,5.706000000000003],[0.09041666666666662,-0.12777777777777777,5.7227000000029875],[0.10260416666666666,-0.16444444444444448,5.744100000001495],[0.08854166666666667,-0.17037037037037037,5.759799999997028],[0.06312500000000003,-0.17759259259259255,5.776200000002987],[0.1146874999999999,-0.16962962962962966,5.797000000000011],[0.1146874999999999,-0.16962962962962966,5.805899999998516],[0.14479166666666668,-0.19092592592592597,5.822600000001501],[0.18072916666666666,-0.19759259259259257,5.839799999997027],[0.18072916666666666,-0.19759259259259257,5.873399999998512],[0.1798958333333334,-0.19425925925925921,5.882500000000007],[0.1798958333333334,-0.19425925925925921,5.889100000001491],[0.16864583333333344,-0.225,5.90570000000298],[0.175,-0.2146296296296296,5.922500000000014],[0.18479166666666677,-0.24518518518518514,5.939100000001503],[0.16614583333333333,-0.2616666666666667,5.955799999997026],[0.18125,-0.2655555555555555,5.972399999998515],[0.1884375000000001,-0.24351851851851852,5.991200000002991],[0.1884375000000001,-0.24351851851851852,6.0057999999970235],[0.1701041666666666,-0.2712962962962963,6.022500000000008],[0.13427083333333342,-0.22851851851851848,6.039100000001497],[0.08624999999999995,-0.21703703703703703,6.056000000000012],[0.10739583333333323,-0.15851851851851856,6.075899999998512],[0.11593749999999996,-0.13944444444444445,6.093500000000006],[0.11281249999999995,-0.10314814814814813,6.108899999998513],[0.10374999999999991,-0.07074074074074072,6.124600000001493],[0.10625,-0.06018518518518518,6.139200000002987],[0.10927083333333343,-0.13574074074074077,6.158600000001499],[0.14104166666666676,-0.15648148148148147,6.172399999998518],[0.14364583333333342,-0.1794444444444444,6.192600000001491],[0.16375000000000003,-0.2168518518518519,6.206899999998512],[0.15822916666666675,-0.19388888888888886,6.222600000001492],[0.14354166666666662,-0.2227777777777778,6.241799999997028],[0.15510416666666677,-0.21796296296296294,6.2557999999970235],[0.15270833333333325,-0.2531481481481481,6.2723999999985125],[0.13802083333333334,-0.267037037037037,6.289100000001497],[0.11885416666666657,-0.28481481481481485,6.306000000000012],[0.10833333333333334,-0.20722222222222217,6.324600000001496],[0.07302083333333324,-0.19500000000000003,6.339100000001494],[0.07302083333333324,-0.19500000000000003,6.355700000002983],[0.041562499999999974,-0.17999999999999997,6.372500000000002],[0.03885416666666662,-0.13407407407407404,6.389100000001491],[0.03718750000000005,-0.18222222222222217,6.40870000000298],[0.024270833333333287,-0.24277777777777781,6.4243999999985135],[0.024270833333333287,-0.24277777777777781,6.439000000000007],[0.011666666666666714,-0.26222222222222225,6.455799999997026],[-0.00791666666666669,-0.2718518518518519,6.472399999998515],[0.007083333333333286,-0.2740740740740741,6.491399999998521],[0.008124999999999953,-0.317037037037037,6.5057999999970235],[0.005624999999999976,-0.397037037037037,6.5223999999985125],[0.009375,-0.4542592592592593,6.539100000001497],[-0.009895833333333333,-0.4903703703703704,6.555700000002986],[-0.035416666666666666,-0.5770370370370371,6.574899999998522],[-0.035416666666666666,-0.5770370370370371,6.589100000001494],[-0.053125,-0.6116666666666667,6.605899999998513],[-0.06291666666666665,-0.6301851851851852,6.622399999998521],[-0.0921875,-0.6605555555555556,6.639100000001491],[-0.07958333333333331,-0.6918518518518519,6.65789999999852],[-0.09874999999999995,-0.7068518518518518,6.672500000000014],[-0.09010416666666667,-0.6733333333333333,6.689100000001503],[-0.10020833333333339,-0.642962962962963,6.705799999997026],[-0.09041666666666662,-0.6174074074074074,6.722500000000011],[-0.07135416666666666,-0.5631481481481482,6.741299999997025],[-0.05541666666666671,-0.5588888888888889,6.7557999999970235],[-0.03937499999999995,-0.5548148148148149,6.774799999997029],[-0.02645833333333331,-0.524074074074074,6.789200000002992],[-0.0013541666666666192,-0.5157407407407407,6.809299999997023],[-0.012812499999999952,-0.4318518518518518,6.825100000001498],[0.014687500000000023,-0.3683333333333333,6.839299999997024],[0.01552083333333331,-0.29666666666666663,6.85829999999703],[0.10031249999999996,-0.18185185185185182,6.872600000001498],[0.14510416666666662,-0.07537037037037035,6.889200000002987],[0.14510416666666662,-0.07537037037037035,6.90789999999852],[0.16822916666666668,-0.10259259259259255,6.922799999997025],[0.17020833333333343,-0.12777777777777777,6.939299999997033],[0.17291666666666666,-0.11814814814814817,6.955799999997026],[0.17437500000000009,-0.15407407407407406,6.972399999998515],[0.17239583333333333,-0.1359259259259259,6.991299999997025],[0.19197916666666662,-0.24407407407407408,7.0068999999985095],[0.19197916666666662,-0.24407407407407408,7.022500000000008],[0.17114583333333327,-0.31370370370370365,7.039100000001497],[0.18854166666666666,-0.4270370370370371,7.055799999997021],[0.12708333333333333,-0.5503703703703704,7.074799999997026],[0.09427083333333333,-0.6488888888888888,7.089100000001494]]","[0.0002000000029909188,0.05029999999702284,0.056100000001492845,0.07450000000000045,0.0905000000000058,0.10839999999851102,0.12289999999852341,0.1392000000029867,0.15800000000000125,0.17250000000001364,0.18920000000298387,0.2071000000015033,0.22279999999702227,0.2421000000014999,0.2560000000000002,0.27250000000000796,0.2892000000029924,0.30589999999851614,0.32479999999702613,0.33920000000298955,0.3558999999985133,0.3725000000000023,0.3892000000029867,0.40829999999702693,0.4227999999970251,0.43920000000298387,0.4558999999985218,0.47260000000149205,0.4911000000014951,0.5075000000000074,0.5226000000015034,0.5391000000014969,0.5558999999985161,0.5748999999985216,0.5892000000029896,0.6060000000000088,0.6225000000000023,0.6392000000029867,0.6582999999970269,0.6725000000000136,0.6892000000029839,0.7058999999985218,0.7225000000000108,0.7412000000029906,0.755899999998519,0.7726000000015034,0.7892000000029924,0.8062000000029883,0.8252000000029938,0.8392999999970243,0.8560000000000088,0.8726000000014977,0.8892000000029867,0.9085000000000036,0.9226000000014949,0.9392000000029839,0.9560000000000031,0.972600000001492,0.9927999999970325,1.0057999999970235,1.0226000000015034,1.0392000000029924,1.0557999999970207,1.074600000001496,1.089100000001494,1.1090000000000089,1.1241000000014907,1.1392000000029867,1.1577000000029898,1.1725000000000136,1.1892000000029839,1.2076000000014915,1.2227999999970223,1.23929999999703,1.255899999998519,1.272500000000008,1.2892000000029924,1.3058999999985161,1.3255000000000052,1.3393999999985198,1.3558999999985133,1.3726000000014977,1.3892000000029867,1.4091000000015015,1.4246000000014902,1.4391000000015026,1.4558999999985218,1.4725000000000108,1.4912000000029906,1.5068999999985095,1.525899999998515,1.5397000000029806,1.5558999999985161,1.574600000001496,1.5892000000029896,1.6058999999985133,1.6225000000000023,1.6392000000029867,1.6583999999985224,1.672600000001495,1.6892000000029839,1.7068999999985124,1.722600000001492,1.741500000000002,1.7571000000015005,1.772500000000008,1.7906000000014899,1.8100000000000023,1.8247000000029914,1.8392000000029896,1.855799999997032,1.8730000000000047,1.8892000000029867,1.9085000000000036,1.9225000000000136,1.9391000000015026,1.9557999999970264,1.972600000001492,1.9937000000029883,2.0060000000000002,2.022500000000008,2.0401000000015017,2.055899999998516,2.074799999997026,2.090299999997029,2.1082999999970298,2.1230000000000047,2.1392000000029867,2.1580000000000013,2.172799999997025,2.1891000000015026,2.208100000001494,2.223000000000013,2.2439999999999998,2.2560000000000002,2.272899999998515,2.2893999999985226,2.3100000000000023,2.324399999998519,2.3392999999970243,2.3560000000000088,2.374200000002986,2.389399999998517,2.4080000000000013,2.4227000000029904,2.4412000000029934,2.4565000000000055,2.4727000000029875,2.4893999999985112,2.507700000002984,2.522500000000008,2.5392000000029924,2.5557999999970207,2.5753999999985098,2.590299999997029,2.608399999998511,2.6225000000000023,2.6391000000014913,2.6581000000014967,2.6725000000000136,2.6891000000015026,2.707000000000008,2.7227000000029875,2.7412999999970253,2.755899999998519,2.7726000000015034,2.7892000000029924,2.8057999999970207,2.8252999999970285,2.8408999999985127,2.8560000000000088,2.8725000000000023,2.8892999999970215,2.9095000000000084,2.9227000000029904,2.9395000000000095,2.956000000000003,2.977399999998511,2.9927999999970325,3.007399999998512,3.0253999999985126,3.039500000000004,3.0560000000000116,3.0762000000029843,3.0903999999985103,3.107600000001497,3.122700000002993,3.144200000002982,3.15789999999852,3.1727000000029904,3.1925000000000097,3.2072000000029846,3.2228999999985177,3.23929999999703,3.257600000001503,3.2726000000015034,3.2893999999985226,3.3060000000000116,3.3252000000029938,3.3392000000029896,3.3560000000000088,3.3725000000000023,3.3892000000029867,3.4091000000015015,3.4247999999970204,3.439200000002984,3.455899999998522,3.472500000000011,3.489200000002981,3.5057999999970235,3.522500000000008,3.5392000000029924,3.5557999999970207,3.5745000000000005,3.5932000000029802,3.609000000000009,3.6231000000015,3.6391000000014913,3.6581000000014967,3.672399999998518,3.692799999997021,3.7082000000029893,3.723799999997027,3.743600000001493,3.7557999999970235,3.772500000000008,3.7897999999970295,3.8057999999970207,3.825000000000003,3.8396000000014965,3.855799999997032,3.8725000000000023,3.8891000000014913,3.9080000000000013,3.9225000000000136,3.9391000000015026,3.9557999999970264,3.972500000000011,3.9916000000014975,4.007700000002984,4.024000000000001,4.039100000001497,4.055799999997021,4.074799999997026,4.0892000000029896,4.105799999997032,4.122500000000002,4.139200000002987,4.158799999997029,4.17270000000299,4.19550000000001,4.205799999997026,4.222600000001492,4.242500000000007,4.257700000002984,4.27389999999852,4.289200000002992,4.305799999997021,4.3267999999970215,4.339100000001494,4.355899999998513,4.372500000000002,4.3951000000014915,4.4058999999985105,4.422500000000014,4.441799999997031,4.457799999997022,4.472399999998515,4.493000000000009,4.509700000002994,4.525100000001501,4.545399999998523,4.555899999998516,4.572500000000005,4.589100000001494,4.609500000000011,4.624500000000012,4.639100000001491,4.660100000001492,4.6743999999985135,4.689200000002984,4.706000000000003,4.728000000000009,4.741899999998523,4.756,4.772700000002985,4.792899999998511,4.806000000000012,4.822700000002982,4.844500000000011,4.85910000000149,4.873899999998514,4.8892999999970215,4.912399999998513,4.922600000001495,4.939399999998514,4.9561000000014985,4.977500000000006,4.9931000000014905,5.006100000001496,5.025700000002985,5.040399999998513,5.056000000000012,5.076200000002984,5.094000000000008,5.106000000000009,5.122700000002993,5.14370000000298,5.159000000000006,5.17270000000299,5.193399999998519,5.208500000000001,5.228600000001492,5.243200000002986,5.256,5.272600000001503,5.297000000000011,5.306000000000012,5.322700000002982,5.33939999999852,5.358799999997032,5.374500000000012,5.389399999998517,5.410799999997025,5.426399999998523,5.441700000002982,5.4583999999985195,5.476899999998523,5.4931000000014905,5.5057999999970235,5.522700000002985,5.539100000001497,5.555799999997021,5.574700000002991,5.58939999999852,5.607299999997025,5.624600000001493,5.639600000001494,5.658399999998522,5.672399999998518,5.692600000001491,5.706000000000003,5.7227000000029875,5.744100000001495,5.759799999997028,5.776200000002987,5.797000000000011,5.805899999998516,5.822600000001501,5.839799999997027,5.873399999998512,5.882500000000007,5.889100000001491,5.90570000000298,5.922500000000014,5.939100000001503,5.955799999997026,5.972399999998515,5.991200000002991,6.0057999999970235,6.022500000000008,6.039100000001497,6.056000000000012,6.075899999998512,6.093500000000006,6.108899999998513,6.124600000001493,6.139200000002987,6.158600000001499,6.172399999998518,6.192600000001491,6.206899999998512,6.222600000001492,6.241799999997028,6.2557999999970235,6.2723999999985125,6.289100000001497,6.306000000000012,6.324600000001496,6.339100000001494,6.355700000002983,6.372500000000002,6.389100000001491,6.40870000000298,6.4243999999985135,6.439000000000007,6.455799999997026,6.472399999998515,6.491399999998521,6.5057999999970235,6.5223999999985125,6.539100000001497,6.555700000002986,6.574899999998522,6.589100000001494,6.605899999998513,6.622399999998521,6.639100000001491,6.65789999999852,6.672500000000014,6.689100000001503,6.705799999997026,6.722500000000011,6.741299999997025,6.7557999999970235,6.774799999997029,6.789200000002992,6.809299999997023,6.825100000001498,6.839299999997024,6.85829999999703,6.872600000001498,6.889200000002987,6.90789999999852,6.922799999997025,6.939299999997033,6.955799999997026,6.972399999998515,6.991299999997025,7.0068999999985095,7.022500000000008,7.039100000001497,7.055799999997021,7.074799999997026,7.089100000001494]","[1732592941109,1732592941149,1732592941155,1732592941173,1732592941189,1732592941207,1732592941222,1732592941238,1732592941257,1732592941271,1732592941288,1732592941306,1732592941322,1732592941341,1732592941355,1732592941371,1732592941388,1732592941405,1732592941424,1732592941438,1732592941455,1732592941471,1732592941488,1732592941507,1732592941522,1732592941538,1732592941555,1732592941571,1732592941590,1732592941606,1732592941621,1732592941638,1732592941655,1732592941674,1732592941688,1732592941705,1732592941721,1732592941738,1732592941757,1732592941771,1732592941788,1732592941805,1732592941821,1732592941840,1732592941855,1732592941871,1732592941888,1732592941905,1732592941924,1732592941938,1732592941955,1732592941971,1732592941988,1732592942007,1732592942021,1732592942038,1732592942055,1732592942071,1732592942092,1732592942105,1732592942122,1732592942138,1732592942155,1732592942174,1732592942188,1732592942208,1732592942223,1732592942238,1732592942257,1732592942271,1732592942288,1732592942307,1732592942322,1732592942338,1732592942355,1732592942371,1732592942388,1732592942405,1732592942424,1732592942438,1732592942455,1732592942472,1732592942488,1732592942508,1732592942523,1732592942538,1732592942555,1732592942571,1732592942590,1732592942606,1732592942625,1732592942639,1732592942655,1732592942673,1732592942688,1732592942705,1732592942721,1732592942738,1732592942757,1732592942772,1732592942788,1732592942806,1732592942822,1732592942840,1732592942856,1732592942871,1732592942890,1732592942909,1732592942924,1732592942938,1732592942955,1732592942972,1732592942988,1732592943007,1732592943021,1732592943038,1732592943055,1732592943072,1732592943093,1732592943105,1732592943121,1732592943139,1732592943155,1732592943174,1732592943189,1732592943207,1732592943222,1732592943238,1732592943257,1732592943272,1732592943288,1732592943307,1732592943322,1732592943343,1732592943355,1732592943372,1732592943388,1732592943409,1732592943423,1732592943438,1732592943455,1732592943473,1732592943488,1732592943507,1732592943522,1732592943540,1732592943555,1732592943572,1732592943588,1732592943607,1732592943621,1732592943638,1732592943655,1732592943674,1732592943689,1732592943707,1732592943721,1732592943738,1732592943757,1732592943771,1732592943788,1732592943806,1732592943822,1732592943840,1732592943855,1732592943871,1732592943888,1732592943905,1732592943924,1732592943940,1732592943955,1732592943971,1732592943988,1732592944008,1732592944022,1732592944038,1732592944055,1732592944076,1732592944092,1732592944106,1732592944124,1732592944138,1732592944155,1732592944175,1732592944189,1732592944206,1732592944222,1732592944243,1732592944257,1732592944272,1732592944291,1732592944306,1732592944322,1732592944338,1732592944356,1732592944372,1732592944388,1732592944405,1732592944424,1732592944438,1732592944455,1732592944471,1732592944488,1732592944508,1732592944524,1732592944538,1732592944555,1732592944571,1732592944588,1732592944605,1732592944621,1732592944638,1732592944655,1732592944673,1732592944692,1732592944708,1732592944722,1732592944738,1732592944757,1732592944771,1732592944792,1732592944807,1732592944823,1732592944843,1732592944855,1732592944871,1732592944889,1732592944905,1732592944924,1732592944938,1732592944955,1732592944971,1732592944988,1732592945007,1732592945021,1732592945038,1732592945055,1732592945071,1732592945090,1732592945107,1732592945123,1732592945138,1732592945155,1732592945174,1732592945188,1732592945205,1732592945221,1732592945238,1732592945258,1732592945272,1732592945294,1732592945305,1732592945322,1732592945341,1732592945357,1732592945373,1732592945388,1732592945405,1732592945426,1732592945438,1732592945455,1732592945471,1732592945494,1732592945505,1732592945521,1732592945541,1732592945557,1732592945571,1732592945592,1732592945609,1732592945624,1732592945644,1732592945655,1732592945671,1732592945688,1732592945708,1732592945723,1732592945738,1732592945759,1732592945773,1732592945788,1732592945805,1732592945827,1732592945841,1732592945855,1732592945872,1732592945892,1732592945905,1732592945922,1732592945943,1732592945958,1732592945973,1732592945988,1732592946011,1732592946022,1732592946038,1732592946055,1732592946076,1732592946092,1732592946105,1732592946125,1732592946139,1732592946155,1732592946175,1732592946193,1732592946205,1732592946222,1732592946243,1732592946258,1732592946272,1732592946292,1732592946307,1732592946328,1732592946342,1732592946355,1732592946371,1732592946396,1732592946405,1732592946422,1732592946438,1732592946458,1732592946473,1732592946488,1732592946510,1732592946525,1732592946541,1732592946557,1732592946576,1732592946592,1732592946605,1732592946622,1732592946638,1732592946655,1732592946674,1732592946688,1732592946706,1732592946723,1732592946739,1732592946757,1732592946771,1732592946791,1732592946805,1732592946822,1732592946843,1732592946859,1732592946875,1732592946896,1732592946905,1732592946922,1732592946939,1732592946972,1732592946981,1732592946988,1732592947005,1732592947021,1732592947038,1732592947055,1732592947071,1732592947090,1732592947105,1732592947121,1732592947138,1732592947155,1732592947175,1732592947192,1732592947208,1732592947224,1732592947238,1732592947258,1732592947271,1732592947291,1732592947306,1732592947321,1732592947341,1732592947355,1732592947371,1732592947388,1732592947405,1732592947423,1732592947438,1732592947455,1732592947471,1732592947488,1732592947508,1732592947523,1732592947538,1732592947555,1732592947571,1732592947590,1732592947605,1732592947621,1732592947638,1732592947655,1732592947674,1732592947688,1732592947705,1732592947721,1732592947738,1732592947757,1732592947771,1732592947788,1732592947805,1732592947821,1732592947840,1732592947855,1732592947874,1732592947888,1732592947908,1732592947924,1732592947938,1732592947957,1732592947971,1732592947988,1732592948007,1732592948022,1732592948038,1732592948055,1732592948071,1732592948090,1732592948106,1732592948121,1732592948138,1732592948155,1732592948174,1732592948188]","[[995.3,533.6],[995.3,533.6],[986.1,540.5],[998.7,529.3],[984.2,535.3],[980.4,547.1],[995.9,547.8],[993.8,541.4],[972.8,537.6],[964.9,523.6],[950.1,504.6],[985.9,523.3],[1009.7,500.5],[1013.4,503.5],[1013.4,503.5],[1027.9,477.9],[1044.7,468.8],[1041.4,459.6],[1039.7,462.7],[1041.7,450.9],[1038.3,441.3],[1037.4,427.4],[1007.3,389.7],[981.9,358.6],[979.1,338.6],[962.4,332.5],[947.6,312.1],[940,298.7],[948.4,276],[910,227.5],[910,227.5],[855.4,208.9],[813.4,203.5],[774.1,192.8],[754.1,180.9],[702.7,162.2],[684.8,119.6],[649.7,84.3],[612.5,49.9],[565.3,14.9],[572.9,14.6],[589.2,9.3],[582.8,-23.2],[582.3,-49],[551.3,-25.7],[563.7,-20.5],[565.4,6.6],[539,43],[554.5,112.1],[553.5,181.6],[553.5,181.6],[561.5,208.6],[555.9,269],[573.2,312.8],[589,399.4],[589,399.4],[608.3,401.2],[608.4,418.6],[599.2,429.1],[599.2,429.1],[632,422.6],[609.5,380.6],[609.4,353.1],[601.8,363.4],[609.6,334.8],[609.8,339.9],[605.7,313.5],[619.7,330.5],[622.2,341.5],[648,350.8],[670.4,388.1],[719.2,397.4],[719.2,397.4],[787.5,421],[854.3,420.5],[910.2,446.5],[952.2,431.7],[1019.1,449.4],[1069.4,418.9],[1139.1,436.3],[1177.9,425.4],[1217,425.4],[1225.2,436.3],[1218.7,429.4],[1197.8,443],[1197.8,443],[1213.2,442],[1238.8,461.3],[1249,441.3],[1281.1,460.9],[1293.5,450.8],[1303.3,436.4],[1333.6,424.5],[1363.2,426.6],[1408.2,435.4],[1408.2,435.4],[1458.6,443.3],[1479.6,418.1],[1472.6,435.8],[1498.4,409],[1499.8,407.7],[1488.7,391.6],[1512.1,403.4],[1486.2,380.5],[1502.5,348.2],[1473.8,303.3],[1482.7,262.2],[1483.9,243.2],[1529.3,214.2],[1511.6,221.5],[1520.6,243],[1540.4,266.8],[1536.8,299.3],[1555.2,325.1],[1566.8,381.5],[1598.7,406.5],[1588.7,436.4],[1567.7,474.7],[1537.5,496.5],[1537.5,496.5],[1513.4,524.6],[1515.2,509.1],[1517,493.6],[1544.9,502],[1568.8,518.1],[1498.1,476.9],[1454.7,466.1],[1430,440.8],[1411.8,433.8],[1385.1,427.8],[1378.9,419.2],[1346.1,412.6],[1300.8,418.8],[1230.2,401.7],[1230.2,401.7],[1166.4,381.1],[1166.4,381.1],[1172.8,398.8],[1164.3,421.5],[1151.9,454.5],[1151.5,471.3],[1151.1,488.1],[1105.9,488.2],[1051.1,497.1],[982,508.4],[915.7,509.6],[893.7,523.3],[875.9,534.7],[875.9,534.7],[831.8,534.1],[831.8,534.1],[829.1,549.5],[825.8,539.9],[782.8,526.5],[814,543.6],[848.8,564.9],[900.8,558.7],[958.9,592.1],[995.7,578.1],[1036.9,602.2],[1085,597.4],[1106.9,583.5],[1145.5,569.7],[1215.5,583.9],[1223.8,574.5],[1232.5,577.3],[1259.2,575],[1294.4,568.8],[1306.3,579.8],[1306,556.4],[1306,556.4],[1325,556.7],[1322.9,560],[1327.6,582.4],[1327.6,582.4],[1331.5,587.4],[1343.9,590.8],[1358.6,582.6],[1351.3,588.8],[1320.2,573.4],[1280.1,568.2],[1266.5,562.6],[1217.9,586.4],[1192.3,560.2],[1153.4,551],[1141.3,544],[1109.4,531.2],[1094.6,524.3],[1117.6,496.2],[1141.8,478.3],[1188,467.4],[1195.7,453.3],[1232.6,412.2],[1232.6,412.2],[1252.4,411.2],[1209.2,400],[1148.3,379.8],[1167.7,377.6],[1194.4,368.7],[1161.1,381.9],[1137.3,370.4],[1087.4,366.5],[1089.2,364.3],[1066.4,380.2],[1017,400.6],[1017,400.6],[1026.2,418.5],[1061.9,402.3],[1061.9,402.3],[1049.3,434.7],[1012.6,416.6],[1024,420.1],[987.1,429.6],[987.9,429.8],[948.1,441.1],[977.5,425.1],[1056,383.2],[1115.9,364.8],[1151.6,373.8],[1157,336.7],[1169.3,331],[1152.1,334],[1180.9,340.2],[1173.5,346.5],[1173.5,346.5],[1193.9,311.1],[1139.7,329.1],[1121.6,347.6],[1049.7,382.3],[1018.6,394.3],[1032,387.1],[1037.7,387.4],[1042.1,354.6],[1060.2,333.7],[1097.9,326.4],[1145.2,335.9],[1179.6,312.6],[1162.9,315.9],[1198.2,266.3],[1191.2,239.5],[1197,276.7],[1185.6,303.5],[1195.5,349.3],[1193.3,352.9],[1177.4,398.8],[1152.1,418.1],[1159,447.4],[1161.4,439.9],[1163.6,471.9],[1163.8,500.5],[1149.8,491],[1149.8,491],[1169.9,453.7],[1203.1,424.5],[1218.1,426],[1226.7,390.1],[1232.4,382.9],[1241.6,380.1],[1236.1,382],[1236.1,382],[1267.6,358.3],[1345.6,339.5],[1412.4,329.8],[1412.4,329.8],[1437.7,357.9],[1449.1,368.6],[1472.1,380.1],[1520.6,391.7],[1576.6,422.1],[1577.2,462.7],[1595.8,556.7],[1581.9,655.7],[1581.9,655.7],[1561.2,640.3],[1550.5,605.8],[1544.6,602],[1499.8,574.9],[1452.4,557.2],[1425.6,519],[1388.7,476.4],[1388.7,476.4],[1415.8,389],[1451.6,295.3],[1450.3,191.7],[1426.3,188.9],[1402.3,186.1],[1421.2,175.5],[1421.2,175.5],[1419.4,184.8],[1454.4,202.5],[1405.7,206.8],[1375.7,209.6],[1340.7,222.1],[1312.7,220.6],[1312.7,220.6],[1322.6,236.6],[1316.5,251.3],[1278.6,282.7],[1245.8,299.4],[1245.8,299.4],[1261.3,298.5],[1209,269.2],[1204,243.1],[1165.2,223.6],[1148.7,244.5],[1148.7,244.5],[1136,226.4],[1118.5,216.2],[1087.2,218.9],[1087.2,218.9],[1086.1,187.9],[1056.7,197.7],[1031.5,209.5],[1031.5,209.5],[1060.3,226.6],[1110.3,252.4],[1167.1,288.1],[1167.1,288.1],[1177,289.4],[1147.7,309.6],[1195.8,304.8],[1210.7,318.6],[1210.9,332.4],[1205.4,305.2],[1216.7,284.1],[1212.6,267.1],[1209.8,280.7],[1188.2,284.4],[1189.6,266.6],[1189.6,266.6],[1222.7,302.4],[1177.1,309.7],[1167,338.2],[1164.3,365.4],[1176.3,385],[1154.4,418.6],[1142.3,450.2],[1117.3,455.4],[1101.4,458.5],[1090.8,482.2],[1090.8,482.2],[1065.3,458.6],[1046.8,471],[1058.5,451.2],[1045,448],[1020.6,444.1],[1070.1,448.4],[1070.1,448.4],[1099,436.9],[1133.5,433.3],[1133.5,433.3],[1132.7,435.1],[1132.7,435.1],[1121.9,418.5],[1128,424.1],[1137.4,407.6],[1119.5,398.7],[1134,396.6],[1140.9,408.5],[1140.9,408.5],[1123.3,393.5],[1088.9,416.6],[1042.8,422.8],[1063.1,454.4],[1071.3,464.7],[1068.3,484.3],[1059.6,501.8],[1062,507.5],[1064.9,466.7],[1095.4,455.5],[1097.9,443.1],[1117.2,422.9],[1111.9,435.3],[1097.8,419.7],[1108.9,422.3],[1106.6,403.3],[1092.5,395.8],[1074.1,386.2],[1064,428.1],[1030.1,434.7],[1030.1,434.7],[999.9,442.8],[997.3,467.6],[995.7,441.6],[983.3,408.9],[983.3,408.9],[971.2,398.4],[952.4,393.2],[966.8,392],[967.8,368.8],[965.4,325.6],[969,294.7],[950.5,275.2],[926,228.4],[926,228.4],[909,209.7],[899.6,199.7],[871.5,183.3],[883.6,166.4],[865.2,158.3],[873.5,176.4],[863.8,192.8],[873.2,206.6],[891.5,235.9],[906.8,238.2],[922.2,240.4],[934.6,257],[958.7,261.5],[947.7,306.8],[974.1,341.1],[974.9,379.8],[1056.3,441.8],[1099.3,499.3],[1099.3,499.3],[1121.5,484.6],[1123.4,471],[1126,476.2],[1127.4,456.8],[1125.5,466.6],[1144.3,408.2],[1144.3,408.2],[1124.3,370.6],[1141,309.4],[1082,242.8],[1050.5,189.6]]","[-0.142,0.42599999999999993]","[0.142,0.42599999999999993]","[0.42599999999999993,0.42599999999999993]","[-0.42599999999999993,-0.142]","[-0.42599999999999993,0.142]","[-0.42599999999999993,-0.42599999999999993]","[-0.142,-0.142]","[0.142,-0.142]","[0.42599999999999993,-0.142]","[-0.142,0.142]","[0.142,0.142]","[0.42599999999999993,0.142]","[-0.142,-0.42599999999999993]","[0.142,-0.42599999999999993]","[0.42599999999999993,-0.42599999999999993]",0,0,0,0,1,1,Laptop,20,20,7,2,70,4,2,70,4
