inst1_resp.keys,inst1_resp.rt,calibrationMouse.x,calibrationMouse.y,calibrationMouse.leftButton,calibrationMouse.midButton,calibrationMouse.rightButton,calibrationClick.x,calibrationClick.y,calibrationClick.leftButton,calibrationClick.midButton,calibrationClick.rightButton,trialsc.thisRepN,trialsc.thisTrialN,trialsc.thisN,trialsc.thisIndex,trialsc.ran,calibration_x,calibration_y,participant,session,date,expName,psychopyVersion,OS,frameRate,ScreenRes_pixels,Camera_pixels,mouse_2.x,mouse_2.y,mouse_2.leftButton,mouse_2.midButton,mouse_2.rightButton,mouse_2.time,mouse_2.clicked_name,mouse.x,mouse.y,mouse.leftButton,mouse.midButton,mouse.rightButton,mouse.time,mouse.clicked_name,Choice,Trial,TrialDuration,MOUSE_GAZE,ET_GAZE,ET_GAZE_x_T,time,unixTime,ET_GAZE_NF,Loc_Bus_label,Loc_Metro_label,Loc_RH_label,Loc_Cost_label,Loc_Travel_label,Loc_Comfort_label,Loc_Bus_cost,Loc_Metro_cost,Loc_RH_cost,Loc_Bus_travel,Loc_Metro_travel,Loc_RH_travel,Loc_Bus_comfort,Loc_Metro_comfort,Loc_RH_comfort,trials.thisRepN,trials.thisTrialN,trials.thisN,trials.thisIndex,trials.ran,Block,Device,RH_cost,RH_travel_time,RH_Comfort,metro_cost,metro_travel_time,metro_Comfort,Bus_cost,Bus_travel_time,Bus_Comfort
space,2.0006,-0.114583333,-0.32962963,1,0,0,-0.258333333,-0.183333333,0,0,0,0,0,0,19,1,0.67,0.67,26,001,2024-11-18_12h18.18.490,Attention_exp_legacy,2023.1.0,Win32,60.24096386,,,,,,,,,,,,,,,,,,,,,,,,,,,,,,,,,,,,,,,,,,,,,,,,,,,,,,,,
,,,,,,,-0.258333333,-0.183333333,0,0,0,0,1,1,2,1,-0.67,0,26,001,2024-11-18_12h18.18.490,Attention_exp_legacy,2023.1.0,Win32,60.24096386,,,,,,,,,,,,,,,,,,,,,,,,,,,,,,,,,,,,,,,,,,,,,,,,,,,,,,,,
,,,,,,,-0.258333333,-0.183333333,0,0,0,0,2,2,11,1,0,0,26,001,2024-11-18_12h18.18.490,Attention_exp_legacy,2023.1.0,Win32,60.24096386,,,,,,,,,,,,,,,,,,,,,,,,,,,,,,,,,,,,,,,,,,,,,,,,,,,,,,,,
,,,,,,,-0.258333333,-0.183333333,0,0,0,0,3,3,12,1,0,0.33,26,001,2024-11-18_12h18.18.490,Attention_exp_legacy,2023.1.0,Win32,60.24096386,,,,,,,,,,,,,,,,,,,,,,,,,,,,,,,,,,,,,,,,,,,,,,,,,,,,,,,,
,,,,,,,-0.258333333,-0.183333333,0,0,0,0,4,4,18,1,0.33,0.67,26,001,2024-11-18_12h18.18.490,Attention_exp_legacy,2023.1.0,Win32,60.24096386,,,,,,,,,,,,,,,,,,,,,,,,,,,,,,,,,,,,,,,,,,,,,,,,,,,,,,,,
,,,,,,,-0.258333333,-0.183333333,0,0,0,0,5,5,10,1,0,-0.33,26,001,2024-11-18_12h18.18.490,Attention_exp_legacy,2023.1.0,Win32,60.24096386,,,,,,,,,,,,,,,,,,,,,,,,,,,,,,,,,,,,,,,,,,,,,,,,,,,,,,,,
,,,,,,,-0.258333333,-0.183333333,0,0,0,0,6,6,13,1,0,0.67,26,001,2024-11-18_12h18.18.490,Attention_exp_legacy,2023.1.0,Win32,60.24096386,,,,,,,,,,,,,,,,,,,,,,,,,,,,,,,,,,,,,,,,,,,,,,,,,,,,,,,,
,,,,,,,-0.258333333,-0.183333333,0,0,0,0,7,7,5,1,-0.33,-0.33,26,001,2024-11-18_12h18.18.490,Attention_exp_legacy,2023.1.0,Win32,60.24096386,,,,,,,,,,,,,,,,,,,,,,,,,,,,,,,,,,,,,,,,,,,,,,,,,,,,,,,,
,,,,,,,-0.258333333,-0.183333333,0,0,0,0,8,8,17,1,0.33,0.33,26,001,2024-11-18_12h18.18.490,Attention_exp_legacy,2023.1.0,Win32,60.24096386,,,,,,,,,,,,,,,,,,,,,,,,,,,,,,,,,,,,,,,,,,,,,,,,,,,,,,,,
,,,,,,,-0.258333333,-0.183333333,0,0,0,0,9,9,3,1,-0.67,0.33,26,001,2024-11-18_12h18.18.490,Attention_exp_legacy,2023.1.0,Win32,60.24096386,,,,,,,,,,,,,,,,,,,,,,,,,,,,,,,,,,,,,,,,,,,,,,,,,,,,,,,,
,,,,,,,-0.258333333,-0.183333333,0,0,0,0,10,10,9,1,0,-0.67,26,001,2024-11-18_12h18.18.490,Attention_exp_legacy,2023.1.0,Win32,60.24096386,,,,,,,,,,,,,,,,,,,,,,,,,,,,,,,,,,,,,,,,,,,,,,,,,,,,,,,,
,,,,,,,-0.258333333,-0.183333333,0,0,0,0,11,11,4,1,-0.33,-0.67,26,001,2024-11-18_12h18.18.490,Attention_exp_legacy,2023.1.0,Win32,60.24096386,,,,,,,,,,,,,,,,,,,,,,,,,,,,,,,,,,,,,,,,,,,,,,,,,,,,,,,,
,,,,,,,-0.258333333,-0.183333333,0,0,0,0,12,12,6,1,-0.33,0,26,001,2024-11-18_12h18.18.490,Attention_exp_legacy,2023.1.0,Win32,60.24096386,,,,,,,,,,,,,,,,,,,,,,,,,,,,,,,,,,,,,,,,,,,,,,,,,,,,,,,,
,,,,,,,-0.258333333,-0.183333333,0,0,0,0,13,13,16,1,0.33,0,26,001,2024-11-18_12h18.18.490,Attention_exp_legacy,2023.1.0,Win32,60.24096386,,,,,,,,,,,,,,,,,,,,,,,,,,,,,,,,,,,,,,,,,,,,,,,,,,,,,,,,
,,,,,,,-0.258333333,-0.183333333,0,0,0,0,14,14,15,1,0.33,-0.33,26,001,2024-11-18_12h18.18.490,Attention_exp_legacy,2023.1.0,Win32,60.24096386,,,,,,,,,,,,,,,,,,,,,,,,,,,,,,,,,,,,,,,,,,,,,,,,,,,,,,,,
,,,,,,,-0.258333333,-0.183333333,0,0,0,0,15,15,20,1,0.67,-0.67,26,001,2024-11-18_12h18.18.490,Attention_exp_legacy,2023.1.0,Win32,60.24096386,,,,,,,,,,,,,,,,,,,,,,,,,,,,,,,,,,,,,,,,,,,,,,,,,,,,,,,,
,,,,,,,-0.258333333,-0.183333333,0,0,0,0,16,16,1,1,-0.67,-0.33,26,001,2024-11-18_12h18.18.490,Attention_exp_legacy,2023.1.0,Win32,60.24096386,,,,,,,,,,,,,,,,,,,,,,,,,,,,,,,,,,,,,,,,,,,,,,,,,,,,,,,,
,,,,,,,-0.258333333,-0.183333333,0,0,0,0,17,17,7,1,-0.33,0.33,26,001,2024-11-18_12h18.18.490,Attention_exp_legacy,2023.1.0,Win32,60.24096386,,,,,,,,,,,,,,,,,,,,,,,,,,,,,,,,,,,,,,,,,,,,,,,,,,,,,,,,
,,,,,,,-0.258333333,-0.183333333,0,0,0,0,18,18,0,1,-0.67,-0.67,26,001,2024-11-18_12h18.18.490,Attention_exp_legacy,2023.1.0,Win32,60.24096386,,,,,,,,,,,,,,,,,,,,,,,,,,,,,,,,,,,,,,,,,,,,,,,,,,,,,,,,
,,,,,,,-0.258333333,-0.183333333,0,0,0,0,19,19,8,1,-0.33,0.67,26,001,2024-11-18_12h18.18.490,Attention_exp_legacy,2023.1.0,Win32,60.24096386,,,,,,,,,,,,,,,,,,,,,,,,,,,,,,,,,,,,,,,,,,,,,,,,,,,,,,,,
,,,,,,,-0.258333333,-0.183333333,0,0,0,0,20,20,14,1,0.33,-0.67,26,001,2024-11-18_12h18.18.490,Attention_exp_legacy,2023.1.0,Win32,60.24096386,,,,,,,,,,,,,,,,,,,,,,,,,,,,,,,,,,,,,,,,,,,,,,,,,,,,,,,,
,,,,,,,,,,,,,,,,,,,26,001,2024-11-18_12h18.18.490,Attention_exp_legacy,2023.1.0,Win32,60.24096386,"[1920,1080]","[640,480]",[-0.05520833333333333],[-0.46296296296296297],[1],[0],[0],[2.7757000002861076],"[""StartButton""]",[-0.05416666666666667],[0.16296296296296298],[1],[0],[0],[5.684900000095368],"[""Bus_label""]",Bus_label,1,6.6978,"[[-0.11875,-0.4462962962962963],[-0.11875,-0.4462962962962963],[-0.11875,-0.4462962962962963],[-0.11875,-0.4462962962962963],[-0.11875,-0.4462962962962963],[-0.11875,-0.4462962962962963],[-0.11875,-0.4462962962962963],[-0.11875,-0.4462962962962963],[-0.11875,-0.4462962962962963],[-0.11875,-0.4462962962962963],[-0.11875,-0.4462962962962963],[-0.11875,-0.4462962962962963],[-0.11875,-0.4462962962962963],[-0.11875,-0.4462962962962963],[-0.11875,-0.4462962962962963],[-0.11875,-0.4462962962962963],[-0.11875,-0.4462962962962963],[-0.11875,-0.4462962962962963],[-0.11875,-0.4462962962962963],[-0.11875,-0.4462962962962963],[-0.11875,-0.4462962962962963],[-0.11875,-0.4462962962962963],[-0.11875,-0.4462962962962963],[-0.11875,-0.4462962962962963],[-0.11875,-0.4462962962962963],[-0.11875,-0.4462962962962963],[-0.11875,-0.4462962962962963],[-0.11875,-0.4462962962962963],[-0.11875,-0.4462962962962963],[-0.11875,-0.4462962962962963],[-0.11875,-0.4462962962962963],[-0.11875,-0.4462962962962963],[-0.11875,-0.4462962962962963],[-0.11875,-0.4462962962962963],[-0.11875,-0.4462962962962963],[-0.11875,-0.4462962962962963],[-0.11875,-0.4462962962962963],[-0.11875,-0.4462962962962963],[-0.11875,-0.4462962962962963],[-0.11875,-0.4462962962962963],[-0.11875,-0.4462962962962963],[-0.11875,-0.4462962962962963],[-0.11875,-0.4462962962962963],[-0.11875,-0.4462962962962963],[-0.11875,-0.4462962962962963],[-0.11875,-0.4462962962962963],[-0.11875,-0.4462962962962963],[-0.11875,-0.4462962962962963],[-0.11875,-0.4462962962962963],[-0.11875,-0.4462962962962963],[-0.11875,-0.4462962962962963],[-0.11875,-0.4462962962962963],[-0.11875,-0.4462962962962963],[-0.11875,-0.4462962962962963],[-0.11875,-0.4462962962962963],[-0.11875,-0.4462962962962963],[-0.11875,-0.4462962962962963],[-0.11875,-0.4462962962962963],[-0.11875,-0.4462962962962963],[-0.11875,-0.4462962962962963],[-0.11875,-0.4462962962962963],[-0.11875,-0.4462962962962963],[-0.11875,-0.4462962962962963],[-0.11875,-0.4444444444444444],[-0.11041666666666666,-0.42407407407407405],[-0.09895833333333333,-0.3925925925925926],[-0.08958333333333333,-0.37037037037037035],[-0.08229166666666667,-0.3574074074074074],[-0.075,-0.34444444444444444],[-0.06979166666666667,-0.3314814814814815],[-0.06458333333333334,-0.32407407407407407],[-0.06458333333333334,-0.32407407407407407],[-0.06458333333333334,-0.32407407407407407],[-0.06458333333333334,-0.32407407407407407],[-0.06458333333333334,-0.32407407407407407],[-0.06458333333333334,-0.32407407407407407],[-0.06458333333333334,-0.32407407407407407],[-0.06458333333333334,-0.32407407407407407],[-0.06458333333333334,-0.32407407407407407],[-0.06458333333333334,-0.32407407407407407],[-0.06458333333333334,-0.32407407407407407],[-0.06458333333333334,-0.32407407407407407],[-0.06458333333333334,-0.32407407407407407],[-0.06458333333333334,-0.32407407407407407],[-0.06458333333333334,-0.32407407407407407],[-0.06458333333333334,-0.32407407407407407],[-0.06458333333333334,-0.32407407407407407],[-0.06458333333333334,-0.32407407407407407],[-0.06458333333333334,-0.32407407407407407],[-0.06458333333333334,-0.32407407407407407],[-0.06458333333333334,-0.32407407407407407],[-0.06458333333333334,-0.32222222222222224],[-0.06458333333333334,-0.32592592592592595],[-0.06458333333333334,-0.32592592592592595],[-0.06458333333333334,-0.32592592592592595],[-0.06666666666666667,-0.32407407407407407],[-0.06666666666666667,-0.32222222222222224],[-0.06666666666666667,-0.32222222222222224],[-0.06666666666666667,-0.32222222222222224],[-0.06666666666666667,-0.32222222222222224],[-0.06666666666666667,-0.32222222222222224],[-0.06666666666666667,-0.32222222222222224],[-0.06666666666666667,-0.32037037037037036],[-0.06666666666666667,-0.3111111111111111],[-0.065625,-0.3037037037037037],[-0.065625,-0.3],[-0.065625,-0.3],[-0.06458333333333334,-0.29444444444444445],[-0.0625,-0.29074074074074074],[-0.0625,-0.28703703703703703],[-0.059375,-0.2796296296296296],[-0.057291666666666664,-0.26851851851851855],[-0.053125,-0.2574074074074074],[-0.046875,-0.2462962962962963],[-0.036458333333333336,-0.22407407407407406],[-0.029166666666666667,-0.21481481481481482],[-0.019791666666666666,-0.19814814814814816],[-0.0125,-0.18888888888888888],[-0.005208333333333333,-0.17592592592592593],[0.0010416666666666667,-0.16296296296296298],[0.009375,-0.15],[0.015625,-0.14074074074074075],[0.019791666666666666,-0.13703703703703704],[0.022916666666666665,-0.12962962962962962],[0.029166666666666667,-0.12037037037037036],[0.03229166666666667,-0.11481481481481481],[0.03854166666666667,-0.10555555555555556],[0.040625,-0.1],[0.04479166666666667,-0.08703703703703704],[0.046875,-0.07962962962962963],[0.04895833333333333,-0.07407407407407407],[0.04895833333333333,-0.07037037037037037],[0.05,-0.06851851851851852],[0.05,-0.06666666666666667],[0.051041666666666666,-0.06296296296296296],[0.051041666666666666,-0.06296296296296296],[0.052083333333333336,-0.06111111111111111],[0.052083333333333336,-0.06111111111111111],[0.052083333333333336,-0.06111111111111111],[0.052083333333333336,-0.06111111111111111],[0.052083333333333336,-0.06111111111111111],[0.052083333333333336,-0.06111111111111111],[0.052083333333333336,-0.06111111111111111],[0.052083333333333336,-0.06111111111111111],[0.052083333333333336,-0.06111111111111111],[0.052083333333333336,-0.06111111111111111],[0.052083333333333336,-0.06111111111111111],[0.052083333333333336,-0.06111111111111111],[0.052083333333333336,-0.06111111111111111],[0.052083333333333336,-0.06111111111111111],[0.052083333333333336,-0.06111111111111111],[0.052083333333333336,-0.06111111111111111],[0.052083333333333336,-0.06111111111111111],[0.052083333333333336,-0.06111111111111111],[0.052083333333333336,-0.06111111111111111],[0.052083333333333336,-0.06111111111111111],[0.052083333333333336,-0.06111111111111111],[0.052083333333333336,-0.06111111111111111],[0.052083333333333336,-0.06111111111111111],[0.052083333333333336,-0.06111111111111111],[0.052083333333333336,-0.06111111111111111],[0.052083333333333336,-0.06111111111111111],[0.052083333333333336,-0.06111111111111111],[0.052083333333333336,-0.06111111111111111],[0.052083333333333336,-0.06111111111111111],[0.052083333333333336,-0.05740740740740741],[0.053125,-0.05185185185185185],[0.05416666666666667,-0.04259259259259259],[0.05520833333333333,-0.03333333333333333],[0.057291666666666664,-0.022222222222222223],[0.058333333333333334,-0.003703703703703704],[0.059375,0.016666666666666666],[0.059375,0.025925925925925925],[0.06145833333333333,0.03888888888888889],[0.06145833333333333,0.05185185185185185],[0.06145833333333333,0.05925925925925926],[0.06145833333333333,0.06851851851851852],[0.06145833333333333,0.07592592592592592],[0.06145833333333333,0.08148148148148149],[0.06145833333333333,0.08518518518518518],[0.06145833333333333,0.09259259259259259],[0.06145833333333333,0.0962962962962963],[0.06145833333333333,0.1037037037037037],[0.06041666666666667,0.1111111111111111],[0.06041666666666667,0.11851851851851852],[0.059375,0.12962962962962962],[0.058333333333333334,0.13518518518518519],[0.057291666666666664,0.14074074074074075],[0.057291666666666664,0.14444444444444443],[0.05625,0.14814814814814814],[0.05520833333333333,0.15],[0.05416666666666667,0.15185185185185185],[0.052083333333333336,0.15555555555555556],[0.04895833333333333,0.15925925925925927],[0.04791666666666667,0.15925925925925927],[0.04791666666666667,0.16111111111111112],[0.04791666666666667,0.16111111111111112],[0.04791666666666667,0.16111111111111112],[0.04791666666666667,0.16111111111111112],[0.04791666666666667,0.16111111111111112],[0.04791666666666667,0.16111111111111112],[0.04791666666666667,0.16111111111111112],[0.04791666666666667,0.16111111111111112],[0.04791666666666667,0.16111111111111112],[0.04791666666666667,0.16111111111111112],[0.04791666666666667,0.16111111111111112],[0.04791666666666667,0.16111111111111112],[0.04791666666666667,0.16111111111111112],[0.04791666666666667,0.16111111111111112],[0.04791666666666667,0.16111111111111112],[0.04791666666666667,0.16111111111111112],[0.04791666666666667,0.16111111111111112],[0.04791666666666667,0.16111111111111112],[0.04791666666666667,0.16111111111111112],[0.04791666666666667,0.16111111111111112],[0.04791666666666667,0.16111111111111112],[0.04791666666666667,0.16111111111111112],[0.04791666666666667,0.16111111111111112],[0.04791666666666667,0.16111111111111112],[0.04791666666666667,0.16111111111111112],[0.04791666666666667,0.16111111111111112],[0.04791666666666667,0.16111111111111112],[0.04791666666666667,0.16111111111111112],[0.04791666666666667,0.16111111111111112],[0.04791666666666667,0.16111111111111112],[0.04791666666666667,0.16111111111111112],[0.04791666666666667,0.16111111111111112],[0.04791666666666667,0.16111111111111112],[0.04791666666666667,0.16111111111111112],[0.04791666666666667,0.16111111111111112],[0.04791666666666667,0.16111111111111112],[0.04791666666666667,0.16111111111111112],[0.04791666666666667,0.16111111111111112],[0.04791666666666667,0.16111111111111112],[0.04791666666666667,0.16111111111111112],[0.04791666666666667,0.16111111111111112],[0.04791666666666667,0.16111111111111112],[0.04791666666666667,0.16111111111111112],[0.04791666666666667,0.16111111111111112],[0.04791666666666667,0.16111111111111112],[0.04791666666666667,0.16111111111111112],[0.04791666666666667,0.16111111111111112],[0.04791666666666667,0.16111111111111112],[0.04791666666666667,0.16111111111111112],[0.04791666666666667,0.16111111111111112],[0.04791666666666667,0.16111111111111112],[0.04791666666666667,0.16111111111111112],[0.04791666666666667,0.16111111111111112],[0.04791666666666667,0.16111111111111112],[0.04791666666666667,0.16111111111111112],[0.04791666666666667,0.16111111111111112],[0.04791666666666667,0.16111111111111112],[0.04791666666666667,0.16111111111111112],[0.04791666666666667,0.16111111111111112],[0.04583333333333333,0.16111111111111112],[0.042708333333333334,0.16111111111111112],[0.03854166666666667,0.16111111111111112],[0.03333333333333333,0.16111111111111112],[0.021875,0.16111111111111112],[0.0125,0.16111111111111112],[0.003125,0.16111111111111112],[-0.005208333333333333,0.16111111111111112],[-0.016666666666666666,0.16111111111111112],[-0.023958333333333335,0.16111111111111112],[-0.030208333333333334,0.16111111111111112],[-0.034375,0.16111111111111112],[-0.036458333333333336,0.16111111111111112],[-0.0375,0.16111111111111112],[-0.040625,0.16111111111111112],[-0.042708333333333334,0.16111111111111112],[-0.04583333333333333,0.16111111111111112],[-0.046875,0.16111111111111112],[-0.05,0.16296296296296298],[-0.05,0.16296296296296298],[-0.05,0.16296296296296298],[-0.052083333333333336,0.16296296296296298],[-0.052083333333333336,0.16296296296296298],[-0.053125,0.16296296296296298],[-0.053125,0.16296296296296298],[-0.053125,0.16296296296296298],[-0.053125,0.16296296296296298],[-0.053125,0.16296296296296298],[-0.05416666666666667,0.16296296296296298],[-0.05416666666666667,0.16296296296296298],[-0.05416666666666667,0.16296296296296298],[-0.05416666666666667,0.16296296296296298],[-0.05416666666666667,0.16296296296296298],[-0.05416666666666667,0.16296296296296298],[-0.05416666666666667,0.16296296296296298],[-0.05416666666666667,0.16296296296296298],[-0.05416666666666667,0.16296296296296298],[-0.05416666666666667,0.16296296296296298],[-0.05416666666666667,0.16296296296296298],[-0.05416666666666667,0.16296296296296298],[-0.05416666666666667,0.16296296296296298],[-0.05416666666666667,0.16296296296296298],[-0.05416666666666667,0.16296296296296298],[-0.05416666666666667,0.16296296296296298],[-0.05416666666666667,0.16296296296296298],[-0.05416666666666667,0.16296296296296298],[-0.05416666666666667,0.16296296296296298],[-0.05416666666666667,0.16296296296296298],[-0.05416666666666667,0.16296296296296298],[-0.05416666666666667,0.16296296296296298],[-0.05416666666666667,0.16296296296296298],[-0.05416666666666667,0.16296296296296298],[-0.05416666666666667,0.16296296296296298],[-0.05416666666666667,0.16296296296296298],[-0.05416666666666667,0.16296296296296298],[-0.05416666666666667,0.16296296296296298],[-0.05416666666666667,0.16296296296296298],[-0.05416666666666667,0.16296296296296298],[-0.05416666666666667,0.16296296296296298],[-0.05416666666666667,0.16296296296296298],[-0.05416666666666667,0.16296296296296298],[-0.05416666666666667,0.16296296296296298],[-0.05416666666666667,0.16296296296296298],[-0.05416666666666667,0.16296296296296298],[-0.05416666666666667,0.16296296296296298],[-0.05416666666666667,0.16296296296296298],[-0.05416666666666667,0.16296296296296298],[-0.05416666666666667,0.16296296296296298],[-0.05416666666666667,0.16296296296296298],[-0.05416666666666667,0.16296296296296298],[-0.05416666666666667,0.16296296296296298],[-0.05416666666666667,0.16296296296296298],[-0.05416666666666667,0.16296296296296298],[-0.05416666666666667,0.16296296296296298],[-0.05416666666666667,0.16296296296296298],[-0.05416666666666667,0.16296296296296298],[-0.05416666666666667,0.16296296296296298],[-0.05416666666666667,0.16296296296296298],[-0.05416666666666667,0.16296296296296298],[-0.05416666666666667,0.16296296296296298],[-0.05416666666666667,0.16296296296296298],[-0.05416666666666667,0.16296296296296298],[-0.05416666666666667,0.16296296296296298],[-0.05416666666666667,0.16296296296296298],[-0.05416666666666667,0.16296296296296298],[-0.05416666666666667,0.16296296296296298],[-0.05416666666666667,0.16296296296296298],[-0.05416666666666667,0.16296296296296298],[-0.05416666666666667,0.16296296296296298],[-0.05416666666666667,0.16296296296296298],[-0.05416666666666667,0.16296296296296298],[-0.05416666666666667,0.16296296296296298],[-0.05416666666666667,0.16296296296296298],[-0.05416666666666667,0.16296296296296298],[-0.05416666666666667,0.16296296296296298],[-0.05416666666666667,0.16296296296296298],[-0.05416666666666667,0.16296296296296298],[-0.05416666666666667,0.16296296296296298],[-0.05416666666666667,0.16296296296296298],[-0.05416666666666667,0.16296296296296298],[-0.05416666666666667,0.16296296296296298],[-0.05416666666666667,0.16296296296296298],[-0.05416666666666667,0.16296296296296298],[-0.05416666666666667,0.16296296296296298],[-0.05416666666666667,0.16296296296296298],[-0.05416666666666667,0.16296296296296298],[-0.05416666666666667,0.16296296296296298],[-0.05416666666666667,0.16296296296296298],[-0.05416666666666667,0.16296296296296298],[-0.05416666666666667,0.16296296296296298],[-0.05416666666666667,0.16296296296296298],[-0.05416666666666667,0.16296296296296298],[-0.05416666666666667,0.16296296296296298],[-0.05416666666666667,0.16296296296296298],[-0.05416666666666667,0.16296296296296298],[-0.05416666666666667,0.16296296296296298],[-0.05416666666666667,0.16296296296296298],[-0.05416666666666667,0.16296296296296298],[-0.05416666666666667,0.16296296296296298],[-0.05416666666666667,0.16296296296296298],[-0.05416666666666667,0.16296296296296298],[-0.05416666666666667,0.16296296296296298],[-0.05416666666666667,0.16296296296296298],[-0.05416666666666667,0.16296296296296298],[-0.05416666666666667,0.16296296296296298],[-0.05416666666666667,0.16296296296296298],[-0.05416666666666667,0.16296296296296298],[-0.05416666666666667,0.16296296296296298],[-0.05416666666666667,0.16296296296296298],[-0.05416666666666667,0.16296296296296298],[-0.05416666666666667,0.16296296296296298],[-0.05416666666666667,0.16296296296296298],[-0.05416666666666667,0.16296296296296298],[-0.05416666666666667,0.16296296296296298],[-0.05416666666666667,0.16296296296296298],[-0.05416666666666667,0.16296296296296298],[-0.05416666666666667,0.16296296296296298],[-0.05416666666666667,0.16296296296296298],[-0.05416666666666667,0.16296296296296298],[-0.05416666666666667,0.16296296296296298],[-0.05416666666666667,0.16296296296296298],[-0.05416666666666667,0.16296296296296298],[-0.05416666666666667,0.16296296296296298],[-0.05416666666666667,0.16296296296296298],[-0.05416666666666667,0.16296296296296298],[-0.05416666666666667,0.16296296296296298],[-0.05416666666666667,0.16296296296296298]]","[[-0.060000000000000026,0.4462962962962963],[-0.060000000000000026,0.4462962962962963],[-0.06145833333333333,0.44314814814814807],[-0.06312500000000003,0.4396296296296296],[-0.06541666666666662,0.4348148148148147],[-0.06364583333333336,0.43629629629629635],[-0.06427083333333337,0.4348148148148147],[-0.06885416666666669,0.42611111111111116],[-0.07552083333333333,0.41388888888888886],[-0.07927083333333336,0.4068518518518519],[-0.08385416666666666,0.3987037037037036],[-0.09375,0.381111111111111],[-0.09989583333333331,0.3709259259259258],[-0.10052083333333334,0.36925925925925923],[-0.10052083333333334,0.3683333333333333],[-0.10281250000000004,0.36314814814814816],[-0.10385416666666672,0.3609259259259259],[-0.10093749999999997,0.365925925925926],[-0.09802083333333336,0.3709259259259258],[-0.10010416666666669,0.3670370370370371],[-0.103125,0.3609259259259259],[-0.10333333333333337,0.3603703703703704],[-0.09885416666666665,0.36740740740740735],[-0.10333333333333337,0.35981481481481475],[-0.10354166666666664,0.3592592592592593],[-0.10572916666666667,0.3566666666666667],[-0.10916666666666662,0.35111111111111115],[-0.10989583333333333,0.34981481481481475],[-0.11062500000000004,0.3485185185185186],[-0.11124999999999995,0.34740740740740744],[-0.11187499999999997,0.34629629629629627],[-0.11166666666666672,0.34666666666666673],[-0.11166666666666672,0.34666666666666673],[-0.11541666666666663,0.34018518518518526],[-0.1109375,0.34814814814814815],[-0.11385416666666662,0.3461111111111111],[-0.11604166666666664,0.3449999999999999],[-0.11968749999999997,0.34388888888888897],[-0.12604166666666666,0.33851851851851844],[-0.12604166666666666,0.33851851851851844],[-0.1375,0.3255555555555555],[-0.1375,0.3255555555555555],[-0.14187500000000006,0.32407407407407407],[-0.14187500000000006,0.32407407407407407],[-0.14500000000000005,0.32444444444444454],[-0.14500000000000005,0.32444444444444454],[-0.14187500000000006,0.3329629629629629],[-0.14187500000000006,0.3329629629629629],[-0.140625,0.3375925925925925],[-0.140625,0.3375925925925925],[-0.14333333333333337,0.33499999999999996],[-0.14333333333333337,0.33499999999999996],[-0.1388541666666666,0.3411111111111112],[-0.1388541666666666,0.3411111111111112],[-0.13791666666666663,0.34148148148148144],[-0.13791666666666663,0.34148148148148144],[-0.1359375,0.34018518518518526],[-0.13395833333333335,0.3388888888888889],[-0.12687499999999996,0.34518518518518515],[-0.12687499999999996,0.34518518518518515],[-0.12291666666666666,0.3461111111111111],[-0.12291666666666666,0.3461111111111111],[-0.12177083333333331,0.3431481481481481],[-0.12458333333333335,0.33537037037037043],[-0.12541666666666665,0.34],[-0.12687499999999996,0.34388888888888897],[-0.12916666666666668,0.34740740740740744],[-0.12916666666666668,0.34740740740740744],[-0.13114583333333332,0.3411111111111112],[-0.1267708333333334,0.342962962962963],[-0.1202083333333333,0.3448148148148149],[-0.11687500000000005,0.34592592592592586],[-0.11552083333333331,0.34444444444444444],[-0.11552083333333331,0.34444444444444444],[-0.11166666666666672,0.3477777777777777],[-0.10812499999999996,0.3485185185185186],[-0.10375000000000002,0.34333333333333327],[-0.09864583333333338,0.34074074074074073],[-0.09354166666666662,0.3381481481481482],[-0.08687499999999998,0.3494444444444445],[-0.0859375,0.3531481481481482],[-0.08552083333333335,0.35981481481481475],[-0.08197916666666671,0.36796296296296305],[-0.08197916666666671,0.36796296296296305],[-0.07760416666666667,0.3768518518518518],[-0.0751041666666667,0.38185185185185194],[-0.071875,0.39018518518518525],[-0.06927083333333334,0.3968518518518518],[-0.06802083333333328,0.4014814814814814],[-0.06677083333333336,0.40611111111111103],[-0.06437499999999995,0.41148148148148156],[-0.06291666666666665,0.4166666666666667],[-0.0625,0.4087037037037038],[-0.06104166666666669,0.4],[-0.06041666666666667,0.3905555555555555],[-0.058333333333333334,0.3838888888888888],[-0.059687499999999956,0.37333333333333335],[-0.06031249999999998,0.3616666666666666],[-0.06031249999999998,0.3494444444444445],[-0.059895833333333336,0.3396296296296296],[-0.05947916666666669,0.32981481481481484],[-0.06020833333333329,0.3183333333333333],[-0.06156250000000003,0.3170370370370371],[-0.06437499999999995,0.31592592592592594],[-0.06437499999999995,0.31592592592592594],[-0.0671875,0.3148148148148148],[-0.07177083333333331,0.30907407407407406],[-0.07177083333333331,0.30907407407407406],[-0.06916666666666664,0.31074074074074065],[-0.06916666666666664,0.31074074074074065],[-0.06916666666666664,0.31074074074074065],[-0.07072916666666665,0.3114814814814816],[-0.07458333333333336,0.30629629629629623],[-0.0765625,0.30407407407407416],[-0.07374999999999995,0.2983333333333334],[-0.06843750000000005,0.2948148148148149],[-0.06312500000000003,0.2912962962962962],[-0.06104166666666669,0.2803703703703703],[-0.06375000000000004,0.26425925925925936],[-0.0655208333333333,0.24648148148148152],[-0.0672916666666667,0.22870370370370371],[-0.06385416666666661,0.22296296296296292],[-0.05916666666666662,0.22388888888888886],[-0.05520833333333333,0.20851851851851855],[-0.04822916666666662,0.19666666666666674],[-0.050625000000000024,0.1933333333333333],[-0.05354166666666664,0.19000000000000003],[-0.05354166666666664,0.19000000000000003],[-0.04791666666666667,0.1935185185185185],[-0.04041666666666662,0.2037037037037037],[-0.03229166666666667,0.21740740740740735],[-0.03229166666666667,0.21740740740740735],[-0.024687500000000046,0.22037037037037038],[-0.0203125,0.20999999999999996],[-0.011458333333333333,0.18851851851851845],[-0.004999999999999952,0.19203703703703712],[-0.004999999999999952,0.19314814814814807],[0.004375000000000047,0.19203703703703712],[0.01427083333333338,0.19092592592592597],[0.018333333333333358,0.17833333333333326],[0.02052083333333338,0.15907407407407403],[0.021875,0.14833333333333337],[0.02322916666666662,0.1581481481481481],[0.021979166666666692,0.16611111111111118],[0.020624999999999952,0.17333333333333337],[0.017916666666666713,0.18370370370370379],[0.013854166666666619,0.19648148148148153],[0.006458333333333381,0.20055555555555546],[-0.0009374999999999763,0.20462962962962963],[-0.005312500000000024,0.22111111111111106],[-0.009687499999999953,0.23759259259259252],[-0.009895833333333333,0.24592592592592585],[-0.009583333333333381,0.24444444444444444],[-0.011562500000000024,0.244074074074074],[-0.016875000000000046,0.2548148148148149],[-0.014895833333333285,0.25833333333333336],[-0.012187500000000047,0.2553703703703703],[-0.010000000000000024,0.2512962962962964],[-0.005312500000000024,0.25037037037037047],[-0.0018749999999999527,0.25203703703703706],[0.0005208333333333333,0.26055555555555565],[0.0005208333333333333,0.26055555555555565],[0.0015625,0.2631481481481482],[0.002708333333333357,0.25870370370370377],[0.002708333333333357,0.25870370370370377],[0.006666666666666643,0.25851851851851854],[0.006666666666666643,0.25851851851851854],[0.01416666666666669,0.24388888888888896],[0.01895833333333338,0.22462962962962954],[0.01895833333333338,0.2124074074074075],[0.025625000000000023,0.19203703703703712],[0.025416666666666643,0.1866666666666666],[0.025416666666666643,0.1866666666666666],[0.029270833333333357,0.1603703703703704],[0.029270833333333357,0.1603703703703704],[0.034895833333333334,0.1270370370370371],[0.034895833333333334,0.1270370370370371],[0.0390625,0.09499999999999992],[0.0390625,0.09499999999999992],[0.043958333333333384,0.072037037037037],[0.04510416666666662,0.06222222222222226],[0.04510416666666662,0.06222222222222226],[0.04385416666666669,0.056666666666666705],[0.04385416666666669,0.056666666666666705],[0.04125000000000002,0.0418518518518519],[0.046875,0.019999999999999917],[0.046875,0.019999999999999917],[0.04718749999999995,0.004814814814814857],[0.051041666666666666,-0.022222222222222223],[0.05239583333333329,-0.042407407407407366],[0.05406249999999998,-0.04425925925925922],[0.053125,-0.053703703703703705],[0.049687500000000044,-0.0507407407407407],[0.049687500000000044,-0.0507407407407407],[0.052291666666666715,-0.07537037037037035],[0.05406249999999998,-0.09574074074074072],[0.05510416666666664,-0.11518518518518517],[0.05166666666666669,-0.10537037037037032],[0.04874999999999995,-0.09296296296296294],[0.04885416666666664,-0.08703703703703704],[0.04739583333333333,-0.06703703703703702],[0.044062499999999956,-0.07333333333333338],[0.043437500000000046,-0.05759259259259263],[0.04229166666666669,-0.05240740740740743],[0.04010416666666667,-0.03814814814814819],[0.041875000000000044,-0.03481481481481473],[0.04562499999999995,-0.023148148148148147],[0.04385416666666669,-0.027037037037037078],[0.04208333333333331,-0.03092592592592601],[0.03770833333333338,-0.030000000000000086],[0.03333333333333333,-0.02907407407407416],[0.03333333333333333,-0.02907407407407416],[0.029895833333333382,-0.01962962962962967],[0.021354166666666667,-0.018518518518518517],[0.014999999999999977,-0.021296296296296296],[0.0068750000000000235,-0.009259259259259259],[0.0068750000000000235,-0.009259259259259259],[-0.005520833333333286,0.01962962962962967],[-0.005520833333333286,0.01962962962962967],[-0.014999999999999977,0.04314814814814806],[-0.014999999999999977,0.06148148148148157],[-0.01864583333333331,0.08129629629629626],[-0.021875,0.09648148148148153],[-0.025833333333333285,0.10870370370370379],[-0.025833333333333285,0.10870370370370379],[-0.025833333333333285,0.10870370370370379],[-0.0296875,0.1205555555555556],[-0.0296875,0.1205555555555556],[-0.026145833333333358,0.1331481481481481],[-0.02322916666666662,0.14351851851851852],[-0.015416666666666618,0.14370370370370375],[-0.01114583333333338,0.14314814814814805],[-0.01114583333333338,0.14314814814814805],[-0.007187499999999976,0.14592592592592585],[-0.005312500000000024,0.13907407407407413],[-0.002708333333333357,0.1346296296296297],[0.0010416666666666667,0.12222222222222222],[0.002291666666666714,0.1270370370370371],[0.003333333333333381,0.13185185185185194],[0.002708333333333357,0.1427777777777778],[0.002708333333333357,0.15592592592592602],[0.0005208333333333333,0.15629629629629627],[0.000833333333333286,0.1485185185185186],[-0.00635416666666669,0.15351851851851847],[-0.015104166666666667,0.16611111111111118],[-0.017499999999999953,0.16166666666666657],[-0.017499999999999953,0.16166666666666657],[-0.021458333333333357,0.16796296296296304],[-0.02364583333333338,0.15537037037037033],[-0.024583333333333356,0.15833333333333333],[-0.027187500000000024,0.1507407407407407],[-0.027604166666666666,0.15388888888888894],[-0.02385416666666664,0.1381481481481482],[-0.03135416666666669,0.16796296296296304],[-0.035312499999999976,0.18481481481481474],[-0.03239583333333336,0.18592592592592588],[-0.03291666666666669,0.20018518518518522],[-0.03114583333333331,0.21481481481481482],[-0.02791666666666662,0.23407407407407405],[-0.02791666666666662,0.21148148148148158],[-0.027499999999999976,0.19074074074074074],[-0.025833333333333285,0.14240740740740737],[-0.035416666666666666,0.14370370370370375],[-0.0296875,0.09462962962962967],[-0.022604166666666713,0.0477777777777777],[-0.021562500000000047,0.018518518518518517],[-0.021562500000000047,0.018518518518518517],[-0.022291666666666644,-0.018333333333333292],[-0.024166666666666715,-0.05277777777777778],[-0.027083333333333334,-0.09185185185185189],[-0.03156249999999995,-0.10111111111111115],[-0.033749999999999974,-0.11129629629629634],[-0.04031250000000005,-0.11148148148148146],[-0.03947916666666664,-0.12999999999999998],[-0.041666666666666664,-0.13481481481481483],[-0.04041666666666662,-0.14685185185185187],[-0.043958333333333384,-0.15481481481481485],[-0.04708333333333338,-0.14592592592592596],[-0.050937499999999976,-0.1425925925925926],[-0.050312499999999954,-0.15],[-0.04510416666666662,-0.15111111111111114],[-0.0421875,-0.15129629629629626],[-0.03833333333333329,-0.14462962962962966],[-0.03833333333333329,-0.14462962962962966],[-0.03916666666666669,-0.1374074074074074],[-0.036458333333333336,-0.1388888888888889],[-0.03718750000000005,-0.1331481481481481],[-0.034791666666666644,-0.13240740740740742],[-0.03125,-0.1485185185185185],[-0.02802083333333331,-0.1537037037037037],[-0.02822916666666669,-0.14351851851851852],[-0.02822916666666669,-0.14351851851851852],[-0.030624999999999975,-0.1492592592592593],[-0.030624999999999975,-0.1492592592592593],[-0.03156249999999995,-0.16277777777777774],[-0.034062500000000044,-0.16777777777777783],[-0.034062500000000044,-0.16777777777777783],[-0.03291666666666669,-0.18055555555555555],[-0.03427083333333331,-0.1881481481481482],[-0.03687499999999998,-0.18592592592592588],[-0.03687499999999998,-0.18592592592592588],[-0.04072916666666669,-0.18425925925925926],[-0.04489583333333336,-0.18425925925925926],[-0.04874999999999995,-0.19518518518518516],[-0.05302083333333331,-0.20166666666666663],[-0.05614583333333331,-0.20203703703703707],[-0.06072916666666662,-0.19462962962962968],[-0.058229166666666644,-0.19981481481481478],[-0.05593750000000005,-0.20203703703703707],[-0.0546875,-0.19740740740740745],[-0.052187500000000026,-0.20259259259259255],[-0.0484375,-0.20092592592592592],[-0.044166666666666646,-0.19000000000000003],[-0.04020833333333336,-0.17592592592592593],[-0.03583333333333331,-0.16629629629629633],[-0.03093750000000005,-0.15907407407407403],[-0.02791666666666662,-0.15703703703703706],[-0.02947916666666662,-0.14074074074074075],[-0.03104166666666662,-0.12444444444444443],[-0.035104166666666714,-0.11833333333333329],[-0.036666666666666715,-0.11962962962962967],[-0.03885416666666662,-0.11851851851851852],[-0.042708333333333334,-0.11666666666666667],[-0.052083333333333336,-0.12037037037037036],[-0.06145833333333333,-0.12407407407407407],[-0.07208333333333337,-0.1331481481481481],[-0.07281249999999997,-0.11944444444444445],[-0.07416666666666671,-0.12925925925925927],[-0.07781250000000005,-0.13092592592592592],[-0.07781250000000005,-0.13092592592592592],[-0.07760416666666667,-0.13277777777777774],[-0.0859375,-0.12240740740740745],[-0.08572916666666662,-0.11944444444444445],[-0.08552083333333335,-0.1259259259259259],[-0.07947916666666661,-0.12999999999999998],[-0.08270833333333331,-0.13777777777777775],[-0.07864583333333333,-0.13425925925925927],[-0.08208333333333329,-0.14074074074074075],[-0.08416666666666663,-0.13759259259259263],[-0.08770833333333337,-0.1359259259259259],[-0.09260416666666664,-0.1272222222222222],[-0.09270833333333334,-0.11277777777777774],[-0.09270833333333334,-0.11277777777777774],[-0.09354166666666662,-0.10425925925925927],[-0.09354166666666662,-0.10425925925925927],[-0.09604166666666672,-0.04981481481481477],[-0.09604166666666672,-0.04981481481481477],[-0.10041666666666664,0.0020370370370370794],[-0.09416666666666665,0.059999999999999956],[-0.09156249999999998,0.11888888888888897],[-0.08947916666666664,0.17018518518518513],[-0.09104166666666665,0.22166666666666676],[-0.08927083333333338,0.26592592592592595],[-0.0875,0.3101851851851852],[-0.08447916666666669,0.34388888888888897],[-0.08656250000000003,0.3831481481481481],[-0.08489583333333334,0.3861111111111111],[-0.07864583333333333,0.3962962962962963],[-0.07374999999999995,0.40407407407407414],[-0.07229166666666664,0.3514814814814814],[-0.07302083333333335,0.29148148148148145],[-0.07572916666666671,0.2368518518518518],[-0.0780208333333333,0.18277777777777787],[-0.0828125,0.1361111111111111],[-0.08791666666666664,0.08814814814814818],[-0.09229166666666669,0.03851851851851843],[-0.09708333333333338,-0.012037037037037037],[-0.10437500000000005,-0.06833333333333329],[-0.11166666666666672,-0.12462962962962965],[-0.11281249999999995,-0.09425925925925922],[-0.11177083333333329,-0.05648148148148148],[-0.11166666666666672,-0.06388888888888888],[-0.11156250000000002,-0.0712962962962963],[-0.10614583333333331,-0.06962962962962967],[-0.10041666666666664,-0.06666666666666667],[-0.09468749999999998,-0.053148148148148125],[-0.09166666666666666,-0.03981481481481482],[-0.08885416666666662,-0.025370370370370456],[-0.0860416666666667,-0.010925925925925884],[-0.09083333333333338,-0.026111111111111154],[-0.09562499999999995,-0.04129629629629621],[-0.0953125,-0.024814814814814772],[-0.09406249999999995,-0.007592592592592635],[-0.09458333333333328,0.014814814814814815],[-0.0967708333333333,0.006111111111111027],[-0.09822916666666662,0.013703703703703662],[-0.09697916666666669,0.021481481481481525],[-0.09729166666666664,0.0257407407407407],[-0.09760416666666671,0.030000000000000086],[-0.09510416666666661,0.03148148148148148],[-0.09260416666666664,0.03296296296296288],[-0.09354166666666662,0.049074074074074076],[-0.09541666666666669,0.06444444444444436],[-0.09916666666666671,0.057777777777777865],[-0.10125000000000005,0.08222222222222218],[-0.10385416666666672,0.08074074074074078],[-0.10645833333333338,0.07925925925925917],[-0.10666666666666665,0.07759259259259255],[-0.10718749999999998,0.07388888888888885],[-0.10854166666666672,0.07185185185185176],[-0.11000000000000003,0.06962962962962967]]","[[-0.060000000000000026,0.4462962962962963,0.0003000001907338401],[-0.060000000000000026,0.4462962962962963,0.0519999999999925],[-0.06145833333333333,0.44314814814814807,0.060900000095358564],[-0.06312500000000003,0.4396296296296296,0.0776999998092549],[-0.06541666666666662,0.4348148148148147,0.09559999990462131],[-0.06364583333333336,0.43629629629629635,0.11109999990462427],[-0.06427083333333337,0.4348148148148147,0.13009999990462973],[-0.06885416666666669,0.42611111111111116,0.14590000009536652],[-0.07552083333333333,0.41388888888888886,0.16549999999999443],[-0.07927083333333336,0.4068518518518519,0.18099999999999739],[-0.08385416666666666,0.3987037037037036,0.19459999990462507],[-0.09375,0.381111111111111,0.21450000000000102],[-0.09989583333333331,0.3709259259259258,0.23140000009536266],[-0.10052083333333334,0.36925925925925923,0.24609999990462939],[-0.10052083333333334,0.3683333333333333,0.26080000019072713],[-0.10281250000000004,0.36314814814814816,0.2774999999999892],[-0.10385416666666672,0.3609259259259259,0.2941999998092655],[-0.10093749999999997,0.365925925925926,0.3108000001907243],[-0.09802083333333336,0.3709259259259258,0.32759999990462063],[-0.10010416666666669,0.3670370370370371,0.34419999980926264],[-0.103125,0.3609259259259259,0.3609000000953557],[-0.10333333333333337,0.3603703703703704,0.3774999999999977],[-0.09885416666666665,0.36740740740740735,0.39449999999999363],[-0.10333333333333337,0.35981481481481475,0.41100000000000136],[-0.10354166666666664,0.3592592592592593,0.4299999999999926],[-0.10572916666666667,0.3566666666666667,0.44419999980925695],[-0.10916666666666662,0.35111111111111115,0.46090000009536425],[-0.10989583333333333,0.34981481481481475,0.4813000001907284],[-0.11062500000000004,0.3485185185185186,0.4979000000953562],[-0.11124999999999995,0.34740740740740744,0.5109999999999957],[-0.11187499999999997,0.34629629629629627,0.5275999999046235],[-0.11166666666666672,0.34666666666666673,0.5475999999046337],[-0.11166666666666672,0.34666666666666673,0.5624000000953657],[-0.11541666666666663,0.34018518518518526,0.5775999999046206],[-0.1109375,0.34814814814814815,0.5944999999999965],[-0.11385416666666662,0.3461111111111111,0.6109000000953557],[-0.11604166666666664,0.3449999999999999,0.6284999999999883],[-0.11968749999999997,0.34388888888888897,0.6440999999046255],[-0.12604166666666666,0.33851851851851844,0.6608000001907328],[-0.12604166666666666,0.33851851851851844,0.6774999999999949],[-0.1375,0.3255555555555555,0.694199999809257],[-0.1375,0.3255555555555555,0.7109000000953642],[-0.14187500000000006,0.32407407407407407,0.7275999999046263],[-0.14187500000000006,0.32407407407407407,0.7441999998092541],[-0.14500000000000005,0.32444444444444454,0.7609000000953614],[-0.14500000000000005,0.32444444444444454,0.7775999999046235],[-0.14187500000000006,0.3329629629629629,0.7943000001907308],[-0.14187500000000006,0.3329629629629629,0.8109999999999928],[-0.140625,0.3375925925925925,0.8275999999046206],[-0.140625,0.3375925925925925,0.8440999999046284],[-0.14333333333333337,0.33499999999999996,0.8609000000953557],[-0.14333333333333337,0.33499999999999996,0.8774999999999977],[-0.1388541666666666,0.3411111111111112,0.8941999998092598],[-0.1388541666666666,0.3411111111111112,0.9109000000953671],[-0.13791666666666663,0.34148148148148144,0.9274999999999949],[-0.13791666666666663,0.34148148148148144,0.944199999809257],[-0.1359375,0.34018518518518526,0.9609999999999985],[-0.13395833333333335,0.3388888888888889,0.9818000001907308],[-0.12687499999999996,0.34518518518518515,0.998199999809259],[-0.12687499999999996,0.34518518518518515,1.0109000000953614],[-0.12291666666666666,0.3461111111111111,1.0274999999999892],[-0.12291666666666666,0.3461111111111111,1.0441999998092655],[-0.12177083333333331,0.3431481481481481,1.0609000000953586],[-0.12458333333333335,0.33537037037037043,1.080699999809255],[-0.12541666666666665,0.34,1.0971999998092627],[-0.12687499999999996,0.34388888888888897,1.1119000000953605],[-0.12916666666666668,0.34740740740740744,1.1314000000953683],[-0.12916666666666668,0.34740740740740744,1.1444999999999936],[-0.13114583333333332,0.3411111111111112,1.1610000000000014],[-0.1267708333333334,0.342962962962963,1.181199999809266],[-0.1202083333333333,0.3448148148148149,1.1970999999046228],[-0.11687500000000005,0.34592592592592586,1.211599999904621],[-0.11552083333333331,0.34444444444444444,1.2349000000953652],[-0.11552083333333331,0.34444444444444444,1.244099999904634],[-0.11166666666666672,0.3477777777777777,1.2609000000953614],[-0.10812499999999996,0.3485185185185186,1.2780999999046259],[-0.10375000000000002,0.34333333333333327,1.2950999999046218],[-0.09864583333333338,0.34074074074074073,1.3109000000953586],[-0.09354166666666662,0.3381481481481482,1.3299999999999983],[-0.08687499999999998,0.3494444444444445,1.3449000000953646],[-0.0859375,0.3531481481481482,1.3615999999046267],[-0.08552083333333335,0.35981481481481475,1.379499999999993],[-0.08197916666666671,0.36796296296296305,1.4008000001907277],[-0.08197916666666671,0.36796296296296305,1.410900000095367],[-0.07760416666666667,0.3768518518518518,1.4275999999046292],[-0.0751041666666667,0.38185185185185194,1.444199999809257],[-0.071875,0.39018518518518525,1.4621999998092576],[-0.06927083333333334,0.3968518518518518,1.4789999999999992],[-0.06802083333333328,0.4014814814814814,1.4964000000953632],[-0.06677083333333336,0.40611111111111103,1.5109000000953614],[-0.06437499999999995,0.41148148148148156,1.5304999999999893],[-0.06291666666666665,0.4166666666666667,1.5469000000953628],[-0.0625,0.4087037037037038,1.5635999999046248],[-0.06104166666666669,0.4,1.5794000000953616],[-0.06041666666666667,0.3905555555555555,1.5941999998092626],[-0.058333333333333334,0.3838888888888888,1.6134000000953677],[-0.059687499999999956,0.37333333333333335,1.6303000001907293],[-0.06031249999999998,0.3616666666666666,1.6441999998092598],[-0.06031249999999998,0.3494444444444445,1.6614000000953695],[-0.059895833333333336,0.3396296296296296,1.6775999999046292],[-0.05947916666666669,0.32981481481481484,1.697199999809257],[-0.06020833333333329,0.3183333333333333,1.712300000190723],[-0.06156250000000003,0.3170370370370371,1.7329999999999899],[-0.06437499999999995,0.31592592592592594,1.7484999999999928],[-0.06437499999999995,0.31592592592592594,1.7630999999046253],[-0.0671875,0.3148148148148148,1.7779000000953573],[-0.07177083333333331,0.30907407407407406,1.798900000095358],[-0.07177083333333331,0.30907407407407406,1.8140999999046272],[-0.06916666666666664,0.31074074074074065,1.827699999809255],[-0.06916666666666664,0.31074074074074065,1.844300000190728],[-0.06916666666666664,0.31074074074074065,1.8641999998092587],[-0.07072916666666665,0.3114814814814816,1.8791999998092592],[-0.07458333333333336,0.30629629629629623,1.8954000000953641],[-0.0765625,0.30407407407407416,1.913499999999999],[-0.07374999999999995,0.2983333333333334,1.9309000000953631],[-0.06843750000000005,0.2948148148148149,1.9474000000953566],[-0.06312500000000003,0.2912962962962962,1.9654999999999916],[-0.06104166666666669,0.2803703703703703,1.9804000000953579],[-0.06375000000000004,0.26425925925925936,1.9965999999046318],[-0.0655208333333333,0.24648148148148152,2.0115999999046323],[-0.0672916666666667,0.22870370370370371,2.030699999809258],[-0.06385416666666661,0.22296296296296292,2.046699999809263],[-0.05916666666666662,0.22388888888888886,2.0611999998092614],[-0.05520833333333333,0.20851851851851855,2.080199999809267],[-0.04822916666666662,0.19666666666666674,2.096499999999992],[-0.050625000000000024,0.1933333333333333,2.1110999999046243],[-0.05354166666666664,0.19000000000000003,2.1329000000953613],[-0.05354166666666664,0.19000000000000003,2.1444000000953594],[-0.04791666666666667,0.1935185185185185,2.1610999999046214],[-0.04041666666666662,0.2037037037037037,2.1776999998092634],[-0.03229166666666667,0.21740740740740735,2.209800000190725],[-0.03229166666666667,0.21740740740740735,2.217800000190735],[-0.024687500000000046,0.22037037037037038,2.2276999998092606],[-0.0203125,0.20999999999999996,2.2468000001907313],[-0.011458333333333333,0.18851851851851845,2.263999999999996],[-0.004999999999999952,0.19203703703703712,2.2776999998092577],[-0.004999999999999952,0.19314814814814807,2.298800000190724],[0.004375000000000047,0.19203703703703712,2.314400000095361],[0.01427083333333338,0.19092592592592597,2.330999999999989],[0.018333333333333358,0.17833333333333326,2.3468000001907257],[0.02052083333333338,0.15907407407407403,2.362099999904629],[0.021875,0.14833333333333337,2.3774999999999977],[0.02322916666666662,0.1581481481481481,2.39419999980926],[0.021979166666666692,0.16611111111111118,2.410800000190733],[0.020624999999999952,0.17333333333333337,2.430499999999995],[0.017916666666666713,0.18370370370370379,2.44559999990463],[0.013854166666666619,0.19648148148148153,2.46080000019073],[0.006458333333333381,0.20055555555555546,2.477499999999992],[-0.0009374999999999763,0.20462962962962963,2.494199999809254],[-0.005312500000000024,0.22111111111111106,2.510800000190727],[-0.009687499999999953,0.23759259259259252,2.5289999999999964],[-0.009895833333333333,0.24592592592592585,2.5441999998092655],[-0.009583333333333381,0.24444444444444444,2.5645999999046296],[-0.011562500000000024,0.244074074074074,2.578800000190725],[-0.016875000000000046,0.2548148148148149,2.5941999998092626],[-0.014895833333333285,0.25833333333333336,2.6108000001907357],[-0.012187500000000047,0.2553703703703703,2.6310000000000002],[-0.010000000000000024,0.2512962962962964,2.6465999999046232],[-0.005312500000000024,0.25037037037037047,2.664599999904624],[-0.0018749999999999527,0.25203703703703706,2.680900000095363],[0.0005208333333333333,0.26055555555555565,2.6965999999046346],[0.0005208333333333333,0.26055555555555565,2.71080000019073],[0.0015625,0.2631481481481482,2.7275999999046263],[0.002708333333333357,0.25870370370370377,2.744099999904634],[0.002708333333333357,0.25870370370370377,2.7609000000953614],[0.006666666666666643,0.25851851851851854,2.781800000190728],[0.006666666666666643,0.25851851851851854,2.794400000095365],[0.01416666666666669,0.24388888888888896,2.811099999904627],[0.01895833333333338,0.22462962962962954,2.827699999809255],[0.01895833333333338,0.2124074074074075,2.8468000001907257],[0.025625000000000023,0.19203703703703712,2.861400000095358],[0.025416666666666643,0.1866666666666666,2.8819000000953565],[0.025416666666666643,0.1866666666666666,2.8999999999999915],[0.029270833333333357,0.1603703703703704,2.9110000000000014],[0.029270833333333357,0.1603703703703704,2.9278000001907287],[0.034895833333333334,0.1270370370370371,2.9480999999046276],[0.034895833333333334,0.1270370370370371,2.9609999999999985],[0.0390625,0.09499999999999992,2.9776999998092606],[0.0390625,0.09499999999999992,3.0005999999046225],[0.043958333333333384,0.072037037037037,3.0109999999999957],[0.04510416666666662,0.06222222222222226,3.033699999809258],[0.04510416666666662,0.06222222222222226,3.0443000001907308],[0.04385416666666669,0.056666666666666705,3.0651999998092663],[0.04385416666666669,0.056666666666666705,3.0775999999046206],[0.04125000000000002,0.0418518518518519,3.0944999999999965],[0.046875,0.019999999999999917,3.116900000095356],[0.046875,0.019999999999999917,3.1276999998092663],[0.04718749999999995,0.004814814814814857,3.1444000000953594],[0.051041666666666666,-0.022222222222222223,3.1610000000000014],[0.05239583333333329,-0.042407407407407366,3.180499999999995],[0.05406249999999998,-0.04425925925925922,3.1969999999999885],[0.053125,-0.053703703703703705,3.2134999999999962],[0.049687500000000044,-0.0507407407407407,3.2334999999999923],[0.049687500000000044,-0.0507407407407407,3.248199999809259],[0.052291666666666715,-0.07537037037037035,3.2611999998092642],[0.05406249999999998,-0.09574074074074072,3.2776999998092577],[0.05510416666666664,-0.11518518518518517,3.2941999998092655],[0.05166666666666669,-0.10537037037037032,3.3109000000953586],[0.04874999999999995,-0.09296296296296294,3.331099999904623],[0.04885416666666664,-0.08703703703703704,3.344400000095362],[0.04739583333333333,-0.06703703703703702,3.3608000001907357],[0.044062499999999956,-0.07333333333333338,3.3774000000953635],[0.043437500000000046,-0.05759259259259263,3.3940999999046255],[0.04229166666666669,-0.05240740740740743,3.4121999998092605],[0.04010416666666667,-0.03814814814814819,3.4278000001907287],[0.041875000000000044,-0.03481481481481473,3.444199999809257],[0.04562499999999995,-0.023148148148148147,3.4633000001907277],[0.04385416666666669,-0.027037037037037078,3.4774000000953578],[0.04208333333333331,-0.03092592592592601,3.494199999809254],[0.03770833333333338,-0.030000000000000086,3.5134999999999934],[0.03333333333333333,-0.02907407407407416,3.5335999999046237],[0.03333333333333333,-0.02907407407407416,3.544099999904631],[0.029895833333333382,-0.01962962962962967,3.5609000000953586],[0.021354166666666667,-0.018518518518518517,3.5775000000000006],[0.014999999999999977,-0.021296296296296296,3.5940999999046284],[0.0068750000000000235,-0.009259259259259259,3.6108000001907357],[0.0068750000000000235,-0.009259259259259259,3.627599999904632],[-0.005520833333333286,0.01962962962962967,3.64419999980926],[-0.005520833333333286,0.01962962962962967,3.660900000095367],[-0.014999999999999977,0.04314814814814806,3.677499999999995],[-0.014999999999999977,0.06148148148148157,3.694199999809257],[-0.01864583333333331,0.08129629629629626,3.71080000019073],[-0.021875,0.09648148148148153,3.727499999999992],[-0.025833333333333285,0.10870370370370379,3.744199999809254],[-0.025833333333333285,0.10870370370370379,3.7675999999046326],[-0.025833333333333285,0.10870370370370379,3.7824000000953646],[-0.0296875,0.1205555555555556,3.803699999809254],[-0.0296875,0.1205555555555556,3.8109000000953586],[-0.026145833333333358,0.1331481481481481,3.8275999999046206],[-0.02322916666666662,0.14351851851851852,3.8441999998092626],[-0.015416666666666618,0.14370370370370375,3.864300000190724],[-0.01114583333333338,0.14314814814814805,3.880199999809264],[-0.01114583333333338,0.14314814814814805,3.89419999980926],[-0.007187499999999976,0.14592592592592585,3.9110000000000014],[-0.005312500000000024,0.13907407407407413,3.9295999999046245],[-0.002708333333333357,0.1346296296296297,3.9440999999046227],[0.0010416666666666667,0.12222222222222222,3.96080000019073],[0.002291666666666714,0.1270370370370371,3.977499999999992],[0.003333333333333381,0.13185185185185194,3.994099999904634],[0.002708333333333357,0.1427777777777778,4.010800000190727],[0.002708333333333357,0.15592592592592602,4.027499999999989],[0.0005208333333333333,0.15629629629629627,4.044099999904631],[0.000833333333333286,0.1485185185185186,4.060800000190724],[-0.00635416666666669,0.15351851851851847,4.077500000000001],[-0.015104166666666667,0.16611111111111118,4.094199999809263],[-0.017499999999999953,0.16166666666666657,4.110900000095356],[-0.017499999999999953,0.16166666666666657,4.127499999999998],[-0.021458333333333357,0.16796296296296304,4.14419999980926],[-0.02364583333333338,0.15537037037037033,4.162099999904626],[-0.024583333333333356,0.15833333333333333,4.177499999999995],[-0.027187500000000024,0.1507407407407407,4.196699999809255],[-0.027604166666666666,0.15388888888888894,4.210900000095364],[-0.02385416666666664,0.1381481481481482,4.230099999904624],[-0.03135416666666669,0.16796296296296304,4.244099999904634],[-0.035312499999999976,0.18481481481481474,4.263400000095359],[-0.03239583333333336,0.18592592592592588,4.2775999999046235],[-0.03291666666666669,0.20018518518518522,4.294900000095367],[-0.03114583333333331,0.21481481481481482,4.310999999999993],[-0.02791666666666662,0.23407407407407405,4.329400000095362],[-0.02791666666666662,0.21148148148148158,4.344300000190728],[-0.027499999999999976,0.19074074074074074,4.361599999904627],[-0.025833333333333285,0.14240740740740737,4.377599999904632],[-0.035416666666666666,0.14370370370370375,4.395800000190732],[-0.0296875,0.09462962962962967,4.411000000000001],[-0.022604166666666713,0.0477777777777777,4.427699999809263],[-0.021562500000000047,0.018518518518518517,4.4469000000953685],[-0.021562500000000047,0.018518518518518517,4.4609999999999985],[-0.022291666666666644,-0.018333333333333292,4.477599999904626],[-0.024166666666666715,-0.05277777777777778,4.496099999904629],[-0.027083333333333334,-0.09185185185185189,4.51109999990463],[-0.03156249999999995,-0.10111111111111115,4.52930000019073],[-0.033749999999999974,-0.11129629629629634,4.544300000190731],[-0.04031250000000005,-0.11148148148148146,4.562900000095368],[-0.03947916666666664,-0.12999999999999998,4.577400000095366],[-0.041666666666666664,-0.13481481481481483,4.594400000095362],[-0.04041666666666662,-0.14685185185185187,4.612900000095365],[-0.043958333333333384,-0.15481481481481485,4.629400000095359],[-0.04708333333333338,-0.14592592592592596,4.644300000190725],[-0.050937499999999976,-0.1425925925925926,4.660699999809253],[-0.050312499999999954,-0.15,4.677400000095361],[-0.04510416666666662,-0.15111111111111114,4.694199999809257],[-0.0421875,-0.15129629629629626,4.71080000019073],[-0.03833333333333329,-0.14462962962962966,4.74199999999999],[-0.03833333333333329,-0.14462962962962966,4.751999999999995],[-0.03916666666666669,-0.1374074074074074,4.764199999809264],[-0.036458333333333336,-0.1388888888888889,4.780900000095357],[-0.03718750000000005,-0.1331481481481481,4.797300000190731],[-0.034791666666666644,-0.13240740740740742,4.813400000095356],[-0.03125,-0.1485185185185185,4.827699999809255],[-0.02802083333333331,-0.1537037037037037,4.844099999904628],[-0.02822916666666669,-0.14351851851851852,4.866199999809254],[-0.02822916666666669,-0.14351851851851852,4.877499999999998],[-0.030624999999999975,-0.1492592592592593,4.89419999980926],[-0.030624999999999975,-0.1492592592592593,4.910800000190733],[-0.03156249999999995,-0.16277777777777774,4.927599999904629],[-0.034062500000000044,-0.16777777777777783,4.948099999904628],[-0.034062500000000044,-0.16777777777777783,4.96080000019073],[-0.03291666666666669,-0.18055555555555555,4.977499999999992],[-0.03427083333333331,-0.1881481481481482,4.999199999809264],[-0.03687499999999998,-0.18592592592592588,5.021000000000001],[-0.03687499999999998,-0.18592592592592588,5.0301999998092555],[-0.04072916666666669,-0.18425925925925926,5.044099999904631],[-0.04489583333333336,-0.18425925925925926,5.066499999999991],[-0.04874999999999995,-0.19518518518518516,5.081300000190737],[-0.05302083333333331,-0.20166666666666663,5.09690000009536],[-0.05614583333333331,-0.20203703703703707,5.110800000190736],[-0.06072916666666662,-0.19462962962962968,5.131300000190734],[-0.058229166666666644,-0.19981481481481478,5.146800000190737],[-0.05593750000000005,-0.20203703703703707,5.163499999999999],[-0.0546875,-0.19740740740740745,5.180400000095361],[-0.052187500000000026,-0.20259259259259255,5.195400000095361],[-0.0484375,-0.20092592592592592,5.21080000019073],[-0.044166666666666646,-0.19000000000000003,5.227699999809261],[-0.04020833333333336,-0.17592592592592593,5.244099999904634],[-0.03583333333333331,-0.16629629629629633,5.263599999904628],[-0.03093750000000005,-0.15907407407407403,5.277499999999989],[-0.02791666666666662,-0.15703703703703706,5.29549999999999],[-0.02947916666666662,-0.14074074074074075,5.310800000190724],[-0.03104166666666662,-0.12444444444444443,5.327500000000001],[-0.035104166666666714,-0.11833333333333329,5.344199999809263],[-0.036666666666666715,-0.11962962962962967,5.361599999904627],[-0.03885416666666662,-0.11851851851851852,5.377499999999998],[-0.042708333333333334,-0.11666666666666667,5.396800000190737],[-0.052083333333333336,-0.12037037037037036,5.410699999809253],[-0.06145833333333333,-0.12407407407407407,5.428900000095368],[-0.07208333333333337,-0.1331481481481481,5.445499999999996],[-0.07281249999999997,-0.11944444444444445,5.460699999809265],[-0.07416666666666671,-0.12925925925925927,5.477499999999992],[-0.07781250000000005,-0.13092592592592592,5.500300000190734],[-0.07781250000000005,-0.13092592592592592,5.515400000095369],[-0.07760416666666667,-0.13277777777777774,5.527499999999989],[-0.0859375,-0.12240740740740745,5.5441999998092655],[-0.08572916666666662,-0.11944444444444445,5.560699999809259],[-0.08552083333333335,-0.1259259259259259,5.577400000095366],[-0.07947916666666661,-0.12999999999999998,5.594199999809263],[-0.08270833333333331,-0.13777777777777775,5.610800000190736],[-0.07864583333333333,-0.13425925925925927,5.63009999990463],[-0.08208333333333329,-0.14074074074074075,5.6440999999046255],[-0.08416666666666663,-0.13759259259259263,5.660800000190733],[-0.08770833333333337,-0.1359259259259259,5.677499999999995],[-0.09260416666666664,-0.1272222222222222,5.694199999809257],[-0.09270833333333334,-0.11277777777777774,5.71080000019073],[-0.09270833333333334,-0.11277777777777774,5.727599999904626],[-0.09354166666666662,-0.10425925925925927,5.744099999904634],[-0.09354166666666662,-0.10425925925925927,5.761199999809264],[-0.09604166666666672,-0.04981481481481477,5.777499999999989],[-0.09604166666666672,-0.04981481481481477,5.7941999998092655],[-0.10041666666666664,0.0020370370370370794,5.810800000190724],[-0.09416666666666665,0.059999999999999956,5.827599999904621],[-0.09156249999999998,0.11888888888888897,5.844099999904628],[-0.08947916666666664,0.17018518518518513,5.863599999904622],[-0.09104166666666665,0.22166666666666676,5.877499999999998],[-0.08927083333333338,0.26592592592592595,5.8940999999046255],[-0.0875,0.3101851851851852,5.910699999809253],[-0.08447916666666669,0.34388888888888897,5.930499999999995],[-0.08656250000000003,0.3831481481481481,5.944099999904623],[-0.08489583333333334,0.3861111111111111,5.96080000019073],[-0.07864583333333333,0.3962962962962963,5.977400000095358],[-0.07374999999999995,0.40407407407407414,5.994099999904634],[-0.07229166666666664,0.3514814814814814,6.010800000190727],[-0.07302083333333335,0.29148148148148145,6.028999999999996],[-0.07572916666666671,0.2368518518518518,6.0441999998092655],[-0.0780208333333333,0.18277777777777787,6.060800000190724],[-0.0828125,0.1361111111111111,6.077500000000001],[-0.08791666666666664,0.08814814814814818,6.094099999904628],[-0.09229166666666669,0.03851851851851843,6.110800000190736],[-0.09708333333333338,-0.012037037037037037,6.131],[-0.10437500000000005,-0.06833333333333329,6.1440999999046255],[-0.11166666666666672,-0.12462962962962965,6.160900000095367],[-0.11281249999999995,-0.09425925925925922,6.177400000095361],[-0.11177083333333329,-0.05648148148148148,6.194199999809257],[-0.11166666666666672,-0.06388888888888888,6.21080000019073],[-0.11156250000000002,-0.0712962962962963,6.228900000095365],[-0.10614583333333331,-0.06962962962962967,6.244099999904634],[-0.10041666666666664,-0.06666666666666667,6.262099999904635],[-0.09468749999999998,-0.053148148148148125,6.277400000095369],[-0.09166666666666666,-0.03981481481481482,6.294400000095365],[-0.08885416666666662,-0.025370370370370456,6.310699999809259],[-0.0860416666666667,-0.010925925925925884,6.3308000001907345],[-0.09083333333333338,-0.026111111111111154,6.346199999809258],[-0.09562499999999995,-0.04129629629629621,6.360800000190736],[-0.0953125,-0.024814814814814772,6.3774000000953635],[-0.09406249999999995,-0.007592592592592635,6.39419999980926],[-0.09458333333333328,0.014814814814814815,6.410800000190733],[-0.0967708333333333,0.006111111111111027,6.428199999809266],[-0.09822916666666662,0.013703703703703662,6.443999999999988],[-0.09697916666666669,0.021481481481481525,6.46080000019073],[-0.09729166666666664,0.0257407407407407,6.477400000095358],[-0.09760416666666671,0.030000000000000086,6.495499999999993],[-0.09510416666666661,0.03148148148148148,6.510800000190727],[-0.09260416666666664,0.03296296296296288,6.53119999980926],[-0.09354166666666662,0.049074074074074076,6.546599999904629],[-0.09541666666666669,0.06444444444444436,6.561099999904627],[-0.09916666666666671,0.057777777777777865,6.577400000095366],[-0.10125000000000005,0.08222222222222218,6.594099999904628],[-0.10385416666666672,0.08074074074074078,6.610800000190736],[-0.10645833333333338,0.07925925925925917,6.631400000095368],[-0.10666666666666665,0.07759259259259255,6.646900000095357],[-0.10718749999999998,0.07388888888888885,6.6633000001907305],[-0.10854166666666672,0.07185185185185176,6.677400000095361],[-0.11000000000000003,0.06962962962962967,6.697800000190725]]","[0.0003000001907338401,0.0519999999999925,0.060900000095358564,0.0776999998092549,0.09559999990462131,0.11109999990462427,0.13009999990462973,0.14590000009536652,0.16549999999999443,0.18099999999999739,0.19459999990462507,0.21450000000000102,0.23140000009536266,0.24609999990462939,0.26080000019072713,0.2774999999999892,0.2941999998092655,0.3108000001907243,0.32759999990462063,0.34419999980926264,0.3609000000953557,0.3774999999999977,0.39449999999999363,0.41100000000000136,0.4299999999999926,0.44419999980925695,0.46090000009536425,0.4813000001907284,0.4979000000953562,0.5109999999999957,0.5275999999046235,0.5475999999046337,0.5624000000953657,0.5775999999046206,0.5944999999999965,0.6109000000953557,0.6284999999999883,0.6440999999046255,0.6608000001907328,0.6774999999999949,0.694199999809257,0.7109000000953642,0.7275999999046263,0.7441999998092541,0.7609000000953614,0.7775999999046235,0.7943000001907308,0.8109999999999928,0.8275999999046206,0.8440999999046284,0.8609000000953557,0.8774999999999977,0.8941999998092598,0.9109000000953671,0.9274999999999949,0.944199999809257,0.9609999999999985,0.9818000001907308,0.998199999809259,1.0109000000953614,1.0274999999999892,1.0441999998092655,1.0609000000953586,1.080699999809255,1.0971999998092627,1.1119000000953605,1.1314000000953683,1.1444999999999936,1.1610000000000014,1.181199999809266,1.1970999999046228,1.211599999904621,1.2349000000953652,1.244099999904634,1.2609000000953614,1.2780999999046259,1.2950999999046218,1.3109000000953586,1.3299999999999983,1.3449000000953646,1.3615999999046267,1.379499999999993,1.4008000001907277,1.410900000095367,1.4275999999046292,1.444199999809257,1.4621999998092576,1.4789999999999992,1.4964000000953632,1.5109000000953614,1.5304999999999893,1.5469000000953628,1.5635999999046248,1.5794000000953616,1.5941999998092626,1.6134000000953677,1.6303000001907293,1.6441999998092598,1.6614000000953695,1.6775999999046292,1.697199999809257,1.712300000190723,1.7329999999999899,1.7484999999999928,1.7630999999046253,1.7779000000953573,1.798900000095358,1.8140999999046272,1.827699999809255,1.844300000190728,1.8641999998092587,1.8791999998092592,1.8954000000953641,1.913499999999999,1.9309000000953631,1.9474000000953566,1.9654999999999916,1.9804000000953579,1.9965999999046318,2.0115999999046323,2.030699999809258,2.046699999809263,2.0611999998092614,2.080199999809267,2.096499999999992,2.1110999999046243,2.1329000000953613,2.1444000000953594,2.1610999999046214,2.1776999998092634,2.209800000190725,2.217800000190735,2.2276999998092606,2.2468000001907313,2.263999999999996,2.2776999998092577,2.298800000190724,2.314400000095361,2.330999999999989,2.3468000001907257,2.362099999904629,2.3774999999999977,2.39419999980926,2.410800000190733,2.430499999999995,2.44559999990463,2.46080000019073,2.477499999999992,2.494199999809254,2.510800000190727,2.5289999999999964,2.5441999998092655,2.5645999999046296,2.578800000190725,2.5941999998092626,2.6108000001907357,2.6310000000000002,2.6465999999046232,2.664599999904624,2.680900000095363,2.6965999999046346,2.71080000019073,2.7275999999046263,2.744099999904634,2.7609000000953614,2.781800000190728,2.794400000095365,2.811099999904627,2.827699999809255,2.8468000001907257,2.861400000095358,2.8819000000953565,2.8999999999999915,2.9110000000000014,2.9278000001907287,2.9480999999046276,2.9609999999999985,2.9776999998092606,3.0005999999046225,3.0109999999999957,3.033699999809258,3.0443000001907308,3.0651999998092663,3.0775999999046206,3.0944999999999965,3.116900000095356,3.1276999998092663,3.1444000000953594,3.1610000000000014,3.180499999999995,3.1969999999999885,3.2134999999999962,3.2334999999999923,3.248199999809259,3.2611999998092642,3.2776999998092577,3.2941999998092655,3.3109000000953586,3.331099999904623,3.344400000095362,3.3608000001907357,3.3774000000953635,3.3940999999046255,3.4121999998092605,3.4278000001907287,3.444199999809257,3.4633000001907277,3.4774000000953578,3.494199999809254,3.5134999999999934,3.5335999999046237,3.544099999904631,3.5609000000953586,3.5775000000000006,3.5940999999046284,3.6108000001907357,3.627599999904632,3.64419999980926,3.660900000095367,3.677499999999995,3.694199999809257,3.71080000019073,3.727499999999992,3.744199999809254,3.7675999999046326,3.7824000000953646,3.803699999809254,3.8109000000953586,3.8275999999046206,3.8441999998092626,3.864300000190724,3.880199999809264,3.89419999980926,3.9110000000000014,3.9295999999046245,3.9440999999046227,3.96080000019073,3.977499999999992,3.994099999904634,4.010800000190727,4.027499999999989,4.044099999904631,4.060800000190724,4.077500000000001,4.094199999809263,4.110900000095356,4.127499999999998,4.14419999980926,4.162099999904626,4.177499999999995,4.196699999809255,4.210900000095364,4.230099999904624,4.244099999904634,4.263400000095359,4.2775999999046235,4.294900000095367,4.310999999999993,4.329400000095362,4.344300000190728,4.361599999904627,4.377599999904632,4.395800000190732,4.411000000000001,4.427699999809263,4.4469000000953685,4.4609999999999985,4.477599999904626,4.496099999904629,4.51109999990463,4.52930000019073,4.544300000190731,4.562900000095368,4.577400000095366,4.594400000095362,4.612900000095365,4.629400000095359,4.644300000190725,4.660699999809253,4.677400000095361,4.694199999809257,4.71080000019073,4.74199999999999,4.751999999999995,4.764199999809264,4.780900000095357,4.797300000190731,4.813400000095356,4.827699999809255,4.844099999904628,4.866199999809254,4.877499999999998,4.89419999980926,4.910800000190733,4.927599999904629,4.948099999904628,4.96080000019073,4.977499999999992,4.999199999809264,5.021000000000001,5.0301999998092555,5.044099999904631,5.066499999999991,5.081300000190737,5.09690000009536,5.110800000190736,5.131300000190734,5.146800000190737,5.163499999999999,5.180400000095361,5.195400000095361,5.21080000019073,5.227699999809261,5.244099999904634,5.263599999904628,5.277499999999989,5.29549999999999,5.310800000190724,5.327500000000001,5.344199999809263,5.361599999904627,5.377499999999998,5.396800000190737,5.410699999809253,5.428900000095368,5.445499999999996,5.460699999809265,5.477499999999992,5.500300000190734,5.515400000095369,5.527499999999989,5.5441999998092655,5.560699999809259,5.577400000095366,5.594199999809263,5.610800000190736,5.63009999990463,5.6440999999046255,5.660800000190733,5.677499999999995,5.694199999809257,5.71080000019073,5.727599999904626,5.744099999904634,5.761199999809264,5.777499999999989,5.7941999998092655,5.810800000190724,5.827599999904621,5.844099999904628,5.863599999904622,5.877499999999998,5.8940999999046255,5.910699999809253,5.930499999999995,5.944099999904623,5.96080000019073,5.977400000095358,5.994099999904634,6.010800000190727,6.028999999999996,6.0441999998092655,6.060800000190724,6.077500000000001,6.094099999904628,6.110800000190736,6.131,6.1440999999046255,6.160900000095367,6.177400000095361,6.194199999809257,6.21080000019073,6.228900000095365,6.244099999904634,6.262099999904635,6.277400000095369,6.294400000095365,6.310699999809259,6.3308000001907345,6.346199999809258,6.360800000190736,6.3774000000953635,6.39419999980926,6.410800000190733,6.428199999809266,6.443999999999988,6.46080000019073,6.477400000095358,6.495499999999993,6.510800000190727,6.53119999980926,6.546599999904629,6.561099999904627,6.577400000095366,6.594099999904628,6.610800000190736,6.631400000095368,6.646900000095357,6.6633000001907305,6.677400000095361,6.697800000190725]","[1731903583704,1731903583747,1731903583756,1731903583773,1731903583790,1731903583806,1731903583825,1731903583841,1731903583860,1731903583876,1731903583889,1731903583909,1731903583926,1731903583941,1731903583956,1731903583972,1731903583989,1731903584006,1731903584022,1731903584039,1731903584056,1731903584072,1731903584089,1731903584106,1731903584125,1731903584139,1731903584156,1731903584176,1731903584193,1731903584206,1731903584222,1731903584242,1731903584257,1731903584272,1731903584289,1731903584306,1731903584323,1731903584339,1731903584356,1731903584372,1731903584389,1731903584406,1731903584422,1731903584439,1731903584456,1731903584473,1731903584489,1731903584506,1731903584522,1731903584539,1731903584556,1731903584572,1731903584589,1731903584606,1731903584622,1731903584639,1731903584656,1731903584677,1731903584693,1731903584706,1731903584722,1731903584739,1731903584756,1731903584776,1731903584792,1731903584807,1731903584826,1731903584839,1731903584856,1731903584876,1731903584892,1731903584906,1731903584930,1731903584939,1731903584956,1731903584973,1731903584990,1731903585006,1731903585025,1731903585040,1731903585056,1731903585074,1731903585096,1731903585106,1731903585122,1731903585139,1731903585157,1731903585174,1731903585191,1731903585206,1731903585225,1731903585242,1731903585258,1731903585274,1731903585289,1731903585308,1731903585325,1731903585339,1731903585356,1731903585372,1731903585392,1731903585407,1731903585428,1731903585443,1731903585458,1731903585473,1731903585494,1731903585509,1731903585523,1731903585539,1731903585559,1731903585574,1731903585590,1731903585608,1731903585626,1731903585642,1731903585660,1731903585675,1731903585691,1731903585706,1731903585725,1731903585741,1731903585756,1731903585775,1731903585791,1731903585806,1731903585828,1731903585839,1731903585856,1731903585872,1731903585905,1731903585913,1731903585923,1731903585942,1731903585959,1731903585973,1731903585994,1731903586009,1731903586026,1731903586042,1731903586057,1731903586072,1731903586089,1731903586106,1731903586125,1731903586140,1731903586156,1731903586172,1731903586189,1731903586206,1731903586224,1731903586239,1731903586259,1731903586274,1731903586289,1731903586306,1731903586326,1731903586341,1731903586359,1731903586376,1731903586391,1731903586406,1731903586422,1731903586439,1731903586456,1731903586477,1731903586489,1731903586506,1731903586522,1731903586542,1731903586556,1731903586577,1731903586595,1731903586606,1731903586623,1731903586643,1731903586656,1731903586673,1731903586695,1731903586706,1731903586729,1731903586739,1731903586760,1731903586772,1731903586789,1731903586812,1731903586822,1731903586839,1731903586856,1731903586875,1731903586892,1731903586908,1731903586928,1731903586943,1731903586956,1731903586973,1731903586989,1731903587006,1731903587026,1731903587039,1731903587056,1731903587072,1731903587089,1731903587107,1731903587123,1731903587139,1731903587158,1731903587172,1731903587189,1731903587208,1731903587228,1731903587239,1731903587256,1731903587272,1731903587289,1731903587306,1731903587322,1731903587339,1731903587356,1731903587372,1731903587389,1731903587406,1731903587422,1731903587439,1731903587463,1731903587477,1731903587498,1731903587506,1731903587522,1731903587539,1731903587559,1731903587575,1731903587589,1731903587606,1731903587624,1731903587639,1731903587656,1731903587672,1731903587689,1731903587706,1731903587722,1731903587739,1731903587756,1731903587772,1731903587789,1731903587806,1731903587822,1731903587839,1731903587857,1731903587872,1731903587892,1731903587906,1731903587925,1731903587939,1731903587958,1731903587972,1731903587990,1731903588006,1731903588024,1731903588039,1731903588056,1731903588072,1731903588091,1731903588106,1731903588122,1731903588142,1731903588156,1731903588172,1731903588191,1731903588206,1731903588224,1731903588239,1731903588258,1731903588272,1731903588289,1731903588308,1731903588324,1731903588339,1731903588356,1731903588372,1731903588389,1731903588406,1731903588437,1731903588447,1731903588459,1731903588476,1731903588492,1731903588508,1731903588523,1731903588539,1731903588561,1731903588572,1731903588589,1731903588606,1731903588622,1731903588643,1731903588656,1731903588672,1731903588694,1731903588716,1731903588725,1731903588739,1731903588761,1731903588776,1731903588792,1731903588806,1731903588826,1731903588842,1731903588858,1731903588875,1731903588890,1731903588906,1731903588922,1731903588939,1731903588958,1731903588972,1731903588990,1731903589006,1731903589022,1731903589039,1731903589056,1731903589072,1731903589092,1731903589106,1731903589124,1731903589140,1731903589156,1731903589172,1731903589195,1731903589210,1731903589222,1731903589239,1731903589256,1731903589272,1731903589289,1731903589306,1731903589325,1731903589339,1731903589356,1731903589372,1731903589389,1731903589406,1731903589423,1731903589439,1731903589456,1731903589472,1731903589489,1731903589506,1731903589522,1731903589539,1731903589558,1731903589572,1731903589589,1731903589606,1731903589625,1731903589639,1731903589656,1731903589672,1731903589689,1731903589706,1731903589724,1731903589739,1731903589756,1731903589772,1731903589789,1731903589806,1731903589826,1731903589839,1731903589856,1731903589872,1731903589889,1731903589906,1731903589924,1731903589939,1731903589957,1731903589972,1731903589989,1731903590006,1731903590026,1731903590041,1731903590056,1731903590072,1731903590089,1731903590106,1731903590123,1731903590139,1731903590156,1731903590172,1731903590190,1731903590206,1731903590226,1731903590241,1731903590256,1731903590272,1731903590289,1731903590306,1731903590326,1731903590342,1731903590358,1731903590372,1731903590393]","[[902.4,781],[902.4,781],[901,779.3],[899.4,777.4],[897.2,774.8],[898.9,775.6],[898.3,774.8],[893.9,770.1],[887.5,763.5],[883.9,759.7],[879.5,755.3],[870,745.8],[864.1,740.3],[863.5,739.4],[863.5,738.9],[861.3,736.1],[860.3,734.9],[863.1,737.6],[865.9,740.3],[863.9,738.2],[861,734.9],[860.8,734.6],[865.1,738.4],[860.8,734.3],[860.6,734],[858.5,732.6],[855.2,729.6],[854.5,728.9],[853.8,728.2],[853.2,727.6],[852.6,727],[852.8,727.2],[852.8,727.2],[849.2,723.7],[853.5,728],[850.7,726.9],[848.6,726.3],[845.1,725.7],[839,722.8],[839,722.8],[828,715.8],[828,715.8],[823.8,715],[823.8,715],[820.8,715.2],[820.8,715.2],[823.8,719.8],[823.8,719.8],[825,722.3],[825,722.3],[822.4,720.9],[822.4,720.9],[826.7,724.2],[826.7,724.2],[827.6,724.4],[827.6,724.4],[829.5,723.7],[831.4,723],[838.2,726.4],[838.2,726.4],[842,726.9],[842,726.9],[843.1,725.3],[840.4,721.1],[839.6,723.6],[838.2,725.7],[836,727.6],[836,727.6],[834.1,724.2],[838.3,725.2],[844.6,726.2],[847.8,726.8],[849.1,726],[849.1,726],[852.8,727.8],[856.2,728.2],[860.4,725.4],[865.3,724],[870.2,722.6],[876.6,728.7],[877.5,730.7],[877.9,734.3],[881.3,738.7],[881.3,738.7],[885.5,743.5],[887.9,746.2],[891,750.7],[893.5,754.3],[894.7,756.8],[895.9,759.3],[898.2,762.2],[899.6,765],[900,760.7],[901.4,756],[902,750.9],[904,747.3],[902.7,741.6],[902.1,735.3],[902.1,728.7],[902.5,723.4],[902.9,718.1],[902.2,711.9],[900.9,711.2],[898.2,710.6],[898.2,710.6],[895.5,710],[891.1,706.9],[891.1,706.9],[893.6,707.8],[893.6,707.8],[893.6,707.8],[892.1,708.2],[888.4,705.4],[886.5,704.2],[889.2,701.1],[894.3,699.2],[899.4,697.3],[901.4,691.4],[898.8,682.7],[897.1,673.1],[895.4,663.5],[898.7,660.4],[903.2,660.9],[907,652.6],[913.7,646.2],[911.4,644.4],[908.6,642.6],[908.6,642.6],[914,644.5],[921.2,650],[929,657.4],[929,657.4],[936.3,659],[940.5,653.4],[949,641.8],[955.2,643.7],[955.2,644.3],[964.2,643.7],[973.7,643.1],[977.6,636.3],[979.7,625.9],[981,620.1],[982.3,625.4],[981.1,629.7],[979.8,633.6],[977.2,639.2],[973.3,646.1],[966.2,648.3],[959.1,650.5],[954.9,659.4],[950.7,668.3],[950.5,672.8],[950.8,672],[948.9,671.8],[943.8,677.6],[945.7,679.5],[948.3,677.9],[950.4,675.7],[954.9,675.2],[958.2,676.1],[960.5,680.7],[960.5,680.7],[961.5,682.1],[962.6,679.7],[962.6,679.7],[966.4,679.6],[966.4,679.6],[973.6,671.7],[978.2,661.3],[978.2,654.7],[984.6,643.7],[984.4,640.8],[984.4,640.8],[988.1,626.6],[988.1,626.6],[993.5,608.6],[993.5,608.6],[997.5,591.3],[997.5,591.3],[1002.2,578.9],[1003.3,573.6],[1003.3,573.6],[1002.1,570.6],[1002.1,570.6],[999.6,562.6],[1005,550.8],[1005,550.8],[1005.3,542.6],[1009,528],[1010.3,517.1],[1011.9,516.1],[1011,511],[1007.7,512.6],[1007.7,512.6],[1010.2,499.3],[1011.9,488.3],[1012.9,477.8],[1009.6,483.1],[1006.8,489.8],[1006.9,493],[1005.5,503.8],[1002.3,500.4],[1001.7,508.9],[1000.6,511.7],[998.5,519.4],[1000.2,521.2],[1003.8,527.5],[1002.1,525.4],[1000.4,523.3],[996.2,523.8],[992,524.3],[992,524.3],[988.7,529.4],[980.5,530],[974.4,528.5],[966.6,535],[966.6,535],[954.7,550.6],[954.7,550.6],[945.6,563.3],[945.6,573.2],[942.1,583.9],[939,592.1],[935.2,598.7],[935.2,598.7],[935.2,598.7],[931.5,605.1],[931.5,605.1],[934.9,611.9],[937.7,617.5],[945.2,617.6],[949.3,617.3],[949.3,617.3],[953.1,618.8],[954.9,615.1],[957.4,612.7],[961,606],[962.2,608.6],[963.2,611.2],[962.6,617.1],[962.6,624.2],[960.5,624.4],[960.8,620.2],[953.9,622.9],[945.5,629.7],[943.2,627.3],[943.2,627.3],[939.4,630.7],[937.3,623.9],[936.4,625.5],[933.9,621.4],[933.5,623.1],[937.1,614.6],[929.9,630.7],[926.1,639.8],[928.9,640.4],[928.4,648.1],[930.1,656],[933.2,666.4],[933.2,654.2],[933.6,643],[935.2,616.9],[926,617.6],[931.5,591.1],[938.3,565.8],[939.3,550],[939.3,550],[938.6,530.1],[936.8,511.5],[934,490.4],[929.7,485.4],[927.6,479.9],[921.3,479.8],[922.1,469.8],[920,467.2],[921.2,460.7],[917.8,456.4],[914.8,461.2],[911.1,463],[911.7,459],[916.7,458.4],[919.5,458.3],[923.2,461.9],[923.2,461.9],[922.4,465.8],[925,465],[924.3,468.1],[926.6,468.5],[930,459.8],[933.1,457],[932.9,462.5],[932.9,462.5],[930.6,459.4],[930.6,459.4],[929.7,452.1],[927.3,449.4],[927.3,449.4],[928.4,442.5],[927.1,438.4],[924.6,439.6],[924.6,439.6],[920.9,440.5],[916.9,440.5],[913.2,434.6],[909.1,431.1],[906.1,430.9],[901.7,434.9],[904.1,432.1],[906.3,430.9],[907.5,433.4],[909.9,430.6],[913.5,431.5],[917.6,437.4],[921.4,445],[925.6,450.2],[930.3,454.1],[933.2,455.2],[931.7,464],[930.2,472.8],[926.3,476.1],[924.8,475.4],[922.7,476],[919,477],[910,475],[901,473],[890.8,468.1],[890.1,475.5],[888.8,470.2],[885.3,469.3],[885.3,469.3],[885.5,468.3],[877.5,473.9],[877.7,475.5],[877.9,472],[883.7,469.8],[880.6,465.6],[884.5,467.5],[881.2,464],[879.2,465.7],[875.8,466.6],[871.1,471.3],[871,479.1],[871,479.1],[870.2,483.7],[870.2,483.7],[867.8,513.1],[867.8,513.1],[863.6,541.1],[869.6,572.4],[872.1,604.2],[874.1,631.9],[872.6,659.7],[874.3,683.6],[876,707.5],[878.9,725.7],[876.9,746.9],[878.5,748.5],[884.5,754],[889.2,758.2],[890.6,729.8],[889.9,697.4],[887.3,667.9],[885.1,638.7],[880.5,613.5],[875.6,587.6],[871.4,560.8],[866.8,533.5],[859.8,503.1],[852.8,472.7],[851.7,489.1],[852.7,509.5],[852.8,505.5],[852.9,501.5],[858.1,502.4],[863.6,504],[869.1,511.3],[872,518.5],[874.7,526.3],[877.4,534.1],[872.8,525.9],[868.2,517.7],[868.5,526.6],[869.7,535.9],[869.2,548],[867.1,543.3],[865.7,547.4],[866.9,551.6],[866.6,553.9],[866.3,556.2],[868.7,557],[871.1,557.8],[870.2,566.5],[868.4,574.8],[864.8,571.2],[862.8,584.4],[860.3,583.6],[857.8,582.8],[857.6,581.9],[857.1,579.9],[855.8,578.8],[854.4,577.6]]","[-0.056692,0.170076]","[0.056692,0.170076]","[0.170076,0.170076]","[-0.170076,0.056692]","[-0.170076,-0.170076]","[-0.170076,-0.056692]","[-0.056692,0.056692]","[0.056692,0.056692]","[0.170076,0.056692]","[-0.056692,-0.170076]","[0.056692,-0.170076]","[0.170076,-0.170076]","[-0.056692,-0.056692]","[0.056692,-0.056692]","[0.170076,-0.056692]",0,0,0,0,1,2,Smartphone,15,20,8,3,70,4,3,60,4
