inst1_resp.keys,inst1_resp.rt,calibrationMouse.x,calibrationMouse.y,calibrationMouse.leftButton,calibrationMouse.midButton,calibrationMouse.rightButton,calibrationClick.x,calibrationClick.y,calibrationClick.leftButton,calibrationClick.midButton,calibrationClick.rightButton,calibrationClick.clicked_name,trialsc.thisRepN,trialsc.thisTrialN,trialsc.thisN,trialsc.thisIndex,trialsc.ran,calibration_x,calibration_y,participant,session,date,expName,psychopyVersion,OS,frameRate,ScreenRes_pixels,Camera_pixels,mouse_2.x,mouse_2.y,mouse_2.leftButton,mouse_2.midButton,mouse_2.rightButton,mouse_2.time,mouse_2.clicked_name,mouse.x,mouse.y,mouse.leftButton,mouse.midButton,mouse.rightButton,mouse.time,mouse.clicked_name,Choice,Trial,TrialDuration,MOUSE_GAZE,ET_GAZE,ET_GAZE_x_T,time,unixTime,ET_GAZE_NF,Loc_Bus_label,Loc_Metro_label,Loc_RH_label,Loc_Cost_label,Loc_Travel_label,Loc_Comfort_label,Loc_Bus_cost,Loc_Metro_cost,Loc_RH_cost,Loc_Bus_travel,Loc_Metro_travel,Loc_RH_travel,Loc_Bus_comfort,Loc_Metro_comfort,Loc_RH_comfort,trials.thisRepN,trials.thisTrialN,trials.thisN,trials.thisIndex,trials.ran,Block,Device,RH_cost,RH_travel_time,RH_Comfort,metro_cost,metro_travel_time,metro_Comfort,Bus_cost,Bus_travel_time,Bus_Comfort
space,3.0519,0.422916667,-0.066666667,1,0,0,-0.677083333,0.005555556,1,0,0,calibration_square,0,0,0,2,1,-0.67,0,01,001,2024-11-26_16h19.43.161,Attention_exp_legacy,2023.1.0,Win32,60.24096386,,,,,,,,,,,,,,,,,,,,,,,,,,,,,,,,,,,,,,,,,,,,,,,,,,,,,,,,
,,,,,,,-0.007291667,-0.666666667,1,0,0,calibration_square,0,1,1,9,1,0,-0.67,01,001,2024-11-26_16h19.43.161,Attention_exp_legacy,2023.1.0,Win32,60.24096386,,,,,,,,,,,,,,,,,,,,,,,,,,,,,,,,,,,,,,,,,,,,,,,,,,,,,,,,
,,,,,,,-0.003125,-0.353703704,1,0,0,,0,2,2,10,1,0,-0.33,01,001,2024-11-26_16h19.43.161,Attention_exp_legacy,2023.1.0,Win32,60.24096386,,,,,,,,,,,,,,,,,,,,,,,,,,,,,,,,,,,,,,,,,,,,,,,,,,,,,,,,
,,,,,,,0.325,-0.012962963,1,0,0,,0,3,3,16,1,0.33,0,01,001,2024-11-26_16h19.43.161,Attention_exp_legacy,2023.1.0,Win32,60.24096386,,,,,,,,,,,,,,,,,,,,,,,,,,,,,,,,,,,,,,,,,,,,,,,,,,,,,,,,
,,,,,,,0.660416667,-0.672222222,1,0,0,calibration_square,0,4,4,20,1,0.67,-0.67,01,001,2024-11-26_16h19.43.161,Attention_exp_legacy,2023.1.0,Win32,60.24096386,,,,,,,,,,,,,,,,,,,,,,,,,,,,,,,,,,,,,,,,,,,,,,,,,,,,,,,,
,,,,,,,-0.677083333,-0.301851852,1,0,0,,0,5,5,1,1,-0.67,-0.33,01,001,2024-11-26_16h19.43.161,Attention_exp_legacy,2023.1.0,Win32,60.24096386,,,,,,,,,,,,,,,,,,,,,,,,,,,,,,,,,,,,,,,,,,,,,,,,,,,,,,,,
,,,,,,,-0.34375,-0.012962963,1,0,0,,0,6,6,6,1,-0.33,0,01,001,2024-11-26_16h19.43.161,Attention_exp_legacy,2023.1.0,Win32,60.24096386,,,,,,,,,,,,,,,,,,,,,,,,,,,,,,,,,,,,,,,,,,,,,,,,,,,,,,,,
,,,,,,,0.3375,-0.331481481,1,0,0,calibration_square,0,7,7,15,1,0.33,-0.33,01,001,2024-11-26_16h19.43.161,Attention_exp_legacy,2023.1.0,Win32,60.24096386,,,,,,,,,,,,,,,,,,,,,,,,,,,,,,,,,,,,,,,,,,,,,,,,,,,,,,,,
,,,,,,,-0.657291667,-0.659259259,1,0,0,,0,8,8,0,1,-0.67,-0.67,01,001,2024-11-26_16h19.43.161,Attention_exp_legacy,2023.1.0,Win32,60.24096386,,,,,,,,,,,,,,,,,,,,,,,,,,,,,,,,,,,,,,,,,,,,,,,,,,,,,,,,
,,,,,,,-0.316666667,-0.32037037,1,0,0,,0,9,9,5,1,-0.33,-0.33,01,001,2024-11-26_16h19.43.161,Attention_exp_legacy,2023.1.0,Win32,60.24096386,,,,,,,,,,,,,,,,,,,,,,,,,,,,,,,,,,,,,,,,,,,,,,,,,,,,,,,,
,,,,,,,-0.339583333,0.664814815,1,0,0,calibration_square,0,10,10,8,1,-0.33,0.67,01,001,2024-11-26_16h19.43.161,Attention_exp_legacy,2023.1.0,Win32,60.24096386,,,,,,,,,,,,,,,,,,,,,,,,,,,,,,,,,,,,,,,,,,,,,,,,,,,,,,,,
,,,,,,,-0.319791667,-0.675925926,1,0,0,,0,11,11,4,1,-0.33,-0.67,01,001,2024-11-26_16h19.43.161,Attention_exp_legacy,2023.1.0,Win32,60.24096386,,,,,,,,,,,,,,,,,,,,,,,,,,,,,,,,,,,,,,,,,,,,,,,,,,,,,,,,
,,,,,,,0,0.664814815,1,0,0,calibration_square,0,12,12,13,1,0,0.67,01,001,2024-11-26_16h19.43.161,Attention_exp_legacy,2023.1.0,Win32,60.24096386,,,,,,,,,,,,,,,,,,,,,,,,,,,,,,,,,,,,,,,,,,,,,,,,,,,,,,,,
,,,,,,,-0.007291667,-0.007407407,1,0,0,calibration_square,0,13,13,11,1,0,0,01,001,2024-11-26_16h19.43.161,Attention_exp_legacy,2023.1.0,Win32,60.24096386,,,,,,,,,,,,,,,,,,,,,,,,,,,,,,,,,,,,,,,,,,,,,,,,,,,,,,,,
,,,,,,,0.666666667,0.651851852,1,0,0,,0,14,14,19,1,0.67,0.67,01,001,2024-11-26_16h19.43.161,Attention_exp_legacy,2023.1.0,Win32,60.24096386,,,,,,,,,,,,,,,,,,,,,,,,,,,,,,,,,,,,,,,,,,,,,,,,,,,,,,,,
,,,,,,,0.377083333,0.655555556,1,0,0,,0,15,15,18,1,0.33,0.67,01,001,2024-11-26_16h19.43.161,Attention_exp_legacy,2023.1.0,Win32,60.24096386,,,,,,,,,,,,,,,,,,,,,,,,,,,,,,,,,,,,,,,,,,,,,,,,,,,,,,,,
,,,,,,,-0.314583333,0.32962963,1,0,0,,0,16,16,7,1,-0.33,0.33,01,001,2024-11-26_16h19.43.161,Attention_exp_legacy,2023.1.0,Win32,60.24096386,,,,,,,,,,,,,,,,,,,,,,,,,,,,,,,,,,,,,,,,,,,,,,,,,,,,,,,,
,,,,,,,0.328125,-0.666666667,1,0,0,calibration_square,0,17,17,14,1,0.33,-0.67,01,001,2024-11-26_16h19.43.161,Attention_exp_legacy,2023.1.0,Win32,60.24096386,,,,,,,,,,,,,,,,,,,,,,,,,,,,,,,,,,,,,,,,,,,,,,,,,,,,,,,,
,,,,,,,0.338541667,0.325925926,1,0,0,calibration_square,0,18,18,17,1,0.33,0.33,01,001,2024-11-26_16h19.43.161,Attention_exp_legacy,2023.1.0,Win32,60.24096386,,,,,,,,,,,,,,,,,,,,,,,,,,,,,,,,,,,,,,,,,,,,,,,,,,,,,,,,
,,,,,,,-0.676041667,0.344444444,1,0,0,,0,19,19,3,1,-0.67,0.33,01,001,2024-11-26_16h19.43.161,Attention_exp_legacy,2023.1.0,Win32,60.24096386,,,,,,,,,,,,,,,,,,,,,,,,,,,,,,,,,,,,,,,,,,,,,,,,,,,,,,,,
,,,,,,,-0.011458333,0.324074074,1,0,0,,0,20,20,12,1,0,0.33,01,001,2024-11-26_16h19.43.161,Attention_exp_legacy,2023.1.0,Win32,60.24096386,,,,,,,,,,,,,,,,,,,,,,,,,,,,,,,,,,,,,,,,,,,,,,,,,,,,,,,,
,,,,,,,,,,,,,,,,,,,,01,001,2024-11-26_16h19.43.161,Attention_exp_legacy,2023.1.0,Win32,60.24096386,"[1920,1080]","[640,480]",[0.051041666666666666],[-0.5314814814814814],[1],[0],[0],[8.712000000000003],"[""StartButton""]",[0.14375],[0.38333333333333336],[1],[0],[0],[4.346900000005959],"[""Metro_label""]",Metro_label,1,5.3766,"[[0.2947916666666667,-0.05185185185185185],[0.2947916666666667,-0.05185185185185185],[0.2947916666666667,-0.05185185185185185],[0.2947916666666667,-0.05185185185185185],[0.2947916666666667,-0.05185185185185185],[0.2947916666666667,-0.05185185185185185],[0.2947916666666667,-0.05185185185185185],[0.2947916666666667,-0.05185185185185185],[0.2947916666666667,-0.05185185185185185],[0.2947916666666667,-0.05185185185185185],[0.2947916666666667,-0.05185185185185185],[0.2947916666666667,-0.05185185185185185],[0.2947916666666667,-0.05185185185185185],[0.2947916666666667,-0.05185185185185185],[0.2947916666666667,-0.05185185185185185],[0.2947916666666667,-0.05185185185185185],[0.2947916666666667,-0.05185185185185185],[0.2947916666666667,-0.05185185185185185],[0.2947916666666667,-0.05185185185185185],[0.2947916666666667,-0.05185185185185185],[0.2947916666666667,-0.05185185185185185],[0.2947916666666667,-0.05185185185185185],[0.2947916666666667,-0.05185185185185185],[0.2947916666666667,-0.05185185185185185],[0.2947916666666667,-0.05185185185185185],[0.2947916666666667,-0.05185185185185185],[0.2947916666666667,-0.05185185185185185],[0.2947916666666667,-0.05185185185185185],[0.2947916666666667,-0.05185185185185185],[0.2947916666666667,-0.05185185185185185],[0.2947916666666667,-0.05185185185185185],[0.2947916666666667,-0.05185185185185185],[0.2947916666666667,-0.05185185185185185],[0.2947916666666667,-0.05185185185185185],[0.2947916666666667,-0.05185185185185185],[0.2947916666666667,-0.05185185185185185],[0.2947916666666667,-0.05185185185185185],[0.2947916666666667,-0.05185185185185185],[0.2947916666666667,-0.05185185185185185],[0.2947916666666667,-0.05185185185185185],[0.2947916666666667,-0.05185185185185185],[0.2947916666666667,-0.05185185185185185],[0.2947916666666667,-0.05185185185185185],[0.2947916666666667,-0.05185185185185185],[0.2947916666666667,-0.05185185185185185],[0.2947916666666667,-0.05185185185185185],[0.2947916666666667,-0.05185185185185185],[0.2947916666666667,-0.05185185185185185],[0.2947916666666667,-0.05185185185185185],[0.2947916666666667,-0.05185185185185185],[0.2947916666666667,-0.05185185185185185],[0.2947916666666667,-0.05185185185185185],[0.2947916666666667,-0.05185185185185185],[0.2947916666666667,-0.05185185185185185],[0.2947916666666667,-0.05185185185185185],[0.2947916666666667,-0.05185185185185185],[0.2947916666666667,-0.05185185185185185],[0.2947916666666667,-0.05185185185185185],[0.2947916666666667,-0.05185185185185185],[0.2947916666666667,-0.05185185185185185],[0.2947916666666667,-0.05185185185185185],[0.2947916666666667,-0.05185185185185185],[0.2947916666666667,-0.05185185185185185],[0.2947916666666667,-0.05185185185185185],[0.2947916666666667,-0.05185185185185185],[0.2947916666666667,-0.05185185185185185],[0.2947916666666667,-0.05185185185185185],[0.2947916666666667,-0.05185185185185185],[0.2947916666666667,-0.05185185185185185],[0.2947916666666667,-0.05185185185185185],[0.2947916666666667,-0.05185185185185185],[0.2947916666666667,-0.05185185185185185],[0.2947916666666667,-0.05185185185185185],[0.2947916666666667,-0.05185185185185185],[0.2947916666666667,-0.05185185185185185],[0.2947916666666667,-0.05185185185185185],[0.2947916666666667,-0.05185185185185185],[0.2947916666666667,-0.05185185185185185],[0.2947916666666667,-0.05185185185185185],[0.2947916666666667,-0.05185185185185185],[0.2947916666666667,-0.05185185185185185],[0.2947916666666667,-0.05185185185185185],[0.2947916666666667,-0.05185185185185185],[0.2947916666666667,-0.05185185185185185],[0.2947916666666667,-0.05185185185185185],[0.2947916666666667,-0.05185185185185185],[0.2947916666666667,-0.05185185185185185],[0.2947916666666667,-0.05185185185185185],[0.2947916666666667,-0.05185185185185185],[0.2947916666666667,-0.05185185185185185],[0.2947916666666667,-0.05185185185185185],[0.2947916666666667,-0.05185185185185185],[0.2947916666666667,-0.05185185185185185],[0.2947916666666667,-0.05185185185185185],[0.2947916666666667,-0.05185185185185185],[0.2947916666666667,-0.05185185185185185],[0.2947916666666667,-0.05185185185185185],[0.2947916666666667,-0.05185185185185185],[0.2947916666666667,-0.05185185185185185],[0.2947916666666667,-0.05185185185185185],[0.2947916666666667,-0.05185185185185185],[0.2947916666666667,-0.05185185185185185],[0.2947916666666667,-0.05185185185185185],[0.2947916666666667,-0.05185185185185185],[0.2947916666666667,-0.05185185185185185],[0.2947916666666667,-0.05185185185185185],[0.2947916666666667,-0.05185185185185185],[0.2947916666666667,-0.05185185185185185],[0.2947916666666667,-0.05185185185185185],[0.2947916666666667,-0.05185185185185185],[0.2947916666666667,-0.05185185185185185],[0.2947916666666667,-0.05185185185185185],[0.2947916666666667,-0.05185185185185185],[0.2947916666666667,-0.05185185185185185],[0.2947916666666667,-0.05185185185185185],[0.2947916666666667,-0.05185185185185185],[0.2947916666666667,-0.05185185185185185],[0.2947916666666667,-0.05185185185185185],[0.2947916666666667,-0.05185185185185185],[0.2947916666666667,-0.05185185185185185],[0.2947916666666667,-0.05185185185185185],[0.2947916666666667,-0.05185185185185185],[0.2947916666666667,-0.05185185185185185],[0.2947916666666667,-0.05185185185185185],[0.2947916666666667,-0.05185185185185185],[0.2947916666666667,-0.05185185185185185],[0.2947916666666667,-0.05185185185185185],[0.2947916666666667,-0.05185185185185185],[0.2947916666666667,-0.05185185185185185],[0.2947916666666667,-0.05185185185185185],[0.2947916666666667,-0.05185185185185185],[0.2947916666666667,-0.05185185185185185],[0.2947916666666667,-0.05185185185185185],[0.2947916666666667,-0.05185185185185185],[0.2947916666666667,-0.05185185185185185],[0.2947916666666667,-0.05185185185185185],[0.2947916666666667,-0.05185185185185185],[0.2947916666666667,-0.05185185185185185],[0.2947916666666667,-0.05185185185185185],[0.2947916666666667,-0.05185185185185185],[0.2947916666666667,-0.05185185185185185],[0.2947916666666667,-0.05185185185185185],[0.2947916666666667,-0.05185185185185185],[0.2947916666666667,-0.05185185185185185],[0.2947916666666667,-0.05185185185185185],[0.2947916666666667,-0.05185185185185185],[0.2947916666666667,-0.05185185185185185],[0.2947916666666667,-0.05185185185185185],[0.2947916666666667,-0.05185185185185185],[0.2947916666666667,-0.05185185185185185],[0.2947916666666667,-0.05185185185185185],[0.2947916666666667,-0.05185185185185185],[0.2947916666666667,-0.05185185185185185],[0.2947916666666667,-0.05185185185185185],[0.2947916666666667,-0.05185185185185185],[0.2947916666666667,-0.05185185185185185],[0.2947916666666667,-0.05185185185185185],[0.2947916666666667,-0.05185185185185185],[0.2947916666666667,-0.05185185185185185],[0.2947916666666667,-0.05185185185185185],[0.2947916666666667,-0.05185185185185185],[0.2947916666666667,-0.05185185185185185],[0.2947916666666667,-0.05185185185185185],[0.2947916666666667,-0.05185185185185185],[0.2947916666666667,-0.05185185185185185],[0.2947916666666667,-0.05185185185185185],[0.2947916666666667,-0.05185185185185185],[0.2947916666666667,-0.05185185185185185],[0.2947916666666667,-0.05185185185185185],[0.2947916666666667,-0.05185185185185185],[0.2947916666666667,-0.05185185185185185],[0.29375,-0.05555555555555555],[0.290625,-0.07592592592592592],[0.2864583333333333,-0.10740740740740741],[0.2864583333333333,-0.12777777777777777],[0.2864583333333333,-0.14444444444444443],[0.2864583333333333,-0.14629629629629629],[0.2864583333333333,-0.14629629629629629],[0.2864583333333333,-0.14629629629629629],[0.2864583333333333,-0.14629629629629629],[0.2864583333333333,-0.14629629629629629],[0.2864583333333333,-0.14629629629629629],[0.2864583333333333,-0.14629629629629629],[0.2864583333333333,-0.14629629629629629],[0.2864583333333333,-0.14629629629629629],[0.2864583333333333,-0.14629629629629629],[0.2864583333333333,-0.14629629629629629],[0.2864583333333333,-0.14629629629629629],[0.2864583333333333,-0.14629629629629629],[0.2864583333333333,-0.14629629629629629],[0.2864583333333333,-0.14629629629629629],[0.2864583333333333,-0.14629629629629629],[0.2864583333333333,-0.14629629629629629],[0.2864583333333333,-0.14629629629629629],[0.2864583333333333,-0.14629629629629629],[0.2864583333333333,-0.14629629629629629],[0.2916666666666667,-0.1425925925925926],[0.29270833333333335,-0.1425925925925926],[0.29270833333333335,-0.1425925925925926],[0.29270833333333335,-0.14074074074074075],[0.29270833333333335,-0.1388888888888889],[0.29375,-0.1388888888888889],[0.29375,-0.1388888888888889],[0.29375,-0.13703703703703704],[0.29375,-0.13703703703703704],[0.2947916666666667,-0.13518518518518519],[0.2947916666666667,-0.13518518518518519],[0.2947916666666667,-0.13518518518518519],[0.2947916666666667,-0.13333333333333333],[0.2947916666666667,-0.13333333333333333],[0.2947916666666667,-0.13333333333333333],[0.2947916666666667,-0.13333333333333333],[0.2947916666666667,-0.13333333333333333],[0.2947916666666667,-0.13333333333333333],[0.2947916666666667,-0.13333333333333333],[0.2947916666666667,-0.13333333333333333],[0.2947916666666667,-0.13333333333333333],[0.2947916666666667,-0.13333333333333333],[0.2947916666666667,-0.13333333333333333],[0.2947916666666667,-0.13148148148148148],[0.29375,-0.13148148148148148],[0.29375,-0.13148148148148148],[0.29270833333333335,-0.12777777777777777],[0.290625,-0.1259259259259259],[0.284375,-0.12037037037037036],[0.26979166666666665,-0.10925925925925926],[0.2520833333333333,-0.09814814814814815],[0.23541666666666666,-0.07777777777777778],[0.21666666666666667,-0.05185185185185185],[0.2,-0.022222222222222223],[0.18645833333333334,0.011111111111111112],[0.17395833333333333,0.044444444444444446],[0.16666666666666666,0.07592592592592592],[0.1625,0.1037037037037037],[0.15729166666666666,0.15555555555555556],[0.15104166666666666,0.18518518518518517],[0.14791666666666667,0.21481481481481482],[0.146875,0.24259259259259258],[0.14583333333333334,0.26481481481481484],[0.14583333333333334,0.2814814814814815],[0.14583333333333334,0.29814814814814816],[0.14583333333333334,0.31296296296296294],[0.14270833333333333,0.3296296296296296],[0.14270833333333333,0.3425925925925926],[0.14270833333333333,0.34814814814814815],[0.14270833333333333,0.3574074074074074],[0.14270833333333333,0.36666666666666664],[0.14270833333333333,0.37037037037037035],[0.14270833333333333,0.37407407407407406],[0.14270833333333333,0.37962962962962965],[0.14375,0.3814814814814815],[0.14375,0.38333333333333336],[0.14375,0.38333333333333336],[0.14375,0.38333333333333336],[0.14375,0.38333333333333336],[0.14375,0.38333333333333336],[0.14375,0.38333333333333336],[0.14375,0.38333333333333336],[0.14375,0.38333333333333336],[0.14375,0.38333333333333336],[0.14375,0.38333333333333336],[0.14375,0.38333333333333336],[0.14375,0.38333333333333336],[0.14375,0.38333333333333336],[0.14375,0.38333333333333336],[0.14375,0.38333333333333336],[0.14375,0.38333333333333336],[0.14375,0.38333333333333336],[0.14375,0.38333333333333336],[0.14375,0.38333333333333336],[0.14375,0.38333333333333336],[0.14375,0.38333333333333336],[0.14375,0.38333333333333336],[0.14375,0.38333333333333336],[0.14375,0.38333333333333336],[0.14375,0.38333333333333336],[0.14375,0.38333333333333336],[0.14375,0.38333333333333336],[0.14375,0.38333333333333336],[0.14375,0.38333333333333336],[0.14375,0.38333333333333336],[0.14375,0.38333333333333336],[0.14375,0.38333333333333336],[0.14375,0.38333333333333336],[0.14375,0.38333333333333336],[0.14375,0.38333333333333336],[0.14375,0.38333333333333336],[0.14375,0.38333333333333336],[0.14375,0.38333333333333336],[0.14375,0.38333333333333336],[0.14375,0.38333333333333336],[0.14375,0.38333333333333336],[0.14375,0.38333333333333336],[0.14375,0.38333333333333336],[0.14375,0.38333333333333336],[0.14375,0.38333333333333336],[0.14375,0.38333333333333336],[0.14375,0.38333333333333336],[0.14375,0.38333333333333336],[0.14375,0.38333333333333336],[0.14375,0.38333333333333336],[0.14375,0.38333333333333336],[0.14375,0.38333333333333336],[0.14375,0.38333333333333336],[0.14375,0.38333333333333336],[0.14375,0.38333333333333336],[0.14375,0.38333333333333336],[0.14375,0.38333333333333336],[0.14375,0.38333333333333336],[0.14375,0.38333333333333336],[0.14375,0.38333333333333336],[0.14375,0.38333333333333336],[0.14375,0.38333333333333336],[0.14375,0.38333333333333336],[0.14375,0.38333333333333336],[0.14375,0.38333333333333336],[0.14375,0.38333333333333336],[0.14375,0.38333333333333336],[0.14375,0.38333333333333336],[0.14375,0.38333333333333336],[0.14375,0.38333333333333336],[0.14375,0.38333333333333336]]","[[-0.12072916666666664,0.22537037037037044],[-0.12072916666666664,0.22537037037037044],[-0.12458333333333335,0.2116666666666666],[-0.09427083333333333,0.21074074074074065],[-0.09427083333333333,0.21074074074074065],[-0.09895833333333333,0.22259259259259268],[-0.1234375,0.20425925925925917],[-0.15229166666666671,0.16740740740740737],[-0.12072916666666664,0.1455555555555556],[-0.07625000000000005,0.12685185185185185],[-0.07625000000000005,0.12685185185185185],[-0.05135416666666662,0.1205555555555556],[-0.050312499999999954,0.11407407407407412],[-0.01895833333333338,0.09222222222222214],[0.004375000000000047,0.09351851851851851],[0.004375000000000047,0.09351851851851851],[0.04041666666666662,0.10037037037037046],[0.11114583333333337,0.09962962962962954],[0.11947916666666672,0.08277777777777787],[0.1482291666666666,0.06481481481481481],[0.1482291666666666,0.06481481481481481],[0.1287499999999999,0.04388888888888897],[0.10927083333333343,0.02296296296296292],[0.06489583333333329,0.027037037037037078],[0.0655208333333333,0.05944444444444449],[0.0655208333333333,0.05944444444444449],[0.06614583333333333,0.09185185185185189],[0.07156250000000004,0.10129629629629638],[0.051979166666666646,0.12685185185185185],[0.03270833333333331,0.14722222222222223],[0.053125,0.1551851851851851],[0.057500000000000044,0.18277777777777787],[0.051874999999999956,0.23796296296296296],[0.04624999999999998,0.29314814814814805],[0.03312499999999995,0.31962962962962965],[0.03312499999999995,0.31962962962962965],[0.006458333333333381,0.3205555555555556],[0.04822916666666662,0.29907407407407405],[0.059375,0.28407407407407403],[0.09552083333333337,0.252962962962963],[0.12979166666666658,0.20907407407407402],[0.15322916666666658,0.19222222222222213],[0.18072916666666666,0.1685185185185185],[0.21531250000000005,0.13537037037037042],[0.2709374999999999,0.1359259259259259],[0.2709374999999999,0.1359259259259259],[0.34354166666666663,0.1301851851851851],[0.38947916666666677,0.11018518518518519],[0.3607291666666666,0.08796296296296297],[0.33864583333333326,0.062037037037037036],[0.3586458333333333,0.04944444444444453],[0.3805208333333333,0.049629629629629544],[0.39958333333333323,0.07185185185185176],[0.41458333333333336,0.10092592592592593],[0.4361458333333334,0.12018518518518514],[0.4361458333333334,0.12018518518518514],[0.4366666666666667,0.10574074074074079],[0.4275000000000001,0.10833333333333334],[0.45322916666666657,0.09462962962962967],[0.4852083333333333,0.10555555555555556],[0.5234375,0.10907407407407403],[0.5195833333333333,0.0992592592592593],[0.5401041666666667,0.0992592592592593],[0.5758333333333333,0.07833333333333325],[0.5758333333333333,0.07833333333333325],[0.5739583333333333,0.05481481481481486],[0.5628124999999999,0.01314814814814819],[0.5569791666666667,-0.020185185185185143],[0.5646874999999999,-0.016111111111111194],[0.5641666666666666,0.018518518518518517],[0.5565625,0.005370370370370328],[0.5447916666666667,0.010925925925925884],[0.5216666666666666,0.0338888888888888],[0.4866666666666667,0.05018518518518523],[0.45125000000000004,0.08518518518518518],[0.45125000000000004,0.08518518518518518],[0.45343749999999994,0.1227777777777777],[0.434375,0.15314814814814823],[0.3711458333333333,0.21740740740740735],[0.29375,0.22611111111111115],[0.23229166666666667,0.1881481481481482],[0.1779166666666666,0.19796296296296292],[0.09979166666666663,0.20925925925925926],[0.03302083333333338,0.20314814814814824],[-0.023958333333333335,0.17333333333333337],[-0.08052083333333329,0.12481481481481477],[-0.11666666666666667,0.07796296296296301],[-0.11864583333333331,0.08981481481481482],[-0.109375,0.05981481481481473],[-0.08979166666666671,0.03092592592592601],[-0.09395833333333338,0.05462962962962963],[-0.09812500000000005,0.07833333333333325],[-0.10916666666666662,0.09277777777777782],[-0.109375,0.09314814814814806],[-0.10916666666666662,0.0962962962962963],[-0.09416666666666665,0.11962962962962967],[-0.11218750000000005,0.11740740740740736],[-0.12229166666666665,0.11444444444444436],[-0.09302083333333329,0.10314814814814824],[-0.06375000000000004,0.09185185185185189],[-0.06375000000000004,0.09185185185185189],[-0.02312500000000005,0.11129629629629634],[0.023958333333333335,0.10870370370370379],[0.09958333333333323,0.10259259259259255],[0.15833333333333333,0.11777777777777781],[0.1943749999999999,0.1507407407407407],[0.22406249999999991,0.15592592592592602],[0.2615624999999999,0.19018518518518526],[0.29354166666666665,0.22851851851851848],[0.30666666666666675,0.2403703703703703],[0.30666666666666675,0.2403703703703703],[0.29625000000000007,0.3133333333333334],[0.3125,0.2881481481481482],[0.32229166666666675,0.285],[0.32156250000000003,0.2948148148148149],[0.32156250000000003,0.2948148148148149],[0.3319791666666667,0.31555555555555553],[0.35750000000000004,0.31925925925925924],[0.3745833333333332,0.33055555555555555],[0.3706249999999999,0.3290740740740742],[0.3706249999999999,0.3290740740740742],[0.38041666666666674,0.30388888888888893],[0.3884375000000001,0.3146296296296296],[0.42000000000000004,0.26425925925925936],[0.41291666666666677,0.29499999999999993],[0.41291666666666677,0.29499999999999993],[0.4058333333333332,0.3257407407407407],[0.42000000000000004,0.3333333333333333],[0.4144791666666668,0.31240740740740747],[0.39385416666666656,0.3085185185185186],[0.3984375,0.33277777777777784],[0.3984375,0.33277777777777784],[0.4288541666666667,0.3646296296296296],[0.4184375000000001,0.38722222222222225],[0.4192708333333333,0.3907407407407407],[0.4040625000000001,0.4057407407407408],[0.40770833333333345,0.38000000000000006],[0.41135416666666674,0.35425925925925916],[0.41135416666666674,0.35425925925925916],[0.4041666666666667,0.3698148148148149],[0.42218749999999994,0.39166666666666666],[0.44020833333333326,0.41351851851851845],[0.43302083333333335,0.4072222222222222],[0.3993750000000001,0.3977777777777777],[0.3897916666666667,0.4005555555555555],[0.3897916666666667,0.4005555555555555],[0.37781250000000005,0.4209259259259258],[0.37531249999999994,0.4118518518518518],[0.3814583333333334,0.4287037037037037],[0.3876041666666666,0.4455555555555556],[0.3646874999999999,0.4264814814814814],[0.3311458333333334,0.41148148148148156],[0.3120833333333332,0.3829629629629629],[0.2930208333333333,0.3544444444444444],[0.27802083333333344,0.3520370370370371],[0.27802083333333344,0.3520370370370371],[0.2534374999999999,0.3435185185185185],[0.16697916666666662,0.3787037037037037],[0.09145833333333328,0.4305555555555556],[-0.003125,0.47759259259259257],[-0.0859375,0.4920370370370371],[-0.1486458333333334,0.5248148148148147],[-0.19697916666666668,0.5583333333333333],[-0.25979166666666664,0.6053703703703703],[-0.2984375,0.6514814814814814],[-0.3146875,0.6746296296296296],[-0.31791666666666674,0.68],[-0.2592708333333333,0.6416666666666667],[-0.23145833333333338,0.6037037037037037],[-0.20364583333333333,0.5657407407407408],[-0.20364583333333333,0.5657407407407408],[-0.16614583333333333,0.5988888888888888],[-0.16614583333333333,0.5988888888888888],[-0.11260416666666669,0.5448148148148149],[-0.06989583333333335,0.49425925925925923],[-0.06989583333333335,0.49425925925925923],[-0.01270833333333338,0.447037037037037],[-0.005312500000000024,0.42851851851851847],[-0.022083333333333382,0.3874074074074075],[-0.019687499999999976,0.34444444444444444],[-0.03864583333333336,0.31740740740740736],[-0.03864583333333336,0.31740740740740736],[-0.03114583333333331,0.2912962962962962],[-0.017708333333333333,0.2844444444444445],[-0.017708333333333333,0.2844444444444445],[-0.017499999999999953,0.24351851851851852],[-0.04468749999999998,0.256111111111111],[-0.07541666666666665,0.26444444444444437],[-0.05510416666666664,0.255925925925926],[-0.00916666666666662,0.21962962962962967],[0.06270833333333338,0.20166666666666663],[0.10239583333333328,0.20333333333333325],[0.146875,0.2170370370370371],[0.19135416666666671,0.23074074074074077],[0.25062499999999993,0.19685185185185178],[0.25062499999999993,0.19685185185185178],[0.2796875,0.16740740740740737],[0.36729166666666657,0.15592592592592602],[0.4470833333333334,0.15611111111111103],[0.4613541666666668,0.1698148148148149],[0.4613541666666668,0.1698148148148149],[0.4476041666666667,0.15925925925925927],[0.41343750000000007,0.175],[0.3792708333333332,0.19074074074074074],[0.3693749999999999,0.17296296296296293],[0.35947916666666657,0.1551851851851851],[0.31229166666666663,0.1609259259259259],[0.28708333333333325,0.15777777777777785],[0.22302083333333325,0.1609259259259259],[0.22302083333333325,0.1609259259259259],[0.20593750000000005,0.14648148148148152],[0.18885416666666663,0.13203703703703695],[0.15499999999999994,0.13499999999999995],[0.16822916666666668,0.11129629629629634],[0.15416666666666667,0.10555555555555556],[0.13239583333333324,0.10537037037037032],[0.15125000000000005,0.07981481481481485],[0.1866666666666667,0.05907407407407403],[0.20708333333333329,0.05185185185185185],[0.25843749999999993,0.03888888888888889],[0.25843749999999993,0.03888888888888889],[0.20604166666666662,0.05851851851851856],[0.19562499999999997,0.021296296296296296],[0.22302083333333325,0],[0.22760416666666666,0.009629629629629714],[0.22760416666666666,0.009629629629629714],[0.2538541666666667,0.009444444444444486],[0.23895833333333344,0.007037037037036953],[0.19656250000000006,0.002962962962963005],[0.15416666666666667,-0.0011111111111111532],[0.15416666666666667,-0.0011111111111111532],[0.1400000000000001,-0.008148148148148106],[0.07739583333333329,-0.011296296296296339],[0.07937500000000004,-0.041111111111111195],[0.04104166666666664,-0.023148148148148147],[0.04104166666666664,-0.023148148148148147],[0.0032291666666666905,-0.03296296296296288],[0.0032291666666666905,-0.03296296296296288],[-0.012187500000000047,-0.06222222222222226],[0.002708333333333357,-0.08444444444444449],[0.05531250000000002,-0.09111111111111109],[0.09479166666666666,-0.07074074074074072],[0.14989583333333342,-0.04000000000000004],[0.1544791666666666,-0.07000000000000002],[0.1544791666666666,-0.07000000000000002],[0.19812500000000005,-0.10129629629629627],[0.21989583333333323,-0.1037037037037037],[0.24093749999999994,-0.13055555555555556],[0.28156249999999994,-0.12074074074074072],[0.29416666666666674,-0.11777777777777781],[0.29416666666666674,-0.11777777777777781],[0.27072916666666674,-0.1544444444444444],[0.25833333333333336,-0.17925925925925928],[0.2609375,-0.21333333333333332],[0.22010416666666663,-0.27444444444444444],[0.19604166666666673,-0.28055555555555556],[0.19375,-0.28129629629629627],[0.2133333333333333,-0.3109259259259259],[0.21822916666666667,-0.33111111111111113],[0.2099999999999999,-0.36925925925925923],[0.23125,-0.41703703703703704],[0.22229166666666675,-0.42907407407407405],[0.1779166666666666,-0.4572222222222222],[0.11854166666666661,-0.47611111111111115],[0.11677083333333324,-0.46222222222222226],[0.13552083333333323,-0.45314814814814813],[0.12145833333333324,-0.4487037037037037],[0.10739583333333323,-0.44425925925925924],[0.10968749999999995,-0.45481481481481484],[0.10968749999999995,-0.45481481481481484],[0.12395833333333334,-0.46166666666666667],[0.11770833333333333,-0.47759259259259257],[0.13416666666666663,-0.47907407407407404],[0.17843749999999994,-0.4896296296296296],[0.2375,-0.5064814814814815],[0.2375,-0.5064814814814815],[0.26593749999999994,-0.5390740740740741],[0.2821875000000001,-0.5342592592592592],[0.3020833333333333,-0.5803703703703703],[0.3219791666666666,-0.6264814814814815],[0.35916666666666663,-0.6218518518518519],[0.36916666666666675,-0.567037037037037],[0.3554166666666667,-0.5098148148148148],[0.36052083333333323,-0.47833333333333333],[0.4119791666666667,-0.4690740740740741],[0.4174999999999999,-0.43870370370370365],[0.44406249999999997,-0.43574074074074076],[0.48427083333333343,-0.4696296296296297],[0.5111458333333334,-0.4812962962962963],[0.5363541666666668,-0.48277777777777775],[0.4886458333333332,-0.4255555555555556],[0.4561458333333334,-0.4222222222222222],[0.4332291666666668,-0.39888888888888885],[0.4103125000000001,-0.3755555555555556],[0.34260416666666677,-0.3225925925925926],[0.3060416666666666,-0.2844444444444445],[0.3060416666666666,-0.2844444444444445],[0.2306250000000001,-0.23444444444444448],[0.16593749999999996,-0.1609259259259259],[0.10114583333333324,-0.060370370370370414],[0.03093750000000005,0.025925925925925925],[0.03093750000000005,0.025925925925925925],[0.013750000000000047,0.0418518518518519],[0.0007291666666667141,0.06592592592592597],[0.0007291666666667141,0.06592592592592597],[0.008333333333333333,0.05851851851851856],[0.02010416666666662,0.059999999999999956],[0.030416666666666713,0.05851851851851856],[0.046875,0.0235185185185186],[0.1015625,0.014814814814814815],[0.1580208333333334,0.02240740740740745],[0.21447916666666675,0.030000000000000086],[0.2538541666666667,0.01444444444444436],[0.29322916666666665,-0.0011111111111111532],[0.29322916666666665,-0.0011111111111111532],[0.34645833333333326,-0.019999999999999917],[0.35031249999999997,-0.010740740740740657],[0.35343749999999996,-0.014629629629629588],[0.3568749999999999,-0.06333333333333331],[0.3568749999999999,-0.06333333333333331],[0.3541666666666667,-0.07851851851851847],[0.3402083333333332,-0.11222222222222226]]","[[-0.12072916666666664,0.22537037037037044,0.00029999999701857405],[-0.12072916666666664,0.22537037037037044,0.050599999994034306],[-0.12458333333333335,0.2116666666666666,0.061899999991055665],[-0.09427083333333333,0.21074074074074065,0.07849999999999824],[-0.09427083333333333,0.21074074074074065,0.09039999999105675],[-0.09895833333333333,0.22259259259259268,0.10709999999403408],[-0.1234375,0.20425925925925917,0.12370000000297665],[-0.15229166666666671,0.16740740740740737,0.1403999999910539],[-0.12072916666666664,0.1455555555555556,0.1594999999999942],[-0.07625000000000005,0.12685185185185185,0.17529999999701573],[-0.07625000000000005,0.12685185185185185,0.19039999999105817],[-0.05135416666666662,0.1205555555555556,0.20720000000297745],[-0.050312499999999954,0.11407407407407412,0.22370000000297807],[-0.01895833333333338,0.09222222222222214,0.24329999999702068],[0.004375000000000047,0.09351851851851851,0.2575000000000003],[0.004375000000000047,0.09351851851851851,0.2737999999970171],[0.04041666666666662,0.10037037037037046,0.2903999999910596],[0.11114583333333337,0.09962962962962954,0.3070999999940369],[0.11947916666666672,0.08277777777777787,0.3269999999999982],[0.1482291666666666,0.06481481481481481,0.3429999999999964],[0.1482291666666666,0.06481481481481481,0.3570999999940341],[0.1287499999999999,0.04388888888888897,0.3738999999910533],[0.10927083333333343,0.02296296296296292,0.39049999999999585],[0.06489583333333329,0.027037037037037078,0.40709999999403834],[0.0655208333333333,0.05944444444444449,0.4242000000029762],[0.0655208333333333,0.05944444444444449,0.44039999999105817],[0.06614583333333333,0.09185185185185189,0.4570999999940355],[0.07156250000000004,0.10129629629629638,0.47379999999701994],[0.051979166666666646,0.12685185185185185,0.4938999999910578],[0.03270833333333331,0.14722222222222223,0.5097000000029794],[0.053125,0.1551851851851851,0.5264999999999986],[0.057500000000000044,0.18277777777777787,0.5422999999970202],[0.051874999999999956,0.23796296296296296,0.5570999999940369],[0.04624999999999998,0.29314814814814805,0.5737999999970143],[0.03312499999999995,0.31962962962962965,0.5929999999999964],[0.03312499999999995,0.31962962962962965,0.6070999999940341],[0.006458333333333381,0.3205555555555556,0.6237999999970185],[0.04822916666666662,0.29907407407407405,0.6403999999910539],[0.059375,0.28407407407407403,0.6609999999999943],[0.09552083333333337,0.252962962962963,0.6770999999940344],[0.12979166666666658,0.20907407407407402,0.692799999997014],[0.15322916666666658,0.19222222222222213,0.7087000000029775],[0.18072916666666666,0.1685185185185185,0.7237000000029781],[0.21531250000000005,0.13537037037037042,0.7428999999910602],[0.2709374999999999,0.1359259259259259,0.7587000000029747],[0.2709374999999999,0.1359259259259259,0.7737999999970171],[0.34354166666666663,0.1301851851851851,0.7903999999910596],[0.38947916666666677,0.11018518518518519,0.8087000000029789],[0.3607291666666666,0.08796296296296297,0.8267000000029796],[0.33864583333333326,0.062037037037037036,0.8412999999970197],[0.3586458333333333,0.04944444444444453,0.8570999999940341],[0.3805208333333333,0.049629629629629544,0.8737999999970185],[0.39958333333333323,0.07185185185185176,0.8905999999940377],[0.41458333333333336,0.10092592592592593,0.910499999999999],[0.4361458333333334,0.12018518518518514,0.9239999999999995],[0.4361458333333334,0.12018518518518514,0.9403999999910582],[0.4366666666666667,0.10574074074074079,0.9570999999940355],[0.4275000000000001,0.10833333333333334,0.9737000000029781],[0.45322916666666657,0.09462962962962967,0.9935999999940393],[0.4852083333333333,0.10555555555555556,1.0077999999970189],[0.5234375,0.10907407407407403,1.0237000000029752],[0.5195833333333333,0.0992592592592593,1.0437999999970202],[0.5401041666666667,0.0992592592592593,1.058599999994037],[0.5758333333333333,0.07833333333333325,1.0788999999910587],[0.5758333333333333,0.07833333333333325,1.0903999999910567],[0.5739583333333333,0.05481481481481486,1.107099999994034],[0.5628124999999999,0.01314814814814819,1.1237000000029767],[0.5569791666666667,-0.020185185185185143,1.140399999991054],[0.5646874999999999,-0.016111111111111194,1.1599999999999966],[0.5641666666666666,0.018518518518518517,1.176700000002981],[0.5565625,0.005370370370370328,1.1938999999910536],[0.5447916666666667,0.010925925925925884,1.2085999999940356],[0.5216666666666666,0.0338888888888888,1.223700000002978],[0.4866666666666667,0.05018518518518523,1.2403999999910553],[0.45125000000000004,0.08518518518518518,1.259200000002977],[0.45125000000000004,0.08518518518518518,1.2737000000029752],[0.45343749999999994,0.1227777777777777,1.2903999999910596],[0.434375,0.15314814814814823,1.307099999994037],[0.3711458333333333,0.21740740740740735,1.3269999999999982],[0.29375,0.22611111111111115,1.3412000000029778],[0.23229166666666667,0.1881481481481482,1.357099999994034],[0.1779166666666666,0.19796296296296292,1.3755999999940371],[0.09979166666666663,0.20925925925925926,1.3905999999940377],[0.03302083333333338,0.20314814814814824,1.4069999999999965],[-0.023958333333333335,0.17333333333333337,1.423700000002981],[-0.08052083333333329,0.12481481481481477,1.4403999999910582],[-0.11666666666666667,0.07796296296296301,1.4570999999940355],[-0.11864583333333331,0.08981481481481482,1.47379999999702],[-0.109375,0.05981481481481473,1.4938999999910578],[-0.08979166666666671,0.03092592592592601,1.5079999999999956],[-0.09395833333333338,0.05462962962962963,1.5237000000029752],[-0.09812500000000005,0.07833333333333325,1.5412000000029806],[-0.10916666666666662,0.09277777777777782,1.556999999999995],[-0.109375,0.09314814814814806,1.5737999999970143],[-0.10916666666666662,0.0962962962962963,1.5922999999970173],[-0.09416666666666665,0.11962962962962967,1.609599999994039],[-0.11218750000000005,0.11740740740740736,1.6237999999970185],[-0.12229166666666665,0.11444444444444436,1.640399999991054],[-0.09302083333333329,0.10314814814814824,1.6569999999999965],[-0.06375000000000004,0.09185185185185189,1.675200000002981],[-0.06375000000000004,0.09185185185185189,1.6903999999910582],[-0.02312500000000005,0.11129629629629634,1.7070999999940355],[0.023958333333333335,0.10870370370370379,1.723700000002978],[0.09958333333333323,0.10259259259259255,1.7403999999910553],[0.15833333333333333,0.11777777777777781,1.7570999999940398],[0.1943749999999999,0.1507407407407407,1.773899999991059],[0.22406249999999991,0.15592592592592602,1.7919999999999945],[0.2615624999999999,0.19018518518518526,1.807099999994037],[0.29354166666666665,0.22851851851851848,1.8269999999999982],[0.30666666666666675,0.2403703703703703,1.8429999999999964],[0.30666666666666675,0.2403703703703703,1.857099999994034],[0.29625000000000007,0.3133333333333334,1.8738999999910533],[0.3125,0.2881481481481482,1.8902999999970191],[0.32229166666666675,0.285,1.9070999999940383],[0.32156250000000003,0.2948148148148149,1.923700000002981],[0.32156250000000003,0.2948148148148149,1.9403999999910582],[0.3319791666666667,0.31555555555555553,1.9572999999970193],[0.35750000000000004,0.31925925925925924,1.973700000002978],[0.3745833333333332,0.33055555555555555,1.9933999999910554],[0.3706249999999999,0.3290740740740742,2.0093999999910537],[0.3706249999999999,0.3290740740740742,2.0237000000029752],[0.38041666666666674,0.30388888888888893,2.0403999999910596],[0.3884375000000001,0.3146296296296296,2.057099999994037],[0.42000000000000004,0.26425925925925936,2.0775000000000006],[0.41291666666666677,0.29499999999999993,2.0937999999970174],[0.41291666666666677,0.29499999999999993,2.107099999994034],[0.4058333333333332,0.3257407407407407,2.1237999999970185],[0.42000000000000004,0.3333333333333333,2.140399999991054],[0.4144791666666668,0.31240740740740747,2.1569999999999965],[0.39385416666666656,0.3085185185185186,2.1752999999970157],[0.3984375,0.33277777777777784,2.1948999999910583],[0.3984375,0.33277777777777784,2.2070999999940355],[0.4288541666666667,0.3646296296296296,2.22379999999702],[0.4184375000000001,0.38722222222222225,2.2435999999940393],[0.4192708333333333,0.3907407407407407,2.257700000002977],[0.4040625000000001,0.4057407407407408,2.273799999997017],[0.40770833333333345,0.38000000000000006,2.2907000000029782],[0.41135416666666674,0.35425925925925916,2.307899999991058],[0.41135416666666674,0.35425925925925916,2.32709999999404],[0.4041666666666667,0.3698148148148149,2.3430999999940383],[0.42218749999999994,0.39166666666666666,2.3597999999970156],[0.44020833333333326,0.41351851851851845,2.3737999999970185],[0.43302083333333335,0.4072222222222222,2.390499999999996],[0.3993750000000001,0.3977777777777777,2.4100999999940385],[0.3897916666666667,0.4005555555555555,2.4244999999999948],[0.3897916666666667,0.4005555555555555,2.440399999991058],[0.37781250000000005,0.4209259259259258,2.4570999999940355],[0.37531249999999994,0.4118518518518518,2.4738999999910547],[0.3814583333333334,0.4287037037037037,2.4932999999970207],[0.3876041666666666,0.4455555555555556,2.5079999999999956],[0.3646874999999999,0.4264814814814814,2.5237000000029752],[0.3311458333333334,0.41148148148148156,2.5403999999910596],[0.3120833333333332,0.3829629629629629,2.556999999999995],[0.2930208333333333,0.3544444444444444,2.5737999999970143],[0.27802083333333344,0.3520370370370371,2.5907000000029754],[0.27802083333333344,0.3520370370370371,2.607099999994034],[0.2534374999999999,0.3435185185185185,2.6237000000029767],[0.16697916666666662,0.3787037037037037,2.6405999999940377],[0.09145833333333328,0.4305555555555556,2.6598999999910546],[-0.003125,0.47759259259259257,2.67589999999106],[-0.0859375,0.4920370370370371,2.6907999999970187],[-0.1486458333333334,0.5248148148148147,2.7070000000000007],[-0.19697916666666668,0.5583333333333333,2.723700000002978],[-0.25979166666666664,0.6053703703703703,2.7402999999970206],[-0.2984375,0.6514814814814814,2.7570999999940398],[-0.3146875,0.6746296296296296,2.77770000000298],[-0.31791666666666674,0.68,2.7919999999999945],[-0.2592708333333333,0.6416666666666667,2.807099999994037],[-0.23145833333333338,0.6037037037037037,2.8267000000029796],[-0.20364583333333333,0.5657407407407408,2.842499999999994],[-0.20364583333333333,0.5657407407407408,2.857099999994034],[-0.16614583333333333,0.5988888888888888,2.8769999999999953],[-0.16614583333333333,0.5988888888888888,2.890499999999996],[-0.11260416666666669,0.5448148148148149,2.907299999997015],[-0.06989583333333335,0.49425925925925923,2.9239999999999995],[-0.06989583333333335,0.49425925925925923,2.9427000000029793],[-0.01270833333333338,0.447037037037037,2.9572999999970193],[-0.005312500000000024,0.42851851851851847,2.973700000002978],[-0.022083333333333382,0.3874074074074075,2.9935999999940393],[-0.019687499999999976,0.34444444444444444,3.0079999999999956],[-0.03864583333333336,0.31740740740740736,3.023799999997017],[-0.03864583333333336,0.31740740740740736,3.0403999999910596],[-0.03114583333333331,0.2912962962962962,3.057099999994037],[-0.017708333333333333,0.2844444444444445,3.079499999999996],[-0.017708333333333333,0.2844444444444445,3.0904999999999987],[-0.017499999999999953,0.24351851851851852,3.107099999994034],[-0.04468749999999998,0.256111111111111,3.1237000000029767],[-0.07541666666666665,0.26444444444444437,3.140399999991054],[-0.05510416666666664,0.255925925925926,3.1590999999940337],[-0.00916666666666662,0.21962962962962967,3.175099999994039],[0.06270833333333338,0.20166666666666663,3.1933999999910583],[0.10239583333333328,0.20333333333333325,3.2093999999910565],[0.146875,0.2170370370370371,3.2242000000029805],[0.19135416666666671,0.23074074074074077,3.243700000002981],[0.25062499999999993,0.19685185185185178,3.25859999999404],[0.25062499999999993,0.19685185185185178,3.2774999999999963],[0.2796875,0.16740740740740737,3.2905999999940363],[0.36729166666666657,0.15592592592592602,3.307200000002979],[0.4470833333333334,0.15611111111111103,3.3237000000029795],[0.4613541666666668,0.1698148148148149,3.342499999999994],[0.4613541666666668,0.1698148148148149,3.357200000002976],[0.4476041666666667,0.15925925925925927,3.3739999999999952],[0.41343750000000007,0.175,3.390299999997019],[0.3792708333333332,0.19074074074074074,3.409499999999994],[0.3693749999999999,0.17296296296296293,3.423700000002981],[0.35947916666666657,0.1551851851851851,3.4405],[0.31229166666666663,0.1609259259259259,3.4600999999940356],[0.28708333333333325,0.15777777777777785,3.4755999999940386],[0.22302083333333325,0.1609259259259259,3.495999999999995],[0.22302083333333325,0.1609259259259259,3.5070999999940398],[0.20593750000000005,0.14648148148148152,3.523799999997017],[0.18885416666666663,0.13203703703703695,3.5419999999999945],[0.15499999999999994,0.13499999999999995,3.556999999999995],[0.16822916666666668,0.11129629629629634,3.5737999999970143],[0.15416666666666667,0.10555555555555556,3.5932000000029802],[0.13239583333333324,0.10537037037037032,3.610299999997018],[0.15125000000000005,0.07981481481481485,3.6253999999910533],[0.1866666666666667,0.05907407407407403,3.640299999997019],[0.20708333333333329,0.05185185185185185,3.6570999999940383],[0.25843749999999993,0.03888888888888889,3.6792000000029788],[0.25843749999999993,0.03888888888888889,3.6905],[0.20604166666666662,0.05851851851851856,3.7070000000000007],[0.19562499999999997,0.021296296296296296,3.7238999999910547],[0.22302083333333325,0,3.7435999999940393],[0.22760416666666666,0.009629629629629714,3.759799999997014],[0.22760416666666666,0.009629629629629714,3.774000000000001],[0.2538541666666667,0.009444444444444486,3.7933999999910597],[0.23895833333333344,0.007037037037036953,3.809200000002974],[0.19656250000000006,0.002962962962963005,3.826999999999998],[0.15416666666666667,-0.0011111111111111532,3.846399999991057],[0.15416666666666667,-0.0011111111111111532,3.857200000002976],[0.1400000000000001,-0.008148148148148106,3.8739999999999952],[0.07739583333333329,-0.011296296296296339,3.8908999999910563],[0.07937500000000004,-0.041111111111111195,3.911099999994036],[0.04104166666666664,-0.023148148148148147,3.926599999994039],[0.04104166666666664,-0.023148148148148147,3.9447999999970165],[0.0032291666666666905,-0.03296296296296288,3.9610999999940404],[0.0032291666666666905,-0.03296296296296288,3.9739999999999966],[-0.012187500000000047,-0.06222222222222226,3.9904999999999973],[0.002708333333333357,-0.08444444444444449,4.010599999994035],[0.05531250000000002,-0.09111111111111109,4.027099999994036],[0.09479166666666666,-0.07074074074074072,4.043200000002976],[0.14989583333333342,-0.04000000000000004,4.062299999997016],[0.1544791666666666,-0.07000000000000002,4.079099999994035],[0.1544791666666666,-0.07000000000000002,4.090499999999999],[0.19812500000000005,-0.10129629629629627,4.107200000002976],[0.21989583333333323,-0.1037037037037037,4.126599999994035],[0.24093749999999994,-0.13055555555555556,4.141700000002977],[0.28156249999999994,-0.12074074074074072,4.160299999997015],[0.29416666666666674,-0.11777777777777781,4.180200000002976],[0.29416666666666674,-0.11777777777777781,4.190599999994035],[0.27072916666666674,-0.1544444444444444,4.2072000000029774],[0.25833333333333336,-0.17925925925925928,4.223700000002978],[0.2609375,-0.21333333333333332,4.240299999997021],[0.22010416666666663,-0.27444444444444444,4.256999999999998],[0.19604166666666673,-0.28055555555555556,4.273700000002975],[0.19375,-0.28129629629629627,4.291200000002981],[0.2133333333333333,-0.3109259259259259,4.307099999994037],[0.21822916666666667,-0.33111111111111113,4.3235999999940375],[0.2099999999999999,-0.36925925925925923,4.340999999999994],[0.23125,-0.41703703703703704,4.357099999994034],[0.22229166666666675,-0.42907407407407405,4.375],[0.1779166666666666,-0.4572222222222222,4.395499999999998],[0.11854166666666661,-0.47611111111111115,4.410700000002976],[0.11677083333333324,-0.46222222222222226,4.425999999999995],[0.13552083333333323,-0.45314814814814813,4.4417000000029745],[0.12145833333333324,-0.4487037037037037,4.4570999999940355],[0.10739583333333323,-0.44425925925925924,4.473700000002978],[0.10968749999999995,-0.45481481481481484,4.495799999997018],[0.10968749999999995,-0.45481481481481484,4.50709999999404],[0.12395833333333334,-0.46166666666666667,4.52359999999404],[0.11770833333333333,-0.47759259259259257,4.540499999999994],[0.13416666666666663,-0.47907407407407404,4.557099999994037],[0.17843749999999994,-0.4896296296296296,4.577500000000001],[0.2375,-0.5064814814814815,4.5928999999910545],[0.2375,-0.5064814814814815,4.607099999994034],[0.26593749999999994,-0.5390740740740741,4.623700000002977],[0.2821875000000001,-0.5342592592592592,4.640899999991056],[0.3020833333333333,-0.5803703703703703,4.660299999997015],[0.3219791666666666,-0.6264814814814815,4.676899999991058],[0.35916666666666663,-0.6218518518518519,4.6932000000029745],[0.36916666666666675,-0.567037037037037,4.7078999999910565],[0.3554166666666667,-0.5098148148148148,4.723599999994036],[0.36052083333333323,-0.47833333333333333,4.740299999997021],[0.4119791666666667,-0.4690740740740741,4.756999999999998],[0.4174999999999999,-0.43870370370370365,4.773799999997017],[0.44406249999999997,-0.43574074074074076,4.79229999999702],[0.48427083333333343,-0.4696296296296297,4.806999999999995],[0.5111458333333334,-0.4812962962962963,4.826899999991056],[0.5363541666666668,-0.48277777777777775,4.84320000000298],[0.4886458333333332,-0.4255555555555556,4.859999999999999],[0.4561458333333334,-0.4222222222222222,4.876299999997016],[0.4332291666666668,-0.39888888888888885,4.891500000000001],[0.4103125000000001,-0.3755555555555556,4.910299999997015],[0.34260416666666677,-0.3225925925925926,4.92589999999106],[0.3060416666666666,-0.2844444444444445,4.945200000002977],[0.3060416666666666,-0.2844444444444445,4.957299999997019],[0.2306250000000001,-0.23444444444444448,4.973899999991055],[0.16593749999999996,-0.1609259259259259,4.993399999991055],[0.10114583333333324,-0.060370370370370414,5.007700000002977],[0.03093750000000005,0.025925925925925925,5.023700000002975],[0.03093750000000005,0.025925925925925925,5.040299999997018],[0.013750000000000047,0.0418518518518519,5.057099999994037],[0.0007291666666667141,0.06592592592592597,5.078799999997017],[0.0007291666666667141,0.06592592592592597,5.090299999997015],[0.008333333333333333,0.05851851851851856,5.107099999994034],[0.02010416666666662,0.059999999999999956,5.123700000002977],[0.030416666666666713,0.05851851851851856,5.140299999997019],[0.046875,0.0235185185185186,5.157099999994038],[0.1015625,0.014814814814814815,5.174599999994037],[0.1580208333333334,0.02240740740740745,5.194299999997014],[0.21447916666666675,0.030000000000000086,5.210499999999996],[0.2538541666666667,0.01444444444444436,5.224499999999999],[0.29322916666666665,-0.0011111111111111532,5.243899999991058],[0.29322916666666665,-0.0011111111111111532,5.256999999999998],[0.34645833333333326,-0.019999999999999917,5.273700000002975],[0.35031249999999997,-0.010740740740740657,5.290899999991055],[0.35343749999999996,-0.014629629629629588,5.306999999999995],[0.3568749999999999,-0.06333333333333331,5.326799999997014],[0.3568749999999999,-0.06333333333333331,5.340399999991057],[0.3541666666666667,-0.07851851851851847,5.356999999999999],[0.3402083333333332,-0.11222222222222226,5.376599999994035]]","[0.00029999999701857405,0.050599999994034306,0.061899999991055665,0.07849999999999824,0.09039999999105675,0.10709999999403408,0.12370000000297665,0.1403999999910539,0.1594999999999942,0.17529999999701573,0.19039999999105817,0.20720000000297745,0.22370000000297807,0.24329999999702068,0.2575000000000003,0.2737999999970171,0.2903999999910596,0.3070999999940369,0.3269999999999982,0.3429999999999964,0.3570999999940341,0.3738999999910533,0.39049999999999585,0.40709999999403834,0.4242000000029762,0.44039999999105817,0.4570999999940355,0.47379999999701994,0.4938999999910578,0.5097000000029794,0.5264999999999986,0.5422999999970202,0.5570999999940369,0.5737999999970143,0.5929999999999964,0.6070999999940341,0.6237999999970185,0.6403999999910539,0.6609999999999943,0.6770999999940344,0.692799999997014,0.7087000000029775,0.7237000000029781,0.7428999999910602,0.7587000000029747,0.7737999999970171,0.7903999999910596,0.8087000000029789,0.8267000000029796,0.8412999999970197,0.8570999999940341,0.8737999999970185,0.8905999999940377,0.910499999999999,0.9239999999999995,0.9403999999910582,0.9570999999940355,0.9737000000029781,0.9935999999940393,1.0077999999970189,1.0237000000029752,1.0437999999970202,1.058599999994037,1.0788999999910587,1.0903999999910567,1.107099999994034,1.1237000000029767,1.140399999991054,1.1599999999999966,1.176700000002981,1.1938999999910536,1.2085999999940356,1.223700000002978,1.2403999999910553,1.259200000002977,1.2737000000029752,1.2903999999910596,1.307099999994037,1.3269999999999982,1.3412000000029778,1.357099999994034,1.3755999999940371,1.3905999999940377,1.4069999999999965,1.423700000002981,1.4403999999910582,1.4570999999940355,1.47379999999702,1.4938999999910578,1.5079999999999956,1.5237000000029752,1.5412000000029806,1.556999999999995,1.5737999999970143,1.5922999999970173,1.609599999994039,1.6237999999970185,1.640399999991054,1.6569999999999965,1.675200000002981,1.6903999999910582,1.7070999999940355,1.723700000002978,1.7403999999910553,1.7570999999940398,1.773899999991059,1.7919999999999945,1.807099999994037,1.8269999999999982,1.8429999999999964,1.857099999994034,1.8738999999910533,1.8902999999970191,1.9070999999940383,1.923700000002981,1.9403999999910582,1.9572999999970193,1.973700000002978,1.9933999999910554,2.0093999999910537,2.0237000000029752,2.0403999999910596,2.057099999994037,2.0775000000000006,2.0937999999970174,2.107099999994034,2.1237999999970185,2.140399999991054,2.1569999999999965,2.1752999999970157,2.1948999999910583,2.2070999999940355,2.22379999999702,2.2435999999940393,2.257700000002977,2.273799999997017,2.2907000000029782,2.307899999991058,2.32709999999404,2.3430999999940383,2.3597999999970156,2.3737999999970185,2.390499999999996,2.4100999999940385,2.4244999999999948,2.440399999991058,2.4570999999940355,2.4738999999910547,2.4932999999970207,2.5079999999999956,2.5237000000029752,2.5403999999910596,2.556999999999995,2.5737999999970143,2.5907000000029754,2.607099999994034,2.6237000000029767,2.6405999999940377,2.6598999999910546,2.67589999999106,2.6907999999970187,2.7070000000000007,2.723700000002978,2.7402999999970206,2.7570999999940398,2.77770000000298,2.7919999999999945,2.807099999994037,2.8267000000029796,2.842499999999994,2.857099999994034,2.8769999999999953,2.890499999999996,2.907299999997015,2.9239999999999995,2.9427000000029793,2.9572999999970193,2.973700000002978,2.9935999999940393,3.0079999999999956,3.023799999997017,3.0403999999910596,3.057099999994037,3.079499999999996,3.0904999999999987,3.107099999994034,3.1237000000029767,3.140399999991054,3.1590999999940337,3.175099999994039,3.1933999999910583,3.2093999999910565,3.2242000000029805,3.243700000002981,3.25859999999404,3.2774999999999963,3.2905999999940363,3.307200000002979,3.3237000000029795,3.342499999999994,3.357200000002976,3.3739999999999952,3.390299999997019,3.409499999999994,3.423700000002981,3.4405,3.4600999999940356,3.4755999999940386,3.495999999999995,3.5070999999940398,3.523799999997017,3.5419999999999945,3.556999999999995,3.5737999999970143,3.5932000000029802,3.610299999997018,3.6253999999910533,3.640299999997019,3.6570999999940383,3.6792000000029788,3.6905,3.7070000000000007,3.7238999999910547,3.7435999999940393,3.759799999997014,3.774000000000001,3.7933999999910597,3.809200000002974,3.826999999999998,3.846399999991057,3.857200000002976,3.8739999999999952,3.8908999999910563,3.911099999994036,3.926599999994039,3.9447999999970165,3.9610999999940404,3.9739999999999966,3.9904999999999973,4.010599999994035,4.027099999994036,4.043200000002976,4.062299999997016,4.079099999994035,4.090499999999999,4.107200000002976,4.126599999994035,4.141700000002977,4.160299999997015,4.180200000002976,4.190599999994035,4.2072000000029774,4.223700000002978,4.240299999997021,4.256999999999998,4.273700000002975,4.291200000002981,4.307099999994037,4.3235999999940375,4.340999999999994,4.357099999994034,4.375,4.395499999999998,4.410700000002976,4.425999999999995,4.4417000000029745,4.4570999999940355,4.473700000002978,4.495799999997018,4.50709999999404,4.52359999999404,4.540499999999994,4.557099999994037,4.577500000000001,4.5928999999910545,4.607099999994034,4.623700000002977,4.640899999991056,4.660299999997015,4.676899999991058,4.6932000000029745,4.7078999999910565,4.723599999994036,4.740299999997021,4.756999999999998,4.773799999997017,4.79229999999702,4.806999999999995,4.826899999991056,4.84320000000298,4.859999999999999,4.876299999997016,4.891500000000001,4.910299999997015,4.92589999999106,4.945200000002977,4.957299999997019,4.973899999991055,4.993399999991055,5.007700000002977,5.023700000002975,5.040299999997018,5.057099999994037,5.078799999997017,5.090299999997015,5.107099999994034,5.123700000002977,5.140299999997019,5.157099999994038,5.174599999994037,5.194299999997014,5.210499999999996,5.224499999999999,5.243899999991058,5.256999999999998,5.273700000002975,5.290899999991055,5.306999999999995,5.326799999997014,5.340399999991057,5.356999999999999,5.376599999994035]","[1732609230761,1732609230801,1732609230813,1732609230829,1732609230841,1732609230858,1732609230875,1732609230891,1732609230910,1732609230926,1732609230941,1732609230958,1732609230975,1732609230994,1732609231008,1732609231025,1732609231041,1732609231058,1732609231078,1732609231094,1732609231108,1732609231125,1732609231141,1732609231158,1732609231175,1732609231191,1732609231208,1732609231225,1732609231245,1732609231261,1732609231277,1732609231293,1732609231308,1732609231325,1732609231344,1732609231358,1732609231375,1732609231391,1732609231412,1732609231428,1732609231444,1732609231460,1732609231475,1732609231494,1732609231510,1732609231525,1732609231541,1732609231560,1732609231578,1732609231592,1732609231608,1732609231625,1732609231642,1732609231661,1732609231675,1732609231691,1732609231708,1732609231725,1732609231744,1732609231759,1732609231775,1732609231795,1732609231809,1732609231830,1732609231841,1732609231858,1732609231875,1732609231891,1732609231911,1732609231928,1732609231945,1732609231960,1732609231975,1732609231991,1732609232010,1732609232025,1732609232041,1732609232058,1732609232078,1732609232092,1732609232108,1732609232127,1732609232142,1732609232158,1732609232175,1732609232191,1732609232208,1732609232225,1732609232245,1732609232259,1732609232275,1732609232292,1732609232308,1732609232325,1732609232343,1732609232361,1732609232375,1732609232391,1732609232408,1732609232426,1732609232441,1732609232458,1732609232475,1732609232491,1732609232508,1732609232525,1732609232543,1732609232558,1732609232578,1732609232594,1732609232608,1732609232625,1732609232641,1732609232658,1732609232675,1732609232691,1732609232708,1732609232725,1732609232744,1732609232760,1732609232775,1732609232791,1732609232808,1732609232828,1732609232845,1732609232858,1732609232875,1732609232891,1732609232908,1732609232926,1732609232946,1732609232958,1732609232975,1732609232994,1732609233009,1732609233025,1732609233042,1732609233059,1732609233078,1732609233094,1732609233111,1732609233125,1732609233141,1732609233161,1732609233175,1732609233191,1732609233208,1732609233225,1732609233244,1732609233259,1732609233275,1732609233291,1732609233308,1732609233325,1732609233342,1732609233358,1732609233375,1732609233391,1732609233411,1732609233427,1732609233442,1732609233458,1732609233475,1732609233491,1732609233508,1732609233529,1732609233543,1732609233558,1732609233578,1732609233593,1732609233608,1732609233628,1732609233641,1732609233658,1732609233675,1732609233694,1732609233708,1732609233725,1732609233745,1732609233759,1732609233775,1732609233791,1732609233808,1732609233830,1732609233841,1732609233858,1732609233875,1732609233891,1732609233910,1732609233926,1732609233944,1732609233960,1732609233975,1732609233995,1732609234010,1732609234028,1732609234042,1732609234058,1732609234075,1732609234093,1732609234108,1732609234125,1732609234141,1732609234160,1732609234175,1732609234191,1732609234211,1732609234227,1732609234247,1732609234258,1732609234275,1732609234293,1732609234308,1732609234325,1732609234344,1732609234361,1732609234376,1732609234391,1732609234408,1732609234430,1732609234441,1732609234458,1732609234475,1732609234495,1732609234511,1732609234525,1732609234544,1732609234560,1732609234578,1732609234597,1732609234608,1732609234625,1732609234642,1732609234662,1732609234678,1732609234696,1732609234712,1732609234725,1732609234741,1732609234762,1732609234778,1732609234794,1732609234813,1732609234830,1732609234841,1732609234858,1732609234877,1732609234893,1732609234911,1732609234931,1732609234941,1732609234958,1732609234975,1732609234991,1732609235008,1732609235025,1732609235042,1732609235058,1732609235075,1732609235092,1732609235108,1732609235126,1732609235146,1732609235162,1732609235177,1732609235193,1732609235208,1732609235225,1732609235247,1732609235258,1732609235275,1732609235291,1732609235308,1732609235328,1732609235344,1732609235358,1732609235375,1732609235392,1732609235411,1732609235428,1732609235444,1732609235459,1732609235475,1732609235491,1732609235508,1732609235525,1732609235543,1732609235558,1732609235578,1732609235594,1732609235611,1732609235627,1732609235642,1732609235661,1732609235677,1732609235696,1732609235708,1732609235725,1732609235744,1732609235759,1732609235775,1732609235791,1732609235808,1732609235830,1732609235841,1732609235858,1732609235875,1732609235891,1732609235908,1732609235925,1732609235945,1732609235961,1732609235975,1732609235995,1732609236008,1732609236025,1732609236042,1732609236058,1732609236078,1732609236091,1732609236108,1732609236128]","[[844.1,661.7],[844.1,661.7],[840.4,654.3],[869.5,653.8],[869.5,653.8],[865,660.2],[841.5,650.3],[813.8,630.4],[844.1,618.6],[886.8,608.5],[886.8,608.5],[910.7,605.1],[911.7,601.6],[941.8,589.8],[964.2,590.5],[964.2,590.5],[998.8,594.2],[1066.7,593.8],[1074.7,584.7],[1102.3,575],[1102.3,575],[1083.6,563.7],[1064.9,552.4],[1022.3,554.6],[1022.9,572.1],[1022.9,572.1],[1023.5,589.6],[1028.7,594.7],[1009.9,608.5],[991.4,619.5],[1011,623.8],[1015.2,638.7],[1009.8,668.5],[1004.4,698.3],[991.8,712.6],[991.8,712.6],[966.2,713.1],[1006.3,701.5],[1017,693.4],[1051.7,676.6],[1084.6,652.9],[1107.1,643.8],[1133.5,631],[1166.7,613.1],[1220.1,613.4],[1220.1,613.4],[1289.8,610.3],[1333.9,599.5],[1306.3,587.5],[1285.1,573.5],[1304.3,566.7],[1325.3,566.8],[1343.6,578.8],[1358,594.5],[1378.7,604.9],[1378.7,604.9],[1379.2,597.1],[1370.4,598.5],[1395.1,591.1],[1425.8,597],[1462.5,598.9],[1458.8,593.6],[1478.5,593.6],[1512.8,582.3],[1512.8,582.3],[1511,569.6],[1500.3,547.1],[1494.7,529.1],[1502.1,531.3],[1501.6,550],[1494.3,542.9],[1483,545.9],[1460.8,558.3],[1427.2,567.1],[1393.2,586],[1393.2,586],[1395.3,606.3],[1377,622.7],[1316.3,657.4],[1242,662.1],[1183,641.6],[1130.8,646.9],[1055.8,653],[991.7,649.7],[937,633.6],[882.7,607.4],[848,582.1],[846.1,588.5],[855,572.3],[873.8,556.7],[869.8,569.5],[865.8,582.3],[855.2,590.1],[855,590.3],[855.2,592],[869.6,604.6],[852.3,603.4],[842.6,601.8],[870.7,595.7],[898.8,589.6],[898.8,589.6],[937.8,600.1],[983,598.7],[1055.6,595.4],[1112,603.6],[1146.6,621.4],[1175.1,624.2],[1211.1,642.7],[1241.8,663.4],[1254.4,669.8],[1254.4,669.8],[1244.4,709.2],[1260,695.6],[1269.4,693.9],[1268.7,699.2],[1268.7,699.2],[1278.7,710.4],[1303.2,712.4],[1319.6,718.5],[1315.8,717.7],[1315.8,717.7],[1325.2,704.1],[1332.9,709.9],[1363.2,682.7],[1356.4,699.3],[1356.4,699.3],[1349.6,715.9],[1363.2,720],[1357.9,708.7],[1338.1,706.6],[1342.5,719.7],[1342.5,719.7],[1371.7,736.9],[1361.7,749.1],[1362.5,751],[1347.9,759.1],[1351.4,745.2],[1354.9,731.3],[1354.9,731.3],[1348,739.7],[1365.3,751.5],[1382.6,763.3],[1375.7,759.9],[1343.4,754.8],[1334.2,756.3],[1334.2,756.3],[1322.7,767.3],[1320.3,762.4],[1326.2,771.5],[1332.1,780.6],[1310.1,770.3],[1277.9,762.2],[1259.6,746.8],[1241.3,731.4],[1226.9,730.1],[1226.9,730.1],[1203.3,725.5],[1120.3,744.5],[1047.8,772.5],[957,797.9],[877.5,805.7],[817.3,823.4],[770.9,841.5],[710.6,866.9],[673.5,891.8],[657.9,904.3],[654.8,907.2],[711.1,886.5],[737.8,866],[764.5,845.5],[764.5,845.5],[800.5,863.4],[800.5,863.4],[851.9,834.2],[892.9,806.9],[892.9,806.9],[947.8,781.4],[954.9,771.4],[938.8,749.2],[941.1,726],[922.9,711.4],[922.9,711.4],[930.1,697.3],[943,693.6],[943,693.6],[943.2,671.5],[917.1,678.3],[887.6,682.8],[907.1,678.2],[951.2,658.6],[1020.2,648.9],[1058.3,649.8],[1101,657.2],[1143.7,664.6],[1200.6,646.3],[1200.6,646.3],[1228.5,630.4],[1312.6,624.2],[1389.2,624.3],[1402.9,631.7],[1402.9,631.7],[1389.7,626],[1356.9,634.5],[1324.1,643],[1314.6,633.4],[1305.1,623.8],[1259.8,626.9],[1235.6,625.2],[1174.1,626.9],[1174.1,626.9],[1157.7,619.1],[1141.3,611.3],[1108.8,612.9],[1121.5,600.1],[1108,597],[1087.1,596.9],[1105.2,583.1],[1139.2,571.9],[1158.8,568],[1208.1,561],[1208.1,561],[1157.8,571.6],[1147.8,551.5],[1174.1,540],[1178.5,545.2],[1178.5,545.2],[1203.7,545.1],[1189.4,543.8],[1148.7,541.6],[1108,539.4],[1108,539.4],[1094.4,535.6],[1034.3,533.9],[1036.2,517.8],[999.4,527.5],[999.4,527.5],[963.1,522.2],[963.1,522.2],[948.3,506.4],[962.6,494.4],[1013.1,490.8],[1051,501.8],[1103.9,518.4],[1108.3,502.2],[1108.3,502.2],[1150.2,485.3],[1171.1,484],[1191.3,469.5],[1230.3,474.8],[1242.4,476.4],[1242.4,476.4],[1219.9,456.6],[1208,443.2],[1210.5,424.8],[1171.3,391.8],[1148.2,388.5],[1146,388.1],[1164.8,372.1],[1169.5,361.2],[1161.6,340.6],[1182,314.8],[1173.4,308.3],[1130.8,293.1],[1073.8,282.9],[1072.1,290.4],[1090.1,295.3],[1076.6,297.7],[1063.1,300.1],[1065.3,294.4],[1065.3,294.4],[1079,290.7],[1073,282.1],[1088.8,281.3],[1131.3,275.6],[1188,266.5],[1188,266.5],[1215.3,248.9],[1230.9,251.5],[1250,226.6],[1269.1,201.7],[1304.8,204.2],[1314.4,233.8],[1301.2,264.7],[1306.1,281.7],[1355.5,286.7],[1360.8,303.1],[1386.3,304.7],[1424.9,286.4],[1450.7,280.1],[1474.9,279.3],[1429.1,310.2],[1397.9,312],[1375.9,324.6],[1353.9,337.2],[1288.9,365.8],[1253.8,386.4],[1253.8,386.4],[1181.4,413.4],[1119.3,453.1],[1057.1,507.4],[989.7,554],[989.7,554],[973.2,562.6],[960.7,575.6],[960.7,575.6],[968,571.6],[979.3,572.4],[989.2,571.6],[1005,552.7],[1057.5,548],[1111.7,552.1],[1165.9,556.2],[1203.7,547.8],[1241.5,539.4],[1241.5,539.4],[1292.6,529.2],[1296.3,534.2],[1299.3,532.1],[1302.6,505.8],[1302.6,505.8],[1300,497.6],[1286.6,479.4]]","[-0.132282,0.39684600000000003]","[0.132282,0.39684600000000003]","[0.39684600000000003,0.39684600000000003]","[-0.39684600000000003,-0.39684600000000003]","[-0.39684600000000003,0.132282]","[-0.39684600000000003,-0.132282]","[-0.132282,-0.39684600000000003]","[0.132282,-0.39684600000000003]","[0.39684600000000003,-0.39684600000000003]","[-0.132282,0.132282]","[0.132282,0.132282]","[0.39684600000000003,0.132282]","[-0.132282,-0.132282]","[0.132282,-0.132282]","[0.39684600000000003,-0.132282]",0,0,0,0,1,3,Tablet,25,40,9,1,50,4,1,60,5
