inst1_resp.keys,inst1_resp.rt,calibrationMouse.x,calibrationMouse.y,calibrationMouse.leftButton,calibrationMouse.midButton,calibrationMouse.rightButton,calibrationClick.x,calibrationClick.y,calibrationClick.leftButton,calibrationClick.midButton,calibrationClick.rightButton,trialsc.thisRepN,trialsc.thisTrialN,trialsc.thisN,trialsc.thisIndex,trialsc.ran,calibration_x,calibration_y,participant,session,date,expName,psychopyVersion,OS,frameRate,calibrationClick.clicked_name,ScreenRes_pixels,Camera_pixels,mouse_2.x,mouse_2.y,mouse_2.leftButton,mouse_2.midButton,mouse_2.rightButton,mouse_2.time,mouse_2.clicked_name,mouse.x,mouse.y,mouse.leftButton,mouse.midButton,mouse.rightButton,mouse.time,mouse.clicked_name,Choice,Trial,TrialDuration,MOUSE_GAZE,ET_GAZE,ET_GAZE_x_T,time,unixTime,ET_GAZE_NF,Loc_Bus_label,Loc_Metro_label,Loc_RH_label,Loc_Cost_label,Loc_Travel_label,Loc_Comfort_label,Loc_Bus_cost,Loc_Metro_cost,Loc_RH_cost,Loc_Bus_travel,Loc_Metro_travel,Loc_RH_travel,Loc_Bus_comfort,Loc_Metro_comfort,Loc_RH_comfort,trials.thisRepN,trials.thisTrialN,trials.thisN,trials.thisIndex,trials.ran,Block,Device,RH_cost,RH_travel_time,RH_Comfort,metro_cost,metro_travel_time,metro_Comfort,Bus_cost,Bus_travel_time,Bus_Comfort
space,3.5769,0.220833333,0.035185185,1,0,0,-0.657291667,0.003703704,1,0,0,0,0,0,2,1,-0.67,0,32,001,2024-11-27_12h54.51.523,Attention_exp_legacy,2023.1.0,Win32,60.24096386,,,,,,,,,,,,,,,,,,,,,,,,,,,,,,,,,,,,,,,,,,,,,,,,,,,,,,,,,
,,,,,,,0.31875,0.32962963,1,0,0,0,1,1,17,1,0.33,0.33,32,001,2024-11-27_12h54.51.523,Attention_exp_legacy,2023.1.0,Win32,60.24096386,,,,,,,,,,,,,,,,,,,,,,,,,,,,,,,,,,,,,,,,,,,,,,,,,,,,,,,,,
,,,,,,,-0.670833333,-0.327777778,1,0,0,0,2,2,1,1,-0.67,-0.33,32,001,2024-11-27_12h54.51.523,Attention_exp_legacy,2023.1.0,Win32,60.24096386,calibration_square,,,,,,,,,,,,,,,,,,,,,,,,,,,,,,,,,,,,,,,,,,,,,,,,,,,,,,,,
,,,,,,,-0.646875,0.32037037,1,0,0,0,3,3,3,1,-0.67,0.33,32,001,2024-11-27_12h54.51.523,Attention_exp_legacy,2023.1.0,Win32,60.24096386,,,,,,,,,,,,,,,,,,,,,,,,,,,,,,,,,,,,,,,,,,,,,,,,,,,,,,,,,
,,,,,,,-0.301041667,0.314814815,1,0,0,0,4,4,7,1,-0.33,0.33,32,001,2024-11-27_12h54.51.523,Attention_exp_legacy,2023.1.0,Win32,60.24096386,,,,,,,,,,,,,,,,,,,,,,,,,,,,,,,,,,,,,,,,,,,,,,,,,,,,,,,,,
,,,,,,,-0.036458333,0.405555556,1,0,0,0,5,5,12,1,0,0.33,32,001,2024-11-27_12h54.51.523,Attention_exp_legacy,2023.1.0,Win32,60.24096386,,,,,,,,,,,,,,,,,,,,,,,,,,,,,,,,,,,,,,,,,,,,,,,,,,,,,,,,,
,,,,,,,0.314583333,0.553703704,1,0,0,0,6,6,18,1,0.33,0.67,32,001,2024-11-27_12h54.51.523,Attention_exp_legacy,2023.1.0,Win32,60.24096386,,,,,,,,,,,,,,,,,,,,,,,,,,,,,,,,,,,,,,,,,,,,,,,,,,,,,,,,,
,,,,,,,0.320833333,-0.307407407,1,0,0,0,7,7,15,1,0.33,-0.33,32,001,2024-11-27_12h54.51.523,Attention_exp_legacy,2023.1.0,Win32,60.24096386,,,,,,,,,,,,,,,,,,,,,,,,,,,,,,,,,,,,,,,,,,,,,,,,,,,,,,,,,
,,,,,,,-0.685416667,-0.67962963,1,0,0,0,8,8,0,1,-0.67,-0.67,32,001,2024-11-27_12h54.51.523,Attention_exp_legacy,2023.1.0,Win32,60.24096386,,,,,,,,,,,,,,,,,,,,,,,,,,,,,,,,,,,,,,,,,,,,,,,,,,,,,,,,,
,,,,,,,-0.329166667,-0.344444444,1,0,0,0,9,9,5,1,-0.33,-0.33,32,001,2024-11-27_12h54.51.523,Attention_exp_legacy,2023.1.0,Win32,60.24096386,,,,,,,,,,,,,,,,,,,,,,,,,,,,,,,,,,,,,,,,,,,,,,,,,,,,,,,,,
,,,,,,,-0.00625,-0.355555556,1,0,0,0,10,10,10,1,0,-0.33,32,001,2024-11-27_12h54.51.523,Attention_exp_legacy,2023.1.0,Win32,60.24096386,,,,,,,,,,,,,,,,,,,,,,,,,,,,,,,,,,,,,,,,,,,,,,,,,,,,,,,,,
,,,,,,,0.65625,0.681481481,1,0,0,0,11,11,19,1,0.67,0.67,32,001,2024-11-27_12h54.51.523,Attention_exp_legacy,2023.1.0,Win32,60.24096386,,,,,,,,,,,,,,,,,,,,,,,,,,,,,,,,,,,,,,,,,,,,,,,,,,,,,,,,,
,,,,,,,-0.317708333,-0.001851852,1,0,0,0,12,12,6,1,-0.33,0,32,001,2024-11-27_12h54.51.523,Attention_exp_legacy,2023.1.0,Win32,60.24096386,,,,,,,,,,,,,,,,,,,,,,,,,,,,,,,,,,,,,,,,,,,,,,,,,,,,,,,,,
,,,,,,,-0.020833333,0.668518519,1,0,0,0,13,13,13,1,0,0.67,32,001,2024-11-27_12h54.51.523,Attention_exp_legacy,2023.1.0,Win32,60.24096386,,,,,,,,,,,,,,,,,,,,,,,,,,,,,,,,,,,,,,,,,,,,,,,,,,,,,,,,,
,,,,,,,-0.010416667,0.001851852,1,0,0,0,14,14,11,1,0,0,32,001,2024-11-27_12h54.51.523,Attention_exp_legacy,2023.1.0,Win32,60.24096386,,,,,,,,,,,,,,,,,,,,,,,,,,,,,,,,,,,,,,,,,,,,,,,,,,,,,,,,,
,,,,,,,0.321875,-0.003703704,1,0,0,0,15,15,16,1,0.33,0,32,001,2024-11-27_12h54.51.523,Attention_exp_legacy,2023.1.0,Win32,60.24096386,calibration_square,,,,,,,,,,,,,,,,,,,,,,,,,,,,,,,,,,,,,,,,,,,,,,,,,,,,,,,,
,,,,,,,0.338541667,-0.67962963,1,0,0,0,16,16,14,1,0.33,-0.67,32,001,2024-11-27_12h54.51.523,Attention_exp_legacy,2023.1.0,Win32,60.24096386,calibration_square,,,,,,,,,,,,,,,,,,,,,,,,,,,,,,,,,,,,,,,,,,,,,,,,,,,,,,,,
,,,,,,,-0.319791667,0.703703704,1,0,0,0,17,17,8,1,-0.33,0.67,32,001,2024-11-27_12h54.51.523,Attention_exp_legacy,2023.1.0,Win32,60.24096386,,,,,,,,,,,,,,,,,,,,,,,,,,,,,,,,,,,,,,,,,,,,,,,,,,,,,,,,,
,,,,,,,-0.327083333,-0.657407407,1,0,0,0,18,18,4,1,-0.33,-0.67,32,001,2024-11-27_12h54.51.523,Attention_exp_legacy,2023.1.0,Win32,60.24096386,,,,,,,,,,,,,,,,,,,,,,,,,,,,,,,,,,,,,,,,,,,,,,,,,,,,,,,,,
,,,,,,,0.636458333,-0.653703704,1,0,0,0,19,19,20,1,0.67,-0.67,32,001,2024-11-27_12h54.51.523,Attention_exp_legacy,2023.1.0,Win32,60.24096386,,,,,,,,,,,,,,,,,,,,,,,,,,,,,,,,,,,,,,,,,,,,,,,,,,,,,,,,,
,,,,,,,0.008333333,-0.674074074,1,0,0,0,20,20,9,1,0,-0.67,32,001,2024-11-27_12h54.51.523,Attention_exp_legacy,2023.1.0,Win32,60.24096386,calibration_square,,,,,,,,,,,,,,,,,,,,,,,,,,,,,,,,,,,,,,,,,,,,,,,,,,,,,,,,
,,,,,,,,,,,,,,,,,,,32,001,2024-11-27_12h54.51.523,Attention_exp_legacy,2023.1.0,Win32,60.24096386,,"[1920,1080]","[640,480]",[0.084375],[-0.48703703703703705],[1],[0],[0],[3.4293999999761553],"[""StartButton""]","[0.071875,0.071875]","[0.1574074074074074,0.1574074074074074]","[1,1]","[0,0]","[0,0]","[7.7841999999880755,8.513199999988075]","[""Metro_label"",""Metro_label""]",Metro_label,1,8.8083,"[[0.06979166666666667,-0.40185185185185185],[0.06979166666666667,-0.40185185185185185],[0.06979166666666667,-0.40185185185185185],[0.06979166666666667,-0.40185185185185185],[0.06979166666666667,-0.40185185185185185],[0.06979166666666667,-0.40185185185185185],[0.06979166666666667,-0.40185185185185185],[0.06979166666666667,-0.40185185185185185],[0.06979166666666667,-0.40185185185185185],[0.06979166666666667,-0.40185185185185185],[0.06979166666666667,-0.40185185185185185],[0.06979166666666667,-0.40185185185185185],[0.06979166666666667,-0.40185185185185185],[0.06979166666666667,-0.40185185185185185],[0.06979166666666667,-0.40185185185185185],[0.06979166666666667,-0.40185185185185185],[0.06979166666666667,-0.40185185185185185],[0.06979166666666667,-0.40185185185185185],[0.06979166666666667,-0.40185185185185185],[0.06979166666666667,-0.40185185185185185],[0.06979166666666667,-0.40185185185185185],[0.06979166666666667,-0.40185185185185185],[0.06979166666666667,-0.40185185185185185],[0.06979166666666667,-0.40185185185185185],[0.06979166666666667,-0.40185185185185185],[0.06979166666666667,-0.40185185185185185],[0.06979166666666667,-0.40185185185185185],[0.06979166666666667,-0.40185185185185185],[0.06979166666666667,-0.40185185185185185],[0.06979166666666667,-0.40185185185185185],[0.06979166666666667,-0.40185185185185185],[0.06979166666666667,-0.40185185185185185],[0.06979166666666667,-0.40185185185185185],[0.06979166666666667,-0.40185185185185185],[0.06979166666666667,-0.40185185185185185],[0.06979166666666667,-0.40185185185185185],[0.06979166666666667,-0.40185185185185185],[0.06979166666666667,-0.40185185185185185],[0.06979166666666667,-0.40185185185185185],[0.06979166666666667,-0.40185185185185185],[0.06979166666666667,-0.40185185185185185],[0.06979166666666667,-0.40185185185185185],[0.06979166666666667,-0.40185185185185185],[0.06979166666666667,-0.40185185185185185],[0.06979166666666667,-0.40185185185185185],[0.06979166666666667,-0.40185185185185185],[0.06979166666666667,-0.40185185185185185],[0.06979166666666667,-0.40185185185185185],[0.06979166666666667,-0.40185185185185185],[0.06979166666666667,-0.40185185185185185],[0.06979166666666667,-0.40185185185185185],[0.06979166666666667,-0.40185185185185185],[0.07604166666666666,-0.3851851851851852],[0.08333333333333333,-0.3685185185185185],[0.0875,-0.35555555555555557],[0.09166666666666666,-0.337037037037037],[0.09166666666666666,-0.3333333333333333],[0.09375,-0.31851851851851853],[0.09375,-0.29814814814814816],[0.09375,-0.2574074074074074],[0.09375,-0.23333333333333334],[0.096875,-0.20925925925925926],[0.103125,-0.18333333333333332],[0.109375,-0.15],[0.11770833333333333,-0.11851851851851852],[0.13125,-0.08148148148148149],[0.15416666666666667,-0.05555555555555555],[0.19166666666666668,-0.018518518518518517],[0.20208333333333334,-0.012962962962962963],[0.21770833333333334,0],[0.23854166666666668,0.016666666666666666],[0.2520833333333333,0.03518518518518519],[0.26458333333333334,0.07407407407407407],[0.28541666666666665,0.12222222222222222],[0.3,0.15185185185185185],[0.31354166666666666,0.1814814814814815],[0.3229166666666667,0.2],[0.328125,0.2111111111111111],[0.33125,0.21851851851851853],[0.334375,0.2222222222222222],[0.33958333333333335,0.22962962962962963],[0.3416666666666667,0.23333333333333334],[0.3458333333333333,0.24074074074074073],[0.346875,0.24259259259259258],[0.34791666666666665,0.24259259259259258],[0.34791666666666665,0.24444444444444444],[0.34791666666666665,0.24444444444444444],[0.34791666666666665,0.24444444444444444],[0.34791666666666665,0.24444444444444444],[0.34791666666666665,0.24444444444444444],[0.34791666666666665,0.24444444444444444],[0.34791666666666665,0.24444444444444444],[0.34791666666666665,0.24444444444444444],[0.34791666666666665,0.24444444444444444],[0.34791666666666665,0.24444444444444444],[0.34791666666666665,0.24444444444444444],[0.34791666666666665,0.24444444444444444],[0.34791666666666665,0.24444444444444444],[0.34791666666666665,0.24444444444444444],[0.34791666666666665,0.24444444444444444],[0.34791666666666665,0.24444444444444444],[0.34791666666666665,0.24444444444444444],[0.34791666666666665,0.24444444444444444],[0.34791666666666665,0.24444444444444444],[0.34791666666666665,0.24444444444444444],[0.34791666666666665,0.24444444444444444],[0.34791666666666665,0.24444444444444444],[0.34791666666666665,0.24444444444444444],[0.34791666666666665,0.24444444444444444],[0.34791666666666665,0.24444444444444444],[0.34791666666666665,0.24444444444444444],[0.34791666666666665,0.24444444444444444],[0.34791666666666665,0.24444444444444444],[0.34791666666666665,0.24444444444444444],[0.34791666666666665,0.24444444444444444],[0.34791666666666665,0.24444444444444444],[0.34791666666666665,0.24444444444444444],[0.34791666666666665,0.24444444444444444],[0.34791666666666665,0.24444444444444444],[0.34791666666666665,0.24444444444444444],[0.34791666666666665,0.24444444444444444],[0.34791666666666665,0.24444444444444444],[0.34791666666666665,0.24444444444444444],[0.34791666666666665,0.24444444444444444],[0.34791666666666665,0.24444444444444444],[0.34791666666666665,0.24444444444444444],[0.34791666666666665,0.24444444444444444],[0.34791666666666665,0.24444444444444444],[0.34791666666666665,0.24444444444444444],[0.34791666666666665,0.24444444444444444],[0.34791666666666665,0.24444444444444444],[0.34791666666666665,0.24444444444444444],[0.34791666666666665,0.24444444444444444],[0.34791666666666665,0.24444444444444444],[0.34791666666666665,0.24444444444444444],[0.34791666666666665,0.24444444444444444],[0.34791666666666665,0.24444444444444444],[0.34791666666666665,0.24444444444444444],[0.34791666666666665,0.24444444444444444],[0.34791666666666665,0.24444444444444444],[0.34791666666666665,0.24444444444444444],[0.34791666666666665,0.24444444444444444],[0.34791666666666665,0.24444444444444444],[0.34791666666666665,0.24444444444444444],[0.34791666666666665,0.24444444444444444],[0.34791666666666665,0.24444444444444444],[0.34791666666666665,0.24444444444444444],[0.34791666666666665,0.24444444444444444],[0.34791666666666665,0.24444444444444444],[0.34791666666666665,0.24444444444444444],[0.34791666666666665,0.24444444444444444],[0.34791666666666665,0.24444444444444444],[0.34791666666666665,0.24444444444444444],[0.34791666666666665,0.24444444444444444],[0.34791666666666665,0.24444444444444444],[0.34791666666666665,0.24444444444444444],[0.34791666666666665,0.24444444444444444],[0.34791666666666665,0.24444444444444444],[0.34791666666666665,0.24444444444444444],[0.34791666666666665,0.24444444444444444],[0.34791666666666665,0.24444444444444444],[0.34791666666666665,0.24444444444444444],[0.34791666666666665,0.24444444444444444],[0.34791666666666665,0.24444444444444444],[0.34791666666666665,0.24444444444444444],[0.34791666666666665,0.24444444444444444],[0.34791666666666665,0.24444444444444444],[0.34791666666666665,0.24444444444444444],[0.34791666666666665,0.24444444444444444],[0.34791666666666665,0.24444444444444444],[0.34791666666666665,0.24444444444444444],[0.34791666666666665,0.24444444444444444],[0.34791666666666665,0.24444444444444444],[0.34791666666666665,0.24444444444444444],[0.34791666666666665,0.24444444444444444],[0.34791666666666665,0.24444444444444444],[0.34791666666666665,0.24444444444444444],[0.34791666666666665,0.24444444444444444],[0.34791666666666665,0.24444444444444444],[0.34791666666666665,0.24444444444444444],[0.34791666666666665,0.24444444444444444],[0.34791666666666665,0.24444444444444444],[0.34791666666666665,0.24444444444444444],[0.34791666666666665,0.24444444444444444],[0.34791666666666665,0.24444444444444444],[0.34791666666666665,0.24444444444444444],[0.34791666666666665,0.24444444444444444],[0.34791666666666665,0.24444444444444444],[0.34791666666666665,0.24444444444444444],[0.34791666666666665,0.24444444444444444],[0.34791666666666665,0.24444444444444444],[0.34791666666666665,0.24444444444444444],[0.34791666666666665,0.24444444444444444],[0.34791666666666665,0.24444444444444444],[0.34791666666666665,0.24444444444444444],[0.34791666666666665,0.24444444444444444],[0.34791666666666665,0.24444444444444444],[0.34791666666666665,0.24444444444444444],[0.34791666666666665,0.24444444444444444],[0.34791666666666665,0.24444444444444444],[0.34791666666666665,0.24444444444444444],[0.34791666666666665,0.24444444444444444],[0.34791666666666665,0.24444444444444444],[0.34791666666666665,0.24444444444444444],[0.34791666666666665,0.24444444444444444],[0.34791666666666665,0.24444444444444444],[0.34791666666666665,0.24444444444444444],[0.34791666666666665,0.24444444444444444],[0.34791666666666665,0.24444444444444444],[0.34791666666666665,0.24444444444444444],[0.34791666666666665,0.24444444444444444],[0.34791666666666665,0.24444444444444444],[0.34791666666666665,0.24444444444444444],[0.34791666666666665,0.24444444444444444],[0.34791666666666665,0.24444444444444444],[0.34791666666666665,0.24444444444444444],[0.34791666666666665,0.24444444444444444],[0.34791666666666665,0.24444444444444444],[0.34791666666666665,0.24444444444444444],[0.34791666666666665,0.24444444444444444],[0.34791666666666665,0.24444444444444444],[0.34791666666666665,0.24444444444444444],[0.34791666666666665,0.24444444444444444],[0.34791666666666665,0.24444444444444444],[0.34791666666666665,0.24444444444444444],[0.34791666666666665,0.24444444444444444],[0.34791666666666665,0.24444444444444444],[0.34791666666666665,0.24444444444444444],[0.34791666666666665,0.24444444444444444],[0.34791666666666665,0.24444444444444444],[0.3458333333333333,0.24444444444444444],[0.34375,0.24259259259259258],[0.33958333333333335,0.2388888888888889],[0.33645833333333336,0.23703703703703705],[0.3333333333333333,0.23148148148148148],[0.325,0.21851851851851853],[0.31875,0.2074074074074074],[0.315625,0.19814814814814816],[0.309375,0.18333333333333332],[0.3020833333333333,0.16296296296296298],[0.3,0.1537037037037037],[0.29583333333333334,0.1425925925925926],[0.2916666666666667,0.13148148148148148],[0.2864583333333333,0.1111111111111111],[0.278125,0.08333333333333333],[0.2708333333333333,0.04259259259259259],[0.2677083333333333,0.03333333333333333],[0.2635416666666667,0.014814814814814815],[0.2635416666666667,0.011111111111111112],[0.2604166666666667,-0.001851851851851852],[0.2552083333333333,-0.014814814814814815],[0.2520833333333333,-0.025925925925925925],[0.24791666666666667,-0.03518518518518519],[0.24583333333333332,-0.040740740740740744],[0.24375,-0.046296296296296294],[0.24270833333333333,-0.04814814814814815],[0.240625,-0.05185185185185185],[0.2375,-0.05555555555555555],[0.23541666666666666,-0.05555555555555555],[0.23333333333333334,-0.05925925925925926],[0.22604166666666667,-0.06111111111111111],[0.21875,-0.06481481481481481],[0.21041666666666667,-0.06851851851851852],[0.20625,-0.06851851851851852],[0.20104166666666667,-0.06851851851851852],[0.19791666666666666,-0.06851851851851852],[0.19583333333333333,-0.06851851851851852],[0.19479166666666667,-0.06851851851851852],[0.19479166666666667,-0.06851851851851852],[0.19270833333333334,-0.06851851851851852],[0.19166666666666668,-0.06851851851851852],[0.190625,-0.06851851851851852],[0.18854166666666666,-0.06666666666666667],[0.1875,-0.06296296296296296],[0.18541666666666667,-0.06111111111111111],[0.184375,-0.05555555555555555],[0.18229166666666666,-0.053703703703703705],[0.18229166666666666,-0.05185185185185185],[0.18125,-0.05],[0.18125,-0.05],[0.18020833333333333,-0.04814814814814815],[0.18020833333333333,-0.046296296296296294],[0.18020833333333333,-0.046296296296296294],[0.18020833333333333,-0.044444444444444446],[0.18020833333333333,-0.04259259259259259],[0.18020833333333333,-0.03888888888888889],[0.18020833333333333,-0.03888888888888889],[0.18020833333333333,-0.037037037037037035],[0.18020833333333333,-0.03518518518518519],[0.18020833333333333,-0.03518518518518519],[0.18020833333333333,-0.03518518518518519],[0.18020833333333333,-0.03333333333333333],[0.18020833333333333,-0.03333333333333333],[0.18020833333333333,-0.03333333333333333],[0.18020833333333333,-0.03333333333333333],[0.18020833333333333,-0.03333333333333333],[0.18020833333333333,-0.03333333333333333],[0.18020833333333333,-0.03333333333333333],[0.18020833333333333,-0.03333333333333333],[0.18020833333333333,-0.03333333333333333],[0.18020833333333333,-0.03333333333333333],[0.18020833333333333,-0.03333333333333333],[0.18020833333333333,-0.03333333333333333],[0.18020833333333333,-0.03333333333333333],[0.18020833333333333,-0.03333333333333333],[0.18020833333333333,-0.03333333333333333],[0.18020833333333333,-0.03333333333333333],[0.18020833333333333,-0.03333333333333333],[0.18020833333333333,-0.03333333333333333],[0.18020833333333333,-0.03333333333333333],[0.18020833333333333,-0.03333333333333333],[0.18020833333333333,-0.03333333333333333],[0.18020833333333333,-0.03333333333333333],[0.18020833333333333,-0.03333333333333333],[0.18020833333333333,-0.03333333333333333],[0.18020833333333333,-0.03333333333333333],[0.18020833333333333,-0.03333333333333333],[0.18020833333333333,-0.03333333333333333],[0.17916666666666667,-0.03148148148148148],[0.17083333333333334,-0.02962962962962963],[0.13854166666666667,-0.016666666666666666],[0.10729166666666666,-0.003703703703703704],[0.09479166666666666,0.003703703703703704],[0.058333333333333334,0.022222222222222223],[0.04375,0.02962962962962963],[0.034375,0.03333333333333333],[0.028125,0.037037037037037035],[0.025,0.03888888888888889],[0.021875,0.040740740740740744],[0.019791666666666666,0.04259259259259259],[0.019791666666666666,0.04259259259259259],[0.019791666666666666,0.04259259259259259],[0.019791666666666666,0.04259259259259259],[0.019791666666666666,0.04259259259259259],[0.019791666666666666,0.04259259259259259],[0.019791666666666666,0.04259259259259259],[0.019791666666666666,0.04259259259259259],[0.019791666666666666,0.04259259259259259],[0.019791666666666666,0.04259259259259259],[0.019791666666666666,0.04259259259259259],[0.019791666666666666,0.04259259259259259],[0.019791666666666666,0.04259259259259259],[0.019791666666666666,0.04259259259259259],[0.019791666666666666,0.04259259259259259],[0.019791666666666666,0.04259259259259259],[0.019791666666666666,0.04259259259259259],[0.019791666666666666,0.04259259259259259],[0.019791666666666666,0.04259259259259259],[0.019791666666666666,0.04259259259259259],[0.019791666666666666,0.04259259259259259],[0.019791666666666666,0.04259259259259259],[0.019791666666666666,0.04259259259259259],[0.019791666666666666,0.04259259259259259],[0.019791666666666666,0.04259259259259259],[0.019791666666666666,0.04259259259259259],[0.019791666666666666,0.04259259259259259],[0.019791666666666666,0.04259259259259259],[0.019791666666666666,0.04259259259259259],[0.019791666666666666,0.04259259259259259],[0.019791666666666666,0.04259259259259259],[0.019791666666666666,0.04259259259259259],[0.019791666666666666,0.04259259259259259],[0.019791666666666666,0.04259259259259259],[0.019791666666666666,0.04259259259259259],[0.019791666666666666,0.04259259259259259],[0.019791666666666666,0.04259259259259259],[0.019791666666666666,0.04259259259259259],[0.019791666666666666,0.04259259259259259],[0.019791666666666666,0.04259259259259259],[0.019791666666666666,0.04259259259259259],[0.019791666666666666,0.04259259259259259],[0.019791666666666666,0.04259259259259259],[0.019791666666666666,0.04259259259259259],[0.019791666666666666,0.04259259259259259],[0.019791666666666666,0.04259259259259259],[0.019791666666666666,0.04259259259259259],[0.020833333333333332,0.044444444444444446],[0.023958333333333335,0.046296296296296294],[0.025,0.04814814814814815],[0.028125,0.04814814814814815],[0.029166666666666667,0.05185185185185185],[0.030208333333333334,0.05185185185185185],[0.03333333333333333,0.053703703703703705],[0.03333333333333333,0.053703703703703705],[0.034375,0.053703703703703705],[0.034375,0.053703703703703705],[0.034375,0.053703703703703705],[0.034375,0.053703703703703705],[0.034375,0.053703703703703705],[0.034375,0.053703703703703705],[0.034375,0.053703703703703705],[0.034375,0.053703703703703705],[0.034375,0.053703703703703705],[0.034375,0.053703703703703705],[0.034375,0.053703703703703705],[0.034375,0.053703703703703705],[0.034375,0.053703703703703705],[0.034375,0.053703703703703705],[0.034375,0.053703703703703705],[0.034375,0.053703703703703705],[0.034375,0.053703703703703705],[0.034375,0.053703703703703705],[0.034375,0.053703703703703705],[0.034375,0.053703703703703705],[0.034375,0.053703703703703705],[0.034375,0.053703703703703705],[0.034375,0.053703703703703705],[0.034375,0.053703703703703705],[0.034375,0.053703703703703705],[0.034375,0.053703703703703705],[0.034375,0.053703703703703705],[0.034375,0.053703703703703705],[0.034375,0.053703703703703705],[0.034375,0.053703703703703705],[0.034375,0.053703703703703705],[0.034375,0.053703703703703705],[0.034375,0.053703703703703705],[0.034375,0.053703703703703705],[0.034375,0.053703703703703705],[0.034375,0.053703703703703705],[0.034375,0.053703703703703705],[0.034375,0.053703703703703705],[0.034375,0.053703703703703705],[0.034375,0.053703703703703705],[0.034375,0.053703703703703705],[0.034375,0.053703703703703705],[0.034375,0.053703703703703705],[0.034375,0.053703703703703705],[0.034375,0.053703703703703705],[0.034375,0.053703703703703705],[0.034375,0.053703703703703705],[0.034375,0.053703703703703705],[0.034375,0.053703703703703705],[0.034375,0.053703703703703705],[0.034375,0.053703703703703705],[0.034375,0.053703703703703705],[0.034375,0.053703703703703705],[0.034375,0.053703703703703705],[0.034375,0.053703703703703705],[0.034375,0.053703703703703705],[0.034375,0.053703703703703705],[0.034375,0.053703703703703705],[0.034375,0.053703703703703705],[0.034375,0.053703703703703705],[0.034375,0.053703703703703705],[0.034375,0.053703703703703705],[0.034375,0.053703703703703705],[0.0375,0.05740740740740741],[0.04375,0.06851851851851852],[0.046875,0.08148148148148149],[0.053125,0.10555555555555556],[0.058333333333333334,0.12407407407407407],[0.0625,0.13518518518518519],[0.065625,0.14444444444444443],[0.065625,0.14629629629629629],[0.06666666666666667,0.14629629629629629],[0.06666666666666667,0.14629629629629629],[0.06666666666666667,0.14814814814814814],[0.06770833333333333,0.15],[0.06875,0.15],[0.06979166666666667,0.15185185185185185],[0.06979166666666667,0.15185185185185185],[0.07083333333333333,0.15555555555555556],[0.07083333333333333,0.15555555555555556],[0.071875,0.1574074074074074],[0.071875,0.1574074074074074],[0.071875,0.1574074074074074],[0.071875,0.1574074074074074],[0.071875,0.1574074074074074],[0.071875,0.1574074074074074],[0.071875,0.1574074074074074],[0.071875,0.1574074074074074],[0.071875,0.1574074074074074],[0.071875,0.1574074074074074],[0.071875,0.1574074074074074],[0.071875,0.1574074074074074],[0.071875,0.1574074074074074],[0.071875,0.1574074074074074],[0.071875,0.1574074074074074],[0.071875,0.1574074074074074],[0.071875,0.1574074074074074],[0.071875,0.1574074074074074],[0.071875,0.1574074074074074],[0.071875,0.1574074074074074],[0.071875,0.1574074074074074],[0.071875,0.1574074074074074],[0.071875,0.1574074074074074],[0.071875,0.1574074074074074],[0.071875,0.1574074074074074],[0.071875,0.1574074074074074],[0.071875,0.1574074074074074],[0.071875,0.1574074074074074],[0.071875,0.1574074074074074],[0.071875,0.1574074074074074],[0.071875,0.1574074074074074],[0.071875,0.1574074074074074],[0.071875,0.1574074074074074],[0.071875,0.1574074074074074],[0.071875,0.1574074074074074],[0.071875,0.1574074074074074],[0.071875,0.1574074074074074],[0.071875,0.1574074074074074],[0.071875,0.1574074074074074],[0.071875,0.1574074074074074],[0.071875,0.1574074074074074],[0.071875,0.1574074074074074],[0.071875,0.1574074074074074],[0.071875,0.1574074074074074],[0.071875,0.1574074074074074],[0.071875,0.1574074074074074],[0.071875,0.1574074074074074],[0.071875,0.1574074074074074],[0.071875,0.1574074074074074],[0.071875,0.1574074074074074],[0.071875,0.1574074074074074],[0.071875,0.1574074074074074],[0.071875,0.1574074074074074],[0.071875,0.1574074074074074],[0.071875,0.1574074074074074],[0.071875,0.1574074074074074],[0.071875,0.1574074074074074],[0.071875,0.1574074074074074],[0.071875,0.1574074074074074],[0.071875,0.1574074074074074],[0.071875,0.1574074074074074],[0.071875,0.1574074074074074],[0.071875,0.1574074074074074]]","[[0.3993750000000001,0.5412962962962962],[0.3993750000000001,0.5412962962962962],[0.4101041666666667,0.4618518518518518],[0.4101041666666667,0.4618518518518518],[0.37468750000000006,0.38203703703703695],[0.37468750000000006,0.38203703703703695],[0.3393749999999999,0.30481481481481487],[0.3393749999999999,0.30481481481481487],[0.32937500000000003,0.23462962962962972],[0.32937500000000003,0.23462962962962972],[0.32937500000000003,0.23462962962962972],[0.3147916666666667,0.21370370370370367],[0.3147916666666667,0.21370370370370367],[0.2727083333333333,0.16203703703703703],[0.2727083333333333,0.16203703703703703],[0.2953125,0.1485185185185186],[0.2953125,0.1485185185185186],[0.2734375,0.2007407407407407],[0.2734375,0.2007407407407407],[0.23989583333333328,0.2198148148148149],[0.23989583333333328,0.2198148148148149],[0.19729166666666675,0.17888888888888893],[0.19729166666666675,0.17888888888888893],[0.19031250000000005,0.16203703703703703],[0.19031250000000005,0.16203703703703703],[0.18416666666666662,0.1735185185185186],[0.18416666666666662,0.1735185185185186],[0.1779166666666666,0.1824074074074074],[0.1779166666666666,0.1824074074074074],[0.16822916666666668,0.1712962962962963],[0.16822916666666668,0.1712962962962963],[0.13114583333333343,0.14425925925925923],[0.13114583333333343,0.14425925925925923],[0.12052083333333338,0.14092592592592595],[0.12052083333333338,0.14092592592592595],[0.06937499999999991,0.1537037037037037],[0.05541666666666671,0.10111111111111115],[0.06760416666666676,0.04814814814814815],[0.06895833333333339,0.007037037037036953],[0.05343749999999995,0.06870370370370374],[0.04854166666666669,0.11129629629629634],[0.04614583333333329,0.12407407407407407],[0.03197916666666671,0.18333333333333332],[0.04114583333333333,0.22833333333333325],[0.05770833333333331,0.2566666666666667],[0.060104166666666715,0.24740740740740744],[0.060104166666666715,0.24740740740740744],[0.06656249999999998,0.23185185185185195],[0.06822916666666666,0.22851851851851848],[0.07781250000000005,0.2301851851851851],[0.08781249999999995,0.15481481481481485],[0.09718749999999995,0.12407407407407407],[0.1040625000000001,0.12314814814814815],[0.11624999999999991,0.10462962962962963],[0.10479166666666657,0.08944444444444435],[0.11020833333333328,0.03759259259259251],[0.11020833333333328,0.03759259259259251],[0.10906250000000005,0.02962962962962963],[0.09604166666666672,0.11666666666666667],[0.10187499999999995,0.1735185185185186],[0.10187499999999995,0.1735185185185186],[0.09291666666666672,0.2646296296296296],[0.09291666666666672,0.2646296296296296],[0.09187500000000005,0.36074074074074064],[0.09187500000000005,0.36074074074074064],[0.09927083333333328,0.36999999999999994],[0.10666666666666676,0.3792592592592592],[0.1140625,0.3881481481481482],[0.1306250000000001,0.37666666666666665],[0.12270833333333328,0.40925925925925927],[0.1382291666666667,0.387037037037037],[0.1634375000000001,0.32407407407407407],[0.16916666666666677,0.28407407407407403],[0.18177083333333333,0.20481481481481487],[0.20020833333333338,0.12222222222222222],[0.1993750000000001,0.1316666666666667],[0.19854166666666656,0.1411111111111112],[0.19854166666666656,0.1411111111111112],[0.2115624999999999,0.10925925925925926],[0.22541666666666677,0.12314814814814815],[0.22541666666666677,0.12314814814814815],[0.24864583333333337,0.09740740740740746],[0.24864583333333337,0.09740740740740746],[0.25322916666666656,0.0948148148148149],[0.2625,0.06444444444444436],[0.26239583333333344,0.1205555555555556],[0.26229166666666665,0.1766666666666666],[0.25812499999999994,0.2442592592592592],[0.28020833333333334,0.2716666666666668],[0.30229166666666674,0.29907407407407405],[0.30979166666666674,0.342962962962963],[0.346875,0.33537037037037043],[0.346875,0.33537037037037043],[0.3538541666666667,0.34388888888888897],[0.34656250000000005,0.3514814814814814],[0.3321875000000001,0.3948148148148149],[0.3321875000000001,0.3948148148148149],[0.3663541666666667,0.33203703703703696],[0.3950000000000001,0.2742592592592593],[0.39041666666666663,0.227962962962963],[0.3685416666666666,0.18074074074074079],[0.33718750000000003,0.14018518518518527],[0.30583333333333323,0.09962962962962954],[0.2755208333333333,0.07592592592592592],[0.26593749999999994,0.07574074074074069],[0.2772916666666667,0.08037037037037033],[0.2886458333333332,0.08499999999999996],[0.2522916666666667,0.10351851851851848],[0.2256249999999999,0.1346296296296297],[0.22854166666666675,0.12888888888888894],[0.23145833333333338,0.12314814814814815],[0.23010416666666675,0.11722222222222214],[0.23208333333333328,0.1346296296296297],[0.21624999999999991,0.15999999999999995],[0.21218750000000006,0.18925925925925935],[0.20197916666666677,0.2074074074074074],[0.18385416666666668,0.20185185185185187],[0.1787499999999999,0.21425925925925934],[0.16729166666666656,0.19814814814814816],[0.15770833333333342,0.1992592592592593],[0.15427083333333325,0.1905555555555555],[0.16458333333333333,0.17537037037037045],[0.16458333333333333,0.17537037037037045],[0.17156250000000003,0.1368518518518518],[0.17802083333333343,0.08259259259259263],[0.20177083333333337,0.03833333333333342],[0.22552083333333334,-0.00592592592592601],[0.22104166666666672,-0.03851851851851843],[0.2165625000000001,-0.07111111111111107],[0.2273958333333333,-0.11129629629629634],[0.24083333333333337,-0.16074074074074077],[0.22218749999999995,-0.18185185185185182],[0.22218749999999995,-0.18185185185185182],[0.20760416666666662,-0.18944444444444447],[0.18416666666666662,-0.24648148148148152],[0.17708333333333334,-0.287962962962963],[0.14562499999999995,-0.30537037037037035],[0.12416666666666672,-0.33259259259259266],[0.10989583333333333,-0.36129629629629634],[0.10989583333333333,-0.36129629629629634],[0.09562499999999995,-0.39000000000000007],[0.09562499999999995,-0.39000000000000007],[0.04833333333333331,-0.3446296296296297],[-0.01270833333333338,-0.3320370370370371],[-0.019895833333333356,-0.2644444444444445],[-0.03916666666666669,-0.23111111111111113],[-0.049583333333333354,-0.14833333333333337],[-0.002395833333333286,-0.08537037037037042],[0.035104166666666714,-0.06018518518518518],[0.050312499999999954,-0.018333333333333292],[0.09656250000000005,0.029814814814814856],[0.12843749999999995,0.10833333333333334],[0.12843749999999995,0.10833333333333334],[0.1953125,0.1307407407407408],[0.2603125000000001,0.21129629629629634],[0.2868750000000001,0.25925925925925924],[0.32145833333333323,0.327962962962963],[0.32145833333333323,0.327962962962963],[0.32614583333333325,0.30685185185185193],[0.29718749999999994,0.3362962962962963],[0.27322916666666663,0.3655555555555555],[0.24145833333333327,0.3533333333333332],[0.2127083333333334,0.36074074074074064],[0.19833333333333342,0.33777777777777773],[0.16520833333333323,0.35462962962962963],[0.16124999999999995,0.2916666666666667],[0.17916666666666667,0.23370370370370377],[0.1970833333333334,0.1757407407407407],[0.22177083333333342,0.23203703703703696],[0.20750000000000005,0.25574074074074077],[0.19322916666666667,0.2794444444444444],[0.20499999999999996,0.38129629629629624],[0.20499999999999996,0.38129629629629624],[0.21052083333333324,0.4346296296296297],[0.20499999999999996,0.45703703703703696],[0.228125,0.4546296296296296],[0.23510416666666673,0.515925925925926],[0.22156250000000005,0.5296296296296297],[0.20802083333333338,0.5433333333333333],[0.22927083333333323,0.5744444444444445],[0.22927083333333323,0.5744444444444445],[0.24208333333333343,0.5807407407407408],[0.2618750000000001,0.5761111111111111],[0.27281250000000007,0.5307407407407407],[0.26687500000000003,0.4772222222222223],[0.27197916666666655,0.4546296296296296],[0.2757291666666667,0.4468518518518518],[0.28406250000000005,0.43407407407407406],[0.2711458333333333,0.4368518518518518],[0.2582291666666668,0.4396296296296296],[0.24270833333333333,0.40037037037037043],[0.23770833333333338,0.36055555555555563],[0.23624999999999996,0.31296296296296294],[0.23604166666666657,0.26722222222222214],[0.26447916666666677,0.26074074074074066],[0.2930208333333333,0.23629629629629634],[0.29791666666666666,0.18259259259259264],[0.29791666666666666,0.18259259259259264],[0.26458333333333334,0.18722222222222226],[0.26239583333333344,0.13666666666666658],[0.26239583333333344,0.13666666666666658],[0.26020833333333326,0.08611111111111111],[0.26020833333333326,0.08611111111111111],[0.246875,0.04796296296296292],[0.22885416666666672,0.05222222222222231],[0.18499999999999991,0.04537037037037037],[0.17625000000000005,0.03129629629629625],[0.17625000000000005,0.03129629629629625],[0.1568749999999999,0.022222222222222223],[0.12614583333333323,0.04425925925925922],[0.08468749999999996,0.01055555555555564],[0.07687499999999996,-0.0764814814814815],[0.09145833333333328,-0.1331481481481481],[0.10260416666666666,-0.15166666666666662],[0.10260416666666666,-0.15166666666666662],[0.11604166666666677,-0.20685185185185184],[0.10177083333333338,-0.2757407407407407],[0.12291666666666666,-0.30277777777777776],[0.11062500000000004,-0.3272222222222222],[0.10395833333333329,-0.317037037037037],[0.10854166666666672,-0.32],[0.12260416666666671,-0.29555555555555557],[0.12260416666666671,-0.29555555555555557],[0.13666666666666671,-0.2711111111111111],[0.12135416666666667,-0.2983333333333334],[0.11364583333333324,-0.31351851851851853],[0.08520833333333329,-0.33055555555555555],[0.08520833333333329,-0.33055555555555555],[0.12729166666666672,-0.34314814814814815],[0.13052083333333328,-0.3792592592592593],[0.14197916666666663,-0.3983333333333334],[0.14197916666666663,-0.3983333333333334],[0.1584374999999999,-0.3864814814814815],[0.16375000000000003,-0.36796296296296294],[0.1650000000000001,-0.28166666666666673],[0.19645833333333323,-0.2322222222222222],[0.21218750000000006,-0.16592592592592598],[0.21218750000000006,-0.16592592592592598],[0.2564583333333334,-0.11203703703703703],[0.2952083333333334,-0.059814814814814835],[0.33406250000000004,-0.01185185185185181],[0.3336458333333333,0.03537037037037041],[0.3336458333333333,0.03537037037037041],[0.325,0.06555555555555552],[0.3325000000000001,0.032407407407407406],[0.3388541666666666,-0.008148148148148106],[0.35052083333333334,-0.08814814814814818],[0.2985416666666666,-0.11833333333333329],[0.2985416666666666,-0.11833333333333329],[0.28364583333333326,-0.1359259259259259],[0.23604166666666657,-0.19129629629629633],[0.21916666666666676,-0.2631481481481482],[0.16697916666666662,-0.28722222222222227],[0.18624999999999994,-0.27092592592592596],[0.19208333333333344,-0.28277777777777774],[0.19208333333333344,-0.28277777777777774],[0.18354166666666671,-0.27148148148148155],[0.18322916666666675,-0.2770370370370371],[0.19249999999999995,-0.24666666666666665],[0.221875,-0.2361111111111111],[0.24166666666666667,-0.20092592592592592],[0.24166666666666667,-0.20092592592592592],[0.2542708333333332,-0.15648148148148147],[0.2542708333333332,-0.15648148148148147],[0.26760416666666675,-0.03481481481481473],[0.29364583333333344,0.03518518518518519],[0.27979166666666655,0.03685185185185181],[0.2795833333333334,0.0705555555555556],[0.2669791666666666,0.07888888888888893],[0.2665625000000001,0.07314814814814814],[0.23947916666666677,0.07148148148148152],[0.24333333333333323,0.06722222222222214],[0.22999999999999995,0.03740740740740749],[0.23697916666666666,0.04351851851851852],[0.23854166666666668,0.016851851851851896],[0.2267708333333334,-0.014074074074074116],[0.24145833333333327,-0.004814814814814857],[0.24145833333333327,-0.004814814814814857],[0.22958333333333342,-0.002962962962963005],[0.19822916666666662,-0.0198148148148149],[0.1709374999999999,0.025925925925925925],[0.16375000000000003,0.011666666666666582],[0.1525000000000001,0.03611111111111111],[0.14229166666666657,0.08148148148148149],[0.10239583333333328,0.10629629629629625],[0.08624999999999995,0.057037037037036956],[0.07958333333333342,0.05611111111111103],[0.07958333333333342,0.05611111111111103],[0.08260416666666662,0.016666666666666666],[0.11447916666666676,0.0007407407407406986],[0.16749999999999995,0.030740740740740784],[0.17177083333333343,0.01722222222222214],[0.18822916666666673,-0.007407407407407408],[0.19239583333333338,-0.026666666666666623],[0.22385416666666677,-0.03370370370370379],[0.2696875000000001,-0.1111111111111111],[0.29177083333333326,-0.11444444444444446],[0.3240624999999999,-0.14370370370370375],[0.3466666666666666,-0.13444444444444448],[0.33791666666666675,-0.16296296296296298],[0.2859375,-0.17037037037037037],[0.31364583333333323,-0.18407407407407403],[0.3071875000000001,-0.16203703703703703],[0.32062499999999994,-0.14777777777777779],[0.32062499999999994,-0.14777777777777779],[0.2989583333333333,-0.13907407407407413],[0.2516666666666666,-0.08388888888888892],[0.22260416666666671,-0.04203703703703712],[0.18499999999999991,-0.025370370370370456],[0.15166666666666656,-0.0031481481481482323],[0.1428124999999999,0.04055555555555551],[0.17552083333333332,0.03592592592592588],[0.15593750000000003,0.04148148148148144],[0.1553124999999999,0.042407407407407366],[0.13354166666666673,0.01648148148148144],[0.13354166666666673,0.01648148148148144],[0.12458333333333324,0.008888888888888804],[0.14114583333333333,-0.0022222222222223064],[0.13947916666666677,0],[0.11822916666666666,0.015000000000000043],[0.09270833333333334,0.02444444444444453],[0.09802083333333324,0.018888888888888972],[0.09802083333333324,0.018888888888888972],[0.09864583333333338,0.009814814814814731],[0.10802083333333339,0.024814814814814772],[0.10583333333333324,0.04592592592592584],[0.09729166666666676,0.0477777777777777],[0.09729166666666676,0.0477777777777777],[0.11583333333333339,0.00722222222222218],[0.13697916666666668,-0.07074074074074072],[0.16218750000000004,-0.08037037037037033],[0.17510416666666656,-0.09981481481481477],[0.20510416666666675,-0.08796296296296297],[0.20166666666666658,-0.07314814814814814],[0.20750000000000005,-0.05944444444444449],[0.2048958333333334,-0.0653703703703704],[0.20927083333333343,-0.044999999999999915],[0.20927083333333343,-0.044999999999999915],[0.21197916666666666,-0.006481481481481481],[0.20427083333333323,0.06277777777777774],[0.1962500000000001,0.17222222222222222],[0.19145833333333329,0.20759259259259263],[0.19145833333333329,0.20759259259259263],[0.20302083333333343,0.24740740740740744],[0.1814583333333334,0.26740740740740737],[0.18979166666666672,0.2718518518518518],[0.1935416666666666,0.280925925925926],[0.1935416666666666,0.280925925925926],[0.18885416666666663,0.2903703703703703],[0.17687499999999995,0.2825925925925926],[0.17614583333333325,0.25314814814814823],[0.17937500000000003,0.23666666666666658],[0.165625,0.2331481481481481],[0.14729166666666677,0.22092592592592583],[0.1412499999999999,0.22092592592592583],[0.14677083333333343,0.2094444444444445],[0.15854166666666672,0.21796296296296305],[0.15854166666666672,0.21796296296296305],[0.14312500000000009,0.22388888888888886],[0.15281250000000005,0.24092592592592596],[0.16083333333333344,0.24222222222222214],[0.1814583333333334,0.2507407407407407],[0.18708333333333324,0.24611111111111106],[0.22302083333333325,0.23648148148148157],[0.25625,0.2412962962962962],[0.2543750000000001,0.2331481481481481],[0.2582291666666668,0.22370370370370363],[0.2582291666666668,0.22370370370370363],[0.24739583333333334,0.23148148148148148],[0.25,0.19888888888888884],[0.2349999999999999,0.14074074074074075],[0.2413541666666667,0.12462962962962955],[0.23187499999999991,0.12407407407407407],[0.2341666666666666,0.15185185185185185],[0.21802083333333327,0.18129629629629626],[0.18177083333333333,0.1588888888888888],[0.16020833333333329,0.11833333333333329],[0.13781249999999995,0.1088888888888888],[0.09447916666666671,0.04870370370370362],[0.07510416666666657,0.025185185185185227],[0.07510416666666657,0.025185185185185227],[0.06510416666666667,0.048333333333333374],[0.06479166666666672,0.034074074074074034],[0.06708333333333343,0.018518518518518517],[0.035416666666666666,-0.027222222222222307],[0.021249999999999977,-0.08351851851851856],[0.021458333333333357,-0.08870370370370366],[0.021458333333333357,-0.08870370370370366],[0.030416666666666713,-0.08185185185185183],[0.02822916666666669,-0.10185185185185185],[0.03250000000000005,-0.08444444444444449],[0.02510416666666669,-0.04611111111111107],[0.02510416666666669,-0.04611111111111107],[0.04624999999999998,-0.07092592592592595],[0.0296875,-0.07148148148148152],[0.007395833333333357,-0.05796296296296299],[-0.01885416666666669,-0.04388888888888897],[-0.01885416666666669,-0.04388888888888897],[-0.03770833333333338,-0.0544444444444444],[-0.07104166666666671,-0.05888888888888891],[-0.050729166666666714,-0.06814814814814817],[-0.058749999999999976,-0.05796296296296299],[-0.058645833333333286,-0.04611111111111107],[-0.06041666666666667,-0.037037037037037035],[-0.09093749999999995,-0.002962962962963005],[-0.11916666666666664,-0.004074074074074159],[-0.1319791666666667,0.027962962962963005],[-0.1319791666666667,0.027962962962963005],[-0.1171875,0.07833333333333325],[-0.08822916666666672,0.10500000000000008],[-0.030729166666666665,0.11925925925925922],[-0.02510416666666669,0.14000000000000004],[0.002708333333333357,0.17037037037037037],[0.029895833333333382,0.17814814814814822],[0.058854166666666666,0.1925925925925926],[0.0921875,0.1866666666666666],[0.1476041666666667,0.24537037037037038],[0.1476041666666667,0.24537037037037038],[0.19239583333333338,0.18574074074074065],[0.21875,0.13574074074074066],[0.22406249999999991,0.17462962962962955],[0.2185416666666666,0.18888888888888888],[0.2185416666666666,0.18888888888888888],[0.2055208333333333,0.18222222222222217],[0.20083333333333328,0.17925925925925917],[0.19958333333333325,0.14351851851851852],[0.2046875,0.12370370370370362],[0.2046875,0.12370370370370362],[0.21437499999999995,0.13962962962962958],[0.18552083333333325,0.07537037037037045],[0.1872916666666666,0.1],[0.19916666666666671,0.13648148148148156],[0.22000000000000006,0.14537037037037037],[0.22520833333333337,0.169074074074074],[0.2423958333333334,0.1794444444444444],[0.23635416666666675,0.15259259259259256],[0.23635416666666675,0.15259259259259256],[0.24541666666666656,0.20037037037037045],[0.24072916666666658,0.23166666666666672],[0.234375,0.25574074074074077],[0.25812499999999994,0.2935185185185185],[0.2375,0.2681481481481481],[0.2375,0.2681481481481481],[0.24739583333333334,0.2448148148148149],[0.20791666666666658,0.15462962962962962],[0.20791666666666658,0.15462962962962962],[0.18177083333333333,0.11537037037037029],[0.18177083333333333,0.11537037037037029],[0.13531250000000009,0.09740740740740746],[0.14583333333333334,0.09740740740740746],[0.13708333333333325,0.0698148148148149],[0.13708333333333325,0.0698148148148149],[0.13614583333333338,0.019999999999999917],[0.11958333333333329,-0.008333333333333333],[0.13510416666666672,-0.03092592592592601],[0.1319791666666667,-0.028888888888888933],[0.08624999999999995,-0.07240740740740745],[0.08624999999999995,-0.07240740740740745],[0.06802083333333328,-0.06111111111111111],[0.06124999999999995,-0.07555555555555557],[0.07718749999999991,-0.06740740740740736],[0.09270833333333334,-0.09000000000000004],[0.09270833333333334,-0.09000000000000004],[0.08020833333333334,-0.10055555555555558],[0.04479166666666667,-0.10055555555555558],[0.043020833333333286,-0.11629629629629631],[0.043020833333333286,-0.11629629629629631],[0.008124999999999953,-0.14518518518518514],[-0.0020833333333333333,-0.16222222222222227],[-0.004791666666666691,-0.19444444444444445],[0.0140625,-0.18833333333333332],[0.027083333333333334,-0.1925925925925926],[0.017812500000000023,-0.20277777777777778],[-0.00947916666666669,-0.2205555555555556],[-0.00947916666666669,-0.2205555555555556],[-0.0484375,-0.21518518518518517],[-0.04604166666666672,-0.2059259259259259],[-0.04677083333333331,-0.2183333333333333],[-0.05437500000000005,-0.20981481481481484],[-0.0453125,-0.2125925925925926],[-0.01395833333333331,-0.1418518518518519],[-0.000416666666666643,-0.15537037037037033],[-0.000416666666666643,-0.15537037037037033],[-0.002812500000000047,-0.11388888888888889],[-0.003541666666666643,-0.08407407407407404],[0.0006250000000000236,-0.05888888888888891],[0.03770833333333338,-0.06222222222222226],[0.03770833333333338,-0.06222222222222226],[0.04114583333333333,-0.0653703703703704],[0.04114583333333333,-0.0653703703703704],[0.04770833333333328,-0.0735185185185185],[0.03697916666666667,-0.0242592592592593],[0.03312499999999995,0.03611111111111111],[0.02947916666666662,-0.03259259259259263],[0.005624999999999976,-0.03314814814814811],[0.02322916666666662,-0.06148148148148146],[0.03177083333333333,-0.07685185185185185],[0.03177083333333333,-0.07685185185185185],[0.028645833333333332,-0.06574074074074074],[0.06187499999999998,-0.06777777777777783],[0.09697916666666657,-0.0868518518518518],[0.11635416666666672,-0.09796296296296292],[0.11635416666666672,-0.09796296296296292],[0.15583333333333324,-0.11259259259259262],[0.18604166666666658,-0.1294444444444444],[0.19375,-0.07166666666666664],[0.21593749999999995,-0.06592592592592597],[0.19916666666666671,-0.0824074074074074],[0.21572916666666658,-0.09962962962962965],[0.2140625,-0.07888888888888893],[0.17604166666666668,-0.044999999999999915],[0.17604166666666668,-0.044999999999999915],[0.15885416666666666,-0.05388888888888893],[0.11218750000000005,0.021296296296296296],[0.07489583333333343,0.03777777777777774],[0.04385416666666669,0.009999999999999959],[0.04635416666666667,-0.022222222222222223],[0.06104166666666669,-0.017407407407407365],[0.08833333333333329,-0.015555555555555513],[0.07177083333333342,0.026666666666666623],[0.08020833333333334,-0.01055555555555564],[0.07468750000000005,-0.04814814814814815],[0.06281249999999995,-0.03629629629629634],[0.09020833333333324,-0.07259259259259257],[0.11395833333333343,-0.13537037037037042],[0.12322916666666663,-0.1412962962962963],[0.1134375000000001,-0.12777777777777777]]","[[0.3993750000000001,0.5412962962962962,0.00019999998807662678],[0.3993750000000001,0.5412962962962962,0.05519999998807634],[0.4101041666666667,0.4618518518518518,0.07780000001191922],[0.4101041666666667,0.4618518518518518,0.08719999998807992],[0.37468750000000006,0.38203703703703695,0.11340000000596007],[0.37468750000000006,0.38203703703703695,0.12199999999999989],[0.3393749999999999,0.30481481481481487,0.14380000001192172],[0.3393749999999999,0.30481481481481487,0.15219999998807765],[0.32937500000000003,0.23462962962962972,0.17769999998807862],[0.32937500000000003,0.23462962962962972,0.19080000001191877],[0.32937500000000003,0.23462962962962972,0.1924000000059607],[0.3147916666666667,0.21370370370370367,0.2274000000059644],[0.3147916666666667,0.21370370370370367,0.23519999998807606],[0.2727083333333333,0.16203703703703703,0.2609000000059609],[0.2727083333333333,0.16203703703703703,0.26809999999404255],[0.2953125,0.1485185185185186,0.2940999999940388],[0.2953125,0.1485185185185186,0.3014999999999972],[0.2734375,0.2007407407407407,0.3283000000119216],[0.2734375,0.2007407407407407,0.3354000000059614],[0.23989583333333328,0.2198148148148149,0.36340000000596007],[0.23989583333333328,0.2198148148148149,0.3703000000119232],[0.19729166666666675,0.17888888888888893,0.39469999998807737],[0.19729166666666675,0.17888888888888893,0.40259999999403817],[0.19031250000000005,0.16203703703703703,0.42569999998807617],[0.19031250000000005,0.16203703703703703,0.4335000000000022],[0.18416666666666662,0.1735185185185186,0.4624999999999986],[0.18416666666666662,0.1735185185185186,0.4690000000000012],[0.1779166666666666,0.1824074074074074,0.4945999999940369],[0.1779166666666666,0.1824074074074074,0.5020999999940372],[0.16822916666666668,0.1712962962962963,0.5298000000119245],[0.16822916666666668,0.1712962962962963,0.5381999999880804],[0.13114583333333343,0.14425925925925923,0.5606999999880813],[0.13114583333333343,0.14425925925925923,0.5790999999940425],[0.12052083333333338,0.14092592592592595,0.6003000000119201],[0.12052083333333338,0.14092592592592595,0.6111999999880808],[0.06937499999999991,0.1537037037037037,0.6250999999940419],[0.05541666666666671,0.10111111111111115,0.6416999999880773],[0.06760416666666676,0.04814814814814815,0.6615999999940385],[0.06895833333333339,0.007037037037036953,0.6764000000059625],[0.05343749999999995,0.06870370370370374,0.6965999999940422],[0.04854166666666669,0.11129629629629634,0.7121999999880799],[0.04614583333333329,0.12407407407407407,0.7270000000000039],[0.03197916666666671,0.18333333333333332,0.7434999999999974],[0.04114583333333333,0.22833333333333325,0.758499999999998],[0.05770833333333331,0.2566666666666667,0.7750999999940404],[0.060104166666666715,0.24740740740740744,0.7949000000059598],[0.060104166666666715,0.24740740740740744,0.8084000000059604],[0.06656249999999998,0.23185185185185195,0.8250999999940376],[0.06822916666666666,0.22851851851851848,0.841900000005964],[0.07781250000000005,0.2301851851851851,0.8584000000059575],[0.08781249999999995,0.15481481481481485,0.8780000000000001],[0.09718749999999995,0.12407407407407407,0.8933000000119193],[0.1040625000000001,0.12314814814814815,0.9125000000000014],[0.11624999999999991,0.10462962962962963,0.9276999999880786],[0.10479166666666657,0.08944444444444435,0.9424000000059607],[0.11020833333333328,0.03759259259259251,0.9630999999940428],[0.11020833333333328,0.03759259259259251,0.9753000000119201],[0.10906250000000005,0.02962962962962963,0.9919999999999973],[0.09604166666666672,0.11666666666666667,1.008499999999998],[0.10187499999999995,0.1735185185185186,1.0313000000119246],[0.10187499999999995,0.1735185185185186,1.0419000000059597],[0.09291666666666672,0.2646296296296296,1.0586999999880788],[0.09291666666666672,0.2646296296296296,1.0753000000119215],[0.09187500000000005,0.36074074074074064,1.0946999999880802],[0.09187500000000005,0.36074074074074064,1.1085999999940412],[0.09927083333333328,0.36999999999999994,1.1255999999940371],[0.10666666666666676,0.3792592592592592,1.1445999999940426],[0.1140625,0.3881481481481482,1.1608000000119247],[0.1306250000000001,0.37666666666666665,1.176599999994039],[0.12270833333333328,0.40925925925925927,1.1960999999940398],[0.1382291666666667,0.387037037037037,1.2111999999880823],[0.1634375000000001,0.32407407407407407,1.2256999999880804],[0.16916666666666677,0.28407407407407403,1.2420999999940392],[0.18177083333333333,0.20481481481481487,1.2610999999940375],[0.20020833333333338,0.12222222222222222,1.2755999999940428],[0.1993750000000001,0.1316666666666667,1.2949000000059598],[0.19854166666666656,0.1411111111111112,1.3104999999999976],[0.19854166666666656,0.1411111111111112,1.3251999999880795],[0.2115624999999999,0.10925925925925926,1.341900000005964],[0.22541666666666677,0.12314814814814815,1.3644999999999996],[0.22541666666666677,0.12314814814814815,1.3751999999880766],[0.24864583333333337,0.09740740740740746,1.3920999999940378],[0.24864583333333337,0.09740740740740746,1.4085999999940384],[0.25322916666666656,0.0948148148148149,1.4279000000059625],[0.2625,0.06444444444444436,1.4431999999880816],[0.26239583333333344,0.1205555555555556,1.4619000000059614],[0.26229166666666665,0.1766666666666666,1.477599999994041],[0.25812499999999994,0.2442592592592592,1.4938000000119231],[0.28020833333333334,0.2716666666666668,1.5095999999940375],[0.30229166666666674,0.29907407407407405,1.5250999999940404],[0.30979166666666674,0.342962962962963,1.5444999999999993],[0.346875,0.33537037037037043,1.560900000005958],[0.346875,0.33537037037037043,1.5750999999940376],[0.3538541666666667,0.34388888888888897,1.5918000000119221],[0.34656250000000005,0.3514814814814814,1.6084000000059575],[0.3321875000000001,0.3948148148148149,1.6275999999940396],[0.3321875000000001,0.3948148148148149,1.6416999999880773],[0.3663541666666667,0.33203703703703696,1.6584000000059618],[0.3950000000000001,0.2742592592592593,1.6749999999999972],[0.39041666666666663,0.227962962962963,1.6918000000119235],[0.3685416666666666,0.18074074074074079,1.7110999999940404],[0.33718750000000003,0.14018518518518527,1.7270000000000039],[0.30583333333333323,0.09962962962962954,1.7416999999880787],[0.2755208333333333,0.07592592592592592,1.7584000000059632],[0.26593749999999994,0.07574074074074069,1.7749999999999986],[0.2772916666666667,0.08037037037037033,1.794699999988083],[0.2886458333333332,0.08499999999999996,1.8083000000119185],[0.2522916666666667,0.10351851851851848,1.8250000000000028],[0.2256249999999999,0.1346296296296297,1.84169999998808],[0.22854166666666675,0.12888888888888894,1.8583000000119227],[0.23145833333333338,0.12314814814814815,1.8778000000119235],[0.23010416666666675,0.11722222222222214,1.8945999999940426],[0.23208333333333328,0.1346296296296297,1.9103000000119224],[0.21624999999999991,0.15999999999999995,1.925300000011923],[0.21218750000000006,0.18925925925925935,1.9416999999880815],[0.20197916666666677,0.2074074074074074,1.9615999999940428],[0.18385416666666668,0.20185185185185187,1.9774999999999991],[0.1787499999999999,0.21425925925925934,1.993900000005958],[0.16729166666666656,0.19814814814814816,2.0105000000000004],[0.15770833333333342,0.1992592592592593,2.0296999999880825],[0.15427083333333325,0.1905555555555555,2.0456999999880807],[0.16458333333333333,0.17537037037037045,2.0615000000000023],[0.16458333333333333,0.17537037037037045,2.0750999999940376],[0.17156250000000003,0.1368518518518518,2.091800000011922],[0.17802083333333343,0.08259259259259263,2.1084000000059575],[0.20177083333333337,0.03833333333333342,2.128900000005963],[0.22552083333333334,-0.00592592592592601,2.145300000011922],[0.22104166666666672,-0.03851851851851843,2.161400000005962],[0.2165625000000001,-0.07111111111111107,2.176800000011923],[0.2273958333333333,-0.11129629629629634,2.1964000000059585],[0.24083333333333337,-0.16074074074074077,2.2111999999880823],[0.22218749999999995,-0.18185185185185182,2.2273000000119225],[0.22218749999999995,-0.18185185185185182,2.2418000000119207],[0.20760416666666662,-0.18944444444444447,2.258400000005963],[0.18416666666666662,-0.24648148148148152,2.2749999999999986],[0.17708333333333334,-0.287962962962963,2.2960999999940412],[0.14562499999999995,-0.30537037037037035,2.311099999994042],[0.12416666666666672,-0.33259259259259266,2.3293000000119193],[0.10989583333333333,-0.36129629629629634,2.3455000000000013],[0.10989583333333333,-0.36129629629629634,2.3584000000059575],[0.09562499999999995,-0.39000000000000007,2.3751999999880766],[0.09562499999999995,-0.39000000000000007,2.3918000000119193],[0.04833333333333331,-0.3446296296296297,2.4084000000059618],[-0.01270833333333338,-0.3320370370370371,2.4254999999999995],[-0.019895833333333356,-0.2644444444444445,2.4416999999880815],[-0.03916666666666669,-0.23111111111111113,2.461500000000001],[-0.049583333333333354,-0.14833333333333337,2.4773000000119225],[-0.002395833333333286,-0.08537037037037042,2.4956999999880765],[0.035104166666666714,-0.06018518518518518,2.511699999988082],[0.050312499999999954,-0.018333333333333292,2.5305000000000035],[0.09656250000000005,0.029814814814814856,2.5450999999940436],[0.12843749999999995,0.10833333333333334,2.561],[0.12843749999999995,0.10833333333333334,2.5750999999940376],[0.1953125,0.1307407407407408,2.5920999999940406],[0.2603125000000001,0.21129629629629634,2.6083000000119227],[0.2868750000000001,0.25925925925925924,2.6279000000059582],[0.32145833333333323,0.327962962962963,2.6438000000119217],[0.32145833333333323,0.327962962962963,2.6584000000059618],[0.32614583333333325,0.30685185185185193,2.675099999994039],[0.29718749999999994,0.3362962962962963,2.6916999999880815],[0.27322916666666663,0.3655555555555555,2.711400000005959],[0.24145833333333327,0.3533333333333332,2.7280999999940434],[0.2127083333333334,0.36074074074074064,2.745199999988081],[0.19833333333333342,0.33777777777777773,2.7614000000059633],[0.16520833333333323,0.35462962962962963,2.7765999999940405],[0.16124999999999995,0.2916666666666667,2.7954000000059622],[0.17916666666666667,0.23370370370370377,2.809400000005958],[0.1970833333333334,0.1757407407407407,2.8290000000000006],[0.22177083333333342,0.23203703703703696,2.8436999999880825],[0.20750000000000005,0.25574074074074077,2.8584000000059575],[0.19322916666666667,0.2794444444444444,2.878],[0.20499999999999996,0.38129629629629624,2.894199999988082],[0.20499999999999996,0.38129629629629624,2.9084000000059618],[0.21052083333333324,0.4346296296296297,2.925099999994039],[0.20499999999999996,0.45703703703703696,2.9416999999880815],[0.228125,0.4546296296296296,2.961500000000001],[0.23510416666666673,0.515925925925926,2.9773000000119225],[0.22156250000000005,0.5296296296296297,2.9958000000119185],[0.20802083333333338,0.5433333333333333,3.0105000000000004],[0.22927083333333323,0.5744444444444445,3.0298000000119245],[0.22927083333333323,0.5744444444444445,3.041699999988083],[0.24208333333333343,0.5807407407407408,3.058500000000002],[0.2618750000000001,0.5761111111111111,3.075000000000003],[0.27281250000000007,0.5307407407407407,3.094000000000001],[0.26687500000000003,0.4772222222222223,3.1094000000059623],[0.27197916666666655,0.4546296296296296,3.128699999988079],[0.2757291666666667,0.4468518518518518,3.1438000000119217],[0.28406250000000005,0.43407407407407406,3.1601999999880803],[0.2711458333333333,0.4368518518518518,3.1771999999880762],[0.2582291666666668,0.4396296296296296,3.1930999999940397],[0.24270833333333333,0.40037037037037043,3.212099999994038],[0.23770833333333338,0.36055555555555563,3.22680000001192],[0.23624999999999996,0.31296296296296294,3.242300000011923],[0.23604166666666657,0.26722222222222214,3.2598000000119214],[0.26447916666666677,0.26074074074074066,3.2749999999999986],[0.2930208333333333,0.23629629629629634,3.29490000000596],[0.29791666666666666,0.18259259259259264,3.3098000000119185],[0.29791666666666666,0.18259259259259264,3.325000000000003],[0.26458333333333334,0.18722222222222226,3.34169999998808],[0.26239583333333344,0.13666666666666658,3.3600999999940413],[0.26239583333333344,0.13666666666666658,3.375099999994042],[0.26020833333333326,0.08611111111111111,3.3916999999880773],[0.26020833333333326,0.08611111111111111,3.4084000000059618],[0.246875,0.04796296296296292,3.425099999994039],[0.22885416666666672,0.05222222222222231,3.4415999999940396],[0.18499999999999991,0.04537037037037037,3.46219999998808],[0.17625000000000005,0.03129629629629625,3.4773000000119225],[0.17625000000000005,0.03129629629629625,3.4919000000059626],[0.1568749999999999,0.022222222222222223,3.508400000005963],[0.12614583333333323,0.04425925925925922,3.525599999994043],[0.08468749999999996,0.01055555555555564,3.544599999994041],[0.07687499999999996,-0.0764814814814815,3.5611999999880766],[0.09145833333333328,-0.1331481481481481,3.578000000000003],[0.10260416666666666,-0.15166666666666662,3.595599999994043],[0.10260416666666666,-0.15166666666666662,3.6084000000059575],[0.11604166666666677,-0.20685185185185184,3.625099999994042],[0.10177083333333338,-0.2757407407407407,3.6416999999880773],[0.12291666666666666,-0.30277777777777776,3.6606999999880827],[0.11062500000000004,-0.3272222222222222,3.6760999999940367],[0.10395833333333329,-0.317037037037037,3.6963000000119237],[0.10854166666666672,-0.32,3.7110999999940404],[0.12260416666666671,-0.29555555555555557,3.7271999999880805],[0.12260416666666671,-0.29555555555555557,3.7416999999880787],[0.13666666666666671,-0.2711111111111111,3.758499999999998],[0.12135416666666667,-0.2983333333333334,3.7749999999999986],[0.11364583333333324,-0.31351851851851853,3.7951999999880783],[0.08520833333333329,-0.33055555555555555,3.8095999999940418],[0.08520833333333329,-0.33055555555555555,3.8250999999940376],[0.12729166666666672,-0.34314814814814815,3.84169999998808],[0.13052083333333328,-0.3792592592592593,3.8630999999940414],[0.14197916666666663,-0.3983333333333334,3.8799000000059607],[0.14197916666666663,-0.3983333333333334,3.891900000005961],[0.1584374999999999,-0.3864814814814815,3.9085000000000036],[0.16375000000000003,-0.36796296296296294,3.925199999988081],[0.1650000000000001,-0.28166666666666673,3.9455000000000027],[0.19645833333333323,-0.2322222222222222,3.962400000005964],[0.21218750000000006,-0.16592592592592598,3.977000000000004],[0.21218750000000006,-0.16592592592592598,3.9956999999880765],[0.2564583333333334,-0.11203703703703703,4.00859999999404],[0.2952083333333334,-0.059814814814814835,4.025199999988082],[0.33406250000000004,-0.01185185185185181,4.046300000011918],[0.3336458333333333,0.03537037037037041,4.0614000000059605],[0.3336458333333333,0.03537037037037041,4.0751999999880795],[0.325,0.06555555555555552,4.091999999999999],[0.3325000000000001,0.032407407407407406,4.1121999999880785],[0.3388541666666666,-0.008148148148148106,4.1291999999880815],[0.35052083333333334,-0.08814814814814818,4.144300000011924],[0.2985416666666666,-0.11833333333333329,4.16540000000596],[0.2985416666666666,-0.11833333333333329,4.175099999994039],[0.28364583333333326,-0.1359259259259259,4.192],[0.23604166666666657,-0.19129629629629633,4.211199999988082],[0.21916666666666676,-0.2631481481481482,4.230300000011923],[0.16697916666666662,-0.28722222222222227,4.244800000011921],[0.18624999999999994,-0.27092592592592596,4.26159999999404],[0.19208333333333344,-0.28277777777777774,4.282400000005964],[0.19208333333333344,-0.28277777777777774,4.293199999988083],[0.18354166666666671,-0.27148148148148155,4.308599999994037],[0.18322916666666675,-0.2770370370370371,4.3253000000119215],[0.19249999999999995,-0.24666666666666665,4.344099999994043],[0.221875,-0.2361111111111111,4.360099999994041],[0.24166666666666667,-0.20092592592592592,4.378900000005963],[0.24166666666666667,-0.20092592592592592,4.411900000005964],[0.2542708333333332,-0.15648148148148147,4.420800000011923],[0.2542708333333332,-0.15648148148148147,4.427999999999997],[0.26760416666666675,-0.03481481481481473,4.4418000000119235],[0.29364583333333344,0.03518518518518519,4.462099999994038],[0.27979166666666655,0.03685185185185181,4.476300000011925],[0.2795833333333334,0.0705555555555556,4.4955],[0.2669791666666666,0.07888888888888893,4.508400000005963],[0.2665625000000001,0.07314814814814814,4.528900000005962],[0.23947916666666677,0.07148148148148152,4.544699999988083],[0.24333333333333323,0.06722222222222214,4.558599999994037],[0.22999999999999995,0.03740740740740749,4.5799000000059635],[0.23697916666666666,0.04351851851851852,4.594599999994038],[0.23854166666666668,0.016851851851851896,4.608499999999999],[0.2267708333333334,-0.014074074074074116,4.627499999999998],[0.24145833333333327,-0.004814814814814857,4.644199999988082],[0.24145833333333327,-0.004814814814814857,4.658500000000004],[0.22958333333333342,-0.002962962962963005,4.675199999988081],[0.19822916666666662,-0.0198148148148149,4.6916999999880815],[0.1709374999999999,0.025925925925925925,4.712099999994038],[0.16375000000000003,0.011666666666666582,4.728099999994043],[0.1525000000000001,0.03611111111111111,4.742099999994039],[0.14229166666666657,0.08148148148148149,4.7589000000059585],[0.10239583333333328,0.10629629629629625,4.779499999999999],[0.08624999999999995,0.057037037037036956,4.795099999994044],[0.07958333333333342,0.05611111111111103,4.8104999999999976],[0.07958333333333342,0.05611111111111103,4.8251999999880795],[0.08260416666666662,0.016666666666666666,4.844199999988078],[0.11447916666666676,0.0007407407407406986,4.862900000005958],[0.16749999999999995,0.030740740740740784,4.8776999999880815],[0.17177083333333343,0.01722222222222214,4.896099999994043],[0.18822916666666673,-0.007407407407407408,4.910599999994041],[0.19239583333333338,-0.026666666666666623,4.925199999988081],[0.22385416666666677,-0.03370370370370379,4.9416999999880815],[0.2696875000000001,-0.1111111111111111,4.96180000001192],[0.29177083333333326,-0.11444444444444446,4.976099999994041],[0.3240624999999999,-0.14370370370370375,4.993900000005958],[0.3466666666666666,-0.13444444444444448,5.008300000011921],[0.33791666666666675,-0.16296296296296298,5.025300000011924],[0.2859375,-0.17037037037037037,5.044300000011923],[0.31364583333333323,-0.18407407407407403,5.05840000000596],[0.3071875000000001,-0.16203703703703703,5.075000000000003],[0.32062499999999994,-0.14777777777777779,5.09580000001192],[0.32062499999999994,-0.14777777777777779,5.108300000011923],[0.2989583333333333,-0.13907407407407413,5.125099999994042],[0.2516666666666666,-0.08388888888888892,5.1415999999940425],[0.22260416666666671,-0.04203703703703712,5.15830000001192],[0.18499999999999991,-0.025370370370370456,5.174999999999997],[0.15166666666666656,-0.0031481481481482323,5.1916999999880815],[0.1428124999999999,0.04055555555555551,5.21109999999404],[0.17552083333333332,0.03592592592592588,5.225199999988078],[0.15593750000000003,0.04148148148148144,5.244999999999997],[0.1553124999999999,0.042407407407407366,5.261699999988082],[0.13354166666666673,0.01648148148148144,5.280599999994038],[0.13354166666666673,0.01648148148148144,5.291800000011925],[0.12458333333333324,0.008888888888888804,5.3083000000119185],[0.14114583333333333,-0.0022222222222223064,5.325000000000003],[0.13947916666666677,0,5.343599999994041],[0.11822916666666666,0.015000000000000043,5.359199999988078],[0.09270833333333334,0.02444444444444453,5.3778000000119235],[0.09802083333333324,0.018888888888888972,5.397900000005961],[0.09802083333333324,0.018888888888888972,5.408500000000004],[0.09864583333333338,0.009814814814814731,5.425400000005958],[0.10802083333333339,0.024814814814814772,5.4418000000119235],[0.10583333333333324,0.04592592592592584,5.461599999994043],[0.09729166666666676,0.0477777777777777,5.476900000005962],[0.09729166666666676,0.0477777777777777,5.491900000005963],[0.11583333333333339,0.00722222222222218,5.510800000011919],[0.13697916666666668,-0.07074074074074072,5.52580000001192],[0.16218750000000004,-0.08037037037037033,5.544300000011923],[0.17510416666666656,-0.09981481481481477,5.558500000000002],[0.20510416666666675,-0.08796296296296297,5.575000000000003],[0.20166666666666658,-0.07314814814814814,5.592099999994041],[0.20750000000000005,-0.05944444444444449,5.608300000011923],[0.2048958333333334,-0.0653703703703704,5.6278000000119235],[0.20927083333333343,-0.044999999999999915,5.643400000005961],[0.20927083333333343,-0.044999999999999915,5.65830000001192],[0.21197916666666666,-0.006481481481481481,5.674999999999997],[0.20427083333333323,0.06277777777777774,5.696300000011924],[0.1962500000000001,0.17222222222222222,5.7116999999880775],[0.19145833333333329,0.20759259259259263,5.728800000011923],[0.19145833333333329,0.20759259259259263,5.741599999994037],[0.20302083333333343,0.24740740740740744,5.758400000005963],[0.1814583333333334,0.26740740740740737,5.774999999999999],[0.18979166666666672,0.2718518518518518,5.794699999988083],[0.1935416666666666,0.280925925925926,5.810000000000002],[0.1935416666666666,0.280925925925926,5.825000000000003],[0.18885416666666663,0.2903703703703703,5.84169999998808],[0.17687499999999995,0.2825925925925926,5.858699999988083],[0.17614583333333325,0.25314814814814823,5.8776999999880815],[0.17937500000000003,0.23666666666666658,5.896400000005961],[0.165625,0.2331481481481481,5.911400000005962],[0.14729166666666677,0.22092592592592583,5.9279000000059625],[0.1412499999999999,0.22092592592592583,5.946300000011924],[0.14677083333333343,0.2094444444444445,5.9625999999940404],[0.15854166666666672,0.21796296296296305,5.977400000005964],[0.15854166666666672,0.21796296296296305,5.991599999994037],[0.14312500000000009,0.22388888888888886,6.008400000005963],[0.15281250000000005,0.24092592592592596,6.026699999988082],[0.16083333333333344,0.24222222222222214,6.044300000011923],[0.1814583333333334,0.2507407407407407,6.058800000011921],[0.18708333333333324,0.24611111111111106,6.075000000000003],[0.22302083333333325,0.23648148148148157,6.093800000011925],[0.25625,0.2412962962962962,6.108300000011923],[0.2543750000000001,0.2331481481481481,6.128099999994042],[0.2582291666666668,0.22370370370370363,6.142900000005959],[0.2582291666666668,0.22370370370370363,6.15830000001192],[0.24739583333333334,0.23148148148148148,6.175099999994039],[0.25,0.19888888888888884,6.1916999999880815],[0.2349999999999999,0.14074074074074075,6.211199999988082],[0.2413541666666667,0.12462962962962955,6.22640000000596],[0.23187499999999991,0.12407407407407407,6.244],[0.2341666666666666,0.15185185185185185,6.259099999994042],[0.21802083333333327,0.18129629629629626,6.274999999999999],[0.18177083333333333,0.1588888888888888,6.295699999988081],[0.16020833333333329,0.11833333333333329,6.312699999988077],[0.13781249999999995,0.1088888888888888,6.328800000011924],[0.09447916666666671,0.04870370370370362,6.344400000005962],[0.07510416666666657,0.025185185185185227,6.36640000000596],[0.07510416666666657,0.025185185185185227,6.375099999994042],[0.06510416666666667,0.048333333333333374,6.391900000005961],[0.06479166666666672,0.034074074074074034,6.411800000011922],[0.06708333333333343,0.018518518518518517,6.427500000000002],[0.035416666666666666,-0.027222222222222307,6.445599999994037],[0.021249999999999977,-0.08351851851851856,6.462099999994038],[0.021458333333333357,-0.08870370370370366,6.4771999999880805],[0.021458333333333357,-0.08870370370370366,6.491699999988079],[0.030416666666666713,-0.08185185185185183,6.508300000011921],[0.02822916666666669,-0.10185185185185185,6.5250999999940404],[0.03250000000000005,-0.08444444444444449,6.544599999994041],[0.02510416666666669,-0.04611111111111107,6.558900000005963],[0.02510416666666669,-0.04611111111111107,6.575000000000003],[0.04624999999999998,-0.07092592592592595,6.591900000005964],[0.0296875,-0.07148148148148152,6.608300000011923],[0.007395833333333357,-0.05796296296296299,6.628300000011919],[-0.01885416666666669,-0.04388888888888897,6.643800000011922],[-0.01885416666666669,-0.04388888888888897,6.658500000000004],[-0.03770833333333338,-0.0544444444444444,6.674999999999997],[-0.07104166666666671,-0.05888888888888891,6.6916999999880815],[-0.050729166666666714,-0.06814814814814817,6.71109999999404],[-0.058749999999999976,-0.05796296296296299,6.725000000000001],[-0.058645833333333286,-0.04611111111111107,6.741699999988079],[-0.06041666666666667,-0.037037037037037035,6.758400000005963],[-0.09093749999999995,-0.002962962962963005,6.774900000005964],[-0.11916666666666664,-0.004074074074074159,6.795499999999997],[-0.1319791666666667,0.027962962962963005,6.810400000005963],[-0.1319791666666667,0.027962962962963005,6.825000000000003],[-0.1171875,0.07833333333333325,6.841800000011922],[-0.08822916666666672,0.10500000000000008,6.858300000011923],[-0.030729166666666665,0.11925925925925922,6.8776999999880815],[-0.02510416666666669,0.14000000000000004,6.896000000000001],[0.002708333333333357,0.17037037037037037,6.911500000000004],[0.029895833333333382,0.17814814814814822,6.928099999994039],[0.058854166666666666,0.1925925925925926,6.943199999988082],[0.0921875,0.1866666666666666,6.96109999999404],[0.1476041666666667,0.24537037037037038,6.976099999994041],[0.1476041666666667,0.24537037037037038,6.991699999988079],[0.19239583333333338,0.18574074074074065,7.008300000011921],[0.21875,0.13574074074074066,7.0250999999940404],[0.22406249999999991,0.17462962962962955,7.044300000011923],[0.2185416666666666,0.18888888888888888,7.060199999988079],[0.2185416666666666,0.18888888888888888,7.075000000000003],[0.2055208333333333,0.18222222222222217,7.09169999998808],[0.20083333333333328,0.17925925925925917,7.108599999994041],[0.19958333333333325,0.14351851851851852,7.128599999994037],[0.2046875,0.12370370370370362,7.143900000005964],[0.2046875,0.12370370370370362,7.15830000001192],[0.21437499999999995,0.13962962962962958,7.174900000005962],[0.18552083333333325,0.07537037037037045,7.1916999999880815],[0.1872916666666666,0.1,7.211300000011924],[0.19916666666666671,0.13648148148148156,7.226300000011925],[0.22000000000000006,0.14537037037037037,7.244099999994042],[0.22520833333333337,0.169074074074074,7.259999999999998],[0.2423958333333334,0.1794444444444444,7.274999999999999],[0.23635416666666675,0.15259259259259256,7.295400000005962],[0.23635416666666675,0.15259259259259256,7.3083000000119185],[0.24541666666666656,0.20037037037037045,7.325000000000003],[0.24072916666666658,0.23166666666666672,7.341599999994038],[0.234375,0.25574074074074077,7.358300000011923],[0.25812499999999994,0.2935185185185185,7.377900000005958],[0.2375,0.2681481481481481,7.394199999988082],[0.2375,0.2681481481481481,7.40830000001192],[0.24739583333333334,0.2448148148148149,7.425099999994039],[0.20791666666666658,0.15462962962962962,7.4465],[0.20791666666666658,0.15462962962962962,7.458400000005959],[0.18177083333333333,0.11537037037037029,7.475000000000001],[0.18177083333333333,0.11537037037037029,7.495599999994042],[0.13531250000000009,0.09740740740740746,7.508499999999998],[0.14583333333333334,0.09740740740740746,7.525500000000001],[0.13708333333333325,0.0698148148148149,7.546900000005962],[0.13708333333333325,0.0698148148148149,7.558599999994037],[0.13614583333333338,0.019999999999999917,7.575099999994038],[0.11958333333333329,-0.008333333333333333,7.594400000005962],[0.13510416666666672,-0.03092592592592601,7.613500000000002],[0.1319791666666667,-0.028888888888888933,7.628400000005961],[0.08624999999999995,-0.07240740740740745,7.643800000011922],[0.08624999999999995,-0.07240740740740745,7.658500000000004],[0.06802083333333328,-0.06111111111111111,7.678099999994039],[0.06124999999999995,-0.07555555555555557,7.6970999999940375],[0.07718749999999991,-0.06740740740740736,7.71219999998808],[0.09270833333333334,-0.09000000000000004,7.728599999994039],[0.09270833333333334,-0.09000000000000004,7.744999999999997],[0.08020833333333334,-0.10055555555555558,7.758400000005963],[0.04479166666666667,-0.10055555555555558,7.776499999999999],[0.043020833333333286,-0.11629629629629631,7.795800000011923],[0.043020833333333286,-0.11629629629629631,7.8083000000119185],[0.008124999999999953,-0.14518518518518514,7.825099999994038],[-0.0020833333333333333,-0.16222222222222227,7.84169999998808],[-0.004791666666666691,-0.19444444444444445,7.858300000011923],[0.0140625,-0.18833333333333332,7.878],[0.027083333333333334,-0.1925925925925926,7.89409999999404],[0.017812500000000023,-0.20277777777777778,7.911800000011922],[-0.00947916666666669,-0.2205555555555556,7.9285],[-0.00947916666666669,-0.2205555555555556,7.94159999999404],[-0.0484375,-0.21518518518518517,7.958400000005959],[-0.04604166666666672,-0.2059259259259259,7.975400000005962],[-0.04677083333333331,-0.2183333333333333,7.9955],[-0.05437500000000005,-0.20981481481481484,8.011400000005963],[-0.0453125,-0.2125925925925926,8.02959999999404],[-0.01395833333333331,-0.1418518518518519,8.045199999988078],[-0.000416666666666643,-0.15537037037037033,8.062699999988077],[-0.000416666666666643,-0.15537037037037033,8.075000000000003],[-0.002812500000000047,-0.11388888888888889,8.09169999998808],[-0.003541666666666643,-0.08407407407407404,8.108300000011923],[0.0006250000000000236,-0.05888888888888891,8.128099999994042],[0.03770833333333338,-0.06222222222222226,8.143800000011922],[0.03770833333333338,-0.06222222222222226,8.158599999994038],[0.04114583333333333,-0.0653703703703704,8.175199999988081],[0.04114583333333333,-0.0653703703703704,8.19159999999404],[0.04770833333333328,-0.0735185185185185,8.208300000011924],[0.03697916666666667,-0.0242592592592593,8.22490000000596],[0.03312499999999995,0.03611111111111111,8.241699999988079],[0.02947916666666662,-0.03259259259259263,8.258300000011921],[0.005624999999999976,-0.03314814814814811,8.274999999999999],[0.02322916666666662,-0.06148148148148146,8.294599999994041],[0.03177083333333333,-0.07685185185185185,8.3095],[0.03177083333333333,-0.07685185185185185,8.325000000000003],[0.028645833333333332,-0.06574074074074074,8.34169999998808],[0.06187499999999998,-0.06777777777777783,8.358300000011923],[0.09697916666666657,-0.0868518518518518,8.377699999988081],[0.11635416666666672,-0.09796296296296292,8.394199999988082],[0.11635416666666672,-0.09796296296296292,8.40830000001192],[0.15583333333333324,-0.11259259259259262,8.425099999994039],[0.18604166666666658,-0.1294444444444444,8.44159999999404],[0.19375,-0.07166666666666664,8.461199999988082],[0.21593749999999995,-0.06592592592592597,8.475000000000001],[0.19916666666666671,-0.0824074074074074,8.49509999999404],[0.21572916666666658,-0.09962962962962965,8.508699999988082],[0.2140625,-0.07888888888888893,8.524999999999999],[0.17604166666666668,-0.044999999999999915,8.544000000000004],[0.17604166666666668,-0.044999999999999915,8.558300000011918],[0.15885416666666666,-0.05388888888888893,8.575000000000003],[0.11218750000000005,0.021296296296296296,8.59209999999404],[0.07489583333333343,0.03777777777777774,8.608300000011923],[0.04385416666666669,0.009999999999999959,8.627499999999998],[0.04635416666666667,-0.022222222222222223,8.641599999994042],[0.06104166666666669,-0.017407407407407365,8.66169999998808],[0.08833333333333329,-0.015555555555555513,8.674900000005962],[0.07177083333333342,0.026666666666666623,8.69159999999404],[0.08020833333333334,-0.01055555555555564,8.710900000005964],[0.07468750000000005,-0.04814814814814815,8.725000000000001],[0.06281249999999995,-0.03629629629629634,8.741599999994037],[0.09020833333333324,-0.07259259259259257,8.759900000005963],[0.11395833333333343,-0.13537037037037042,8.774900000005964],[0.12322916666666663,-0.1412962962962963,8.794699999988083],[0.1134375000000001,-0.12777777777777777,8.808300000011918]]","[0.00019999998807662678,0.05519999998807634,0.07780000001191922,0.08719999998807992,0.11340000000596007,0.12199999999999989,0.14380000001192172,0.15219999998807765,0.17769999998807862,0.19080000001191877,0.1924000000059607,0.2274000000059644,0.23519999998807606,0.2609000000059609,0.26809999999404255,0.2940999999940388,0.3014999999999972,0.3283000000119216,0.3354000000059614,0.36340000000596007,0.3703000000119232,0.39469999998807737,0.40259999999403817,0.42569999998807617,0.4335000000000022,0.4624999999999986,0.4690000000000012,0.4945999999940369,0.5020999999940372,0.5298000000119245,0.5381999999880804,0.5606999999880813,0.5790999999940425,0.6003000000119201,0.6111999999880808,0.6250999999940419,0.6416999999880773,0.6615999999940385,0.6764000000059625,0.6965999999940422,0.7121999999880799,0.7270000000000039,0.7434999999999974,0.758499999999998,0.7750999999940404,0.7949000000059598,0.8084000000059604,0.8250999999940376,0.841900000005964,0.8584000000059575,0.8780000000000001,0.8933000000119193,0.9125000000000014,0.9276999999880786,0.9424000000059607,0.9630999999940428,0.9753000000119201,0.9919999999999973,1.008499999999998,1.0313000000119246,1.0419000000059597,1.0586999999880788,1.0753000000119215,1.0946999999880802,1.1085999999940412,1.1255999999940371,1.1445999999940426,1.1608000000119247,1.176599999994039,1.1960999999940398,1.2111999999880823,1.2256999999880804,1.2420999999940392,1.2610999999940375,1.2755999999940428,1.2949000000059598,1.3104999999999976,1.3251999999880795,1.341900000005964,1.3644999999999996,1.3751999999880766,1.3920999999940378,1.4085999999940384,1.4279000000059625,1.4431999999880816,1.4619000000059614,1.477599999994041,1.4938000000119231,1.5095999999940375,1.5250999999940404,1.5444999999999993,1.560900000005958,1.5750999999940376,1.5918000000119221,1.6084000000059575,1.6275999999940396,1.6416999999880773,1.6584000000059618,1.6749999999999972,1.6918000000119235,1.7110999999940404,1.7270000000000039,1.7416999999880787,1.7584000000059632,1.7749999999999986,1.794699999988083,1.8083000000119185,1.8250000000000028,1.84169999998808,1.8583000000119227,1.8778000000119235,1.8945999999940426,1.9103000000119224,1.925300000011923,1.9416999999880815,1.9615999999940428,1.9774999999999991,1.993900000005958,2.0105000000000004,2.0296999999880825,2.0456999999880807,2.0615000000000023,2.0750999999940376,2.091800000011922,2.1084000000059575,2.128900000005963,2.145300000011922,2.161400000005962,2.176800000011923,2.1964000000059585,2.2111999999880823,2.2273000000119225,2.2418000000119207,2.258400000005963,2.2749999999999986,2.2960999999940412,2.311099999994042,2.3293000000119193,2.3455000000000013,2.3584000000059575,2.3751999999880766,2.3918000000119193,2.4084000000059618,2.4254999999999995,2.4416999999880815,2.461500000000001,2.4773000000119225,2.4956999999880765,2.511699999988082,2.5305000000000035,2.5450999999940436,2.561,2.5750999999940376,2.5920999999940406,2.6083000000119227,2.6279000000059582,2.6438000000119217,2.6584000000059618,2.675099999994039,2.6916999999880815,2.711400000005959,2.7280999999940434,2.745199999988081,2.7614000000059633,2.7765999999940405,2.7954000000059622,2.809400000005958,2.8290000000000006,2.8436999999880825,2.8584000000059575,2.878,2.894199999988082,2.9084000000059618,2.925099999994039,2.9416999999880815,2.961500000000001,2.9773000000119225,2.9958000000119185,3.0105000000000004,3.0298000000119245,3.041699999988083,3.058500000000002,3.075000000000003,3.094000000000001,3.1094000000059623,3.128699999988079,3.1438000000119217,3.1601999999880803,3.1771999999880762,3.1930999999940397,3.212099999994038,3.22680000001192,3.242300000011923,3.2598000000119214,3.2749999999999986,3.29490000000596,3.3098000000119185,3.325000000000003,3.34169999998808,3.3600999999940413,3.375099999994042,3.3916999999880773,3.4084000000059618,3.425099999994039,3.4415999999940396,3.46219999998808,3.4773000000119225,3.4919000000059626,3.508400000005963,3.525599999994043,3.544599999994041,3.5611999999880766,3.578000000000003,3.595599999994043,3.6084000000059575,3.625099999994042,3.6416999999880773,3.6606999999880827,3.6760999999940367,3.6963000000119237,3.7110999999940404,3.7271999999880805,3.7416999999880787,3.758499999999998,3.7749999999999986,3.7951999999880783,3.8095999999940418,3.8250999999940376,3.84169999998808,3.8630999999940414,3.8799000000059607,3.891900000005961,3.9085000000000036,3.925199999988081,3.9455000000000027,3.962400000005964,3.977000000000004,3.9956999999880765,4.00859999999404,4.025199999988082,4.046300000011918,4.0614000000059605,4.0751999999880795,4.091999999999999,4.1121999999880785,4.1291999999880815,4.144300000011924,4.16540000000596,4.175099999994039,4.192,4.211199999988082,4.230300000011923,4.244800000011921,4.26159999999404,4.282400000005964,4.293199999988083,4.308599999994037,4.3253000000119215,4.344099999994043,4.360099999994041,4.378900000005963,4.411900000005964,4.420800000011923,4.427999999999997,4.4418000000119235,4.462099999994038,4.476300000011925,4.4955,4.508400000005963,4.528900000005962,4.544699999988083,4.558599999994037,4.5799000000059635,4.594599999994038,4.608499999999999,4.627499999999998,4.644199999988082,4.658500000000004,4.675199999988081,4.6916999999880815,4.712099999994038,4.728099999994043,4.742099999994039,4.7589000000059585,4.779499999999999,4.795099999994044,4.8104999999999976,4.8251999999880795,4.844199999988078,4.862900000005958,4.8776999999880815,4.896099999994043,4.910599999994041,4.925199999988081,4.9416999999880815,4.96180000001192,4.976099999994041,4.993900000005958,5.008300000011921,5.025300000011924,5.044300000011923,5.05840000000596,5.075000000000003,5.09580000001192,5.108300000011923,5.125099999994042,5.1415999999940425,5.15830000001192,5.174999999999997,5.1916999999880815,5.21109999999404,5.225199999988078,5.244999999999997,5.261699999988082,5.280599999994038,5.291800000011925,5.3083000000119185,5.325000000000003,5.343599999994041,5.359199999988078,5.3778000000119235,5.397900000005961,5.408500000000004,5.425400000005958,5.4418000000119235,5.461599999994043,5.476900000005962,5.491900000005963,5.510800000011919,5.52580000001192,5.544300000011923,5.558500000000002,5.575000000000003,5.592099999994041,5.608300000011923,5.6278000000119235,5.643400000005961,5.65830000001192,5.674999999999997,5.696300000011924,5.7116999999880775,5.728800000011923,5.741599999994037,5.758400000005963,5.774999999999999,5.794699999988083,5.810000000000002,5.825000000000003,5.84169999998808,5.858699999988083,5.8776999999880815,5.896400000005961,5.911400000005962,5.9279000000059625,5.946300000011924,5.9625999999940404,5.977400000005964,5.991599999994037,6.008400000005963,6.026699999988082,6.044300000011923,6.058800000011921,6.075000000000003,6.093800000011925,6.108300000011923,6.128099999994042,6.142900000005959,6.15830000001192,6.175099999994039,6.1916999999880815,6.211199999988082,6.22640000000596,6.244,6.259099999994042,6.274999999999999,6.295699999988081,6.312699999988077,6.328800000011924,6.344400000005962,6.36640000000596,6.375099999994042,6.391900000005961,6.411800000011922,6.427500000000002,6.445599999994037,6.462099999994038,6.4771999999880805,6.491699999988079,6.508300000011921,6.5250999999940404,6.544599999994041,6.558900000005963,6.575000000000003,6.591900000005964,6.608300000011923,6.628300000011919,6.643800000011922,6.658500000000004,6.674999999999997,6.6916999999880815,6.71109999999404,6.725000000000001,6.741699999988079,6.758400000005963,6.774900000005964,6.795499999999997,6.810400000005963,6.825000000000003,6.841800000011922,6.858300000011923,6.8776999999880815,6.896000000000001,6.911500000000004,6.928099999994039,6.943199999988082,6.96109999999404,6.976099999994041,6.991699999988079,7.008300000011921,7.0250999999940404,7.044300000011923,7.060199999988079,7.075000000000003,7.09169999998808,7.108599999994041,7.128599999994037,7.143900000005964,7.15830000001192,7.174900000005962,7.1916999999880815,7.211300000011924,7.226300000011925,7.244099999994042,7.259999999999998,7.274999999999999,7.295400000005962,7.3083000000119185,7.325000000000003,7.341599999994038,7.358300000011923,7.377900000005958,7.394199999988082,7.40830000001192,7.425099999994039,7.4465,7.458400000005959,7.475000000000001,7.495599999994042,7.508499999999998,7.525500000000001,7.546900000005962,7.558599999994037,7.575099999994038,7.594400000005962,7.613500000000002,7.628400000005961,7.643800000011922,7.658500000000004,7.678099999994039,7.6970999999940375,7.71219999998808,7.728599999994039,7.744999999999997,7.758400000005963,7.776499999999999,7.795800000011923,7.8083000000119185,7.825099999994038,7.84169999998808,7.858300000011923,7.878,7.89409999999404,7.911800000011922,7.9285,7.94159999999404,7.958400000005959,7.975400000005962,7.9955,8.011400000005963,8.02959999999404,8.045199999988078,8.062699999988077,8.075000000000003,8.09169999998808,8.108300000011923,8.128099999994042,8.143800000011922,8.158599999994038,8.175199999988081,8.19159999999404,8.208300000011924,8.22490000000596,8.241699999988079,8.258300000011921,8.274999999999999,8.294599999994041,8.3095,8.325000000000003,8.34169999998808,8.358300000011923,8.377699999988081,8.394199999988082,8.40830000001192,8.425099999994039,8.44159999999404,8.461199999988082,8.475000000000001,8.49509999999404,8.508699999988082,8.524999999999999,8.544000000000004,8.558300000011918,8.575000000000003,8.59209999999404,8.608300000011923,8.627499999999998,8.641599999994042,8.66169999998808,8.674900000005962,8.69159999999404,8.710900000005964,8.725000000000001,8.741599999994037,8.759900000005963,8.774900000005964,8.794699999988083,8.808300000011918]","[1732683333807,1732683333850,1732683333873,1732683333882,1732683333909,1732683333917,1732683333939,1732683333947,1732683333973,1732683333986,1732683333988,1732683334023,1732683334030,1732683334056,1732683334063,1732683334089,1732683334097,1732683334124,1732683334131,1732683334159,1732683334166,1732683334190,1732683334198,1732683334221,1732683334229,1732683334258,1732683334264,1732683334290,1732683334297,1732683334325,1732683334333,1732683334356,1732683334374,1732683334395,1732683334406,1732683334420,1732683334437,1732683334457,1732683334472,1732683334492,1732683334507,1732683334522,1732683334539,1732683334554,1732683334570,1732683334590,1732683334604,1732683334620,1732683334637,1732683334654,1732683334673,1732683334688,1732683334708,1732683334723,1732683334738,1732683334758,1732683334770,1732683334787,1732683334804,1732683334827,1732683334837,1732683334854,1732683334870,1732683334890,1732683334904,1732683334921,1732683334940,1732683334956,1732683334972,1732683334991,1732683335006,1732683335021,1732683335037,1732683335056,1732683335071,1732683335090,1732683335106,1732683335120,1732683335137,1732683335160,1732683335170,1732683335187,1732683335204,1732683335223,1732683335238,1732683335257,1732683335273,1732683335289,1732683335305,1732683335320,1732683335340,1732683335356,1732683335370,1732683335387,1732683335404,1732683335423,1732683335437,1732683335454,1732683335470,1732683335487,1732683335506,1732683335522,1732683335537,1732683335554,1732683335570,1732683335590,1732683335604,1732683335620,1732683335637,1732683335654,1732683335673,1732683335690,1732683335706,1732683335721,1732683335737,1732683335757,1732683335773,1732683335789,1732683335806,1732683335825,1732683335841,1732683335857,1732683335870,1732683335887,1732683335904,1732683335924,1732683335940,1732683335957,1732683335972,1732683335992,1732683336006,1732683336022,1732683336037,1732683336054,1732683336070,1732683336091,1732683336106,1732683336124,1732683336141,1732683336154,1732683336170,1732683336187,1732683336204,1732683336221,1732683336237,1732683336257,1732683336272,1732683336291,1732683336307,1732683336326,1732683336340,1732683336356,1732683336370,1732683336387,1732683336404,1732683336423,1732683336439,1732683336454,1732683336470,1732683336487,1732683336507,1732683336523,1732683336540,1732683336557,1732683336572,1732683336591,1732683336605,1732683336624,1732683336639,1732683336654,1732683336673,1732683336689,1732683336704,1732683336720,1732683336737,1732683336757,1732683336772,1732683336791,1732683336806,1732683336825,1732683336837,1732683336854,1732683336870,1732683336889,1732683336905,1732683336924,1732683336939,1732683336955,1732683336972,1732683336988,1732683337007,1732683337022,1732683337037,1732683337055,1732683337070,1732683337090,1732683337105,1732683337120,1732683337137,1732683337155,1732683337170,1732683337187,1732683337204,1732683337220,1732683337237,1732683337257,1732683337272,1732683337287,1732683337304,1732683337321,1732683337340,1732683337356,1732683337373,1732683337391,1732683337404,1732683337420,1732683337437,1732683337456,1732683337471,1732683337492,1732683337506,1732683337522,1732683337537,1732683337554,1732683337570,1732683337590,1732683337605,1732683337620,1732683337637,1732683337658,1732683337675,1732683337687,1732683337704,1732683337720,1732683337741,1732683337758,1732683337772,1732683337791,1732683337804,1732683337820,1732683337842,1732683337857,1732683337870,1732683337887,1732683337907,1732683337924,1732683337939,1732683337961,1732683337970,1732683337987,1732683338006,1732683338026,1732683338040,1732683338057,1732683338078,1732683338089,1732683338104,1732683338120,1732683338139,1732683338155,1732683338174,1732683338207,1732683338216,1732683338223,1732683338237,1732683338257,1732683338272,1732683338291,1732683338304,1732683338324,1732683338340,1732683338354,1732683338375,1732683338390,1732683338404,1732683338423,1732683338439,1732683338454,1732683338470,1732683338487,1732683338507,1732683338523,1732683338537,1732683338554,1732683338575,1732683338590,1732683338606,1732683338620,1732683338639,1732683338658,1732683338673,1732683338691,1732683338706,1732683338720,1732683338737,1732683338757,1732683338771,1732683338789,1732683338804,1732683338821,1732683338840,1732683338854,1732683338870,1732683338891,1732683338904,1732683338920,1732683338937,1732683338954,1732683338970,1732683338987,1732683339006,1732683339020,1732683339040,1732683339057,1732683339076,1732683339087,1732683339104,1732683339120,1732683339139,1732683339154,1732683339173,1732683339193,1732683339204,1732683339221,1732683339237,1732683339257,1732683339272,1732683339287,1732683339306,1732683339321,1732683339339,1732683339354,1732683339370,1732683339387,1732683339404,1732683339423,1732683339439,1732683339454,1732683339470,1732683339492,1732683339507,1732683339524,1732683339537,1732683339554,1732683339570,1732683339590,1732683339605,1732683339620,1732683339637,1732683339654,1732683339673,1732683339692,1732683339707,1732683339723,1732683339741,1732683339758,1732683339773,1732683339787,1732683339804,1732683339822,1732683339840,1732683339854,1732683339870,1732683339889,1732683339903,1732683339923,1732683339938,1732683339954,1732683339970,1732683339987,1732683340006,1732683340022,1732683340039,1732683340054,1732683340070,1732683340091,1732683340108,1732683340124,1732683340140,1732683340162,1732683340170,1732683340187,1732683340207,1732683340223,1732683340241,1732683340257,1732683340272,1732683340287,1732683340304,1732683340320,1732683340340,1732683340354,1732683340370,1732683340387,1732683340403,1732683340423,1732683340439,1732683340454,1732683340470,1732683340487,1732683340506,1732683340520,1732683340537,1732683340554,1732683340570,1732683340591,1732683340606,1732683340620,1732683340637,1732683340654,1732683340673,1732683340691,1732683340707,1732683340723,1732683340738,1732683340756,1732683340771,1732683340787,1732683340803,1732683340820,1732683340840,1732683340855,1732683340870,1732683340887,1732683340904,1732683340924,1732683340939,1732683340954,1732683340970,1732683340987,1732683341006,1732683341021,1732683341039,1732683341055,1732683341070,1732683341091,1732683341103,1732683341120,1732683341137,1732683341154,1732683341173,1732683341189,1732683341204,1732683341220,1732683341242,1732683341254,1732683341270,1732683341291,1732683341304,1732683341321,1732683341342,1732683341354,1732683341370,1732683341390,1732683341409,1732683341424,1732683341439,1732683341454,1732683341473,1732683341492,1732683341507,1732683341524,1732683341540,1732683341554,1732683341572,1732683341591,1732683341604,1732683341620,1732683341637,1732683341654,1732683341673,1732683341689,1732683341707,1732683341724,1732683341737,1732683341754,1732683341771,1732683341791,1732683341807,1732683341825,1732683341840,1732683341858,1732683341870,1732683341887,1732683341903,1732683341923,1732683341939,1732683341954,1732683341970,1732683341987,1732683342003,1732683342020,1732683342037,1732683342053,1732683342070,1732683342090,1732683342105,1732683342120,1732683342137,1732683342154,1732683342173,1732683342189,1732683342204,1732683342220,1732683342237,1732683342256,1732683342270,1732683342290,1732683342304,1732683342320,1732683342339,1732683342354,1732683342370,1732683342387,1732683342404,1732683342423,1732683342437,1732683342457,1732683342470,1732683342487,1732683342506,1732683342520,1732683342537,1732683342555,1732683342570,1732683342590,1732683342603]","[[1343.4,832.3],[1343.4,832.3],[1353.7,789.4],[1353.7,789.4],[1319.7,746.3],[1319.7,746.3],[1285.8,704.6],[1285.8,704.6],[1276.2,666.7],[1276.2,666.7],[1276.2,666.7],[1262.2,655.4],[1262.2,655.4],[1221.8,627.5],[1221.8,627.5],[1243.5,620.2],[1243.5,620.2],[1222.5,648.4],[1222.5,648.4],[1190.3,658.7],[1190.3,658.7],[1149.4,636.6],[1149.4,636.6],[1142.7,627.5],[1142.7,627.5],[1136.8,633.7],[1136.8,633.7],[1130.8,638.5],[1130.8,638.5],[1121.5,632.5],[1121.5,632.5],[1085.9,617.9],[1085.9,617.9],[1075.7,616.1],[1075.7,616.1],[1026.6,623],[1013.2,594.6],[1024.9,566],[1026.2,543.8],[1011.3,577.1],[1006.6,600.1],[1004.3,607],[990.7,639],[999.5,663.3],[1015.4,678.6],[1017.7,673.6],[1017.7,673.6],[1023.9,665.2],[1025.5,663.4],[1034.7,664.3],[1044.3,623.6],[1053.3,607],[1059.9,606.5],[1071.6,596.5],[1060.6,588.3],[1065.8,560.3],[1065.8,560.3],[1064.7,556],[1052.2,603],[1057.8,633.7],[1057.8,633.7],[1049.2,682.9],[1049.2,682.9],[1048.2,734.8],[1048.2,734.8],[1055.3,739.8],[1062.4,744.8],[1069.5,749.6],[1085.4,743.4],[1077.8,761],[1092.7,749],[1116.9,715],[1122.4,693.4],[1134.5,650.6],[1152.2,606],[1151.4,611.1],[1150.6,616.2],[1150.6,616.2],[1163.1,599],[1176.4,606.5],[1176.4,606.5],[1198.7,592.6],[1198.7,592.6],[1203.1,591.2],[1212,574.8],[1211.9,605.1],[1211.8,635.4],[1207.8,671.9],[1229,686.7],[1250.2,701.5],[1257.4,725.2],[1293,721.1],[1293,721.1],[1299.7,725.7],[1292.7,729.8],[1278.9,753.2],[1278.9,753.2],[1311.7,719.3],[1339.2,688.1],[1334.8,663.1],[1313.8,637.6],[1283.7,615.7],[1253.6,593.8],[1224.5,581],[1215.3,580.9],[1226.2,583.4],[1237.1,585.9],[1202.2,595.9],[1176.6,612.7],[1179.4,609.6],[1182.2,606.5],[1180.9,603.3],[1182.8,612.7],[1167.6,626.4],[1163.7,642.2],[1153.9,652],[1136.5,649],[1131.6,655.7],[1120.6,647],[1111.4,647.6],[1108.1,642.9],[1118,634.7],[1118,634.7],[1124.7,613.9],[1130.9,584.6],[1153.7,560.7],[1176.5,536.8],[1172.2,519.2],[1167.9,501.6],[1178.3,479.9],[1191.2,453.2],[1173.3,441.8],[1173.3,441.8],[1159.3,437.7],[1136.8,406.9],[1130,384.5],[1099.8,375.1],[1079.2,360.4],[1065.5,344.9],[1065.5,344.9],[1051.8,329.4],[1051.8,329.4],[1006.4,353.9],[947.8,360.7],[940.9,397.2],[922.4,415.2],[912.4,459.9],[957.7,493.9],[993.7,507.5],[1008.3,530.1],[1052.7,556.1],[1083.3,598.5],[1083.3,598.5],[1147.5,610.6],[1209.9,654.1],[1235.4,680],[1268.6,717.1],[1268.6,717.1],[1273.1,705.7],[1245.3,721.6],[1222.3,737.4],[1191.8,730.8],[1164.2,734.8],[1150.4,722.4],[1118.6,731.5],[1114.8,697.5],[1132,666.2],[1149.2,634.9],[1172.9,665.3],[1159.2,678.1],[1145.5,690.9],[1156.8,745.9],[1156.8,745.9],[1162.1,774.7],[1156.8,786.8],[1179,785.5],[1185.7,818.6],[1172.7,826],[1159.7,833.4],[1180.1,850.2],[1180.1,850.2],[1192.4,853.6],[1211.4,851.1],[1221.9,826.6],[1216.2,797.7],[1221.1,785.5],[1224.7,781.3],[1232.7,774.4],[1220.3,775.9],[1207.9,777.4],[1193,756.2],[1188.2,734.7],[1186.8,709],[1186.6,684.3],[1213.9,680.8],[1241.3,667.6],[1246,638.6],[1246,638.6],[1214,641.1],[1211.9,613.8],[1211.9,613.8],[1209.8,586.5],[1209.8,586.5],[1197,565.9],[1179.7,568.2],[1137.6,564.5],[1129.2,556.9],[1129.2,556.9],[1110.6,552],[1081.1,563.9],[1041.3,545.7],[1033.8,498.7],[1047.8,468.1],[1058.5,458.1],[1058.5,458.1],[1071.4,428.3],[1057.7,391.1],[1078,376.5],[1066.2,363.3],[1059.8,368.8],[1064.2,367.2],[1077.7,380.4],[1077.7,380.4],[1091.2,393.6],[1076.5,378.9],[1069.1,370.7],[1041.8,361.5],[1041.8,361.5],[1082.2,354.7],[1085.3,335.2],[1096.3,324.9],[1096.3,324.9],[1112.1,331.3],[1117.2,341.3],[1118.4,387.9],[1148.6,414.6],[1163.7,450.4],[1163.7,450.4],[1206.2,479.5],[1243.4,507.7],[1280.7,533.6],[1280.3,559.1],[1280.3,559.1],[1272,575.4],[1279.2,557.5],[1285.3,535.6],[1296.5,492.4],[1246.6,476.1],[1246.6,476.1],[1232.3,466.6],[1186.6,436.7],[1170.4,397.9],[1120.3,3