inst1_resp.keys,inst1_resp.rt,calibrationMouse.x,calibrationMouse.y,calibrationMouse.leftButton,calibrationMouse.midButton,calibrationMouse.rightButton,calibrationClick.x,calibrationClick.y,calibrationClick.leftButton,calibrationClick.midButton,calibrationClick.rightButton,trialsc.thisRepN,trialsc.thisTrialN,trialsc.thisN,trialsc.thisIndex,trialsc.ran,calibration_x,calibration_y,participant,session,date,expName,psychopyVersion,OS,frameRate,ScreenRes_pixels,Camera_pixels,mouse_2.x,mouse_2.y,mouse_2.leftButton,mouse_2.midButton,mouse_2.rightButton,mouse_2.time,mouse_2.clicked_name,mouse.x,mouse.y,mouse.leftButton,mouse.midButton,mouse.rightButton,mouse.time,mouse.clicked_name,Choice,Trial,TrialDuration,MOUSE_GAZE,ET_GAZE,ET_GAZE_x_T,time,unixTime,ET_GAZE_NF,Loc_Bus_label,Loc_Metro_label,Loc_RH_label,Loc_Cost_label,Loc_Travel_label,Loc_Comfort_label,Loc_Bus_cost,Loc_Metro_cost,Loc_RH_cost,Loc_Bus_travel,Loc_Metro_travel,Loc_RH_travel,Loc_Bus_comfort,Loc_Metro_comfort,Loc_RH_comfort,trials.thisRepN,trials.thisTrialN,trials.thisN,trials.thisIndex,trials.ran,Block,Device,RH_cost,RH_travel_time,RH_Comfort,metro_cost,metro_travel_time,metro_Comfort,Bus_cost,Bus_travel_time,Bus_Comfort
space,3.0069,-0.384375,-0.27037037,1,0,0,-0.409375,-0.272222222,1,0,0,0,0,0,10,1,0,-0.33,08,001,2024-11-26_11h26.02.118,Attention_exp_legacy,2023.1.0,Win32,59.88023952,,,,,,,,,,,,,,,,,,,,,,,,,,,,,,,,,,,,,,,,,,,,,,,,,,,,,,,,
,,,,,,,-0.409375,-0.272222222,1,0,0,0,1,1,5,1,-0.33,-0.33,08,001,2024-11-26_11h26.02.118,Attention_exp_legacy,2023.1.0,Win32,59.88023952,,,,,,,,,,,,,,,,,,,,,,,,,,,,,,,,,,,,,,,,,,,,,,,,,,,,,,,,
,,,,,,,-0.409375,-0.272222222,1,0,0,0,2,2,18,1,0.33,0.67,08,001,2024-11-26_11h26.02.118,Attention_exp_legacy,2023.1.0,Win32,59.88023952,,,,,,,,,,,,,,,,,,,,,,,,,,,,,,,,,,,,,,,,,,,,,,,,,,,,,,,,
,,,,,,,-0.409375,-0.272222222,1,0,0,0,3,3,0,1,-0.67,-0.67,08,001,2024-11-26_11h26.02.118,Attention_exp_legacy,2023.1.0,Win32,59.88023952,,,,,,,,,,,,,,,,,,,,,,,,,,,,,,,,,,,,,,,,,,,,,,,,,,,,,,,,
,,,,,,,-0.409375,-0.272222222,1,0,0,0,4,4,7,1,-0.33,0.33,08,001,2024-11-26_11h26.02.118,Attention_exp_legacy,2023.1.0,Win32,59.88023952,,,,,,,,,,,,,,,,,,,,,,,,,,,,,,,,,,,,,,,,,,,,,,,,,,,,,,,,
,,,,,,,-0.409375,-0.272222222,1,0,0,0,5,5,16,1,0.33,0,08,001,2024-11-26_11h26.02.118,Attention_exp_legacy,2023.1.0,Win32,59.88023952,,,,,,,,,,,,,,,,,,,,,,,,,,,,,,,,,,,,,,,,,,,,,,,,,,,,,,,,
,,,,,,,-0.409375,-0.272222222,1,0,0,0,6,6,2,1,-0.67,0,08,001,2024-11-26_11h26.02.118,Attention_exp_legacy,2023.1.0,Win32,59.88023952,,,,,,,,,,,,,,,,,,,,,,,,,,,,,,,,,,,,,,,,,,,,,,,,,,,,,,,,
,,,,,,,-0.409375,-0.272222222,1,0,0,0,7,7,17,1,0.33,0.33,08,001,2024-11-26_11h26.02.118,Attention_exp_legacy,2023.1.0,Win32,59.88023952,,,,,,,,,,,,,,,,,,,,,,,,,,,,,,,,,,,,,,,,,,,,,,,,,,,,,,,,
,,,,,,,-0.409375,-0.272222222,1,0,0,0,8,8,1,1,-0.67,-0.33,08,001,2024-11-26_11h26.02.118,Attention_exp_legacy,2023.1.0,Win32,59.88023952,,,,,,,,,,,,,,,,,,,,,,,,,,,,,,,,,,,,,,,,,,,,,,,,,,,,,,,,
,,,,,,,-0.409375,-0.272222222,1,0,0,0,9,9,3,1,-0.67,0.33,08,001,2024-11-26_11h26.02.118,Attention_exp_legacy,2023.1.0,Win32,59.88023952,,,,,,,,,,,,,,,,,,,,,,,,,,,,,,,,,,,,,,,,,,,,,,,,,,,,,,,,
,,,,,,,-0.409375,-0.272222222,1,0,0,0,10,10,19,1,0.67,0.67,08,001,2024-11-26_11h26.02.118,Attention_exp_legacy,2023.1.0,Win32,59.88023952,,,,,,,,,,,,,,,,,,,,,,,,,,,,,,,,,,,,,,,,,,,,,,,,,,,,,,,,
,,,,,,,-0.409375,-0.272222222,1,0,0,0,11,11,4,1,-0.33,-0.67,08,001,2024-11-26_11h26.02.118,Attention_exp_legacy,2023.1.0,Win32,59.88023952,,,,,,,,,,,,,,,,,,,,,,,,,,,,,,,,,,,,,,,,,,,,,,,,,,,,,,,,
,,,,,,,-0.409375,-0.272222222,1,0,0,0,12,12,6,1,-0.33,0,08,001,2024-11-26_11h26.02.118,Attention_exp_legacy,2023.1.0,Win32,59.88023952,,,,,,,,,,,,,,,,,,,,,,,,,,,,,,,,,,,,,,,,,,,,,,,,,,,,,,,,
,,,,,,,-0.409375,-0.272222222,1,0,0,0,13,13,14,1,0.33,-0.67,08,001,2024-11-26_11h26.02.118,Attention_exp_legacy,2023.1.0,Win32,59.88023952,,,,,,,,,,,,,,,,,,,,,,,,,,,,,,,,,,,,,,,,,,,,,,,,,,,,,,,,
,,,,,,,-0.409375,-0.272222222,1,0,0,0,14,14,11,1,0,0,08,001,2024-11-26_11h26.02.118,Attention_exp_legacy,2023.1.0,Win32,59.88023952,,,,,,,,,,,,,,,,,,,,,,,,,,,,,,,,,,,,,,,,,,,,,,,,,,,,,,,,
,,,,,,,-0.409375,-0.272222222,1,0,0,0,15,15,9,1,0,-0.67,08,001,2024-11-26_11h26.02.118,Attention_exp_legacy,2023.1.0,Win32,59.88023952,,,,,,,,,,,,,,,,,,,,,,,,,,,,,,,,,,,,,,,,,,,,,,,,,,,,,,,,
,,,,,,,-0.409375,-0.272222222,1,0,0,0,16,16,20,1,0.67,-0.67,08,001,2024-11-26_11h26.02.118,Attention_exp_legacy,2023.1.0,Win32,59.88023952,,,,,,,,,,,,,,,,,,,,,,,,,,,,,,,,,,,,,,,,,,,,,,,,,,,,,,,,
,,,,,,,-0.409375,-0.272222222,1,0,0,0,17,17,12,1,0,0.33,08,001,2024-11-26_11h26.02.118,Attention_exp_legacy,2023.1.0,Win32,59.88023952,,,,,,,,,,,,,,,,,,,,,,,,,,,,,,,,,,,,,,,,,,,,,,,,,,,,,,,,
,,,,,,,-0.409375,-0.272222222,1,0,0,0,18,18,8,1,-0.33,0.67,08,001,2024-11-26_11h26.02.118,Attention_exp_legacy,2023.1.0,Win32,59.88023952,,,,,,,,,,,,,,,,,,,,,,,,,,,,,,,,,,,,,,,,,,,,,,,,,,,,,,,,
,,,,,,,-0.409375,-0.272222222,1,0,0,0,19,19,15,1,0.33,-0.33,08,001,2024-11-26_11h26.02.118,Attention_exp_legacy,2023.1.0,Win32,59.88023952,,,,,,,,,,,,,,,,,,,,,,,,,,,,,,,,,,,,,,,,,,,,,,,,,,,,,,,,
,,,,,,,-0.409375,-0.272222222,1,0,0,0,20,20,13,1,0,0.67,08,001,2024-11-26_11h26.02.118,Attention_exp_legacy,2023.1.0,Win32,59.88023952,,,,,,,,,,,,,,,,,,,,,,,,,,,,,,,,,,,,,,,,,,,,,,,,,,,,,,,,
,,,,,,,,,,,,,,,,,,,08,001,2024-11-26_11h26.02.118,Attention_exp_legacy,2023.1.0,Win32,59.88023952,"[1920,1080]","[640,480]","[0.06145833333333333,0.046875]","[0.7185185185185186,-0.5]","[1,1]","[0,0]","[0,0]","[3.4365000000000023,12.08780000000447]","[""StartButton""]",[0.565625],[0.5796296296296296],[1],[0],[0],[3.881900000005963],"[""RH_label""]",RH_label,1,4.8968,"[[-0.11354166666666667,-0.25],[-0.11354166666666667,-0.25],[-0.11354166666666667,-0.25],[-0.11354166666666667,-0.25],[-0.11354166666666667,-0.25],[-0.11354166666666667,-0.25],[-0.11354166666666667,-0.25],[-0.11354166666666667,-0.25],[-0.11354166666666667,-0.25],[-0.11354166666666667,-0.25],[-0.11354166666666667,-0.24814814814814815],[-0.11354166666666667,-0.24814814814814815],[-0.11354166666666667,-0.24814814814814815],[-0.11354166666666667,-0.24814814814814815],[-0.11354166666666667,-0.24814814814814815],[-0.11354166666666667,-0.24814814814814815],[-0.11354166666666667,-0.24814814814814815],[-0.11354166666666667,-0.24814814814814815],[-0.11354166666666667,-0.25],[-0.11354166666666667,-0.25],[-0.11458333333333333,-0.2518518518518518],[-0.11458333333333333,-0.2537037037037037],[-0.115625,-0.25555555555555554],[-0.115625,-0.25555555555555554],[-0.115625,-0.25555555555555554],[-0.115625,-0.25555555555555554],[-0.115625,-0.25555555555555554],[-0.115625,-0.25555555555555554],[-0.115625,-0.25555555555555554],[-0.115625,-0.25555555555555554],[-0.115625,-0.25555555555555554],[-0.115625,-0.25555555555555554],[-0.115625,-0.25555555555555554],[-0.115625,-0.25555555555555554],[-0.115625,-0.25555555555555554],[-0.115625,-0.25555555555555554],[-0.115625,-0.25555555555555554],[-0.11666666666666667,-0.2574074074074074],[-0.11770833333333333,-0.2574074074074074],[-0.11770833333333333,-0.2574074074074074],[-0.11770833333333333,-0.2574074074074074],[-0.11770833333333333,-0.2574074074074074],[-0.12083333333333333,-0.25925925925925924],[-0.13125,-0.26666666666666666],[-0.13854166666666667,-0.2722222222222222],[-0.14479166666666668,-0.2722222222222222],[-0.16041666666666668,-0.2740740740740741],[-0.19375,-0.2740740740740741],[-0.20833333333333334,-0.2796296296296296],[-0.209375,-0.2796296296296296],[-0.209375,-0.2796296296296296],[-0.21145833333333333,-0.2796296296296296],[-0.2125,-0.2796296296296296],[-0.21666666666666667,-0.2574074074074074],[-0.21979166666666666,-0.22962962962962963],[-0.22291666666666668,-0.20925925925925926],[-0.22291666666666668,-0.20925925925925926],[-0.22291666666666668,-0.20925925925925926],[-0.22291666666666668,-0.20925925925925926],[-0.22291666666666668,-0.20925925925925926],[-0.22291666666666668,-0.20925925925925926],[-0.22291666666666668,-0.20925925925925926],[-0.22291666666666668,-0.20925925925925926],[-0.22291666666666668,-0.20925925925925926],[-0.22291666666666668,-0.20925925925925926],[-0.22291666666666668,-0.20925925925925926],[-0.22291666666666668,-0.20925925925925926],[-0.22291666666666668,-0.20925925925925926],[-0.22291666666666668,-0.20925925925925926],[-0.22291666666666668,-0.20925925925925926],[-0.22291666666666668,-0.20925925925925926],[-0.22291666666666668,-0.20925925925925926],[-0.22291666666666668,-0.20925925925925926],[-0.221875,-0.21481481481481482],[-0.215625,-0.2222222222222222],[-0.21354166666666666,-0.22592592592592592],[-0.21354166666666666,-0.22962962962962963],[-0.21354166666666666,-0.23333333333333334],[-0.21354166666666666,-0.23333333333333334],[-0.21354166666666666,-0.2351851851851852],[-0.21354166666666666,-0.2351851851851852],[-0.21354166666666666,-0.2351851851851852],[-0.21354166666666666,-0.2351851851851852],[-0.21354166666666666,-0.2351851851851852],[-0.21354166666666666,-0.2351851851851852],[-0.21354166666666666,-0.2351851851851852],[-0.21354166666666666,-0.2351851851851852],[-0.21354166666666666,-0.2351851851851852],[-0.21354166666666666,-0.2351851851851852],[-0.21354166666666666,-0.2351851851851852],[-0.21354166666666666,-0.2351851851851852],[-0.21354166666666666,-0.23333333333333334],[-0.21354166666666666,-0.23148148148148148],[-0.21458333333333332,-0.22777777777777777],[-0.21458333333333332,-0.22777777777777777],[-0.21458333333333332,-0.22592592592592592],[-0.21458333333333332,-0.2222222222222222],[-0.21458333333333332,-0.22037037037037038],[-0.21458333333333332,-0.21851851851851853],[-0.21458333333333332,-0.21851851851851853],[-0.21458333333333332,-0.21851851851851853],[-0.21458333333333332,-0.21851851851851853],[-0.21458333333333332,-0.21851851851851853],[-0.21458333333333332,-0.21851851851851853],[-0.21458333333333332,-0.21851851851851853],[-0.21458333333333332,-0.21851851851851853],[-0.21458333333333332,-0.21851851851851853],[-0.21458333333333332,-0.21851851851851853],[-0.21458333333333332,-0.21851851851851853],[-0.21458333333333332,-0.21851851851851853],[-0.21458333333333332,-0.21851851851851853],[-0.21458333333333332,-0.21851851851851853],[-0.21458333333333332,-0.21851851851851853],[-0.21458333333333332,-0.21851851851851853],[-0.21458333333333332,-0.21851851851851853],[-0.21458333333333332,-0.21851851851851853],[-0.21458333333333332,-0.21851851851851853],[-0.21458333333333332,-0.21851851851851853],[-0.21458333333333332,-0.21851851851851853],[-0.21458333333333332,-0.21851851851851853],[-0.21458333333333332,-0.21851851851851853],[-0.21458333333333332,-0.21851851851851853],[-0.21458333333333332,-0.21851851851851853],[-0.21458333333333332,-0.21851851851851853],[-0.21458333333333332,-0.21851851851851853],[-0.21458333333333332,-0.21851851851851853],[-0.21458333333333332,-0.21851851851851853],[-0.21458333333333332,-0.21851851851851853],[-0.21458333333333332,-0.21851851851851853],[-0.21458333333333332,-0.21851851851851853],[-0.21458333333333332,-0.21851851851851853],[-0.21458333333333332,-0.21851851851851853],[-0.21458333333333332,-0.21851851851851853],[-0.21458333333333332,-0.21851851851851853],[-0.21458333333333332,-0.21851851851851853],[-0.21458333333333332,-0.21851851851851853],[-0.21458333333333332,-0.21851851851851853],[-0.21458333333333332,-0.21851851851851853],[-0.21458333333333332,-0.21851851851851853],[-0.21458333333333332,-0.21851851851851853],[-0.21458333333333332,-0.21851851851851853],[-0.21458333333333332,-0.21851851851851853],[-0.21458333333333332,-0.21851851851851853],[-0.21458333333333332,-0.21851851851851853],[-0.21458333333333332,-0.21851851851851853],[-0.21458333333333332,-0.21851851851851853],[-0.21458333333333332,-0.21851851851851853],[-0.21458333333333332,-0.21851851851851853],[-0.21458333333333332,-0.21851851851851853],[-0.21458333333333332,-0.21851851851851853],[-0.21458333333333332,-0.21851851851851853],[-0.21458333333333332,-0.21851851851851853],[-0.21458333333333332,-0.21851851851851853],[-0.21458333333333332,-0.21851851851851853],[-0.21458333333333332,-0.21851851851851853],[-0.21458333333333332,-0.21851851851851853],[-0.21458333333333332,-0.21851851851851853],[-0.21458333333333332,-0.21851851851851853],[-0.21458333333333332,-0.21851851851851853],[-0.21458333333333332,-0.21851851851851853],[-0.21458333333333332,-0.21851851851851853],[-0.21458333333333332,-0.21851851851851853],[-0.21458333333333332,-0.21851851851851853],[-0.21458333333333332,-0.21851851851851853],[-0.21458333333333332,-0.21851851851851853],[-0.21458333333333332,-0.21851851851851853],[-0.21458333333333332,-0.21851851851851853],[-0.21458333333333332,-0.21851851851851853],[-0.21458333333333332,-0.21851851851851853],[-0.21458333333333332,-0.21851851851851853],[-0.21458333333333332,-0.21851851851851853],[-0.21458333333333332,-0.21851851851851853],[-0.21458333333333332,-0.21851851851851853],[-0.21458333333333332,-0.21851851851851853],[-0.21458333333333332,-0.21851851851851853],[-0.21458333333333332,-0.21851851851851853],[-0.21458333333333332,-0.21851851851851853],[-0.21458333333333332,-0.21851851851851853],[-0.21458333333333332,-0.21851851851851853],[-0.21458333333333332,-0.21851851851851853],[-0.21458333333333332,-0.21851851851851853],[-0.21458333333333332,-0.21851851851851853],[-0.21458333333333332,-0.21851851851851853],[-0.21458333333333332,-0.21851851851851853],[-0.21458333333333332,-0.21851851851851853],[-0.21458333333333332,-0.21666666666666667],[-0.21145833333333333,-0.21666666666666667],[-0.2,-0.2111111111111111],[-0.17395833333333333,-0.2037037037037037],[-0.13854166666666667,-0.1962962962962963],[-0.084375,-0.1814814814814815],[-0.025,-0.16666666666666666],[0.029166666666666667,-0.15185185185185185],[0.08541666666666667,-0.1259259259259259],[0.1375,-0.09444444444444444],[0.2,-0.03148148148148148],[0.225,0.007407407407407408],[0.2552083333333333,0.04814814814814815],[0.28020833333333334,0.08518518518518518],[0.3145833333333333,0.1814814814814815],[0.3333333333333333,0.22407407407407406],[0.35208333333333336,0.26296296296296295],[0.3697916666666667,0.3],[0.3854166666666667,0.32592592592592595],[0.39791666666666664,0.3388888888888889],[0.42291666666666666,0.3592592592592593],[0.440625,0.37037037037037035],[0.45208333333333334,0.37592592592592594],[0.48541666666666666,0.40370370370370373],[0.5145833333333333,0.4222222222222222],[0.525,0.42962962962962964],[0.5322916666666667,0.43703703703703706],[0.5354166666666667,0.4425925925925926],[0.5364583333333334,0.4462962962962963],[0.5364583333333334,0.44814814814814813],[0.5385416666666667,0.45],[0.5395833333333333,0.45185185185185184],[0.5395833333333333,0.45555555555555555],[0.5427083333333333,0.4648148148148148],[0.54375,0.4740740740740741],[0.5489583333333333,0.5055555555555555],[0.5510416666666667,0.5203703703703704],[0.5552083333333333,0.5351851851851852],[0.5583333333333333,0.5537037037037037],[0.5614583333333333,0.562962962962963],[0.5614583333333333,0.5666666666666667],[0.5635416666666667,0.5722222222222222],[0.5635416666666667,0.575925925925926],[0.565625,0.5796296296296296],[0.565625,0.5796296296296296],[0.565625,0.5796296296296296],[0.565625,0.5796296296296296],[0.565625,0.5796296296296296],[0.565625,0.5796296296296296],[0.565625,0.5796296296296296],[0.565625,0.5796296296296296],[0.565625,0.5796296296296296],[0.565625,0.5796296296296296],[0.565625,0.5796296296296296],[0.565625,0.5796296296296296],[0.565625,0.5796296296296296],[0.565625,0.5796296296296296],[0.565625,0.5796296296296296],[0.565625,0.5796296296296296],[0.565625,0.5796296296296296],[0.565625,0.5796296296296296],[0.565625,0.5796296296296296],[0.565625,0.5796296296296296],[0.565625,0.5796296296296296],[0.565625,0.5796296296296296],[0.565625,0.5796296296296296],[0.565625,0.5796296296296296],[0.565625,0.5796296296296296],[0.565625,0.5796296296296296],[0.565625,0.5796296296296296],[0.565625,0.5796296296296296],[0.565625,0.5796296296296296],[0.565625,0.5796296296296296],[0.565625,0.5796296296296296],[0.565625,0.5796296296296296],[0.565625,0.5796296296296296],[0.565625,0.5796296296296296],[0.565625,0.5796296296296296],[0.565625,0.5796296296296296],[0.565625,0.5796296296296296],[0.565625,0.5796296296296296],[0.565625,0.5796296296296296],[0.565625,0.5796296296296296],[0.565625,0.5796296296296296],[0.565625,0.5796296296296296],[0.565625,0.5796296296296296],[0.565625,0.5796296296296296],[0.565625,0.5796296296296296],[0.5635416666666667,0.5685185185185185],[0.5614583333333333,0.5574074074074075],[0.5583333333333333,0.5407407407407407],[0.5583333333333333,0.5259259259259259],[0.5583333333333333,0.5055555555555555],[0.5583333333333333,0.47962962962962963],[0.5604166666666667,0.4722222222222222],[0.5604166666666667,0.4648148148148148],[0.5604166666666667,0.4648148148148148],[0.5625,0.46111111111111114],[0.5625,0.46111111111111114],[0.5625,0.46111111111111114],[0.5625,0.46111111111111114],[0.5625,0.46111111111111114],[0.5625,0.46111111111111114],[0.5625,0.46111111111111114],[0.5625,0.46111111111111114],[0.5625,0.46111111111111114],[0.5625,0.46111111111111114],[0.5635416666666667,0.46111111111111114]]","[[-0.2390625,0.20666666666666672],[-0.2390625,0.20666666666666672],[-0.2390625,0.20666666666666672],[-0.20114583333333336,0.19981481481481478],[-0.20114583333333336,0.19981481481481478],[-0.1658333333333334,0.1361111111111111],[-0.16281249999999994,0.10166666666666663],[-0.14906250000000001,0.07537037037037045],[-0.14739583333333334,0.049629629629629544],[-0.12885416666666671,-0.006481481481481481],[-0.15333333333333338,-0.026666666666666623],[-0.14125000000000001,-0.013333333333333417],[-0.18687499999999999,0.026481481481481398],[-0.23479166666666665,0.0955555555555556],[-0.26802083333333326,0.11500000000000005],[-0.26802083333333326,0.11500000000000005],[-0.2828125,0.1587037037037038],[-0.2967708333333333,0.1544444444444444],[-0.34125,0.21870370370370373],[-0.34125,0.21870370370370373],[-0.3220833333333334,0.22685185185185186],[-0.3155208333333333,0.24777777777777768],[-0.2991666666666667,0.26370370370370366],[-0.2991666666666667,0.26370370370370366],[-0.30447916666666663,0.21666666666666667],[-0.2607291666666666,0.19203703703703712],[-0.21864583333333332,0.14592592592592585],[-0.18468749999999995,0.09129629629629621],[-0.17260416666666673,0.03777777777777774],[-0.17260416666666673,0.03777777777777774],[-0.1580208333333334,0.0418518518518519],[-0.09562499999999995,-0.02962962962962963],[-0.096875,-0.044999999999999915],[-0.08552083333333335,-0.07314814814814814],[-0.08552083333333335,-0.07314814814814814],[-0.06656249999999998,-0.08925925925925923],[-0.03999999999999997,-0.10537037037037032],[-0.025312499999999953,-0.14629629629629629],[-0.015104166666666667,-0.13240740740740742],[0.008645833333333287,-0.10111111111111115],[0.00302083333333331,-0.059999999999999956],[-0.008020833333333382,-0.03851851851851843],[-0.018437500000000048,-0.032407407407407406],[-0.018437500000000048,-0.032407407407407406],[-0.04083333333333338,0.010370370370370412],[-0.04083333333333338,0.010370370370370412],[-0.084375,0.05537037037037033],[-0.10031249999999996,0.07111111111111107],[-0.10447916666666662,0.1338888888888888],[-0.14229166666666668,0.20277777777777778],[-0.14229166666666668,0.20277777777777778],[-0.17229166666666665,0.22833333333333325],[-0.20218750000000002,0.247037037037037],[-0.20218750000000002,0.247037037037037],[-0.20562499999999997,0.29018518518518527],[-0.20093749999999996,0.30925925925925923],[-0.21364583333333337,0.35611111111111104],[-0.21437499999999995,0.36629629629629623],[-0.20354166666666665,0.37666666666666665],[-0.21749999999999994,0.4],[-0.23791666666666664,0.42962962962962964],[-0.23385416666666667,0.43499999999999994],[-0.24750000000000003,0.4381481481481482],[-0.2491666666666667,0.46055555555555566],[-0.2390625,0.39203703703703713],[-0.2211458333333333,0.37185185185185177],[-0.22000000000000006,0.32462962962962955],[-0.21885416666666668,0.2774074074074073],[-0.18822916666666673,0.2146296296296296],[-0.15750000000000006,0.15240740740740732],[-0.14197916666666663,0.10203703703703708],[-0.1358333333333333,0.06611111111111119],[-0.11958333333333329,0.04407407407407399],[-0.11895833333333337,-0.0301851851851851],[-0.12510416666666668,-0.003888888888888931],[-0.1484375,-0.029259259259259176],[-0.15499999999999994,-0.02759259259259255],[-0.1436458333333333,-0.02166666666666675],[-0.1436458333333333,-0.02166666666666675],[-0.16625000000000004,0.001851851851851852],[-0.18968750000000004,0.039629629629629584],[-0.22041666666666668,0.0485185185185186],[-0.22697916666666665,0.04592592592592584],[-0.23385416666666667,0.03740740740740749],[-0.22947916666666662,0.05907407407407403],[-0.2296875,0.03833333333333342],[-0.23822916666666671,0.0477777777777777],[-0.2467708333333333,0.05722222222222218],[-0.27406250000000004,0.06666666666666667],[-0.27406250000000004,0.06666666666666667],[-0.28708333333333336,0.07685185185185185],[-0.28500000000000003,0.06333333333333342],[-0.2677083333333333,0.07814814814814823],[-0.2677083333333333,0.07814814814814823],[-0.2641666666666667,0.11222222222222226],[-0.2640625,0.14574074074074084],[-0.265625,0.16925925925925922],[-0.2646875,0.19129629629629621],[-0.24947916666666667,0.22259259259259268],[-0.23374999999999999,0.23055555555555557],[-0.2133333333333333,0.2390740740740741],[-0.22875000000000004,0.26851851851851855],[-0.2319791666666667,0.27240740740740743],[-0.2390625,0.2718518518518518],[-0.23802083333333332,0.26722222222222214],[-0.2326041666666666,0.2598148148148147],[-0.2352083333333333,0.2712962962962963],[-0.24020833333333336,0.27870370370370373],[-0.2526041666666667,0.255925925925926],[-0.2526041666666667,0.255925925925926],[-0.2655208333333333,0.2564814814814815],[-0.288125,0.27462962962962956],[-0.27541666666666664,0.24666666666666676],[-0.29260416666666667,0.2598148148148147],[-0.3098958333333333,0.27148148148148155],[-0.3098958333333333,0.27148148148148155],[-0.3271875,0.2831481481481481],[-0.33312499999999995,0.27925925925925915],[-0.34625,0.28425925925925927],[-0.35093749999999996,0.27314814814814814],[-0.35125000000000006,0.2844444444444445],[-0.35812499999999997,0.3114814814814816],[-0.35989583333333336,0.30092592592592593],[-0.35270833333333335,0.30388888888888893],[-0.35270833333333335,0.30388888888888893],[-0.3420833333333333,0.3007407407407407],[-0.34010416666666665,0.2844444444444445],[-0.3385416666666667,0.2774074074074073],[-0.34833333333333333,0.28592592592592586],[-0.34656250000000005,0.27814814814814826],[-0.350625,0.28425925925925927],[-0.35343749999999996,0.2814814814814815],[-0.3466666666666666,0.2657407407407407],[-0.34177083333333336,0.2803703703703703],[-0.3441666666666666,0.2868518518518518],[-0.3471874999999999,0.2903703703703703],[-0.34729166666666667,0.29907407407407405],[-0.34833333333333333,0.29259259259259257],[-0.34802083333333333,0.28703703703703703],[-0.3532291666666667,0.29444444444444445],[-0.34958333333333336,0.28777777777777774],[-0.3471874999999999,0.2994444444444445],[-0.3476041666666667,0.29296296296296304],[-0.3428125,0.27074074074074084],[-0.3393749999999999,0.2631481481481482],[-0.33531249999999996,0.25851851851851854],[-0.3307291666666667,0.25166666666666665],[-0.3217708333333333,0.25166666666666665],[-0.3217708333333333,0.25166666666666665],[-0.3141666666666667,0.2507407407407407],[-0.3141666666666667,0.2507407407407407],[-0.30572916666666666,0.22444444444444453],[-0.306875,0.22814814814814824],[-0.3067708333333333,0.21351851851851844],[-0.3067708333333333,0.21351851851851844],[-0.30447916666666663,0.21333333333333343],[-0.30135416666666665,0.21185185185185182],[-0.29229166666666667,0.2192592592592592],[-0.2833333333333333,0.21888888888888897],[-0.2796875,0.2037037037037037],[-0.27374999999999994,0.1844444444444445],[-0.26916666666666667,0.16796296296296304],[-0.2585416666666667,0.1698148148148149],[-0.24739583333333334,0.16203703703703703],[-0.2491666666666667,0.1448148148148149],[-0.25499999999999995,0.11018518518518519],[-0.27145833333333336,0.10037037037037046],[-0.2877083333333334,0.06592592592592597],[-0.31229166666666663,0.061666666666666585],[-0.31625000000000003,0.054074074074074156],[-0.32572916666666674,0.041111111111111195],[-0.3242708333333333,0.027407407407407325],[-0.3241666666666667,0.007777777777777862],[-0.3319791666666667,-0.018703703703703747],[-0.32687499999999997,-0.035740740740740656],[-0.3195833333333333,-0.03462962962962971],[-0.3051041666666666,-0.05648148148148148],[-0.2967708333333333,-0.06259259259259262],[-0.2819791666666667,-0.08055555555555556],[-0.28239583333333335,-0.08925925925925923],[-0.2765625,-0.07111111111111107],[-0.27760416666666665,-0.06444444444444447],[-0.290625,-0.07185185185185188],[-0.29572916666666665,-0.07240740740740745],[-0.3012500000000001,-0.06129629629629634],[-0.3072916666666667,-0.05],[-0.29406249999999995,-0.025370370370370456],[-0.2808333333333334,-0.0007407407407406986],[-0.26291666666666663,-0.004259259259259175],[-0.26291666666666663,-0.004259259259259175],[-0.25406249999999997,0.0242592592592593],[-0.25125000000000003,0.034444444444444486],[-0.25020833333333337,0.07092592592592584],[-0.25020833333333337,0.07092592592592584],[-0.23218749999999996,0.11203703703703703],[-0.19083333333333338,0.13111111111111104],[-0.1359375,0.13537037037037042],[-0.09979166666666663,0.11037037037037041],[-0.07927083333333336,0.1124074074074075],[-0.07927083333333336,0.1124074074074075],[-0.06437499999999995,0.07962962962962963],[-0.052187500000000026,0.06444444444444436],[-0.024166666666666715,-0.016111111111111194],[0.035208333333333286,-0.06722222222222224],[0.06687500000000005,-0.08333333333333333],[0.08802083333333334,-0.09111111111111109],[0.10583333333333324,-0.11592592592592597],[0.10583333333333324,-0.11592592592592597],[0.11052083333333323,-0.13759259259259263],[0.13427083333333342,-0.11814814814814817],[0.15479166666666658,-0.15907407407407403],[0.1866666666666667,-0.1668518518518519],[0.20427083333333323,-0.16222222222222227],[0.20427083333333323,-0.16222222222222227],[0.2413541666666667,-0.14333333333333328],[0.19729166666666675,-0.12814814814814812],[0.2522916666666667,-0.19425925925925921],[0.2522916666666667,-0.19425925925925921],[0.3258333333333333,-0.2770370370370371],[0.35666666666666674,-0.30277777777777776],[0.38645833333333335,-0.3316666666666667],[0.41645833333333326,-0.3562962962962963],[0.4460416666666667,-0.3609259259259259],[0.46864583333333343,-0.3851851851851852],[0.5055208333333333,-0.42185185185185187],[0.5055208333333333,-0.42185185185185187],[0.5189583333333334,-0.4377777777777777],[0.5816666666666668,-0.4777777777777778],[0.57375,-0.49296296296296294],[0.5520833333333334,-0.4888888888888889],[0.5508333333333333,-0.4861111111111111],[0.5587500000000001,-0.48222222222222216],[0.5611458333333333,-0.4987037037037037],[0.5554166666666667,-0.5207407407407407],[0.5520833333333334,-0.5216666666666666],[0.5520833333333334,-0.5216666666666666],[0.54875,-0.5225925925925926],[0.5428124999999999,-0.5085185185185186],[0.5491666666666667,-0.4677777777777778],[0.5491666666666667,-0.4677777777777778],[0.5548958333333334,-0.4588888888888889],[0.5549999999999999,-0.45870370370370367],[0.5530208333333334,-0.46574074074074073],[0.5348958333333333,-0.46425925925925926],[0.5158333333333334,-0.4546296296296296],[0.5263541666666666,-0.4425925925925926],[0.5357291666666666,-0.43037037037037035],[0.5323958333333333,-0.4222222222222222],[0.5292708333333332,-0.425],[0.5143749999999999,-0.45611111111111113],[0.5001041666666666,-0.43259259259259264],[0.49406249999999996,-0.39148148148148143],[0.5041666666666667,-0.3979629629629629],[0.5205208333333334,-0.39759259259259255],[0.5354166666666667,-0.4103703703703704],[0.5288541666666667,-0.42000000000000004],[0.4895833333333333,-0.4007407407407407],[0.4630208333333333,-0.3774074074074074],[0.4669791666666666,-0.3809259259259259],[0.4703125,-0.38370370370370366],[0.4703125,-0.38370370370370366],[0.48770833333333335,-0.41],[0.5088541666666667,-0.45444444444444443],[0.5105208333333332,-0.4535185185185185],[0.5105208333333332,-0.4535185185185185],[0.5188541666666666,-0.4685185185185185],[0.5301041666666667,-0.477962962962963],[0.5375,-0.4740740740740741],[0.5833333333333334,-0.5011111111111112],[0.6240624999999999,-0.5448148148148148],[0.6327083333333334,-0.5612962962962963],[0.6291666666666667,-0.5577777777777777],[0.6098958333333333,-0.5488888888888889],[0.5848958333333333,-0.5342592592592592],[0.5794791666666667,-0.5525925925925925],[0.5599999999999999,-0.5570370370370371],[0.5414583333333333,-0.5468518518518519],[0.5267708333333334,-0.55],[0.5186458333333335,-0.5599999999999999],[0.5109375,-0.5618518518518518],[0.5201041666666666,-0.5690740740740741],[0.529375,-0.571111111111111],[0.5295833333333334,-0.5803703703703703],[0.5294791666666666,-0.5888888888888889],[0.5193749999999999,-0.5761111111111111],[0.5184375,-0.5746296296296296],[0.5184375,-0.5746296296296296],[0.553125,-0.5929629629629629],[0.5551041666666667,-0.5805555555555556],[0.5474999999999999,-0.5716666666666667],[0.5474999999999999,-0.5716666666666667],[0.5445833333333333,-0.5542592592592592],[0.5101041666666667,-0.525]]","[[-0.2390625,0.20666666666666672,0.0003000000044650619],[-0.2390625,0.20666666666666672,0.0519999999999996],[-0.2390625,0.20666666666666672,0.05570000000297881],[-0.20114583333333336,0.19981481481481478,0.07249999999999801],[-0.20114583333333336,0.19981481481481478,0.08899999999999864],[-0.1658333333333334,0.1361111111111111,0.10570000000297597],[-0.16281249999999994,0.10166666666666663,0.12240000000596041],[-0.14906250000000001,0.07537037037037045,0.13910000000148415],[-0.14739583333333334,0.049629629629629544,0.15790000000595938],[-0.12885416666666671,-0.006481481481481481,0.17249999999999943],[-0.15333333333333338,-0.026666666666666623,0.19370000000297694],[-0.14125000000000001,-0.013333333333333417,0.2079999999999984],[-0.18687499999999999,0.026481481481481398,0.22730000000446893],[-0.23479166666666665,0.0955555555555556,0.2416000000014904],[-0.26802083333333326,0.11500000000000005,0.25580000000447],[-0.26802083333333326,0.11500000000000005,0.27249999999999375],[-0.2828125,0.1587037037037038,0.28910000000148983],[-0.2967708333333333,0.1544444444444444,0.30580000000446717],[-0.34125,0.21870370370370373,0.32610000000148887],[-0.34125,0.21870370370370373,0.339100000001487],[-0.3220833333333334,0.22685185185185186,0.3558000000044643],[-0.3155208333333333,0.24777777777777768,0.3726000000014906],[-0.2991666666666667,0.26370370370370366,0.3962000000029775],[-0.2991666666666667,0.26370370370370366,0.40570000000298023],[-0.30447916666666663,0.21666666666666667,0.42240000000595757],[-0.2607291666666666,0.19203703703703712,0.44160000000148614],[-0.21864583333333332,0.14592592592592585,0.45580000000446574],[-0.18468749999999995,0.09129629629629621,0.4724000000059547],[-0.17260416666666673,0.03777777777777774,0.4924999999999997],[-0.17260416666666673,0.03777777777777774,0.50580000000447],[-0.1580208333333334,0.0418518518518519,0.522400000005959],[-0.09562499999999995,-0.02962962962962963,0.5391000000014898],[-0.096875,-0.044999999999999915,0.5557000000029788],[-0.08552083333333335,-0.07314814814814814,0.5758000000044703],[-0.08552083333333335,-0.07314814814814814,0.589100000001487],[-0.06656249999999998,-0.08925925925925923,0.6058000000044643],[-0.03999999999999997,-0.10537037037037032,0.6224000000059604],[-0.025312499999999953,-0.14629629629629629,0.6433000000044657],[-0.015104166666666667,-0.13240740740740742,0.6584999999999965],[0.008645833333333287,-0.10111111111111115,0.6727000000029761],[0.00302083333333331,-0.059999999999999956,0.6922000000029769],[-0.008020833333333382,-0.03851851851851843,0.7089000000059542],[-0.018437500000000048,-0.032407407407407406,0.7294999999999945],[-0.018437500000000048,-0.032407407407407406,0.739200000002981],[-0.04083333333333338,0.010370370370370412,0.7559000000059584],[-0.04083333333333338,0.010370370370370412,0.7724999999999937],[-0.084375,0.05537037037037033,0.7914000000059573],[-0.10031249999999996,0.07111111111111107,0.8109999999999999],[-0.10447916666666662,0.1338888888888888,0.8259000000059586],[-0.14229166666666668,0.20277777777777778,0.8454999999999941],[-0.14229166666666668,0.20277777777777778,0.855700000002976],[-0.17229166666666665,0.22833333333333325,0.8729000000059557],[-0.20218750000000002,0.247037037037037,0.8972000000029752],[-0.20218750000000002,0.247037037037037,0.9058000000044686],[-0.20562499999999997,0.29018518518518527,0.9226000000014878],[-0.20093749999999996,0.30925925925925923,0.9408000000044652],[-0.21364583333333337,0.35611111111111104,0.955999999999996],[-0.21437499999999995,0.36629629629629623,0.9724000000059547],[-0.20354166666666665,0.37666666666666665,0.9926000000014881],[-0.21749999999999994,0.4,1.0093000000044654],[-0.23791666666666664,0.42962962962962964,1.02470000000298],[-0.23385416666666667,0.43499999999999994,1.0414000000059573],[-0.24750000000000003,0.4381481481481482,1.061],[-0.2491666666666667,0.46055555555555566,1.076800000004468],[-0.2390625,0.39203703703703713,1.0926000000014895],[-0.2211458333333333,0.37185185185185177,1.1069000000059575],[-0.22000000000000006,0.32462962962962955,1.122300000004465],[-0.21885416666666668,0.2774074074074073,1.1441000000014867],[-0.18822916666666673,0.2146296296296296,1.158999999999999],[-0.15750000000000006,0.15240740740740732,1.173700000002981],[-0.14197916666666663,0.10203703703703708,1.1922000000029769],[-0.1358333333333333,0.06611111111111119,1.2089000000059542],[-0.11958333333333329,0.04407407407407399,1.2277000000029759],[-0.11895833333333337,-0.0301851851851851,1.2441000000014881],[-0.12510416666666668,-0.003888888888888931,1.2598000000044678],[-0.1484375,-0.029259259259259176,1.2761000000014846],[-0.15499999999999994,-0.02759259259259255,1.291700000002976],[-0.1436458333333333,-0.02166666666666675,1.312100000001486],[-0.1436458333333333,-0.02166666666666675,1.3224000000059561],[-0.16625000000000004,0.001851851851851852,1.3393000000044708],[-0.18968750000000004,0.039629629629629584,1.355700000002983],[-0.22041666666666668,0.0485185185185186,1.3725000000000023],[-0.22697916666666665,0.04592592592592584,1.3943000000044634],[-0.23385416666666667,0.03740740740740749,1.4087000000029803],[-0.22947916666666662,0.05907407407407403,1.4224999999999994],[-0.2296875,0.03833333333333342,1.4423000000044652],[-0.23822916666666671,0.0477777777777777,1.4569000000059589],[-0.2467708333333333,0.05722222222222218,1.4727000000029733],[-0.27406250000000004,0.06666666666666667,1.4924999999999926],[-0.27406250000000004,0.06666666666666667,1.5057000000029745],[-0.28708333333333336,0.07685185185185185,1.5223000000044635],[-0.28500000000000003,0.06333333333333342,1.5412000000029735],[-0.2677083333333333,0.07814814814814823,1.556200000002974],[-0.2677083333333333,0.07814814814814823,1.5796000000014914],[-0.2641666666666667,0.11222222222222226,1.5936000000014872],[-0.2640625,0.14574074074074084,1.6092000000029714],[-0.265625,0.16925925925925922,1.6228000000044744],[-0.2646875,0.19129629629629621,1.639300000004468],[-0.24947916666666667,0.22259259259259268,1.6603000000044688],[-0.23374999999999999,0.23055555555555557,1.6772000000029834],[-0.2133333333333333,0.2390740740740741,1.6923000000044652],[-0.22875000000000004,0.26851851851851855,1.7062000000029798],[-0.2319791666666667,0.27240740740740743,1.7224000000059618],[-0.2390625,0.2718518518518518,1.7412000000029764],[-0.23802083333333332,0.26722222222222214,1.7557000000029745],[-0.2326041666666666,0.2598148148148147,1.7763000000044684],[-0.2352083333333333,0.2712962962962963,1.7919000000059526],[-0.24020833333333336,0.27870370370370373,1.8108000000044626],[-0.2526041666666667,0.255925925925926,1.8248000000044726],[-0.2526041666666667,0.255925925925926,1.8389999999999986],[-0.2655208333333333,0.2564814814814815,1.855700000002983],[-0.288125,0.27462962962962956,1.8724000000059533],[-0.27541666666666664,0.24666666666666676,1.893400000005954],[-0.29260416666666667,0.2598148148148147,1.9077000000029756],[-0.3098958333333333,0.27148148148148155,1.9224999999999994],[-0.3098958333333333,0.27148148148148155,1.9392000000029839],[-0.3271875,0.2831481481481481,1.9557000000029774],[-0.33312499999999995,0.27925925925925915,1.9724999999999966],[-0.34625,0.28425925925925927,1.9916000000014833],[-0.35093749999999996,0.27314814814814814,2.0057000000029745],[-0.35125000000000006,0.2844444444444445,2.025400000005959],[-0.35812499999999997,0.3114814814814816,2.0390000000000015],[-0.35989583333333336,0.30092592592592593,2.0557000000029717],[-0.35270833333333335,0.30388888888888893,2.0754000000059563],[-0.35270833333333335,0.30388888888888893,2.089100000001494],[-0.3420833333333333,0.3007407407407407,2.105700000002983],[-0.34010416666666665,0.2844444444444445,2.1224000000059533],[-0.3385416666666667,0.2774074074074073,2.1392000000029725],[-0.34833333333333333,0.28592592592592586,2.157499999999999],[-0.34656250000000005,0.27814814814814826,2.1726000000014807],[-0.350625,0.28425925925925927,2.190400000005951],[-0.35343749999999996,0.2814814814814815,2.2057000000029774],[-0.3466666666666666,0.2657407407407407,2.222400000005962],[-0.34177083333333336,0.2803703703703703,2.240300000004467],[-0.3441666666666666,0.2868518518518518,2.2557000000029745],[-0.3471874999999999,0.2903703703703703,2.276800000004471],[-0.34729166666666667,0.29907407407407405,2.2914000000059644],[-0.34833333333333333,0.29259259259259257,2.305800000004467],[-0.34802083333333333,0.28703703703703703,2.3245000000000005],[-0.3532291666666667,0.29444444444444445,2.3389999999999986],[-0.34958333333333336,0.28777777777777774,2.3584000000059575],[-0.3471874999999999,0.2994444444444445,2.3725000000000023],[-0.3476041666666667,0.29296296296296304,2.3891000000014913],[-0.3428125,0.27074074074074084,2.407800000004471],[-0.3393749999999999,0.2631481481481482,2.422300000004469],[-0.33531249999999996,0.25851851851851854,2.4421000000014885],[-0.3307291666666667,0.25166666666666665,2.458200000002975],[-0.3217708333333333,0.25166666666666665,2.478999999999999],[-0.3217708333333333,0.25166666666666665,2.4891000000014856],[-0.3141666666666667,0.2507407407407407,2.50580000000447],[-0.3141666666666667,0.2507407407407407,2.5223000000044635],[-0.30572916666666666,0.22444444444444453,2.5391000000014827],[-0.306875,0.22814814814814824,2.5557000000029717],[-0.3067708333333333,0.21351851851851844,2.5778000000044727],[-0.3067708333333333,0.21351851851851844,2.589100000001494],[-0.30447916666666663,0.21333333333333343,2.6058000000044643],[-0.30135416666666665,0.21185185185185182,2.6224000000059533],[-0.29229166666666667,0.2192592592592592,2.6391000000014913],[-0.2833333333333333,0.21888888888888897,2.6573000000044686],[-0.2796875,0.2037037037037037,2.6724999999999994],[-0.27374999999999994,0.1844444444444445,2.691200000002979],[-0.26916666666666667,0.16796296296296304,2.7057000000029774],[-0.2585416666666667,0.1698148148148149,2.7223000000044664],[-0.24739583333333334,0.16203703703703703,2.7402000000029716],[-0.2491666666666667,0.1448148148148149,2.7557000000029745],[-0.25499999999999995,0.11018518518518519,2.776200000002973],[-0.27145833333333336,0.10037037037037046,2.790999999999997],[-0.2877083333333334,0.06592592592592597,2.8057000000029717],[-0.31229166666666663,0.061666666666666585,2.8241000000014935],[-0.31625000000000003,0.054074074074074156,2.839100000001494],[-0.32572916666666674,0.041111111111111195,2.855700000002983],[-0.3242708333333333,0.027407407407407325,2.8724000000059533],[-0.3241666666666667,0.007777777777777862,2.8891000000014913],[-0.3319791666666667,-0.018703703703703747,2.9079000000059523],[-0.32687499999999997,-0.035740740740740656,2.9224000000059647],[-0.3195833333333333,-0.03462962962962971,2.940400000005951],[-0.3051041666666666,-0.05648148148148148,2.9557000000029774],[-0.2967708333333333,-0.06259259259259262,2.9723000000044664],[-0.2819791666666667,-0.08055555555555556,2.9919999999999902],[-0.28239583333333335,-0.08925925925925923,3.0067000000029793],[-0.2765625,-0.07111111111111107,3.025499999999994],[-0.27760416666666665,-0.06444444444444447,3.0412000000029735],[-0.290625,-0.07185185185185188,3.0557000000029717],[-0.29572916666666665,-0.07240740740740745,3.0771000000014936],[-0.3012500000000001,-0.06129629629629634,3.092500000000001],[-0.3072916666666667,-0.05,3.1101000000014807],[-0.29406249999999995,-0.025370370370370456,3.1251000000014812],[-0.2808333333333334,-0.0007407407407406986,3.143500000000003],[-0.26291666666666663,-0.004259259259259175,3.1606000000014944],[-0.26291666666666663,-0.004259259259259175,3.1726000000014807],[-0.25406249999999997,0.0242592592592593,3.189200000002984],[-0.25125000000000003,0.034444444444444486,3.207300000004466],[-0.25020833333333337,0.07092592592592584,3.227700000002983],[-0.25020833333333337,0.07092592592592584,3.239200000002981],[-0.23218749999999996,0.11203703703703703,3.2560000000000002],[-0.19083333333333338,0.13111111111111104,3.2772000000029777],[-0.1359375,0.13537037037037042,3.2922000000029783],[-0.09979166666666663,0.11037037037037041,3.3103000000044744],[-0.07927083333333336,0.1124074074074075,3.3286000000014866],[-0.07927083333333336,0.1124074074074075,3.3392000000029753],[-0.06437499999999995,0.07962962962962963,3.3559999999999945],[-0.052187500000000026,0.06444444444444436,3.3728000000044744],[-0.024166666666666715,-0.016111111111111194,3.3944999999999936],[0.035208333333333286,-0.06722222222222224,3.4085000000000036],[0.06687500000000005,-0.08333333333333333,3.422700000002976],[0.08802083333333334,-0.09111111111111109,3.443700000002977],[0.10583333333333324,-0.11592592592592597,3.458800000004473],[0.10583333333333324,-0.11592592592592597,3.472600000001492],[0.11052083333333323,-0.13759259259259263,3.4893000000044623],[0.13427083333333342,-0.11814814814814817,3.507900000005961],[0.15479166666666658,-0.15907407407407403,3.52470000000298],[0.1866666666666667,-0.1668518518518519,3.540900000005962],[0.20427083333333323,-0.16222222222222227,3.5612000000029838],[0.20427083333333323,-0.16222222222222227,3.5726000000014864],[0.2413541666666667,-0.14333333333333328,3.589300000004471],[0.19729166666666675,-0.12814814814814812,3.609800000004469],[0.2522916666666667,-0.19425925925925921,3.624900000005951],[0.2522916666666667,-0.19425925925925921,3.639300000004468],[0.3258333333333333,-0.2770370370370371,3.6559999999999917],[0.35666666666666674,-0.30277777777777776,3.676100000001483],[0.38645833333333335,-0.3316666666666667,3.692200000002984],[0.41645833333333326,-0.3562962962962963,3.706900000005959],[0.4460416666666667,-0.3609259259259259,3.7274000000059573],[0.46864583333333343,-0.3851851851851852,3.7423000000044624],[0.5055208333333333,-0.42185185185185187,3.756999999999991],[0.5055208333333333,-0.42185185185185187,3.775499999999994],[0.5189583333333334,-0.4377777777777777,3.789200000002978],[0.5816666666666668,-0.4777777777777778,3.8089000000059627],[0.57375,-0.49296296296296294,3.8271000000014936],[0.5520833333333334,-0.4888888888888889,3.8428000000044733],[0.5508333333333333,-0.4861111111111111,3.8577000000029784],[0.5587500000000001,-0.48222222222222216,3.8726000000014835],[0.5611458333333333,-0.4987037037037037,3.8924000000059635],[0.5554166666666667,-0.5207407407407407,3.9085000000000036],[0.5520833333333334,-0.5216666666666666,3.9224999999999994],[0.5520833333333334,-0.5216666666666666,3.9391000000014884],[0.54875,-0.5225925925925926,3.9557000000029774],[0.5428124999999999,-0.5085185185185186,3.972400000005962],[0.5491666666666667,-0.4677777777777778,3.9921000000014857],[0.5491666666666667,-0.4677777777777778,4.00580000000447],[0.5548958333333334,-0.4588888888888889,4.0223000000044635],[0.5549999999999999,-0.45870370370370367,4.039300000004474],[0.5530208333333334,-0.46574074074074073,4.055700000002972],[0.5348958333333333,-0.46425925925925926,4.075700000002982],[0.5158333333333334,-0.4546296296296296,4.091100000001489],[0.5263541666666666,-0.4425925925925926,4.107700000002978],[0.5357291666666666,-0.43037037037037035,4.122400000005953],[0.5323958333333333,-0.4222222222222222,4.139100000001491],[0.5292708333333332,-0.425,4.157900000005952],[0.5143749999999999,-0.45611111111111113,4.173900000005958],[0.5001041666666666,-0.43259259259259264,4.191999999999993],[0.49406249999999996,-0.39148148148148143,4.206300000004461],[0.5041666666666667,-0.3979629629629629,4.222300000004466],[0.5205208333333334,-0.39759259259259255,4.241200000002976],[0.5354166666666667,-0.4103703703703704,4.256700000002979],[0.5288541666666667,-0.42000000000000004,4.276600000001494],[0.4895833333333333,-0.4007407407407407,4.292200000002978],[0.4630208333333333,-0.3774074074074074,4.310700000002981],[0.4669791666666666,-0.3809259259259259,4.326100000001489],[0.4703125,-0.38370370370370366,4.341400000005962],[0.4703125,-0.38370370370370366,4.355600000001488],[0.48770833333333335,-0.41,4.372400000005953],[0.5088541666666667,-0.45444444444444443,4.394200000002982],[0.5105208333333332,-0.4535185185185185,4.408999999999992],[0.5105208333333332,-0.4535185185185185,4.422300000004469],[0.5188541666666666,-0.4685185185185185,4.439100000001488],[0.5301041666666667,-0.477962962962963,4.455700000002977],[0.5375,-0.4740740740740741,4.472400000005962],[0.5833333333333334,-0.5011111111111112,4.491500000000002],[0.6240624999999999,-0.5448148148148148,4.5057000000029745],[0.6327083333333334,-0.5612962962962963,4.523400000005964],[0.6291666666666667,-0.5577777777777777,4.5401000000014875],[0.6098958333333333,-0.5488888888888889,4.555700000002972],[0.5848958333333333,-0.5342592592592592,4.577400000005952],[0.5794791666666667,-0.5525925925925925,4.592600000001482],[0.5599999999999999,-0.5570370370370371,4.607600000001483],[0.5414583333333333,-0.5468518518518519,4.622500000000002],[0.5267708333333334,-0.55,4.643200000002977],[0.5186458333333335,-0.5599999999999999,4.657900000005952],[0.5109375,-0.5618518518518518,4.674100000001488],[0.5201041666666666,-0.5690740740740741,4.693700000002977],[0.529375,-0.571111111111111,4.709300000004461],[0.5295833333333334,-0.5803703703703703,4.727000000000004],[0.5294791666666666,-0.5888888888888889,4.742200000002981],[0.5193749999999999,-0.5761111111111111,4.758200000002972],[0.5184375,-0.5746296296296296,4.777200000002978],[0.5184375,-0.5746296296296296,4.789100000001483],[0.553125,-0.5929629629629629,4.805700000002972],[0.5551041666666667,-0.5805555555555556,4.8244000000059515],[0.5474999999999999,-0.5716666666666667,4.841400000005962],[0.5474999999999999,-0.5716666666666667,4.855700000002983],[0.5445833333333333,-0.5542592592592592,4.872400000005953],[0.5101041666666667,-0.525,4.896800000004461]]","[0.0003000000044650619,0.0519999999999996,0.05570000000297881,0.07249999999999801,0.08899999999999864,0.10570000000297597,0.12240000000596041,0.13910000000148415,0.15790000000595938,0.17249999999999943,0.19370000000297694,0.2079999999999984,0.22730000000446893,0.2416000000014904,0.25580000000447,0.27249999999999375,0.28910000000148983,0.30580000000446717,0.32610000000148887,0.339100000001487,0.3558000000044643,0.3726000000014906,0.3962000000029775,0.40570000000298023,0.42240000000595757,0.44160000000148614,0.45580000000446574,0.4724000000059547,0.4924999999999997,0.50580000000447,0.522400000005959,0.5391000000014898,0.5557000000029788,0.5758000000044703,0.589100000001487,0.6058000000044643,0.6224000000059604,0.6433000000044657,0.6584999999999965,0.6727000000029761,0.6922000000029769,0.7089000000059542,0.7294999999999945,0.739200000002981,0.7559000000059584,0.7724999999999937,0.7914000000059573,0.8109999999999999,0.8259000000059586,0.8454999999999941,0.855700000002976,0.8729000000059557,0.8972000000029752,0.9058000000044686,0.9226000000014878,0.9408000000044652,0.955999999999996,0.9724000000059547,0.9926000000014881,1.0093000000044654,1.02470000000298,1.0414000000059573,1.061,1.076800000004468,1.0926000000014895,1.1069000000059575,1.122300000004465,1.1441000000014867,1.158999999999999,1.173700000002981,1.1922000000029769,1.2089000000059542,1.2277000000029759,1.2441000000014881,1.2598000000044678,1.2761000000014846,1.291700000002976,1.312100000001486,1.3224000000059561,1.3393000000044708,1.355700000002983,1.3725000000000023,1.3943000000044634,1.4087000000029803,1.4224999999999994,1.4423000000044652,1.4569000000059589,1.4727000000029733,1.4924999999999926,1.5057000000029745,1.5223000000044635,1.5412000000029735,1.556200000002974,1.5796000000014914,1.5936000000014872,1.6092000000029714,1.6228000000044744,1.639300000004468,1.6603000000044688,1.6772000000029834,1.6923000000044652,1.7062000000029798,1.7224000000059618,1.7412000000029764,1.7557000000029745,1.7763000000044684,1.7919000000059526,1.8108000000044626,1.8248000000044726,1.8389999999999986,1.855700000002983,1.8724000000059533,1.893400000005954,1.9077000000029756,1.9224999999999994,1.9392000000029839,1.9557000000029774,1.9724999999999966,1.9916000000014833,2.0057000000029745,2.025400000005959,2.0390000000000015,2.0557000000029717,2.0754000000059563,2.089100000001494,2.105700000002983,2.1224000000059533,2.1392000000029725,2.157499999999999,2.1726000000014807,2.190400000005951,2.2057000000029774,2.222400000005962,2.240300000004467,2.2557000000029745,2.276800000004471,2.2914000000059644,2.305800000004467,2.3245000000000005,2.3389999999999986,2.3584000000059575,2.3725000000000023,2.3891000000014913,2.407800000004471,2.422300000004469,2.4421000000014885,2.458200000002975,2.478999999999999,2.4891000000014856,2.50580000000447,2.5223000000044635,2.5391000000014827,2.5557000000029717,2.5778000000044727,2.589100000001494,2.6058000000044643,2.6224000000059533,2.6391000000014913,2.6573000000044686,2.6724999999999994,2.691200000002979,2.7057000000029774,2.7223000000044664,2.7402000000029716,2.7557000000029745,2.776200000002973,2.790999999999997,2.8057000000029717,2.8241000000014935,2.839100000001494,2.855700000002983,2.8724000000059533,2.8891000000014913,2.9079000000059523,2.9224000000059647,2.940400000005951,2.9557000000029774,2.9723000000044664,2.9919999999999902,3.0067000000029793,3.025499999999994,3.0412000000029735,3.0557000000029717,3.0771000000014936,3.092500000000001,3.1101000000014807,3.1251000000014812,3.143500000000003,3.1606000000014944,3.1726000000014807,3.189200000002984,3.207300000004466,3.227700000002983,3.239200000002981,3.2560000000000002,3.2772000000029777,3.2922000000029783,3.3103000000044744,3.3286000000014866,3.3392000000029753,3.3559999999999945,3.3728000000044744,3.3944999999999936,3.4085000000000036,3.422700000002976,3.443700000002977,3.458800000004473,3.472600000001492,3.4893000000044623,3.507900000005961,3.52470000000298,3.540900000005962,3.5612000000029838,3.5726000000014864,3.589300000004471,3.609800000004469,3.624900000005951,3.639300000004468,3.6559999999999917,3.676100000001483,3.692200000002984,3.706900000005959,3.7274000000059573,3.7423000000044624,3.756999999999991,3.775499999999994,3.789200000002978,3.8089000000059627,3.8271000000014936,3.8428000000044733,3.8577000000029784,3.8726000000014835,3.8924000000059635,3.9085000000000036,3.9224999999999994,3.9391000000014884,3.9557000000029774,3.972400000005962,3.9921000000014857,4.00580000000447,4.0223000000044635,4.039300000004474,4.055700000002972,4.075700000002982,4.091100000001489,4.107700000002978,4.122400000005953,4.139100000001491,4.157900000005952,4.173900000005958,4.191999999999993,4.206300000004461,4.222300000004466,4.241200000002976,4.256700000002979,4.276600000001494,4.292200000002978,4.310700000002981,4.326100000001489,4.341400000005962,4.355600000001488,4.372400000005953,4.394200000002982,4.408999999999992,4.422300000004469,4.439100000001488,4.455700000002977,4.472400000005962,4.491500000000002,4.5057000000029745,4.523400000005964,4.5401000000014875,4.555700000002972,4.577400000005952,4.592600000001482,4.607600000001483,4.622500000000002,4.643200000002977,4.657900000005952,4.674100000001488,4.693700000002977,4.709300000004461,4.727000000000004,4.742200000002981,4.758200000002972,4.777200000002978,4.789100000001483,4.805700000002972,4.8244000000059515,4.841400000005962,4.855700000002983,4.872400000005953,4.896800000004461]","[1732591614321,1732591614363,1732591614366,1732591614383,1732591614400,1732591614416,1732591614433,1732591614450,1732591614469,1732591614483,1732591614504,1732591614519,1732591614538,1732591614552,1732591614566,1732591614583,1732591614600,1732591614616,1732591614637,1732591614650,1732591614667,1732591614683,1732591614707,1732591614716,1732591614733,1732591614752,1732591614766,1732591614783,1732591614803,1732591614816,1732591614833,1732591614850,1732591614866,1732591614886,1732591614900,1732591614916,1732591614933,1732591614954,1732591614969,1732591614983,1732591615003,1732591615020,1732591615040,1732591615050,1732591615067,1732591615083,1732591615102,1732591615122,1732591615137,1732591615156,1732591615166,1732591615184,1732591615208,1732591615217,1732591615233,1732591615251,1732591615267,1732591615283,1732591615303,1732591615320,1732591615335,1732591615352,1732591615372,1732591615388,1732591615403,1732591615418,1732591615433,1732591615455,1732591615470,1732591615484,1732591615503,1732591615520,1732591615538,1732591615555,1732591615570,1732591615587,1732591615602,1732591615623,1732591615633,1732591615650,1732591615666,1732591615683,1732591615705,1732591615719,1732591615733,1732591615753,1732591615768,1732591615783,1732591615803,1732591615816,1732591615833,1732591615852,1732591615867,1732591615890,1732591615904,1732591615920,1732591615933,1732591615950,1732591615971,1732591615988,1732591616003,1732591616017,1732591616033,1732591616052,1732591616066,1732591616087,1732591616103,1732591616121,1732591616135,1732591616150,1732591616166,1732591616183,1732591616204,1732591616218,1732591616233,1732591616250,1732591616266,1732591616283,1732591616302,1732591616316,1732591616336,1732591616350,1732591616366,1732591616386,1732591616400,1732591616416,1732591616433,1732591616450,1732591616468,1732591616483,1732591616501,1732591616516,1732591616533,1732591616551,1732591616566,1732591616588,1732591616602,1732591616617,1732591616635,1732591616650,1732591616669,1732591616683,1732591616700,1732591616718,1732591616733,1732591616753,1732591616769,1732591616790,1732591616800,1732591616816,1732591616833,1732591616850,1732591616866,1732591616889,1732591616900,1732591616916,1732591616933,1732591616950,1732591616968,1732591616983,1732591617002,1732591617016,1732591617033,1732591617051,1732591617066,1732591617087,1732591617102,1732591617116,1732591617135,1732591617150,1732591617166,1732591617183,1732591617200,1732591617218,1732591617233,1732591617251,1732591617266,1732591617283,1732591617303,1732591617317,1732591617336,1732591617352,1732591617366,1732591617388,1732591617403,1732591617421,1732591617436,1732591617454,1732591617471,1732591617483,1732591617500,1732591617518,1732591617538,1732591617550,1732591617567,1732591617588,1732591617603,1732591617621,1732591617639,1732591617650,1732591617667,1732591617683,1732591617705,1732591617719,1732591617733,1732591617754,1732591617769,1732591617783,1732591617800,1732591617819,1732591617835,1732591617852,1732591617872,1732591617883,1732591617900,1732591617920,1732591617936,1732591617950,1732591617967,1732591617987,1732591618003,1732591618018,1732591618038,1732591618053,1732591618068,1732591618086,1732591618100,1732591618120,1732591618138,1732591618153,1732591618168,1732591618183,1732591618203,1732591618219,1732591618233,1732591618250,1732591618266,1732591618283,1732591618303,1732591618316,1732591618333,1732591618350,1732591618366,1732591618386,1732591618402,1732591618418,1732591618433,1732591618450,1732591618469,1732591618485,1732591618503,1732591618517,1732591618533,1732591618552,1732591618567,1732591618587,1732591618603,1732591618621,1732591618637,1732591618652,1732591618666,1732591618683,1732591618705,1732591618720,1732591618733,1732591618750,1732591618766,1732591618783,1732591618802,1732591618816,1732591618834,1732591618851,1732591618866,1732591618888,1732591618903,1732591618918,1732591618933,1732591618954,1732591618969,1732591618985,1732591619004,1732591619020,1732591619038,1732591619053,1732591619069,1732591619088,1732591619100,1732591619116,1732591619135,1732591619152,1732591619166,1732591619183,1732591619207]","[[730.5,651.6],[730.5,651.6],[730.5,651.6],[766.9,647.9],[766.9,647.9],[800.8,613.5],[803.7,594.9],[816.9,580.7],[818.5,566.8],[836.3,536.5],[812.8,525.6],[824.4,532.8],[780.6,554.3],[734.6,591.6],[702.7,602.1],[702.7,602.1],[688.5,625.7],[675.1,623.4],[632.4,658.1],[632.4,658.1],[650.8,662.5],[657.1,673.8],[672.8,682.4],[672.8,682.4],[667.7,657],[709.7,643.7],[750.1,618.8],[782.7,589.3],[794.3,560.4],[794.3,560.4],[808.3,562.6],[868.2,524],[867,515.7],[877.9,500.5],[877.9,500.5],[896.1,491.8],[921.6,483.1],[935.7,461],[945.5,468.5],[968.3,485.4],[962.9,507.6],[952.3,519.2],[942.3,522.5],[942.3,522.5],[920.8,545.6],[920.8,545.6],[879,569.9],[863.7,578.4],[859.7,612.3],[823.4,649.5],[823.4,649.5],[794.6,663.3],[765.9,673.4],[765.9,673.4],[762.6,696.7],[767.1,707],[754.9,732.3],[754.2,737.8],[764.6,743.4],[751.2,756],[731.6,772],[735.5,774.9],[722.4,776.6],[720.8,788.7],[730.5,751.7],[747.7,740.8],[748.8,715.3],[749.9,689.8],[779.3,655.9],[808.8,622.3],[823.7,595.1],[829.6,575.7],[845.2,563.8],[845.8,523.7],[839.9,537.9],[817.5,524.2],[811.2,525.1],[822.1,528.3],[822.1,528.3],[800.4,541],[777.9,561.4],[748.4,566.2],[742.1,564.8],[735.5,560.2],[739.7,571.9],[739.5,560.7],[731.3,565.8],[723.1,570.9],[696.9,576],[696.9,576],[684.4,581.5],[686.4,574.2],[703,582.2],[703,582.2],[706.4,600.6],[706.5,618.7],[705,631.4],[705.9,643.3],[720.5,660.2],[735.6,664.5],[755.2,669.1],[740.4,685],[737.3,687.1],[730.5,686.8],[731.5,684.3],[736.7,680.3],[734.2,686.5],[729.4,690.5],[717.5,678.2],[717.5,678.2],[705.1,678.5],[683.4,688.3],[695.6,673.2],[679.1,680.3],[662.5,686.6],[662.5,686.6],[645.9,692.9],[640.2,690.8],[627.6,693.5],[623.1,687.5],[622.8,693.6],[616.2,708.2],[614.5,702.5],[621.4,704.1],[621.4,704.1],[631.6,702.4],[633.5,693.6],[635,689.8],[625.6,694.4],[627.3,690.2],[623.4,693.5],[620.7,692],[627.2,683.5],[631.9,691.4],[629.6,694.9],[626.7,696.8],[626.6,701.5],[625.6,698],[625.9,695],[620.9,699],[624.4,695.4],[626.7,701.7],[626.3,698.2],[630.9,686.2],[634.2,682.1],[638.1,679.6],[642.5,675.9],[651.1,675.9],[651.1,675.9],[658.4,675.4],[658.4,675.4],[666.5,661.2],[665.4,663.2],[665.5,655.3],[665.5,655.3],[667.7,655.2],[670.7,654.4],[679.4,658.4],[688,658.2],[691.5,650],[697.2,639.6],[701.6,630.7],[711.8,631.7],[722.5,627.5],[720.8,618.2],[715.2,599.5],[699.4,594.2],[683.8,575.6],[660.2,573.3],[656.4,569.2],[647.3,562.2],[648.7,554.8],[648.8,544.2],[641.3,529.9],[646.2,520.7],[653.2,521.3],[667.1,509.5],[675.1,506.2],[689.3,496.5],[688.9,491.8],[694.5,501.6],[693.5,505.2],[681,501.2],[676.1,500.9],[670.8,506.9],[665,513],[677.7,526.3],[690.4,539.6],[707.6,537.7],[707.6,537.7],[716.1,553.1],[718.8,558.6],[719.8,578.3],[719.8,578.3],[737.1,600.5],[776.8,610.8],[829.5,613.1],[864.2,599.6],[883.9,600.7],[883.9,600.7],[898.2,583],[909.9,574.8],[936.8,531.3],[993.8,503.7],[1024.2,495],[1044.5,490.8],[1061.6,477.4],[1061.6,477.4],[1066.1,465.7],[1088.9,476.2],[1108.6,454.1],[1139.2,449.9],[1156.1,452.4],[1156.1,452.4],[1191.7,462.6],[1149.4,470.8],[1202.2,435.1],[1202.2,435.1],[1272.8,390.4],[1302.4,376.5],[1331,360.9],[1359.8,347.6],[1388.2,345.1],[1409.9,332],[1445.3,312.2],[1445.3,312.2],[1458.2,303.6],[1518.4,282],[1510.8,273.8],[1490,276],[1488.8,277.5],[1496.4,279.6],[1498.7,270.7],[1493.2,258.8],[1490,258.3],[1490,258.3],[1486.8,257.8],[1481.1,265.4],[1487.2,287.4],[1487.2,287.4],[1492.7,292.2],[1492.8,292.3],[1490.9,288.5],[1473.5,289.3],[1455.2,294.5],[1465.3,301],[1474.3,307.6],[1471.1,312],[1468.1,310.5],[1453.8,293.7],[1440.1,306.4],[1434.3,328.6],[1444,325.1],[1459.7,325.3],[1474,318.4],[1467.7,313.2],[1430,323.6],[1404.5,336.2],[1408.3,334.3],[1411.5,332.8],[1411.5,332.8],[1428.2,318.6],[1448.5,294.6],[1450.1,295.1],[1450.1,295.1],[1458.1,287],[1468.9,281.9],[1476,284],[1520,269.4],[1559.1,245.8],[1567.4,236.9],[1564,238.8],[1545.5,243.6],[1521.5,251.5],[1516.3,241.6],[1497.6,239.2],[1479.8,244.7],[1465.7,243],[1457.9,237.6],[1450.5,236.6],[1459.3,232.7],[1468.2,231.6],[1468.4,226.6],[1468.3,222],[1458.6,228.9],[1457.7,229.7],[1457.7,229.7],[1491,219.8],[1492.9,226.5],[1485.6,231.3],[1485.6,231.3],[1482.8,240.7],[1449.7,256.5]]","[-0.2,0.6000000000000001]","[0.2,0.6000000000000001]","[0.6000000000000001,0.6000000000000001]","[-0.6000000000000001,0.2]","[-0.6000000000000001,-0.6000000000000001]","[-0.6000000000000001,-0.2]","[-0.2,0.2]","[0.2,0.2]","[0.6000000000000001,0.2]","[-0.2,-0.6000000000000001]","[0.2,-0.6000000000000001]","[0.6000000000000001,-0.6000000000000001]","[-0.2,-0.2]","[0.2,-0.2]","[0.6000000000000001,-0.2]",0,0,0,0,1,2,Monitor,15,20,8,3,70,4,3,60,4
