inst1_resp.keys,inst1_resp.rt,calibrationMouse.x,calibrationMouse.y,calibrationMouse.leftButton,calibrationMouse.midButton,calibrationMouse.rightButton,calibrationClick.x,calibrationClick.y,calibrationClick.leftButton,calibrationClick.midButton,calibrationClick.rightButton,calibrationClick.clicked_name,trialsc.thisRepN,trialsc.thisTrialN,trialsc.thisN,trialsc.thisIndex,trialsc.ran,calibration_x,calibration_y,participant,session,date,expName,psychopyVersion,OS,frameRate,ScreenRes_pixels,Camera_pixels,mouse_2.x,mouse_2.y,mouse_2.leftButton,mouse_2.midButton,mouse_2.rightButton,mouse_2.time,mouse_2.clicked_name,mouse.x,mouse.y,mouse.leftButton,mouse.midButton,mouse.rightButton,mouse.time,mouse.clicked_name,Choice,Trial,TrialDuration,MOUSE_GAZE,ET_GAZE,ET_GAZE_x_T,time,unixTime,ET_GAZE_NF,Loc_Bus_label,Loc_Metro_label,Loc_RH_label,Loc_Cost_label,Loc_Travel_label,Loc_Comfort_label,Loc_Bus_cost,Loc_Metro_cost,Loc_RH_cost,Loc_Bus_travel,Loc_Metro_travel,Loc_RH_travel,Loc_Bus_comfort,Loc_Metro_comfort,Loc_RH_comfort,trials.thisRepN,trials.thisTrialN,trials.thisN,trials.thisIndex,trials.ran,Block,Device,RH_cost,RH_travel_time,RH_Comfort,metro_cost,metro_travel_time,metro_Comfort,Bus_cost,Bus_travel_time,Bus_Comfort
space,1.8473,0.120833333,-0.098148148,1,0,0,0.009375,-0.67962963,1,0,0,calibration_square,0,0,0,9,1,0,-0.67,46,001,2024-11-27_12h59.02.143,Attention_exp_legacy,2023.1.0,Win32,59.88023952,,,,,,,,,,,,,,,,,,,,,,,,,,,,,,,,,,,,,,,,,,,,,,,,,,,,,,,,
,,,,,,,-0.329166667,-0.014814815,1,0,0,,0,1,1,6,1,-0.33,0,46,001,2024-11-27_12h59.02.143,Attention_exp_legacy,2023.1.0,Win32,59.88023952,,,,,,,,,,,,,,,,,,,,,,,,,,,,,,,,,,,,,,,,,,,,,,,,,,,,,,,,
,,,,,,,0.338541667,0.027777778,1,0,0,,0,2,2,16,1,0.33,0,46,001,2024-11-27_12h59.02.143,Attention_exp_legacy,2023.1.0,Win32,59.88023952,,,,,,,,,,,,,,,,,,,,,,,,,,,,,,,,,,,,,,,,,,,,,,,,,,,,,,,,
,,,,,,,0.321875,-0.318518519,1,0,0,,0,3,3,15,1,0.33,-0.33,46,001,2024-11-27_12h59.02.143,Attention_exp_legacy,2023.1.0,Win32,59.88023952,,,,,,,,,,,,,,,,,,,,,,,,,,,,,,,,,,,,,,,,,,,,,,,,,,,,,,,,
,,,,,,,-0.657291667,0.346296296,1,0,0,,0,4,4,3,1,-0.67,0.33,46,001,2024-11-27_12h59.02.143,Attention_exp_legacy,2023.1.0,Win32,59.88023952,,,,,,,,,,,,,,,,,,,,,,,,,,,,,,,,,,,,,,,,,,,,,,,,,,,,,,,,
,,,,,,,-0.316666667,-0.322222222,1,0,0,,0,5,5,5,1,-0.33,-0.33,46,001,2024-11-27_12h59.02.143,Attention_exp_legacy,2023.1.0,Win32,59.88023952,,,,,,,,,,,,,,,,,,,,,,,,,,,,,,,,,,,,,,,,,,,,,,,,,,,,,,,,
,,,,,,,-0.370833333,-0.681481481,1,0,0,,0,6,6,4,1,-0.33,-0.67,46,001,2024-11-27_12h59.02.143,Attention_exp_legacy,2023.1.0,Win32,59.88023952,,,,,,,,,,,,,,,,,,,,,,,,,,,,,,,,,,,,,,,,,,,,,,,,,,,,,,,,
,,,,,,,-0.692708333,-0.02037037,1,0,0,,0,7,7,2,1,-0.67,0,46,001,2024-11-27_12h59.02.143,Attention_exp_legacy,2023.1.0,Win32,59.88023952,,,,,,,,,,,,,,,,,,,,,,,,,,,,,,,,,,,,,,,,,,,,,,,,,,,,,,,,
,,,,,,,-0.329166667,0.675925926,1,0,0,calibration_square,0,8,8,8,1,-0.33,0.67,46,001,2024-11-27_12h59.02.143,Attention_exp_legacy,2023.1.0,Win32,59.88023952,,,,,,,,,,,,,,,,,,,,,,,,,,,,,,,,,,,,,,,,,,,,,,,,,,,,,,,,
,,,,,,,-0.002083333,-0.322222222,1,0,0,calibration_square,0,9,9,10,1,0,-0.33,46,001,2024-11-27_12h59.02.143,Attention_exp_legacy,2023.1.0,Win32,59.88023952,,,,,,,,,,,,,,,,,,,,,,,,,,,,,,,,,,,,,,,,,,,,,,,,,,,,,,,,
,,,,,,,-0.655208333,-0.312962963,1,0,0,,0,10,10,1,1,-0.67,-0.33,46,001,2024-11-27_12h59.02.143,Attention_exp_legacy,2023.1.0,Win32,59.88023952,,,,,,,,,,,,,,,,,,,,,,,,,,,,,,,,,,,,,,,,,,,,,,,,,,,,,,,,
,,,,,,,0.661458333,0.661111111,1,0,0,calibration_square,0,11,11,19,1,0.67,0.67,46,001,2024-11-27_12h59.02.143,Attention_exp_legacy,2023.1.0,Win32,59.88023952,,,,,,,,,,,,,,,,,,,,,,,,,,,,,,,,,,,,,,,,,,,,,,,,,,,,,,,,
,,,,,,,-0.665625,-0.687037037,1,0,0,,0,12,12,0,1,-0.67,-0.67,46,001,2024-11-27_12h59.02.143,Attention_exp_legacy,2023.1.0,Win32,59.88023952,,,,,,,,,,,,,,,,,,,,,,,,,,,,,,,,,,,,,,,,,,,,,,,,,,,,,,,,
,,,,,,,0.3375,0.7,1,0,0,,0,13,13,18,1,0.33,0.67,46,001,2024-11-27_12h59.02.143,Attention_exp_legacy,2023.1.0,Win32,59.88023952,,,,,,,,,,,,,,,,,,,,,,,,,,,,,,,,,,,,,,,,,,,,,,,,,,,,,,,,
,,,,,,,0.007291667,0.687037037,1,0,0,,0,14,14,13,1,0,0.67,46,001,2024-11-27_12h59.02.143,Attention_exp_legacy,2023.1.0,Win32,59.88023952,,,,,,,,,,,,,,,,,,,,,,,,,,,,,,,,,,,,,,,,,,,,,,,,,,,,,,,,
,,,,,,,-0.3375,0.331481481,1,0,0,calibration_square,0,15,15,7,1,-0.33,0.33,46,001,2024-11-27_12h59.02.143,Attention_exp_legacy,2023.1.0,Win32,59.88023952,,,,,,,,,,,,,,,,,,,,,,,,,,,,,,,,,,,,,,,,,,,,,,,,,,,,,,,,
,,,,,,,0.659375,-0.62962963,1,0,0,,0,16,16,20,1,0.67,-0.67,46,001,2024-11-27_12h59.02.143,Attention_exp_legacy,2023.1.0,Win32,59.88023952,,,,,,,,,,,,,,,,,,,,,,,,,,,,,,,,,,,,,,,,,,,,,,,,,,,,,,,,
,,,,,,,0.023958333,0.037037037,1,0,0,,0,17,17,11,1,0,0,46,001,2024-11-27_12h59.02.143,Attention_exp_legacy,2023.1.0,Win32,59.88023952,,,,,,,,,,,,,,,,,,,,,,,,,,,,,,,,,,,,,,,,,,,,,,,,,,,,,,,,
,,,,,,,-0.002083333,0.312962963,1,0,0,,0,18,18,12,1,0,0.33,46,001,2024-11-27_12h59.02.143,Attention_exp_legacy,2023.1.0,Win32,59.88023952,,,,,,,,,,,,,,,,,,,,,,,,,,,,,,,,,,,,,,,,,,,,,,,,,,,,,,,,
,,,,,,,0.334375,-0.640740741,1,0,0,,0,19,19,14,1,0.33,-0.67,46,001,2024-11-27_12h59.02.143,Attention_exp_legacy,2023.1.0,Win32,59.88023952,,,,,,,,,,,,,,,,,,,,,,,,,,,,,,,,,,,,,,,,,,,,,,,,,,,,,,,,
,,,,,,,0.33125,0.314814815,1,0,0,,0,20,20,17,1,0.33,0.33,46,001,2024-11-27_12h59.02.143,Attention_exp_legacy,2023.1.0,Win32,59.88023952,,,,,,,,,,,,,,,,,,,,,,,,,,,,,,,,,,,,,,,,,,,,,,,,,,,,,,,,
,,,,,,,,,,,,,,,,,,,,46,001,2024-11-27_12h59.02.143,Attention_exp_legacy,2023.1.0,Win32,59.88023952,"[1920,1080]","[640,480]",[0.07395833333333333],[-0.5018518518518519],[1],[0],[0],[2.008600000023833],"[""StartButton""]","[0.42916666666666664,0.42083333333333334]","[0.2111111111111111,0.4185185185185185]","[1,1]","[0,0]","[0,0]","[5.567400000005961,6.262799999982121]","[""RH_label""]",RH_label,1,7.2754,"[[0.06041666666666667,0.046296296296296294],[0.06041666666666667,0.046296296296296294],[0.06041666666666667,0.046296296296296294],[0.06041666666666667,0.046296296296296294],[0.06041666666666667,0.046296296296296294],[0.06041666666666667,0.046296296296296294],[0.06041666666666667,0.046296296296296294],[0.06041666666666667,0.046296296296296294],[0.06041666666666667,0.046296296296296294],[0.06041666666666667,0.046296296296296294],[0.06041666666666667,0.046296296296296294],[0.06041666666666667,0.046296296296296294],[0.06041666666666667,0.046296296296296294],[0.06041666666666667,0.046296296296296294],[0.06041666666666667,0.046296296296296294],[0.06041666666666667,0.046296296296296294],[0.06041666666666667,0.046296296296296294],[0.06041666666666667,0.046296296296296294],[0.06041666666666667,0.046296296296296294],[0.06041666666666667,0.046296296296296294],[0.06041666666666667,0.046296296296296294],[0.06041666666666667,0.046296296296296294],[0.040625,0.04814814814814815],[0.028125,0.05185185185185185],[-0.03125,0.06666666666666667],[-0.046875,0.07592592592592592],[-0.08645833333333333,0.1],[-0.09270833333333334,0.10555555555555556],[-0.12916666666666668,0.13333333333333333],[-0.13958333333333334,0.1388888888888889],[-0.171875,0.1574074074074074],[-0.196875,0.1685185185185185],[-0.23333333333333334,0.17407407407407408],[-0.23333333333333334,0.17407407407407408],[-0.24166666666666667,0.17407407407407408],[-0.2552083333333333,0.17407407407407408],[-0.30104166666666665,0.17407407407407408],[-0.3125,0.17407407407407408],[-0.3489583333333333,0.16296296296296298],[-0.36875,0.15185185185185185],[-0.36875,0.15185185185185185],[-0.4083333333333333,0.13148148148148148],[-0.4166666666666667,0.12407407407407407],[-0.45208333333333334,0.1],[-0.4666666666666667,0.09074074074074075],[-0.5197916666666667,0.053703703703703705],[-0.53125,0.046296296296296294],[-0.5416666666666666,0.03888888888888889],[-0.5739583333333333,0.012962962962962963],[-0.5802083333333333,0.007407407407407408],[-0.59375,-0.012962962962962963],[-0.5958333333333333,-0.014814814814814815],[-0.596875,-0.025925925925925925],[-0.596875,-0.02962962962962963],[-0.5927083333333333,-0.03148148148148148],[-0.5875,-0.03333333333333333],[-0.58125,-0.03333333333333333],[-0.5802083333333333,-0.03333333333333333],[-0.5666666666666667,-0.03333333333333333],[-0.5583333333333333,-0.03333333333333333],[-0.5291666666666667,-0.03333333333333333],[-0.515625,-0.03333333333333333],[-0.47708333333333336,-0.03148148148148148],[-0.46458333333333335,-0.02962962962962963],[-0.428125,-0.018518518518518517],[-0.40729166666666666,-0.012962962962962963],[-0.39166666666666666,-0.009259259259259259],[-0.384375,-0.007407407407407408],[-0.36770833333333336,-0.001851851851851852],[-0.3645833333333333,-0.001851851851851852],[-0.359375,-0.001851851851851852],[-0.3572916666666667,-0.001851851851851852],[-0.35520833333333335,-0.001851851851851852],[-0.35520833333333335,-0.001851851851851852],[-0.353125,-0.001851851851851852],[-0.353125,-0.001851851851851852],[-0.353125,-0.001851851851851852],[-0.353125,-0.001851851851851852],[-0.353125,-0.001851851851851852],[-0.353125,-0.001851851851851852],[-0.353125,-0.001851851851851852],[-0.353125,-0.001851851851851852],[-0.353125,-0.001851851851851852],[-0.353125,-0.001851851851851852],[-0.353125,-0.001851851851851852],[-0.353125,-0.001851851851851852],[-0.353125,-0.001851851851851852],[-0.353125,-0.001851851851851852],[-0.353125,-0.001851851851851852],[-0.353125,-0.001851851851851852],[-0.353125,-0.001851851851851852],[-0.353125,-0.001851851851851852],[-0.353125,-0.001851851851851852],[-0.353125,-0.001851851851851852],[-0.353125,-0.001851851851851852],[-0.353125,-0.001851851851851852],[-0.353125,-0.001851851851851852],[-0.353125,-0.001851851851851852],[-0.353125,-0.001851851851851852],[-0.353125,-0.001851851851851852],[-0.353125,-0.001851851851851852],[-0.35208333333333336,-0.001851851851851852],[-0.34791666666666665,-0.001851851851851852],[-0.346875,0],[-0.34479166666666666,0],[-0.3416666666666667,0.003703703703703704],[-0.3416666666666667,0.003703703703703704],[-0.3416666666666667,0.003703703703703704],[-0.3416666666666667,0.003703703703703704],[-0.3416666666666667,0.003703703703703704],[-0.3416666666666667,0.003703703703703704],[-0.3416666666666667,0.003703703703703704],[-0.3416666666666667,0.003703703703703704],[-0.3416666666666667,0.003703703703703704],[-0.3416666666666667,0.003703703703703704],[-0.340625,0.003703703703703704],[-0.340625,0.003703703703703704],[-0.340625,0.003703703703703704],[-0.340625,0.003703703703703704],[-0.340625,0.003703703703703704],[-0.340625,0.003703703703703704],[-0.340625,0.003703703703703704],[-0.340625,0.003703703703703704],[-0.340625,0.003703703703703704],[-0.340625,0.003703703703703704],[-0.340625,0.003703703703703704],[-0.340625,0.003703703703703704],[-0.340625,0.003703703703703704],[-0.340625,0.003703703703703704],[-0.340625,0.003703703703703704],[-0.340625,0.003703703703703704],[-0.340625,0.003703703703703704],[-0.340625,0.003703703703703704],[-0.340625,0.003703703703703704],[-0.340625,0.003703703703703704],[-0.340625,0.003703703703703704],[-0.340625,0.003703703703703704],[-0.340625,0.003703703703703704],[-0.340625,0.003703703703703704],[-0.33958333333333335,0.005555555555555556],[-0.33541666666666664,0.007407407407407408],[-0.33541666666666664,0.007407407407407408],[-0.3020833333333333,0.012962962962962963],[-0.2916666666666667,0.020370370370370372],[-0.2916666666666667,0.020370370370370372],[-0.25416666666666665,0.024074074074074074],[-0.20729166666666668,0.03148148148148148],[-0.196875,0.03333333333333333],[-0.15520833333333334,0.04259259259259259],[-0.13958333333333334,0.044444444444444446],[-0.125,0.05],[-0.06770833333333333,0.06481481481481481],[0.051041666666666666,0.09074074074074075],[0.08645833333333333,0.09814814814814815],[0.1625,0.12037037037037036],[0.178125,0.12407407407407407],[0.21354166666666666,0.13333333333333333],[0.221875,0.1425925925925926],[0.24791666666666667,0.16296296296296298],[0.25729166666666664,0.17592592592592593],[0.2604166666666667,0.1814814814814815],[0.26145833333333335,0.18333333333333332],[0.26145833333333335,0.18518518518518517],[0.26145833333333335,0.18518518518518517],[0.26145833333333335,0.18518518518518517],[0.26145833333333335,0.18518518518518517],[0.26145833333333335,0.18518518518518517],[0.26145833333333335,0.18518518518518517],[0.26145833333333335,0.18518518518518517],[0.26145833333333335,0.18518518518518517],[0.26145833333333335,0.18518518518518517],[0.26145833333333335,0.18518518518518517],[0.2604166666666667,0.18518518518518517],[0.259375,0.18518518518518517],[0.259375,0.18518518518518517],[0.259375,0.18518518518518517],[0.25833333333333336,0.18518518518518517],[0.25729166666666664,0.18518518518518517],[0.24791666666666667,0.17777777777777778],[0.24166666666666667,0.17222222222222222],[0.21770833333333334,0.15555555555555556],[0.21041666666666667,0.15],[0.19791666666666666,0.1388888888888889],[0.19583333333333333,0.13518518518518519],[0.18958333333333333,0.12962962962962962],[0.1875,0.12962962962962962],[0.17916666666666667,0.12037037037037036],[0.17395833333333333,0.11481481481481481],[0.16354166666666667,0.1037037037037037],[0.15,0.09074074074074075],[0.13541666666666666,0.07777777777777778],[0.13229166666666667,0.07222222222222222],[0.12291666666666666,0.06481481481481481],[0.11770833333333333,0.05740740740740741],[0.09583333333333334,0.044444444444444446],[0.0875,0.040740740740740744],[0.06041666666666667,0.03333333333333333],[0.053125,0.03333333333333333],[0.0375,0.02962962962962963],[0.03333333333333333,0.02962962962962963],[0.026041666666666668,0.02962962962962963],[0.023958333333333335,0.03148148148148148],[0.019791666666666666,0.03518518518518519],[0.019791666666666666,0.03518518518518519],[0.019791666666666666,0.03888888888888889],[0.019791666666666666,0.040740740740740744],[0.021875,0.05185185185185185],[0.023958333333333335,0.05555555555555555],[0.035416666666666666,0.07037037037037037],[0.042708333333333334,0.07962962962962963],[0.059375,0.09259259259259259],[0.059375,0.09259259259259259],[0.06458333333333334,0.09814814814814815],[0.07916666666666666,0.10555555555555556],[0.12604166666666666,0.12037037037037036],[0.13333333333333333,0.12037037037037036],[0.15,0.12407407407407407],[0.15208333333333332,0.12407407407407407],[0.159375,0.12407407407407407],[0.1625,0.12407407407407407],[0.16458333333333333,0.12407407407407407],[0.16666666666666666,0.12222222222222222],[0.171875,0.11851851851851852],[0.171875,0.11851851851851852],[0.178125,0.11481481481481481],[0.17916666666666667,0.1111111111111111],[0.18333333333333332,0.1037037037037037],[0.184375,0.10185185185185185],[0.1875,0.09074074074074075],[0.18854166666666666,0.08518518518518518],[0.18958333333333333,0.07777777777777778],[0.19375,0.04814814814814815],[0.19791666666666666,0.03518518518518519],[0.19895833333333332,0],[0.20104166666666667,-0.011111111111111112],[0.20104166666666667,-0.024074074074074074],[0.20104166666666667,-0.040740740740740744],[0.2,-0.08888888888888889],[0.2,-0.08888888888888889],[0.19583333333333333,-0.12777777777777777],[0.19583333333333333,-0.13703703703703704],[0.19166666666666668,-0.1574074074074074],[0.190625,-0.15925925925925927],[0.1875,-0.17407407407407408],[0.184375,-0.18333333333333332],[0.18125,-0.19074074074074074],[0.17916666666666667,-0.19444444444444445],[0.17604166666666668,-0.2],[0.17395833333333333,-0.20185185185185187],[0.17291666666666666,-0.2037037037037037],[0.17291666666666666,-0.2037037037037037],[0.171875,-0.2037037037037037],[0.171875,-0.2037037037037037],[0.171875,-0.2037037037037037],[0.171875,-0.2037037037037037],[0.171875,-0.2037037037037037],[0.171875,-0.2037037037037037],[0.171875,-0.2037037037037037],[0.171875,-0.2037037037037037],[0.171875,-0.2037037037037037],[0.171875,-0.19814814814814816],[0.171875,-0.19074074074074074],[0.17395833333333333,-0.1648148148148148],[0.17395833333333333,-0.1537037037037037],[0.17395833333333333,-0.11481481481481481],[0.17395833333333333,-0.10555555555555556],[0.17395833333333333,-0.07037037037037037],[0.17395833333333333,-0.05555555555555555],[0.17395833333333333,-0.025925925925925925],[0.17395833333333333,-0.005555555555555556],[0.17395833333333333,0.005555555555555556],[0.17395833333333333,0.011111111111111112],[0.171875,0.03333333333333333],[0.171875,0.03888888888888889],[0.16979166666666667,0.05185185185185185],[0.16979166666666667,0.05555555555555555],[0.16875,0.06851851851851852],[0.16875,0.07222222222222222],[0.16875,0.08148148148148149],[0.16770833333333332,0.08703703703703704],[0.16666666666666666,0.09259259259259259],[0.16666666666666666,0.09814814814814815],[0.16666666666666666,0.1],[0.16666666666666666,0.1],[0.16666666666666666,0.10555555555555556],[0.16666666666666666,0.10740740740740741],[0.16666666666666666,0.10925925925925926],[0.16666666666666666,0.1111111111111111],[0.17916666666666667,0.11666666666666667],[0.19583333333333333,0.12407407407407407],[0.2125,0.12777777777777777],[0.221875,0.12962962962962962],[0.24270833333333333,0.13518518518518519],[0.259375,0.13518518518518519],[0.2791666666666667,0.1388888888888889],[0.321875,0.14814814814814814],[0.34270833333333334,0.1537037037037037],[0.39375,0.1648148148148148],[0.5364583333333334,0.17962962962962964],[0.5645833333333333,0.17962962962962964],[0.5916666666666667,0.17962962962962964],[0.59375,0.17962962962962964],[0.59375,0.17962962962962964],[0.59375,0.17962962962962964],[0.59375,0.17962962962962964],[0.59375,0.17962962962962964],[0.59375,0.17962962962962964],[0.59375,0.17962962962962964],[0.5927083333333333,0.17962962962962964],[0.5739583333333333,0.18703703703703703],[0.559375,0.19444444444444445],[0.5395833333333333,0.2037037037037037],[0.5229166666666667,0.20555555555555555],[0.5041666666666667,0.20925925925925926],[0.48333333333333334,0.21666666666666667],[0.4708333333333333,0.21666666666666667],[0.459375,0.21666666666666667],[0.45208333333333334,0.21666666666666667],[0.446875,0.21666666666666667],[0.44166666666666665,0.21666666666666667],[0.4375,0.21666666666666667],[0.4322916666666667,0.21481481481481482],[0.4322916666666667,0.21296296296296297],[0.43020833333333336,0.21296296296296297],[0.43020833333333336,0.21296296296296297],[0.42916666666666664,0.2111111111111111],[0.42916666666666664,0.2111111111111111],[0.42916666666666664,0.2111111111111111],[0.42916666666666664,0.2111111111111111],[0.42916666666666664,0.2111111111111111],[0.42916666666666664,0.2111111111111111],[0.42916666666666664,0.2111111111111111],[0.42916666666666664,0.2111111111111111],[0.42916666666666664,0.2111111111111111],[0.42916666666666664,0.2111111111111111],[0.42916666666666664,0.2111111111111111],[0.42916666666666664,0.2111111111111111],[0.42916666666666664,0.2111111111111111],[0.42916666666666664,0.2111111111111111],[0.42916666666666664,0.2111111111111111],[0.42916666666666664,0.2111111111111111],[0.42916666666666664,0.2111111111111111],[0.42916666666666664,0.2111111111111111],[0.42916666666666664,0.2111111111111111],[0.42916666666666664,0.2111111111111111],[0.42916666666666664,0.2111111111111111],[0.42916666666666664,0.2111111111111111],[0.42916666666666664,0.2111111111111111],[0.42916666666666664,0.2111111111111111],[0.42916666666666664,0.2111111111111111],[0.42916666666666664,0.20185185185185187],[0.434375,0.19074074074074074],[0.440625,0.1814814814814815],[0.453125,0.1574074074074074],[0.4552083333333333,0.1537037037037037],[0.459375,0.14629629629629629],[0.4625,0.13703703703703704],[0.4625,0.13703703703703704],[0.4635416666666667,0.13333333333333333],[0.46458333333333335,0.13148148148148148],[0.46458333333333335,0.13148148148148148],[0.46458333333333335,0.13148148148148148],[0.46458333333333335,0.13148148148148148],[0.4635416666666667,0.16666666666666666],[0.4552083333333333,0.22037037037037038],[0.43854166666666666,0.3074074074074074],[0.43020833333333336,0.3351851851851852],[0.425,0.37407407407407406],[0.421875,0.4074074074074074],[0.42083333333333334,0.4148148148148148],[0.42083333333333334,0.4166666666666667],[0.42083333333333334,0.4185185185185185],[0.42083333333333334,0.4185185185185185],[0.42083333333333334,0.4185185185185185],[0.42083333333333334,0.4185185185185185],[0.42083333333333334,0.4185185185185185],[0.42083333333333334,0.4185185185185185],[0.42083333333333334,0.4185185185185185],[0.42083333333333334,0.4185185185185185],[0.42083333333333334,0.4185185185185185],[0.42083333333333334,0.4185185185185185],[0.42083333333333334,0.4185185185185185],[0.42083333333333334,0.4185185185185185],[0.42083333333333334,0.4185185185185185],[0.42083333333333334,0.4185185185185185],[0.42083333333333334,0.4185185185185185],[0.42083333333333334,0.4185185185185185],[0.42083333333333334,0.4185185185185185],[0.42083333333333334,0.4185185185185185],[0.42083333333333334,0.4185185185185185],[0.42083333333333334,0.4185185185185185],[0.42083333333333334,0.4185185185185185],[0.41770833333333335,0.4074074074074074],[0.41354166666666664,0.38333333333333336],[0.409375,0.3537037037037037],[0.40208333333333335,0.3148148148148148],[0.3854166666666667,0.2537037037037037],[0.36875,0.20185185185185187],[0.35104166666666664,0.14444444444444443],[0.334375,0.08703703703703704],[0.3072916666666667,0.018518518518518517],[0.284375,-0.03333333333333333],[0.25729166666666664,-0.08888888888888889],[0.23333333333333334,-0.1388888888888889],[0.20416666666666666,-0.19074074074074074],[0.16666666666666666,-0.2388888888888889],[0.11875,-0.2796296296296296],[0.09166666666666666,-0.29444444444444445],[0.06979166666666667,-0.3037037037037037],[0.05,-0.3148148148148148],[0.028125,-0.32037037037037036],[0.0020833333333333333,-0.32592592592592595],[-0.022916666666666665,-0.3333333333333333],[-0.04375,-0.337037037037037],[-0.059375,-0.337037037037037],[-0.06770833333333333,-0.337037037037037],[-0.07708333333333334,-0.3277777777777778],[-0.07708333333333334,-0.32592592592592595],[-0.078125,-0.32037037037037036],[-0.07604166666666666,-0.3037037037037037],[-0.065625,-0.2740740740740741],[-0.052083333333333336,-0.24444444444444444],[-0.034375,-0.21296296296296297],[-0.01875,-0.1814814814814815],[0.0020833333333333333,-0.1537037037037037],[0.03333333333333333,-0.11481481481481481],[0.06458333333333334,-0.07592592592592592],[0.096875,-0.037037037037037035],[0.14270833333333333,0.007407407407407408],[0.15416666666666667,0.018518518518518517],[0.17291666666666666,0.03333333333333333],[0.19375,0.046296296296296294],[0.209375,0.06111111111111111],[0.22083333333333333,0.07037037037037037],[0.23229166666666667,0.07777777777777778]]","[[0.16885416666666658,-0.041666666666666664],[0.16885416666666658,-0.041666666666666664],[0.17156250000000003,-0.027777777777777776],[0.17156250000000003,-0.027777777777777776],[0.1709374999999999,-0.02370370370370362],[0.1709374999999999,-0.02370370370370362],[0.18020833333333333,-0.026851851851851852],[0.18020833333333333,-0.026851851851851852],[0.16177083333333328,-0.02092592592592584],[0.16177083333333328,-0.02092592592592584],[0.14770833333333327,-0.0022222222222223064],[0.14770833333333327,-0.0022222222222223064],[0.1388541666666666,0.0014814814814813973],[0.1388541666666666,0.0014814814814813973],[0.09614583333333329,0.009259259259259259],[0.09614583333333329,0.009259259259259259],[0.10197916666666676,0.030555555555555555],[0.10197916666666676,0.030555555555555555],[0.09208333333333343,0.031111111111111027],[0.09208333333333343,0.031111111111111027],[0.09208333333333343,0.031111111111111027],[0.09208333333333343,0.031111111111111027],[0.06302083333333333,0.030740740740740784],[0.06302083333333333,0.030740740740740784],[0.04791666666666667,0.010185185185185186],[0.04791666666666667,0.010185185185185186],[0.04093749999999995,0.003333333333333249],[0.04093749999999995,0.003333333333333249],[0.014374999999999952,-0.0294444444444444],[0.014374999999999952,-0.0294444444444444],[0.026041666666666668,-0.04944444444444453],[0.026041666666666668,-0.04944444444444453],[-0.041875000000000044,-0.07999999999999997],[-0.041875000000000044,-0.07999999999999997],[-0.041875000000000044,-0.07999999999999997],[-0.041875000000000044,-0.07999999999999997],[-0.11531250000000005,-0.0883333333333333],[-0.11531250000000005,-0.0883333333333333],[-0.14020833333333335,-0.09833333333333337],[-0.14020833333333335,-0.09833333333333337],[-0.14020833333333335,-0.09833333333333337],[-0.21489583333333329,-0.13759259259259263],[-0.21489583333333329,-0.13759259259259263],[-0.2585416666666667,-0.17759259259259255],[-0.2585416666666667,-0.17759259259259255],[-0.28406250000000005,-0.19166666666666668],[-0.28406250000000005,-0.19166666666666668],[-0.28406250000000005,-0.19166666666666668],[-0.30229166666666674,-0.17777777777777778],[-0.30229166666666674,-0.17777777777777778],[-0.3692708333333333,-0.16777777777777783],[-0.3692708333333333,-0.16777777777777783],[-0.27156250000000004,-0.050370370370370454],[-0.27156250000000004,-0.050370370370370454],[-0.4077083333333333,-0.14370370370370375],[-0.4077083333333333,-0.14370370370370375],[-0.4058333333333334,-0.15907407407407403],[-0.4058333333333334,-0.15907407407407403],[-0.35218750000000004,-0.125],[-0.35218750000000004,-0.125],[-0.2513541666666666,-0.0955555555555556],[-0.2513541666666666,-0.0955555555555556],[-0.2251041666666667,-0.06388888888888888],[-0.2251041666666667,-0.06388888888888888],[-0.23104166666666662,-0.04759259259259268],[-0.23104166666666662,-0.04759259259259268],[-0.18354166666666671,-0.008148148148148106],[-0.18354166666666671,-0.008148148148148106],[-0.21499999999999997,-0.0007407407407406986],[-0.21499999999999997,-0.0007407407407406986],[-0.12000000000000005,-0.016666666666666666],[-0.12000000000000005,-0.016666666666666666],[-0.17229166666666665,-0.10999999999999996],[-0.17229166666666665,-0.10999999999999996],[-0.027604166666666666,-0.008148148148148106],[-0.027604166666666666,-0.008148148148148106],[0.005624999999999976,0.0031481481481482323],[0.005624999999999976,0.0031481481481482323],[-0.009791666666666643,-0.00851851851851856],[-0.009791666666666643,-0.00851851851851856],[-0.11031249999999998,-0.014074074074074116],[-0.11031249999999998,-0.014074074074074116],[-0.09239583333333339,-0.003333333333333249],[-0.09239583333333339,-0.003333333333333249],[-0.058958333333333356,0.02629629629629638],[-0.058958333333333356,0.02629629629629638],[-0.08208333333333329,0.005555555555555556],[-0.08208333333333329,0.005555555555555556],[-0.08208333333333329,0.005555555555555556],[-0.08208333333333329,0.005555555555555556],[-0.0984375,0.012777777777777735],[-0.0984375,0.012777777777777735],[-0.0984375,0.012777777777777735],[-0.0984375,0.012777777777777735],[-0.1782291666666667,0.034444444444444486],[-0.1782291666666667,0.034444444444444486],[-0.22666666666666668,0.057962962962962876],[-0.22666666666666668,0.057962962962962876],[-0.28624999999999995,0.08314814814814811],[-0.28624999999999995,0.08314814814814811],[-0.29739583333333336,0.1227777777777777],[-0.29739583333333336,0.1227777777777777],[-0.29739583333333336,0.1227777777777777],[-0.28479166666666667,0.125],[-0.28479166666666667,0.125],[-0.25656249999999997,0.1],[-0.25656249999999997,0.1],[-0.2869791666666667,0.08851851851851844],[-0.2869791666666667,0.08851851851851844],[-0.28010416666666665,0.075],[-0.28010416666666665,0.075],[-0.2747916666666666,0.08074074074074078],[-0.2747916666666666,0.08074074074074078],[-0.25125000000000003,0.044444444444444446],[-0.25125000000000003,0.044444444444444446],[-0.22083333333333333,0.00722222222222218],[-0.22083333333333333,0.00722222222222218],[-0.21281249999999996,-0.02759259259259255],[-0.21281249999999996,-0.02759259259259255],[-0.1857291666666666,-0.060370370370370414],[-0.1857291666666666,-0.060370370370370414],[-0.1857291666666666,-0.060370370370370414],[-0.1857291666666666,-0.060370370370370414],[-0.1580208333333334,-0.11407407407407412],[-0.1580208333333334,-0.11407407407407412],[-0.14677083333333332,-0.17074074074074072],[-0.14677083333333332,-0.17074074074074072],[-0.14677083333333332,-0.17074074074074072],[-0.14677083333333332,-0.17074074074074072],[-0.16281249999999994,-0.19425925925925921],[-0.16281249999999994,-0.19425925925925921],[-0.13406250000000006,-0.2257407407407407],[-0.13406250000000006,-0.2257407407407407],[-0.14708333333333337,-0.26240740740740737],[-0.14708333333333337,-0.26240740740740737],[-0.17374999999999996,-0.2535185185185185],[-0.17374999999999996,-0.2535185185185185],[-0.11364583333333336,-0.2074074074074074],[-0.11364583333333336,-0.2074074074074074],[-0.07885416666666671,-0.07185185185185188],[-0.07885416666666671,-0.07185185185185188],[-0.07885416666666671,-0.07185185185185188],[-0.08052083333333329,-0.04814814814814815],[-0.08052083333333329,-0.04814814814814815],[-0.08052083333333329,-0.04814814814814815],[-0.08052083333333329,-0.04814814814814815],[-0.0328125,-0.05481481481481486],[-0.0328125,-0.05481481481481486],[-0.03145833333333338,-0.038703703703703664],[-0.03145833333333338,-0.038703703703703664],[-0.03145833333333338,-0.038703703703703664],[-0.03145833333333338,-0.038703703703703664],[-0.05166666666666669,-0.044999999999999915],[-0.05166666666666669,-0.044999999999999915],[-0.03250000000000005,-0.07000000000000002],[-0.03250000000000005,-0.07000000000000002],[-0.01395833333333331,-0.052962962962963],[-0.01395833333333331,-0.052962962962963],[-0.0002083333333333807,-0.005370370370370328],[-0.0002083333333333807,-0.005370370370370328],[0.04770833333333328,-0.002777777777777778],[0.04770833333333328,-0.002777777777777778],[0.04385416666666669,-0.034999999999999955],[0.04385416666666669,-0.034999999999999955],[0.014999999999999977,-0.12759259259259256],[0.014999999999999977,-0.12759259259259256],[0.03322916666666664,-0.12407407407407407],[0.03322916666666664,-0.12407407407407407],[0.03322916666666664,-0.12407407407407407],[0.03322916666666664,-0.12407407407407407],[0.03812500000000003,-0.0705555555555556],[0.03812500000000003,-0.0705555555555556],[0.03812500000000003,-0.0705555555555556],[0.03812500000000003,-0.0705555555555556],[0.08875000000000005,-0.025185185185185227],[0.08875000000000005,-0.025185185185185227],[0.12708333333333333,0.025370370370370456],[0.12708333333333333,0.025370370370370456],[0.15833333333333333,0.05962962962962971],[0.15833333333333333,0.05962962962962971],[0.1912499999999999,0.051111111111111156],[0.1912499999999999,0.051111111111111156],[0.2306250000000001,0.03796296296296296],[0.2306250000000001,0.03796296296296296],[0.25625,0.005000000000000084],[0.25625,0.005000000000000084],[0.25145833333333345,0.020555555555555598],[0.25145833333333345,0.020555555555555598],[0.2131249999999999,0.04740740740740745],[0.2131249999999999,0.04740740740740745],[0.16697916666666662,0.06370370370370367],[0.16697916666666662,0.06370370370370367],[0.10489583333333338,0.04129629629629621],[0.10489583333333338,0.04129629629629621],[0.0728125000000001,0.02296296296296292],[0.0728125000000001,0.02296296296296292],[0.07177083333333342,0.044444444444444446],[0.07177083333333342,0.044444444444444446],[0.020624999999999952,0.0801851851851851],[0.020624999999999952,0.0801851851851851],[0.02312500000000005,0.09462962962962967],[0.02312500000000005,0.09462962962962967],[0.013541666666666667,0.08277777777777787],[0.013541666666666667,0.08277777777777787],[0.0014583333333333095,0.10648148148148148],[0.0014583333333333095,0.10648148148148148],[0.020624999999999952,0.09444444444444444],[0.020624999999999952,0.09444444444444444],[0.07322916666666662,0.05055555555555547],[0.07322916666666662,0.05055555555555547],[0.15177083333333338,-0.003888888888888931],[0.15177083333333338,-0.003888888888888931],[0.15177083333333338,-0.003888888888888931],[0.15177083333333338,-0.003888888888888931],[0.22958333333333342,0.002777777777777778],[0.22958333333333342,0.002777777777777778],[0.2211458333333333,0.005740740740740783],[0.2211458333333333,0.005740740740740783],[0.22322916666666662,-0.01648148148148144],[0.22322916666666662,-0.01648148148148144],[0.2771874999999999,-0.03796296296296296],[0.2771874999999999,-0.03796296296296296],[0.2713541666666667,-0.00851851851851856],[0.2713541666666667,-0.00851851851851856],[0.27156250000000004,-0.01629629629629621],[0.27156250000000004,-0.01629629629629621],[0.26114583333333335,0.004814814814814857],[0.26114583333333335,0.004814814814814857],[0.2127083333333334,0.03740740740740749],[0.2127083333333334,0.03740740740740749],[0.2127083333333334,0.03740740740740749],[0.22729166666666673,0.05981481481481473],[0.22729166666666673,0.05981481481481473],[0.2165625000000001,0.06444444444444436],[0.2165625000000001,0.06444444444444436],[0.2165625000000001,0.06444444444444436],[0.2165625000000001,0.06444444444444436],[0.1710416666666667,0.04814814814814815],[0.1710416666666667,0.04814814814814815],[0.15197916666666675,0.0794444444444444],[0.15197916666666675,0.0794444444444444],[0.09885416666666676,0.10092592592592593],[0.09885416666666676,0.10092592592592593],[0.0709374999999999,0.13185185185185194],[0.0709374999999999,0.13185185185185194],[0.003854166666666714,0.16722222222222213],[0.003854166666666714,0.16722222222222213],[-0.050416666666666644,0.19796296296296292],[-0.050416666666666644,0.19796296296296292],[-0.04114583333333333,0.20055555555555546],[-0.04114583333333333,0.20055555555555546],[-0.0125,0.21129629629629634],[-0.0125,0.21129629629629634],[-0.0125,0.21129629629629634],[-0.02635416666666662,0.21999999999999992],[-0.02635416666666662,0.21999999999999992],[-0.04072916666666669,0.2511111111111112],[-0.04072916666666669,0.2511111111111112],[-0.03218749999999997,0.21962962962962967],[-0.03218749999999997,0.21962962962962967],[-0.0002083333333333807,0.16999999999999993],[-0.0002083333333333807,0.16999999999999993],[0.029166666666666667,0.1479629629629629],[0.029166666666666667,0.1479629629629629],[0.06156250000000003,0.12925925925925918],[0.06156250000000003,0.12925925925925918],[0.1243750000000001,0.06351851851851843],[0.1243750000000001,0.06351851851851843],[0.17458333333333323,0.0772222222222223],[0.17458333333333323,0.0772222222222223],[0.16979166666666667,0.06648148148148143],[0.16979166666666667,0.06648148148148143],[0.1803124999999999,0.038703703703703664],[0.1803124999999999,0.038703703703703664],[0.21395833333333342,0.026111111111111154],[0.21395833333333342,0.026111111111111154],[0.22177083333333342,0.016111111111111194],[0.22177083333333342,0.016111111111111194],[0.22374999999999995,0.058333333333333334],[0.22374999999999995,0.058333333333333334],[0.23427083333333343,0.06296296296296296],[0.23427083333333343,0.06296296296296296],[0.24229166666666657,0.0668518518518519],[0.24229166666666657,0.0668518518518519],[0.2109375,0.07740740740740733],[0.2109375,0.07740740740740733],[0.20906250000000004,0.08462962962962971],[0.20906250000000004,0.08462962962962971],[0.19854166666666656,0.05481481481481486],[0.19854166666666656,0.05481481481481486],[0.19375,0.022592592592592678],[0.19375,0.022592592592592678],[0.18260416666666662,0.010185185185185186],[0.18260416666666662,0.010185185185185186],[0.16687500000000005,-0.01962962962962967],[0.15760416666666663,-0.052962962962963],[0.15760416666666663,-0.052962962962963],[0.17374999999999996,-0.07518518518518523],[0.1631249999999999,-0.1264814814814815],[0.1631249999999999,-0.1264814814814815],[0.17291666666666666,-0.16796296296296295],[0.18447916666666658,-0.2168518518518519],[0.18447916666666658,-0.2168518518518519],[0.17197916666666657,-0.24222222222222226],[0.196875,-0.24370370370370376],[0.17354166666666657,-0.2309259259259259],[0.15322916666666658,-0.2242592592592593],[0.15322916666666658,-0.2242592592592593],[0.0853125000000001,-0.1935185185185185],[0.04791666666666667,-0.19074074074074074],[0.014895833333333285,-0.205],[-0.04208333333333331,-0.18925925925925924],[-0.04208333333333331,-0.18925925925925924],[0.001979166666666643,-0.17833333333333334],[0.08208333333333329,-0.17111111111111107],[0.18104166666666663,-0.1581481481481481],[0.18104166666666663,-0.1581481481481481],[0.14958333333333323,-0.1757407407407407],[0.184375,-0.1757407407407407],[0.184375,-0.1757407407407407],[0.23729166666666662,-0.19425925925925921],[0.2986458333333334,-0.21962962962962967],[0.2986458333333334,-0.21962962962962967],[0.3571875000000001,-0.20759259259259263],[0.3811458333333334,-0.19000000000000003],[0.4484375,-0.15999999999999995],[0.4484375,-0.15999999999999995],[0.41354166666666664,-0.13944444444444445],[0.3462500000000001,-0.13092592592592592],[0.3462500000000001,-0.13092592592592592],[0.2716666666666666,-0.12407407407407407],[0.30885416666666665,-0.11722222222222224],[0.32750000000000007,-0.13185185185185183],[0.32750000000000007,-0.13185185185185183],[0.34093749999999995,-0.11685185185185189],[0.3902083333333332,-0.12037037037037036],[0.4388541666666666,-0.1259259259259259],[0.5076041666666666,-0.1411111111111111],[0.5403125000000001,-0.15555555555555556],[0.5403125000000001,-0.15555555555555556],[0.5669791666666666,-0.16129629629629633],[0.5669791666666666,-0.16129629629629633],[0.5757291666666667,-0.16148148148148145],[0.5794791666666667,-0.17037037037037037],[0.5857291666666666,-0.15777777777777777],[0.5857291666666666,-0.15777777777777777],[0.5811458333333335,-0.15037037037037035],[0.5625,-0.16277777777777774],[0.5320833333333332,-0.16592592592592598],[0.49333333333333323,-0.14685185185185187],[0.49333333333333323,-0.14685185185185187],[0.4724999999999999,-0.14592592592592596],[0.4583333333333333,-0.14944444444444444],[0.4790625000000001,-0.1581481481481481],[0.4790625000000001,-0.1581481481481481],[0.4878124999999999,-0.16722222222222224],[0.48947916666666674,-0.17166666666666663],[0.48947916666666674,-0.17166666666666663],[0.4515625,-0.16944444444444445],[0.47458333333333325,-0.20537037037037034],[0.5025000000000001,-0.22851851851851848],[0.49812500000000004,-0.20685185185185184],[0.49812500000000004,-0.20685185185185184],[0.4794791666666666,-0.19648148148148153],[0.4544791666666666,-0.17481481481481478],[0.4783333333333334,-0.17611111111111116],[0.4783333333333334,-0.17611111111111116],[0.4601041666666667,-0.19018518518518515],[0.4616666666666667,-0.20314814814814813],[0.44677083333333345,-0.2101851851851852],[0.4652083333333332,-0.23111111111111113],[0.4652083333333332,-0.23111111111111113],[0.4588541666666667,-0.2553703703703703],[0.46812500000000007,-0.3116666666666667],[0.5096875,-0.41277777777777774],[0.5025000000000001,-0.4698148148148148],[0.5025000000000001,-0.4698148148148148],[0.4830208333333334,-0.5203703703703704],[0.4830208333333334,-0.5203703703703704],[0.4695833333333333,-0.552962962962963],[0.46145833333333336,-0.5805555555555556],[0.4557291666666667,-0.5635185185185185],[0.4669791666666666,-0.5524074074074075],[0.4886458333333332,-0.5807407407407408],[0.48499999999999993,-0.5624074074074074],[0.46197916666666666,-0.5161111111111111],[0.42177083333333343,-0.47092592592592597],[0.43031249999999993,-0.4698148148148148],[0.4392708333333334,-0.4885185185185185],[0.43645833333333334,-0.4742592592592593],[0.43739583333333343,-0.459074074074074],[0.4490624999999999,-0.46888888888888886],[0.4547916666666666,-0.49166666666666664],[0.46114583333333337,-0.4733333333333334],[0.4415625000000001,-0.4637037037037037],[0.44427083333333334,-0.42981481481481487],[0.45,-0.3972222222222222],[0.4546875,-0.41333333333333333],[0.4592708333333334,-0.3877777777777777],[0.45437500000000003,-0.37703703703703706],[0.4404166666666666,-0.37222222222222223],[0.42729166666666674,-0.3624074074074074],[0.4123958333333334,-0.3183333333333333],[0.38468749999999996,-0.18611111111111112],[0.38291666666666657,-0.04518518518518514],[0.35885416666666664,0.06925925925925921],[0.33406250000000004,0.11388888888888889],[0.3163541666666667,0.22018518518518515],[0.29541666666666655,0.3133333333333334],[0.26114583333333335,0.35907407407407405],[0.22687499999999997,0.40481481481481485],[0.22552083333333334,0.42907407407407416],[0.22552083333333334,0.42907407407407416],[0.20260416666666667,0.4542592592592592],[0.19145833333333329,0.33277777777777784],[0.18614583333333337,0.21500000000000005],[0.15208333333333332,0.11740740740740736],[0.1554166666666667,0.09574074074074082],[0.1430208333333333,0.0507407407407407],[0.13937499999999994,0.004814814814814857],[0.1502083333333334,-0.006481481481481481],[0.16854166666666662,-0.016111111111111194],[0.16854166666666662,-0.016111111111111194],[0.14739583333333334,0.012407407407407492],[0.1502083333333334,-0.007777777777777862],[0.14395833333333338,0.043703703703703745],[0.14166666666666666,0.04018518518518527],[0.16635416666666672,0.058333333333333334],[0.1466666666666666,0.09129629629629621],[0.1560416666666666,0.09574074074074082],[0.17312500000000006,0.08425925925925926],[0.14812500000000003,0.1301851851851851],[0.115625,0.17444444444444454],[0.14135416666666673,0.09907407407407408],[0.17239583333333333,0.05018518518518523]]","[[0.16885416666666658,-0.041666666666666664,0.0003999999761674644],[0.16885416666666658,-0.041666666666666664,0.05629999998213009],[0.17156250000000003,-0.027777777777777776,0.07569999998808896],[0.17156250000000003,-0.027777777777777776,0.08400000000000318],[0.1709374999999999,-0.02370370370370362,0.10900000000000887],[0.1709374999999999,-0.02370370370370362,0.11969999998808589],[0.18020833333333333,-0.026851851851851852,0.14450000000000784],[0.18020833333333333,-0.026851851851851852,0.15219999998808476],[0.16177083333333328,-0.02092592592592584,0.17769999998807862],[0.16177083333333328,-0.02092592592592584,0.18459999999404886],[0.14770833333333327,-0.0022222222222223064,0.2115000000000009],[0.14770833333333327,-0.0022222222222223064,0.2187999999821244],[0.1388541666666666,0.0014814814814813973,0.2423999999761577],[0.1388541666666666,0.0014814814814813973,0.25019999998808373],[0.09614583333333329,0.009259259259259259,0.2775999999940524],[0.09614583333333329,0.009259259259259259,0.28650000000000375],[0.10197916666666676,0.030555555555555555,0.3106999999880884],[0.10197916666666676,0.030555555555555555,0.3193999999761701],[0.09208333333333343,0.031111111111111027,0.34459999999404545],[0.09208333333333343,0.031111111111111027,0.3520999999940386],[0.09208333333333343,0.031111111111111027,0.3582999999821226],[0.09208333333333343,0.031111111111111027,0.37589999997616985],[0.06302083333333333,0.030740740740740784,0.41339999997616417],[0.06302083333333333,0.030740740740740784,0.4211999999880902],[0.04791666666666667,0.010185185185185186,0.4440000000000026],[0.04791666666666667,0.010185185185185186,0.4542999999821262],[0.04093749999999995,0.003333333333333249,0.480000000000004],[0.04093749999999995,0.003333333333333249,0.4871999999880785],[0.014374999999999952,-0.0294444444444444,0.5111999999880794],[0.014374999999999952,-0.0294444444444444,0.5181999999880844],[0.026041666666666668,-0.04944444444444453,0.5474999999999994],[0.026041666666666668,-0.04944444444444453,0.5545999999940392],[-0.041875000000000044,-0.07999999999999997,0.5775999999940495],[-0.041875000000000044,-0.07999999999999997,0.5851999999880917],[-0.041875000000000044,-0.07999999999999997,0.5916999999880801],[-0.041875000000000044,-0.07999999999999997,0.6281999999880838],[-0.11531250000000005,-0.0883333333333333,0.6440999999940402],[-0.11531250000000005,-0.0883333333333333,0.6515000000000128],[-0.14020833333333335,-0.09833333333333337,0.6807999999821277],[-0.14020833333333335,-0.09833333333333337,0.6900000000000119],[-0.14020833333333335,-0.09833333333333337,0.6927999999821282],[-0.21489583333333329,-0.13759259259259263,0.7257999999821294],[-0.21489583333333329,-0.13759259259259263,0.7439999999999998],[-0.2585416666666667,-0.17759259259259255,0.7608999999761608],[-0.2585416666666667,-0.17759259259259255,0.7690999999940402],[-0.28406250000000005,-0.19166666666666668,0.7990000000000066],[-0.28406250000000005,-0.19166666666666668,0.8075000000000045],[-0.28406250000000005,-0.19166666666666668,0.8108999999761579],[-0.30229166666666674,-0.17777777777777778,0.8443999999761616],[-0.30229166666666674,-0.17777777777777778,0.8586999999880902],[-0.3692708333333333,-0.16777777777777783,0.878799999982121],[-0.3692708333333333,-0.16777777777777783,0.8860000000000099],[-0.27156250000000004,-0.050370370370370454,0.9146999999880876],[-0.27156250000000004,-0.050370370370370454,0.9220000000000113],[-0.4077083333333333,-0.14370370370370375,0.9440000000000026],[-0.4077083333333333,-0.14370370370370375,0.9538999999761586],[-0.4058333333333334,-0.15907407407407403,0.9796999999880853],[-0.4058333333333334,-0.15907407407407403,0.9878999999761646],[-0.35218750000000004,-0.125,1.0110999999940447],[-0.35218750000000004,-0.125,1.0182999999821192],[-0.2513541666666666,-0.0955555555555556,1.0474999999999994],[-0.2513541666666666,-0.0955555555555556,1.0542999999821205],[-0.2251041666666667,-0.06388888888888888,1.0773999999761656],[-0.2251041666666667,-0.06388888888888888,1.0860000000000127],[-0.23104166666666662,-0.04759259259259268,1.1151999999880786],[-0.23104166666666662,-0.04759259259259268,1.1223999999761674],[-0.18354166666666671,-0.008148148148148106,1.1441999999880892],[-0.18354166666666671,-0.008148148148148106,1.1513999999761637],[-0.21499999999999997,-0.0007407407407406986,1.1800000000000068],[-0.21499999999999997,-0.0007407407407406986,1.189099999994042],[-0.12000000000000005,-0.016666666666666666,1.2120000000000033],[-0.12000000000000005,-0.016666666666666666,1.219099999994043],[-0.17229166666666665,-0.10999999999999996,1.2471999999880836],[-0.17229166666666665,-0.10999999999999996,1.253799999982121],[-0.027604166666666666,-0.008148148148148106,1.2775000000000034],[-0.027604166666666666,-0.008148148148148106,1.2871999999880899],[0.005624999999999976,0.0031481481481482323,1.3111999999880908],[0.005624999999999976,0.0031481481481482323,1.318000000000012],[-0.009791666666666643,-0.00851851851851856,1.3445000000000107],[-0.009791666666666643,-0.00851851851851856,1.3515999999940504],[-0.11031249999999998,-0.014074074074074116,1.3782999999821186],[-0.11031249999999998,-0.014074074074074116,1.3855000000000075],[-0.09239583333333339,-0.003333333333333249,1.410599999994048],[-0.09239583333333339,-0.003333333333333249,1.4198999999761668],[-0.058958333333333356,0.02629629629629638,1.4440999999940516],[-0.058958333333333356,0.02629629629629638,1.4641999999880824],[-0.08208333333333329,0.005555555555555556,1.4775000000000063],[-0.08208333333333329,0.005555555555555556,1.4880999999940485],[-0.08208333333333329,0.005555555555555556,1.4917999999821205],[-0.08208333333333329,0.005555555555555556,1.5093999999761678],[-0.0984375,0.012777777777777735,1.5451999999880854],[-0.0984375,0.012777777777777735,1.5521999999880904],[-0.0984375,0.012777777777777735,1.5582999999821254],[-0.0984375,0.012777777777777735,1.5757999999821237],[-0.1782291666666667,0.034444444444444486,1.6106999999880856],[-0.1782291666666667,0.034444444444444486,1.6205999999940417],[-0.22666666666666668,0.057962962962962876,1.6437999999821216],[-0.22666666666666668,0.057962962962962876,1.651299999982129],[-0.28624999999999995,0.08314814814814811,1.675899999976167],[-0.28624999999999995,0.08314814814814811,1.6841999999880812],[-0.29739583333333336,0.1227777777777777,1.7118999999761684],[-0.29739583333333336,0.1227777777777777,1.728399999976162],[-0.29739583333333336,0.1227777777777777,1.730000000000004],[-0.28479166666666667,0.125,1.7605000000000075],[-0.28479166666666667,0.125,1.768599999994052],[-0.25656249999999997,0.1,1.7970000000000113],[-0.25656249999999997,0.1,1.8042999999821205],[-0.2869791666666667,0.08851851851851844,1.8270999999940472],[-0.2869791666666667,0.08851851851851844,1.835000000000008],[-0.28010416666666665,0.075,1.8588999999761597],[-0.28010416666666665,0.075,1.8667999999821205],[-0.2747916666666666,0.08074074074074078,1.893500000000003],[-0.2747916666666666,0.08074074074074078,1.9006999999880918],[-0.25125000000000003,0.044444444444444446,1.9270999999940415],[-0.25125000000000003,0.044444444444444446,1.9355000000000047],[-0.22083333333333333,0.00722222222222218,1.9638999999761637],[-0.22083333333333333,0.00722222222222218,1.972199999988078],[-0.21281249999999996,-0.02759259259259255,1.9938999999761648],[-0.21281249999999996,-0.02759259259259255,2.00089999997617],[-0.1857291666666666,-0.060370370370370414,2.02709999999405],[-0.1857291666666666,-0.060370370370370414,2.036899999976157],[-0.1857291666666666,-0.060370370370370414,2.041699999988083],[-0.1857291666666666,-0.060370370370370414,2.0597999999821184],[-0.1580208333333334,-0.11407407407407412,2.092500000000001],[-0.1580208333333334,-0.11407407407407412,2.0997999999821246],[-0.14677083333333332,-0.17074074074074072,2.1283999999761676],[-0.14677083333333332,-0.17074074074074072,2.1355999999940423],[-0.14677083333333332,-0.17074074074074072,2.1415999999940425],[-0.14677083333333332,-0.17074074074074072,2.159699999988078],[-0.16281249999999994,-0.19425925925925921,2.1937999999821187],[-0.16281249999999994,-0.19425925925925921,2.202899999976168],[-0.13406250000000006,-0.2257407407407407,2.2275000000000063],[-0.13406250000000006,-0.2257407407407407,2.234599999994046],[-0.14708333333333337,-0.26240740740740737,2.26100000000001],[-0.14708333333333337,-0.26240740740740737,2.268699999988087],[-0.17374999999999996,-0.2535185185185185,2.2951999999880854],[-0.17374999999999996,-0.2535185185185185,2.3026999999880786],[-0.11364583333333336,-0.2074074074074074,2.32859999999404],[-0.11364583333333336,-0.2074074074074074,2.3358999999761636],[-0.07885416666666671,-0.07185185185185188,2.3655000000000115],[-0.07885416666666671,-0.07185185185185188,2.3730999999940394],[-0.07885416666666671,-0.07185185185185188,2.375699999988086],[-0.08052083333333329,-0.04814814814814815,2.4138999999761666],[-0.08052083333333329,-0.04814814814814815,2.421899999976162],[-0.08052083333333329,-0.04814814814814815,2.4250000000000114],[-0.08052083333333329,-0.04814814814814815,2.442799999982128],[-0.0328125,-0.05481481481481486,2.479899999976169],[-0.0328125,-0.05481481481481486,2.4875000000000114],[-0.03145833333333338,-0.038703703703703664,2.5112999999821284],[-0.03145833333333338,-0.038703703703703664,2.518599999994052],[-0.03145833333333338,-0.038703703703703664,2.5250999999940404],[-0.03145833333333338,-0.038703703703703664,2.5603999999761697],[-0.05166666666666669,-0.044999999999999915,2.5783999999761704],[-0.05166666666666669,-0.044999999999999915,2.58569999998808],[-0.03250000000000005,-0.07000000000000002,2.6151999999880786],[-0.03250000000000005,-0.07000000000000002,2.6231999999880884],[-0.01395833333333331,-0.052962962962963,2.6445999999940426],[-0.01395833333333331,-0.052962962962963,2.6517999999821313],[-0.0002083333333333807,-0.005370370370370328,2.680000000000007],[-0.0002083333333333807,-0.005370370370370328,2.69139999997617],[0.04770833333333328,-0.002777777777777778,2.712299999982122],[0.04770833333333328,-0.002777777777777778,2.719299999982127],[0.04385416666666669,-0.034999999999999955,2.7465999999940465],[0.04385416666666669,-0.034999999999999955,2.753799999982121],[0.014999999999999977,-0.12759259259259256,2.7767999999821313],[0.014999999999999977,-0.12759259259259256,2.7858999999761664],[0.03322916666666664,-0.12407407407407407,2.8102999999821208],[0.03322916666666664,-0.12407407407407407,2.8172999999821258],[0.03322916666666664,-0.12407407407407407,2.825000000000003],[0.03322916666666664,-0.12407407407407407,2.842699999988085],[0.03812500000000003,-0.0705555555555556,2.875699999988086],[0.03812500000000003,-0.0705555555555556,2.8861999999880794],[0.03812500000000003,-0.0705555555555556,2.9106999999880827],[0.03812500000000003,-0.0705555555555556,2.9125999999940433],[0.08875000000000005,-0.025185185185185227,2.9440000000000026],[0.08875000000000005,-0.025185185185185227,2.9538999999761586],[0.12708333333333333,0.025370370370370456,2.9796999999880853],[0.12708333333333333,0.025370370370370456,2.9870999999940437],[0.15833333333333333,0.05962962962962971,3.0106999999880912],[0.15833333333333333,0.05962962962962971,3.0173999999761634],[0.1912499999999999,0.051111111111111156,3.0472999999821297],[0.1912499999999999,0.051111111111111156,3.0543999999761695],[0.2306250000000001,0.03796296296296296,3.0770000000000124],[0.2306250000000001,0.03796296296296296,3.085399999976161],[0.25625,0.005000000000000084,3.1140000000000043],[0.25625,0.005000000000000084,3.121099999994044],[0.25145833333333345,0.020555555555555598,3.143699999988087],[0.25145833333333345,0.020555555555555598,3.1507999999821266],[0.2131249999999999,0.04740740740740745,3.1793999999761695],[0.2131249999999999,0.04740740740740745,3.188899999976158],[0.16697916666666662,0.06370370370370367,3.2120000000000033],[0.16697916666666662,0.06370370370370367,3.2195999999940454],[0.10489583333333338,0.04129629629629621,3.24679999998213],[0.10489583333333338,0.04129629629629621,3.2536999999880862],[0.0728125000000001,0.02296296296296292,3.2775000000000034],[0.0728125000000001,0.02296296296296292,3.286899999976157],[0.07177083333333342,0.044444444444444446,3.3130000000000024],[0.07177083333333342,0.044444444444444446,3.3212999999821307],[0.020624999999999952,0.0801851851851851,3.344299999982127],[0.020624999999999952,0.0801851851851851,3.352000000000004],[0.02312500000000005,0.09462962962962967,3.380599999994047],[0.02312500000000005,0.09462962962962967,3.3878999999761703],[0.013541666666666667,0.08277777777777787,3.410399999976164],[0.013541666666666667,0.08277777777777787,3.4192999999821296],[0.0014583333333333095,0.10648148148148148,3.448899999976163],[0.0014583333333333095,0.10648148148148148,3.455899999976168],[0.020624999999999952,0.09444444444444444,3.477599999994041],[0.020624999999999952,0.09444444444444444,3.484399999976162],[0.07322916666666662,0.05055555555555547,3.513199999988089],[0.07322916666666662,0.05055555555555547,3.5230000000000103],[0.15177083333333338,-0.003888888888888931,3.545399999976169],[0.15177083333333338,-0.003888888888888931,3.5521999999880904],[0.15177083333333338,-0.003888888888888931,3.5585000000000093],[0.15177083333333338,-0.003888888888888931,3.594099999994043],[0.22958333333333342,0.002777777777777778,3.6107999999821203],[0.22958333333333342,0.002777777777777778,3.621099999994044],[0.2211458333333333,0.005740740740740783,3.6475999999940427],[0.2211458333333333,0.005740740740740783,3.65419999998808],[0.22322916666666662,-0.01648148148148144,3.6776999999880786],[0.22322916666666662,-0.01648148148148144,3.6850999999940512],[0.2771874999999999,-0.03796296296296296,3.715199999988087],[0.2771874999999999,-0.03796296296296296,3.722500000000011],[0.2713541666666667,-0.00851851851851856,3.7451999999880883],[0.2713541666666667,-0.00851851851851856,3.7520999999940443],[0.27156250000000004,-0.01629629629629621,3.7818999999761616],[0.27156250000000004,-0.01629629629629621,3.7895999999940386],[0.26114583333333335,0.004814814814814857,3.811000000000007],[0.26114583333333335,0.004814814814814857,3.818099999994047],[0.2127083333333334,0.03740740740740749,3.846599999994041],[0.2127083333333334,0.03740740740740749,3.8562999999821272],[0.2127083333333334,0.03740740740740749,3.8590999999940436],[0.22729166666666673,0.05981481481481473,3.894199999988089],[0.22729166666666673,0.05981481481481473,3.910599999994048],[0.2165625000000001,0.06444444444444436,3.9280999999940462],[0.2165625000000001,0.06444444444444436,3.9356999999880884],[0.2165625000000001,0.06444444444444436,3.9417999999821234],[0.2165625000000001,0.06444444444444436,3.9772999999821224],[0.1710416666666667,0.04814814814814815,3.9940999999940487],[0.1710416666666667,0.04814814814814815,4.001399999976158],[0.15197916666666675,0.0794444444444444,4.032499999999999],[0.15197916666666675,0.0794444444444444,4.041399999976164],[0.09885416666666676,0.10092592592592593,4.0612999999821255],[0.09885416666666676,0.10092592592592593,4.071299999982131],[0.0709374999999999,0.13185185185185194,4.09669999998809],[0.0709374999999999,0.13185185185185194,4.106899999976164],[0.003854166666666714,0.16722222222222213,4.12889999997617],[0.003854166666666714,0.16722222222222213,4.136299999982128],[-0.050416666666666644,0.19796296296296292,4.1638999999761666],[-0.050416666666666644,0.19796296296296292,4.172799999982118],[-0.04114583333333333,0.20055555555555546,4.19459999999404],[-0.04114583333333333,0.20055555555555546,4.20359999999404],[-0.0125,0.21129629629629634,4.2310999999940435],[-0.0125,0.21129629629629634,4.239399999976158],[-0.0125,0.21129629629629634,4.242199999988088],[-0.02635416666666662,0.21999999999999992,4.277500000000003],[-0.02635416666666662,0.21999999999999992,4.287699999988078],[-0.04072916666666669,0.2511111111111112,4.311000000000007],[-0.04072916666666669,0.2511111111111112,4.318399999976165],[-0.03218749999999997,0.21962962962962967,4.3445999999940454],[-0.03218749999999997,0.21962962962962967,4.351899999976169],[-0.0002083333333333807,0.16999999999999993,4.382199999988089],[-0.0002083333333333807,0.16999999999999993,4.390299999982119],[0.029166666666666667,0.1479629629629629,4.412099999994041],[0.029166666666666667,0.1479629629629629,4.419199999988081],[0.06156250000000003,0.12925925925925918,4.449000000000012],[0.06156250000000003,0.12925925925925918,4.456299999982122],[0.1243750000000001,0.06351851851851843,4.4778999999761595],[0.1243750000000001,0.06351851851851843,4.486500000000007],[0.17458333333333323,0.0772222222222223,4.51400000000001],[0.17458333333333323,0.0772222222222223,4.5250999999940404],[0.16979166666666667,0.06648148148148143,4.54529999998212],[0.16979166666666667,0.06648148148148143,4.55329999998213],[0.1803124999999999,0.038703703703703664,4.5815000000000055],[0.1803124999999999,0.038703703703703664,4.588599999994045],[0.21395833333333342,0.026111111111111154,4.611199999988088],[0.21395833333333342,0.026111111111111154,4.620699999988091],[0.22177083333333342,0.016111111111111194,4.647699999988092],[0.22177083333333342,0.016111111111111194,4.6555000000000035],[0.22374999999999995,0.058333333333333334,4.677799999982128],[0.22374999999999995,0.058333333333333334,4.685799999982123],[0.23427083333333343,0.06296296296296296,4.7156999999880895],[0.23427083333333343,0.06296296296296296,4.724399999976157],[0.24229166666666657,0.0668518518518519,4.744399999976167],[0.24229166666666657,0.0668518518518519,4.751799999982126],[0.2109375,0.07740740740740733,4.782499999999999],[0.2109375,0.07740740740740733,4.789899999976157],[0.20906250000000004,0.08462962962962971,4.811500000000009],[0.20906250000000004,0.08462962962962971,4.820000000000007],[0.19854166666666656,0.05481481481481486,4.847599999994046],[0.19854166666666656,0.05481481481481486,4.858299999982123],[0.19375,0.022592592592592678,4.878799999982121],[0.19375,0.022592592592592678,4.8870000000000005],[0.18260416666666662,0.010185185185185186,4.9161999999880805],[0.18260416666666662,0.010185185185185186,4.928699999988083],[0.16687500000000005,-0.01962962962962967,4.941799999982123],[0.15760416666666663,-0.052962962962963,4.9671999999880825],[0.15760416666666663,-0.052962962962963,4.975199999988078],[0.17374999999999996,-0.07518518518518523,4.9917999999821205],[0.1631249999999999,-0.1264814814814815,5.013000000000005],[0.1631249999999999,-0.1264814814814815,5.031099999994041],[0.17291666666666666,-0.16796296296296295,5.042099999994051],[0.18447916666666658,-0.2168518518518519,5.061500000000009],[0.18447916666666658,-0.2168518518518519,5.074899999976168],[0.17197916666666657,-0.24222222222222226,5.09169999998808],[0.196875,-0.24370370370370376,5.108599999994041],[0.17354166666666657,-0.2309259259259259,5.1285000000000025],[0.15322916666666658,-0.2242592592592593,5.145599999994047],[0.15322916666666658,-0.2242592592592593,5.158199999988085],[0.0853125000000001,-0.1935185185185185,5.17829999998213],[0.04791666666666667,-0.19074074074074074,5.1935],[0.014895833333333285,-0.205,5.21159999999405],[-0.04208333333333331,-0.18925925925925924,5.232500000000002],[-0.04208333333333331,-0.18925925925925924,5.2417999999821205],[0.001979166666666643,-0.17833333333333334,5.258399999976163],[0.08208333333333329,-0.17111111111111107,5.2750999999940404],[0.18104166666666663,-0.1581481481481481,5.296299999982125],[0.18104166666666663,-0.1581481481481481,5.308599999994044],[0.14958333333333323,-0.1757407407407407,5.325099999994052],[0.184375,-0.1757407407407407,5.347399999976162],[0.184375,-0.1757407407407407,5.358399999976157],[0.23729166666666662,-0.19425925925925921,5.375199999988084],[0.2986458333333334,-0.21962962962962967,5.394299999982124],[0.2986458333333334,-0.21962962962962967,5.411399999976169],[0.3571875000000001,-0.20759259259259263,5.425399999976165],[0.3811458333333334,-0.19000000000000003,5.443199999988082],[0.4484375,-0.15999999999999995,5.466099999994043],[0.4484375,-0.15999999999999995,5.474899999976159],[0.41354166666666664,-0.13944444444444445,5.491599999994051],[0.3462500000000001,-0.13092592592592592,5.512299999982119],[0.3462500000000001,-0.13092592592592592,5.524899999976171],[0.2716666666666666,-0.12407407407407407,5.541699999988083],[0.30885416666666665,-0.11722222222222224,5.561599999994044],[0.32750000000000007,-0.13185185185185183,5.579399999976161],[0.32750000000000007,-0.13185185185185183,5.591599999994045],[0.34093749999999995,-0.11685185185185189,5.6085000000000065],[0.3902083333333332,-0.12037037037037036,5.625500000000002],[0.4388541666666666,-0.1259259259259259,5.644500000000008],[0.5076041666666666,-0.1411111111111111,5.660899999976166],[0.5403125000000001,-0.15555555555555556,5.678099999994046],[0.5403125000000001,-0.15555555555555556,5.692799999982128],[0.5669791666666666,-0.16129629629629633,5.708500000000001],[0.5669791666666666,-0.16129629629629633,5.7250000000000085],[0.5757291666666667,-0.16148148148148145,5.741500000000002],[0.5794791666666667,-0.17037037037037037,5.760199999988089],[0.5857291666666666,-0.15777777777777777,5.777500000000003],[0.5857291666666666,-0.15777777777777777,5.791499999999999],[0.5811458333333335,-0.15037037037037035,5.808299999982125],[0.5625,-0.16277777777777774,5.825199999988087],[0.5320833333333332,-0.16592592592592598,5.845500000000001],[0.49333333333333323,-0.14685185185185187,5.863899999976169],[0.49333333333333323,-0.14685185185185187,5.879399999976158],[0.4724999999999999,-0.14592592592592596,5.8916999999880915],[0.4583333333333333,-0.14944444444444444,5.908399999976169],[0.4790625000000001,-0.1581481481481481,5.934000000000012],[0.4790625000000001,-0.1581481481481481,5.941699999988089],[0.4878124999999999,-0.16722222222222224,5.958399999976166],[0.48947916666666674,-0.17166666666666663,5.978299999982127],[0.48947916666666674,-0.17166666666666663,5.991599999994051],[0.4515625,-0.16944444444444445,6.011099999994045],[0.47458333333333325,-0.20537037037037034,6.027899999976171],[0.5025000000000001,-0.22851851851851848,6.046799999982127],[0.49812500000000004,-0.20685185185185184,6.061699999988079],[0.49812500000000004,-0.20685185185185184,6.074899999976168],[0.4794791666666666,-0.19648148148148153,6.094299999982127],[0.4544791666666666,-0.17481481481481478,6.110599999994051],[0.4783333333333334,-0.17611111111111116,6.1307999999821305],[0.4783333333333334,-0.17611111111111116,6.141799999982126],[0.4601041666666667,-0.19018518518518515,6.161399999976169],[0.4616666666666667,-0.20314814814814813,6.178399999976165],[0.44677083333333345,-0.2101851851851852,6.193399999976165],[0.4652083333333332,-0.23111111111111113,6.212799999982124],[0.4652083333333332,-0.23111111111111113,6.225199999988078],[0.4588541666666667,-0.2553703703703703,6.241699999988086],[0.46812500000000007,-0.3116666666666667,6.258899999976165],[0.5096875,-0.41277777777777774,6.274899999976171],[0.5025000000000001,-0.4698148148148148,6.293000000000006],[0.5025000000000001,-0.4698148148148148,6.315799999982119],[0.4830208333333334,-0.5203703703703704,6.332299999982126],[0.4830208333333334,-0.5203703703703704,6.3422999999821315],[0.4695833333333333,-0.552962962962963,6.358299999982123],[0.46145833333333336,-0.5805555555555556,6.379199999988089],[0.4557291666666667,-0.5635185185185185,6.393299999982119],[0.4669791666666666,-0.5524074074074075,6.40829999998212],[0.4886458333333332,-0.5807407407407408,6.42829999998213],[0.48499999999999993,-0.5624074074074074,6.442699999988079],[0.46197916666666666,-0.5161111111111111,6.461500000000001],[0.42177083333333343,-0.47092592592592597,6.476199999988083],[0.43031249999999993,-0.4698148148148148,6.491500000000002],[0.4392708333333334,-0.4885185185185185,6.508299999982128],[0.43645833333333334,-0.4742592592592593,6.524899999976171],[0.43739583333333343,-0.459074074074074,6.541699999988083],[0.4490624999999999,-0.46888888888888886,6.5595],[0.4547916666666666,-0.49166666666666664,6.5767999999821285],[0.46114583333333337,-0.4733333333333334,6.59169999998808],[0.4415625000000001,-0.4637037037037037,6.608399999976157],[0.44427083333333334,-0.42981481481481487,6.629399999976158],[0.45,-0.3972222222222222,6.644299999982124],[0.4546875,-0.41333333333333333,6.658799999982122],[0.4592708333333334,-0.3877777777777777,6.677799999982128],[0.45437500000000003,-0.37703703703703706,6.693199999988082],[0.4404166666666666,-0.37222222222222223,6.708500000000001],[0.42729166666666674,-0.3624074074074074,6.7287999999821295],[0.4123958333333334,-0.3183333333333333,6.745099999994039],[0.38468749999999996,-0.18611111111111112,6.760899999976161],[0.38291666666666657,-0.04518518518518514,6.775599999994043],[0.35885416666666664,0.06925925925925921,6.7960000000000065],[0.33406250000000004,0.11388888888888889,6.809799999982118],[0.3163541666666667,0.22018518518518515,6.82559999999404],[0.29541666666666655,0.3133333333333334,6.844799999982129],[0.26114583333333335,0.35907407407407405,6.859699999988081],[0.22687499999999997,0.40481481481481485,6.875199999988084],[0.22552083333333334,0.42907407407407416,6.895500000000013],[0.22552083333333334,0.42907407407407416,6.908399999976169],[0.20260416666666667,0.4542592592592592,6.92529999998213],[0.19145833333333329,0.33277777777777784,6.941799999982123],[0.18614583333333337,0.21500000000000005,6.9625999999940404],[0.15208333333333332,0.11740740740740736,6.977399999976157],[0.1554166666666667,0.09574074074074082,6.9918999999761695],[0.1430208333333333,0.0507407407407407,7.010299999982124],[0.13937499999999994,0.004814814814814857,7.026399999976164],[0.1502083333333334,-0.006481481481481481,7.041799999982118],[0.16854166666666662,-0.016111111111111194,7.061000000000007],[0.16854166666666662,-0.016111111111111194,7.075000000000003],[0.14739583333333334,0.012407407407407492,7.091799999982129],[0.1502083333333334,-0.007777777777777862,7.108399999976157],[0.14395833333333338,0.043703703703703745,7.129599999994042],[0.14166666666666666,0.04018518518518527,7.144299999982124],[0.16635416666666672,0.058333333333333334,7.158500000000004],[0.1466666666666666,0.09129629629629621,7.178799999982118],[0.1560416666666666,0.09574074074074082,7.192899999976163],[0.17312500000000006,0.08425925925925926,7.208299999982131],[0.14812500000000003,0.1301851851851851,7.227099999994039],[0.115625,0.17444444444444454,7.244799999982121],[0.14135416666666673,0.09907407407407408,7.260299999982124],[0.17239583333333333,0.05018518518518523,7.275399999976159]]","[0.0003999999761674644,0.05629999998213009,0.07569999998808896,0.08400000000000318,0.10900000000000887,0.11969999998808589,0.14450000000000784,0.15219999998808476,0.17769999998807862,0.18459999999404886,0.2115000000000009,0.2187999999821244,0.2423999999761577,0.25019999998808373,0.2775999999940524,0.28650000000000375,0.3106999999880884,0.3193999999761701,0.34459999999404545,0.3520999999940386,0.3582999999821226,0.37589999997616985,0.41339999997616417,0.4211999999880902,0.4440000000000026,0.4542999999821262,0.480000000000004,0.4871999999880785,0.5111999999880794,0.5181999999880844,0.5474999999999994,0.5545999999940392,0.5775999999940495,0.5851999999880917,0.5916999999880801,0.6281999999880838,0.6440999999940402,0.6515000000000128,0.6807999999821277,0.6900000000000119,0.6927999999821282,0.7257999999821294,0.7439999999999998,0.7608999999761608,0.7690999999940402,0.7990000000000066,0.8075000000000045,0.8108999999761579,0.8443999999761616,0.8586999999880902,0.878799999982121,0.8860000000000099,0.9146999999880876,0.9220000000000113,0.9440000000000026,0.9538999999761586,0.9796999999880853,0.9878999999761646,1.0110999999940447,1.0182999999821192,1.0474999999999994,1.0542999999821205,1.0773999999761656,1.0860000000000127,1.1151999999880786,1.1223999999761674,1.1441999999880892,1.1513999999761637,1.1800000000000068,1.189099999994042,1.2120000000000033,1.219099999994043,1.2471999999880836,1.253799999982121,1.2775000000000034,1.2871999999880899,1.3111999999880908,1.318000000000012,1.3445000000000107,1.3515999999940504,1.3782999999821186,1.3855000000000075,1.410599999994048,1.4198999999761668,1.4440999999940516,1.4641999999880824,1.4775000000000063,1.4880999999940485,1.4917999999821205,1.5093999999761678,1.5451999999880854,1.5521999999880904,1.5582999999821254,1.5757999999821237,1.6106999999880856,1.6205999999940417,1.6437999999821216,1.651299999982129,1.675899999976167,1.6841999999880812,1.7118999999761684,1.728399999976162,1.730000000000004,1.7605000000000075,1.768599999994052,1.7970000000000113,1.8042999999821205,1.8270999999940472,1.835000000000008,1.8588999999761597,1.8667999999821205,1.893500000000003,1.9006999999880918,1.9270999999940415,1.9355000000000047,1.9638999999761637,1.972199999988078,1.9938999999761648,2.00089999997617,2.02709999999405,2.036899999976157,2.041699999988083,2.0597999999821184,2.092500000000001,2.0997999999821246,2.1283999999761676,2.1355999999940423,2.1415999999940425,2.159699999988078,2.1937999999821187,2.202899999976168,2.2275000000000063,2.234599999994046,2.26100000000001,2.268699999988087,2.2951999999880854,2.3026999999880786,2.32859999999404,2.3358999999761636,2.3655000000000115,2.3730999999940394,2.375699999988086,2.4138999999761666,2.421899999976162,2.4250000000000114,2.442799999982128,2.479899999976169,2.4875000000000114,2.5112999999821284,2.518599999994052,2.5250999999940404,2.5603999999761697,2.5783999999761704,2.58569999998808,2.6151999999880786,2.6231999999880884,2.6445999999940426,2.6517999999821313,2.680000000000007,2.69139999997617,2.712299999982122,2.719299999982127,2.7465999999940465,2.753799999982121,2.7767999999821313,2.7858999999761664,2.8102999999821208,2.8172999999821258,2.825000000000003,2.842699999988085,2.875699999988086,2.8861999999880794,2.9106999999880827,2.9125999999940433,2.9440000000000026,2.9538999999761586,2.9796999999880853,2.9870999999940437,3.0106999999880912,3.0173999999761634,3.0472999999821297,3.0543999999761695,3.0770000000000124,3.085399999976161,3.1140000000000043,3.121099999994044,3.143699999988087,3.1507999999821266,3.1793999999761695,3.188899999976158,3.2120000000000033,3.2195999999940454,3.24679999998213,3.2536999999880862,3.2775000000000034,3.286899999976157,3.3130000000000024,3.3212999999821307,3.344299999982127,3.352000000000004,3.380599999994047,3.3878999999761703,3.410399999976164,3.4192999999821296,3.448899999976163,3.455899999976168,3.477599999994041,3.484399999976162,3.513199999988089,3.5230000000000103,3.545399999976169,3.5521999999880904,3.5585000000000093,3.594099999994043,3.6107999999821203,3.621099999994044,3.6475999999940427,3.65419999998808,3.6776999999880786,3.6850999999940512,3.715199999988087,3.722500000000011,3.7451999999880883,3.7520999999940443,3.7818999999761616,3.7895999999940386,3.811000000000007,3.818099999994047,3.846599999994041,3.8562999999821272,3.8590999999940436,3.894199999988089,3.910599999994048,3.9280999999940462,3.9356999999880884,3.9417999999821234,3.9772999999821224,3.9940999999940487,4.001399999976158,4.032499999999999,4.041399999976164,4.0612999999821255,4.071299999982131,4.09669999998809,4.106899999976164,4.12889999997617,4.136299999982128,4.1638999999761666,4.172799999982118,4.19459999999404,4.20359999999404,4.2310999999940435,4.239399999976158,4.242199999988088,4.277500000000003,4.287699999988078,4.311000000000007,4.318399999976165,4.3445999999940454,4.351899999976169,4.382199999988089,4.390299999982119,4.412099999994041,4.419199999988081,4.449000000000012,4.456299999982122,4.4778999999761595,4.486500000000007,4.51400000000001,4.5250999999940404,4.54529999998212,4.55329999998213,4.5815000000000055,4.588599999994045,4.611199999988088,4.620699999988091,4.647699999988092,4.6555000000000035,4.677799999982128,4.685799999982123,4.7156999999880895,4.724399999976157,4.744399999976167,4.751799999982126,4.782499999999999,4.789899999976157,4.811500000000009,4.820000000000007,4.847599999994046,4.858299999982123,4.878799999982121,4.8870000000000005,4.9161999999880805,4.928699999988083,4.941799999982123,4.9671999999880825,4.975199999988078,4.9917999999821205,5.013000000000005,5.031099999994041,5.042099999994051,5.061500000000009,5.074899999976168,5.09169999998808,5.108599999994041,5.1285000000000025,5.145599999994047,5.158199999988085,5.17829999998213,5.1935,5.21159999999405,5.232500000000002,5.2417999999821205,5.258399999976163,5.2750999999940404,5.296299999982125,5.308599999994044,5.325099999994052,5.347399999976162,5.358399999976157,5.375199999988084,5.394299999982124,5.411399999976169,5.425399999976165,5.443199999988082,5.466099999994043,5.474899999976159,5.491599999994051,5.512299999982119,5.524899999976171,5.541699999988083,5.561599999994044,5.579399999976161,5.591599999994045,5.6085000000000065,5.625500000000002,5.644500000000008,5.660899999976166,5.678099999994046,5.692799999982128,5.708500000000001,5.7250000000000085,5.741500000000002,5.760199999988089,5.777500000000003,5.791499999999999,5.808299999982125,5.825199999988087,5.845500000000001,5.863899999976169,5.879399999976158,5.8916999999880915,5.908399999976169,5.934000000000012,5.941699999988089,5.958399999976166,5.978299999982127,5.991599999994051,6.011099999994045,6.027899999976171,6.046799999982127,6.061699999988079,6.074899999976168,6.094299999982127,6.110599999994051,6.1307999999821305,6.141799999982126,6.161399999976169,6.178399999976165,6.193399999976165,6.212799999982124,6.225199999988078,6.241699999988086,6.258899999976165,6.274899999976171,6.293000000000006,6.315799999982119,6.332299999982126,6.3422999999821315,6.358299999982123,6.379199999988089,6.393299999982119,6.40829999998212,6.42829999998213,6.442699999988079,6.461500000000001,6.476199999988083,6.491500000000002,6.508299999982128,6.524899999976171,6.541699999988083,6.5595,6.5767999999821285,6.59169999998808,6.608399999976157,6.629399999976158,6.644299999982124,6.658799999982122,6.677799999982128,6.693199999988082,6.708500000000001,6.7287999999821295,6.745099999994039,6.760899999976161,6.775599999994043,6.7960000000000065,6.809799999982118,6.82559999999404,6.844799999982129,6.859699999988081,6.875199999988084,6.895500000000013,6.908399999976169,6.92529999998213,6.941799999982123,6.9625999999940404,6.977399999976157,6.9918999999761695,7.010299999982124,7.026399999976164,7.041799999982118,7.061000000000007,7.075000000000003,7.091799999982129,7.108399999976157,7.129599999994042,7.144299999982124,7.158500000000004,7.178799999982118,7.192899999976163,7.208299999982131,7.227099999994039,7.244799999982121,7.260299999982124,7.275399999976159]","[1732683582477,1732683582522,1732683582541,1732683582549,1732683582574,1732683582585,1732683582610,1732683582618,1732683582643,1732683582650,1732683582677,1732683582684,1732683582708,1732683582715,1732683582743,1732683582752,1732683582776,1732683582785,1732683582810,1732683582817,1732683582824,1732683582841,1732683582879,1732683582887,1732683582909,1732683582920,1732683582945,1732683582952,1732683582977,1732683582983,1732683583013,1732683583020,1732683583043,1732683583050,1732683583057,1732683583093,1732683583109,1732683583117,1732683583146,1732683583155,1732683583158,1732683583191,1732683583209,1732683583226,1732683583234,1732683583264,1732683583273,1732683583276,1732683583310,1732683583324,1732683583344,1732683583351,1732683583380,1732683583387,1732683583409,1732683583419,1732683583445,1732683583453,1732683583476,1732683583483,1732683583513,1732683583519,1732683583543,1732683583551,1732683583580,1732683583588,1732683583609,1732683583617,1732683583645,1732683583654,1732683583677,1732683583684,1732683583712,1732683583719,1732683583743,1732683583752,1732683583776,1732683583783,1732683583810,1732683583817,1732683583844,1732683583851,1732683583876,1732683583885,1732683583909,1732683583930,1732683583943,1732683583953,1732683583957,1732683583975,1732683584010,1732683584017,1732683584023,1732683584041,1732683584076,1732683584086,1732683584109,1732683584117,1732683584141,1732683584149,1732683584177,1732683584194,1732683584195,1732683584226,1732683584234,1732683584262,1732683584270,1732683584292,1732683584300,1732683584324,1732683584332,1732683584359,1732683584366,1732683584392,1732683584401,1732683584429,1732683584437,1732683584459,1732683584466,1732683584492,1732683584502,1732683584507,1732683584525,1732683584558,1732683584565,1732683584594,1732683584601,1732683584607,1732683584625,1732683584659,1732683584668,1732683584693,1732683584700,1732683584726,1732683584736,1732683584762,1732683584770,1732683584796,1732683584803,1732683584833,1732683584840,1732683584843,1732683584881,1732683584889,1732683584892,1732683584910,1732683584947,1732683584955,1732683584979,1732683584986,1732683584992,1732683585028,1732683585046,1732683585053,1732683585083,1732683585091,1732683585112,1732683585119,1732683585147,1732683585159,1732683585180,1732683585187,1732683585214,1732683585221,1732683585244,1732683585253,1732683585278,1732683585285,1732683585292,1732683585310,1732683585343,1732683585354,1732683585378,1732683585380,1732683585411,1732683585421,1732683585447,1732683585454,1732683585478,1732683585485,1732683585515,1732683585522,1732683585544,1732683585553,1732683585581,1732683585588,1732683585611,1732683585618,1732683585647,1732683585656,1732683585679,1732683585687,1732683585714,1732683585721,1732683585745,1732683585754,1732683585780,1732683585789,1732683585812,1732683585819,1732683585848,1732683585855,1732683585878,1732683585887,1732683585916,1732683585923,1732683585945,1732683585952,1732683585980,1732683585990,1732683586013,1732683586020,1732683586026,1732683586061,1732683586078,1732683586088,1732683586115,1732683586121,1732683586145,1732683586152,1732683586183,1732683586190,1732683586213,1732683586219,1732683586249,1732683586257,1732683586278,1732683586285,1732683586314,1732683586324,1732683586326,1732683586362,1732683586378,1732683586395,1732683586403,1732683586409,1732683586445,1732683586461,1732683586469,1732683586500,1732683586509,1732683586529,1732683586539,1732683586564,1732683586574,1732683586596,1732683586604,1732683586631,1732683586640,1732683586662,1732683586671,1732683586698,1732683586707,1732683586710,1732683586745,1732683586755,1732683586778,1732683586786,1732683586812,1732683586819,1732683586850,1732683586858,1732683586879,1732683586887,1732683586916,1732683586924,1732683586945,1732683586954,1732683586981,1732683586992,1732683587013,1732683587021,1732683587049,1732683587056,1732683587078,1732683587088,1732683587115,1732683587123,1732683587145,1732683587153,1732683587183,1732683587192,1732683587212,1732683587219,1732683587250,1732683587257,1732683587279,1732683587287,1732683587315,1732683587326,1732683587346,1732683587354,1732683587383,1732683587396,1732683587409,1732683587434,1732683587442,1732683587459,1732683587480,1732683587498,1732683587509,1732683587529,1732683587542,1732683587559,1732683587576,1732683587596,1732683587613,1732683587626,1732683587646,1732683587661,1732683587679,1732683587700,1732683587709,1732683587726,1732683587742,1732683587764,1732683587776,1732683587792,1732683587815,1732683587826,1732683587842,1732683587862,1732683587879,1732683587893,1732683587910,1732683587933,1732683587942,1732683587959,1732683587980,1732683587992,1732683588009,1732683588029,1732683588047,1732683588059,1732683588076,1732683588093,1732683588112,1732683588128,1732683588145,1732683588160,1732683588176,1732683588192,1732683588209,1732683588227,1732683588245,1732683588259,1732683588276,1732683588293,1732683588313,1732683588331,1732683588347,1732683588359,1732683588376,1732683588401,1732683588409,1732683588426,1732683588446,1732683588459,1732683588478,1732683588495,1732683588514,1732683588529,1732683588542,1732683588562,1732683588578,1732683588598,1732683588609,1732683588629,1732683588646,1732683588661,1732683588680,1732683588693,1732683588709,1732683588726,1732683588742,1732683588760,1732683588783,1732683588800,1732683588810,1732683588826,1732683588847,1732683588861,1732683588876,1732683588896,1732683588910,1732683588929,1732683588943,1732683588959,1732683588976,1732683588992,1732683589009,1732683589027,1732683589044,1732683589059,1732683589076,1732683589097,1732683589112,1732683589126,1732683589145,1732683589161,1732683589176,1732683589196,1732683589213,1732683589228,1732683589243,1732683589263,1732683589277,1732683589293,1732683589312,1732683589327,1732683589343,1732683589363,1732683589376,1732683589393,1732683589409,1732683589430,1732683589445,1732683589459,1732683589478,1732683589494,1732683589509,1732683589528,1732683589542,1732683589559,1732683589576,1732683589597,1732683589612,1732683589626,1732683589646,1732683589660,1732683589676,1732683589694,1732683589712,1732683589728,1732683589743]","[[1122.1,517.5],[1122.1,517.5],[1124.7,525],[1124.7,525],[1124.1,527.2],[1124.1,527.2],[1133,525.5],[1133,525.5],[1115.3,528.7],[1115.3,528.7],[1101.8,538.8],[1101.8,538.8],[1093.3,540.8],[1093.3,540.8],[1052.3,545],[1052.3,545],[1057.9,556.5],[1057.9,556.5],[1048.4,556.8],[1048.4,556.8],[1048.4,556.8],[1048.4,556.8],[1020.5,556.6],[1020.5,556.6],[1006,545.5],[1006,545.5],[999.3,541.8],[999.3,541.8],[973.8,524.1],[973.8,524.1],[985,513.3],[985,513.3],[919.8,496.8],[919.8,496.8],[919.8,496.8],[919.8,496.8],[849.3,492.3],[849.3,492.3],[825.4,486.9],[825.4,486.9],[825.4,486.9],[753.7,465.7],[753.7,465.7],[711.8,444.1],[711.8,444.1],[687.3,436.5],[687.3,436.5],[687.3,436.5],[669.8,444],[669.8,444],[605.5,449.4],[605.5,449.4],[699.3,512.8],[699.3,512.8],[568.6,462.4],[568.6,462.4],[570.4,454.1],[570.4,454.1],[621.9,472.5],[621.9,472.5],[718.7,488.4],[718.7,488.4],[743.9,505.5],[743.9,505.5],[738.2,514.3],[738.2,514.3],[783.8,535.6],[783.8,535.6],[753.6,539.6],[753.6,539.6],[844.8,531],[844.8,531],[794.6,480.6],[794.6,480.6],[933.5,535.6],[933.5,535.6],[965.4,541.7],[965.4,541.7],[950.6,535.4],[950.6,535.4],[854.1,532.4],[854.1,532.4],[871.3,538.2],[871.3,538.2],[903.4,554.2],[903.4,554.2],[881.2,543],[881.2,543],[881.2,543],[881.2,543],[865.5,546.9],[865.5,546.9],[865.5,546.9],[865.5,546.9],[788.9,558.6],[788.9,558.6],[742.4,571.3],[742.4,571.3],[685.2,584.9],[685.2,584.9],[674.5,606.3],[674.5,606.3],[674.5,606.3],[686.6,607.5],[686.6,607.5],[713.7,594],[713.7,594],[684.5,587.8],[684.5,587.8],[691.1,580.5],[691.1,580.5],[696.2,583.6],[696.2,583.6],[718.8,564],[718.8,564],[748,543.9],[748,543.9],[755.7,525.1],[755.7,525.1],[781.7,507.4],[781.7,507.4],[781.7,507.4],[781.7,507.4],[808.3,478.4],[808.3,478.4],[819.1,447.8],[819.1,447.8],[819.1,447.8],[819.1,447.8],[803.7,435.1],[803.7,435.1],[831.3,418.1],[831.3,418.1],[818.8,398.3],[818.8,398.3],[793.2,403.1],[793.2,403.1],[850.9,428],[850.9,428],[884.3,501.2],[884.3,501.2],[884.3,501.2],[882.7,514],[882.7,514],[882.7,514],[882.7,514],[928.5,510.4],[928.5,510.4],[929.8,519.1],[929.8,519.1],[929.8,519.1],[929.8,519.1],[910.4,515.7],[910.4,515.7],[928.8,502.2],[928.8,502.2],[946.6,511.4],[946.6,511.4],[959.8,537.1],[959.8,537.1],[1005.8,538.5],[1005.8,538.5],[1002.1,521.1],[1002.1,521.1],[974.4,471.1],[974.4,471.1],[991.9,473],[991.9,473],[991.9,473],[991.9,473],[996.6,501.9],[996.6,501.9],[996.6,501.9],[996.6,501.9],[1045.2,526.4],[1045.2,526.4],[1082,553.7],[1082,553.7],[1112,572.2],[1112,572.2],[1143.6,567.6],[1143.6,567.6],[1181.4,560.5],[1181.4,560.5],[1206,542.7],[1206,542.7],[1201.4,551.1],[1201.4,551.1],[1164.6,565.6],[1164.6,565.6],[1120.3,574.4],[1120.3,574.4],[1060.7,562.3],[1060.7,562.3],[1029.9,552.4],[1029.9,552.4],[1028.9,564],[1028.9,564],[979.8,583.3],[979.8,583.3],[982.2,591.1],[982.2,591.1],[973,584.7],[973,584.7],[961.4,597.5],[961.4,597.5],[979.8,591],[979.8,591],[1030.3,567.3],[1030.3,567.3],[1105.7,537.9],[1105.7,537.9],[1105.7,537.9],[1105.7,537.9],[1180.4,541.5],[1180.4,541.5],[1172.3,543.1],[1172.3,543.1],[1174.3,531.1],[1174.3,531.1],[1226.1,519.5],[1226.1,519.5],[1220.5,535.4],[1220.5,535.4],[1220.7,531.2],[1220.7,531.2],[1210.7,542.6],[1210.7,542.6],[1164.2,560.2],[1164.2,560.2],[1164.2,560.2],[1178.2,572.3],[1178.2,572.3],[1167.9,574.8],[1167.9,574.8],[1167.9,574.8],[1167.9,574.8],[1124.2,566],[1124.2,566],[1105.9,582.9],[1105.9,582.9],[1054.9,594.5],[1054.9,594.5],[1028.1,611.2],[1028.1,611.2],[963.7,630.3],[963.7,630.3],[911.6,646.9],[911.6,646.9],[920.5,648.3],[920.5,648.3],[948,654.1],[948,654.1],[948,654.1],[934.7,658.8],[934.7,658.8],[920.9,675.6],[920.9,675.6],[929.1,658.6],[929.1,658.6],[959.8,631.8],[959.8,631.8],[988,619.9],[988,619.9],[1019.1,609.8],[1019.1,609.8],[1079.4,574.3],[1079.4,574.3],[1127.6,581.7],[1127.6,581.7],[1123,575.9],[1123,575.9],[1133.1,560.9],[1133.1,560.9],[1165.4,554.1],[1165.4,554.1],[1172.9,548.7],[1172.9,548.7],[1174.8,571.5],[1174.8,571.5],[1184.9,574],[1184.9,574],[1192.6,576.1],[1192.6,576.1],[1162.5,581.8],[1162.5,581.8],[1160.7,585.7],[1160.7,585.7],[1150.6,569.6],[1150.6,569.6],[1146,552.2],[1146,552.2],[1135.3,545.5],[1135.3,545.5],[1120.2,529.4],[1111.3,511.4],[1111.3,511.4],[1126.8,499.4],[1116.6,471.7],[1116.6,471.7],[1126,449.3],[1137.1,422.9],[1137.1,422.9],[1125.1,409.2],[1149,408.4],[1126.6,415.3],[1107.1,418.9],[1107.1,418.9],[1041.9,435.5],[1006,437],[974.3,429.3],[919.6,437.8],[919.6,437.8],[961.9,443.7],[1038.8,447.6],[1133.8,454.6],[1133.8,454.6],[1103.6,445.1],[1137,445.1],[1137,445.1],[1187.8,435.1],[1246.7,421.4],[1246.7,421.4],[1302.9,427.9],[1325.9,437.4],[1390.5,453.6],[1390.5,453.6],[1357,464.7],[1292.4,469.3],[1292.4,469.3],[1220.8,473],[1256.5,476.7],[1274.4,468.8],[1274.4,468.8],[1287.3,476.9],[1334.6,475],[1381.3,472],[1447.3,463.8],[1478.7,456],[1478.7,456],[1504.3,452.9],[1504.3,452.9],[1512.7,452.8],[1516.3,448],[1522.3,454.8],[1522.3,454.8],[1517.9,458.8],[1500,452.1],[1470.8,450.4],[1433.6,460.7],[1433.6,460.7],[1413.6,461.2],[1400,459.3],[1419.9,454.6],[1419.9,454.6],[1428.3,449.7],[1429.9,447.3],[1429.9,447.3],[1393.5,448.5],[1415.6,429.1],[1442.4,416.6],[1438.2,428.3],[1438.2,428.3],[1420.3,433.9],[1396.3,445.6],[1419.2,444.9],[1419.2,444.9],[1401.7,437.3],[1403.2,430.3],[1388.9,426.5],[1406.6,415.2],[1406.6,415.2],[1400.5,402.1],[1409.4,371.7],[1449.3,317.1],[1442.4,286.3],[1442.4,286.3],[1423.7,259],[1423.7,259],[1410.8,241.4],[1403,226.5],[1397.5,235.7],[1408.3,241.7],[1429.1,226.4],[1425.6,236.3],[1403.5,261.3],[1364.9,285.7],[1373.1,286.3],[1381.7,276.2],[1379,283.9],[1379.9,292.1],[1391.1,286.8],[1396.6,274.5],[1402.7,284.4],[1383.9,289.6],[1386.5,307.9],[1392,325.5],[1396.5,316.8],[1400.9,330.6],[1396.2,336.4],[1382.8,339],[1370.2,344.3],[1355.9,368.1],[1329.3,439.5],[1327.6,515.6],[1304.5,577.4],[1280.7,601.5],[1263.7,658.9],[1243.6,709.2],[1210.7,733.9],[1177.8,758.6],[1176.5,771.7],[1176.5,771.7],[1154.5,785.3],[1143.8,719.7],[1138.7,656.1],[1106,603.4],[1109.2,591.7],[1097.3,567.4],[1093.8,542.6],[1104.2,536.5],[1121.8,531.3],[1121.8,531.3],[1101.5,546.7],[1104.2,535.8],[1098.2,563.6],[1096,561.7],[1119.7,571.5],[1100.8,589.3],[1109.8,591.7],[1126.2,585.5],[1102.2,610.3],[1071,634.2],[1095.7,593.5],[1125.5,567.1]]","[-0.142,0.42599999999999993]","[0.142,0.42599999999999993]","[0.42599999999999993,0.42599999999999993]","[-0.42599999999999993,-0.142]","[-0.42599999999999993,0.142]","[-0.42599999999999993,-0.42599999999999993]","[-0.142,-0.142]","[0.142,-0.142]","[0.42599999999999993,-0.142]","[-0.142,0.142]","[0.142,0.142]","[0.42599999999999993,0.142]","[-0.142,-0.42599999999999993]","[0.142,-0.42599999999999993]","[0.42599999999999993,-0.42599999999999993]",0,0,0,0,1,2,Laptop,15,20,8,3,70,4,3,60,4
