inst1_resp.keys,inst1_resp.rt,calibrationMouse.x,calibrationMouse.y,calibrationMouse.leftButton,calibrationMouse.midButton,calibrationMouse.rightButton,calibrationClick.x,calibrationClick.y,calibrationClick.leftButton,calibrationClick.midButton,calibrationClick.rightButton,trialsc.thisRepN,trialsc.thisTrialN,trialsc.thisN,trialsc.thisIndex,trialsc.ran,calibration_x,calibration_y,participant,session,date,expName,psychopyVersion,OS,frameRate,calibrationClick.clicked_name,ScreenRes_pixels,Camera_pixels,mouse_2.x,mouse_2.y,mouse_2.leftButton,mouse_2.midButton,mouse_2.rightButton,mouse_2.time,mouse_2.clicked_name,mouse.x,mouse.y,mouse.leftButton,mouse.midButton,mouse.rightButton,mouse.time,mouse.clicked_name,Choice,Trial,TrialDuration,MOUSE_GAZE,ET_GAZE,ET_GAZE_x_T,time,unixTime,ET_GAZE_NF,Loc_Bus_label,Loc_Metro_label,Loc_RH_label,Loc_Cost_label,Loc_Travel_label,Loc_Comfort_label,Loc_Bus_cost,Loc_Metro_cost,Loc_RH_cost,Loc_Bus_travel,Loc_Metro_travel,Loc_RH_travel,Loc_Bus_comfort,Loc_Metro_comfort,Loc_RH_comfort,trials.thisRepN,trials.thisTrialN,trials.thisN,trials.thisIndex,trials.ran,Block,Device,RH_cost,RH_travel_time,RH_Comfort,metro_cost,metro_travel_time,metro_Comfort,Bus_cost,Bus_travel_time,Bus_Comfort
space,3.0642,0.070833333,-0.125925926,1,0,0,-0.675,0.022222222,1,0,0,0,0,0,2,1,-0.67,0,25,001,2024-11-27_15h02.23.985,Attention_exp_legacy,2023.1.0,Win32,59.88023952,,,,,,,,,,,,,,,,,,,,,,,,,,,,,,,,,,,,,,,,,,,,,,,,,,,,,,,,,
,,,,,,,0.326041667,0.67037037,1,0,0,0,1,1,18,1,0.33,0.67,25,001,2024-11-27_15h02.23.985,Attention_exp_legacy,2023.1.0,Win32,59.88023952,calibration_square,,,,,,,,,,,,,,,,,,,,,,,,,,,,,,,,,,,,,,,,,,,,,,,,,,,,,,,,
,,,,,,,0.001041667,-0.683333333,1,0,0,0,2,2,9,1,0,-0.67,25,001,2024-11-27_15h02.23.985,Attention_exp_legacy,2023.1.0,Win32,59.88023952,,,,,,,,,,,,,,,,,,,,,,,,,,,,,,,,,,,,,,,,,,,,,,,,,,,,,,,,,
,,,,,,,-0.328125,-0.666666667,1,0,0,0,3,3,4,1,-0.33,-0.67,25,001,2024-11-27_15h02.23.985,Attention_exp_legacy,2023.1.0,Win32,59.88023952,calibration_square,,,,,,,,,,,,,,,,,,,,,,,,,,,,,,,,,,,,,,,,,,,,,,,,,,,,,,,,
,,,,,,,-0.667708333,-0.664814815,1,0,0,0,4,4,0,1,-0.67,-0.67,25,001,2024-11-27_15h02.23.985,Attention_exp_legacy,2023.1.0,Win32,59.88023952,calibration_square,,,,,,,,,,,,,,,,,,,,,,,,,,,,,,,,,,,,,,,,,,,,,,,,,,,,,,,,
,,,,,,,0.321875,0.337037037,1,0,0,0,5,5,17,1,0.33,0.33,25,001,2024-11-27_15h02.23.985,Attention_exp_legacy,2023.1.0,Win32,59.88023952,calibration_square,,,,,,,,,,,,,,,,,,,,,,,,,,,,,,,,,,,,,,,,,,,,,,,,,,,,,,,,
,,,,,,,-0.336458333,-0.346296296,1,0,0,0,6,6,5,1,-0.33,-0.33,25,001,2024-11-27_15h02.23.985,Attention_exp_legacy,2023.1.0,Win32,59.88023952,,,,,,,,,,,,,,,,,,,,,,,,,,,,,,,,,,,,,,,,,,,,,,,,,,,,,,,,,
,,,,,,,0.004166667,0.331481481,1,0,0,0,7,7,12,1,0,0.33,25,001,2024-11-27_15h02.23.985,Attention_exp_legacy,2023.1.0,Win32,59.88023952,calibration_square,,,,,,,,,,,,,,,,,,,,,,,,,,,,,,,,,,,,,,,,,,,,,,,,,,,,,,,,
,,,,,,,0.317708333,-0.664814815,1,0,0,0,8,8,14,1,0.33,-0.67,25,001,2024-11-27_15h02.23.985,Attention_exp_legacy,2023.1.0,Win32,59.88023952,,,,,,,,,,,,,,,,,,,,,,,,,,,,,,,,,,,,,,,,,,,,,,,,,,,,,,,,,
,,,,,,,-0.336458333,-0.003703704,1,0,0,0,9,9,6,1,-0.33,0,25,001,2024-11-27_15h02.23.985,Attention_exp_legacy,2023.1.0,Win32,59.88023952,calibration_square,,,,,,,,,,,,,,,,,,,,,,,,,,,,,,,,,,,,,,,,,,,,,,,,,,,,,,,,
,,,,,,,-0.66875,-0.32962963,1,0,0,0,10,10,1,1,-0.67,-0.33,25,001,2024-11-27_15h02.23.985,Attention_exp_legacy,2023.1.0,Win32,59.88023952,calibration_square,,,,,,,,,,,,,,,,,,,,,,,,,,,,,,,,,,,,,,,,,,,,,,,,,,,,,,,,
,,,,,,,0.666666667,0.675925926,1,0,0,0,11,11,19,1,0.67,0.67,25,001,2024-11-27_15h02.23.985,Attention_exp_legacy,2023.1.0,Win32,59.88023952,calibration_square,,,,,,,,,,,,,,,,,,,,,,,,,,,,,,,,,,,,,,,,,,,,,,,,,,,,,,,,
,,,,,,,-0.66875,0.324074074,1,0,0,0,12,12,3,1,-0.67,0.33,25,001,2024-11-27_15h02.23.985,Attention_exp_legacy,2023.1.0,Win32,59.88023952,calibration_square,,,,,,,,,,,,,,,,,,,,,,,,,,,,,,,,,,,,,,,,,,,,,,,,,,,,,,,,
,,,,,,,-0.00625,-0.325925926,1,0,0,0,13,13,10,1,0,-0.33,25,001,2024-11-27_15h02.23.985,Attention_exp_legacy,2023.1.0,Win32,59.88023952,calibration_square,,,,,,,,,,,,,,,,,,,,,,,,,,,,,,,,,,,,,,,,,,,,,,,,,,,,,,,,
,,,,,,,-0.329166667,0.322222222,1,0,0,0,14,14,7,1,-0.33,0.33,25,001,2024-11-27_15h02.23.985,Attention_exp_legacy,2023.1.0,Win32,59.88023952,calibration_square,,,,,,,,,,,,,,,,,,,,,,,,,,,,,,,,,,,,,,,,,,,,,,,,,,,,,,,,
,,,,,,,0,0.664814815,1,0,0,0,15,15,13,1,0,0.67,25,001,2024-11-27_15h02.23.985,Attention_exp_legacy,2023.1.0,Win32,59.88023952,calibration_square,,,,,,,,,,,,,,,,,,,,,,,,,,,,,,,,,,,,,,,,,,,,,,,,,,,,,,,,
,,,,,,,0.665625,-0.664814815,1,0,0,0,16,16,20,1,0.67,-0.67,25,001,2024-11-27_15h02.23.985,Attention_exp_legacy,2023.1.0,Win32,59.88023952,calibration_square,,,,,,,,,,,,,,,,,,,,,,,,,,,,,,,,,,,,,,,,,,,,,,,,,,,,,,,,
,,,,,,,-0.003125,0.02037037,1,0,0,0,17,17,11,1,0,0,25,001,2024-11-27_15h02.23.985,Attention_exp_legacy,2023.1.0,Win32,59.88023952,,,,,,,,,,,,,,,,,,,,,,,,,,,,,,,,,,,,,,,,,,,,,,,,,,,,,,,,,
,,,,,,,0.33125,0.003703704,1,0,0,0,18,18,16,1,0.33,0,25,001,2024-11-27_15h02.23.985,Attention_exp_legacy,2023.1.0,Win32,59.88023952,calibration_square,,,,,,,,,,,,,,,,,,,,,,,,,,,,,,,,,,,,,,,,,,,,,,,,,,,,,,,,
,,,,,,,-0.322916667,0.651851852,1,0,0,0,19,19,8,1,-0.33,0.67,25,001,2024-11-27_15h02.23.985,Attention_exp_legacy,2023.1.0,Win32,59.88023952,,,,,,,,,,,,,,,,,,,,,,,,,,,,,,,,,,,,,,,,,,,,,,,,,,,,,,,,,
,,,,,,,0.334375,-0.35,1,0,0,0,20,20,15,1,0.33,-0.33,25,001,2024-11-27_15h02.23.985,Attention_exp_legacy,2023.1.0,Win32,59.88023952,,,,,,,,,,,,,,,,,,,,,,,,,,,,,,,,,,,,,,,,,,,,,,,,,,,,,,,,,
,,,,,,,,,,,,,,,,,,,25,001,2024-11-27_15h02.23.985,Attention_exp_legacy,2023.1.0,Win32,59.88023952,,"[1920,1080]","[640,480]",[0.026041666666666668],[-0.4981481481481482],[1],[0],[0],[5.214300000011924],"[""StartButton""]",[0.15625],[0.3962962962962963],[1],[0],[0],[3.4472000000178795],"[""Metro_label""]",Metro_label,1,4.4576,"[[0.10833333333333334,-0.12037037037037036],[0.10833333333333334,-0.12037037037037036],[0.10833333333333334,-0.12037037037037036],[0.10833333333333334,-0.12037037037037036],[0.10833333333333334,-0.12037037037037036],[0.10833333333333334,-0.12037037037037036],[0.10833333333333334,-0.12037037037037036],[0.10833333333333334,-0.12037037037037036],[0.10833333333333334,-0.12037037037037036],[0.10833333333333334,-0.12037037037037036],[0.10833333333333334,-0.12037037037037036],[0.10833333333333334,-0.12037037037037036],[0.10833333333333334,-0.12037037037037036],[0.10833333333333334,-0.12037037037037036],[0.10833333333333334,-0.12037037037037036],[0.10833333333333334,-0.12037037037037036],[0.10833333333333334,-0.12037037037037036],[0.10833333333333334,-0.12037037037037036],[0.10833333333333334,-0.12037037037037036],[0.10833333333333334,-0.12037037037037036],[0.10833333333333334,-0.12037037037037036],[0.10833333333333334,-0.12037037037037036],[0.10833333333333334,-0.12037037037037036],[0.10833333333333334,-0.12037037037037036],[0.10833333333333334,-0.12037037037037036],[0.10833333333333334,-0.12037037037037036],[0.10833333333333334,-0.12037037037037036],[0.10833333333333334,-0.12037037037037036],[0.10833333333333334,-0.12037037037037036],[0.10833333333333334,-0.12037037037037036],[0.10833333333333334,-0.12037037037037036],[0.10833333333333334,-0.12037037037037036],[0.10833333333333334,-0.12037037037037036],[0.10833333333333334,-0.12037037037037036],[0.10833333333333334,-0.12037037037037036],[0.10833333333333334,-0.12037037037037036],[0.10833333333333334,-0.12037037037037036],[0.10833333333333334,-0.12037037037037036],[0.10833333333333334,-0.12037037037037036],[0.10833333333333334,-0.12037037037037036],[0.10833333333333334,-0.12037037037037036],[0.10833333333333334,-0.12037037037037036],[0.10833333333333334,-0.12037037037037036],[0.10833333333333334,-0.12037037037037036],[0.10833333333333334,-0.12037037037037036],[0.10833333333333334,-0.12037037037037036],[0.10833333333333334,-0.12037037037037036],[0.10833333333333334,-0.12037037037037036],[0.10833333333333334,-0.12037037037037036],[0.10833333333333334,-0.12037037037037036],[0.10833333333333334,-0.12037037037037036],[0.10833333333333334,-0.12037037037037036],[0.10833333333333334,-0.12037037037037036],[0.10833333333333334,-0.12037037037037036],[0.10833333333333334,-0.12037037037037036],[0.10833333333333334,-0.12037037037037036],[0.10833333333333334,-0.12037037037037036],[0.10833333333333334,-0.12037037037037036],[0.10833333333333334,-0.12037037037037036],[0.10833333333333334,-0.12037037037037036],[0.10833333333333334,-0.12037037037037036],[0.10833333333333334,-0.12037037037037036],[0.10833333333333334,-0.12037037037037036],[0.10833333333333334,-0.12037037037037036],[0.10833333333333334,-0.12037037037037036],[0.10833333333333334,-0.12037037037037036],[0.10833333333333334,-0.12037037037037036],[0.10833333333333334,-0.12037037037037036],[0.10833333333333334,-0.12037037037037036],[0.10833333333333334,-0.12037037037037036],[0.10833333333333334,-0.12037037037037036],[0.10833333333333334,-0.12037037037037036],[0.10833333333333334,-0.12037037037037036],[0.10833333333333334,-0.12037037037037036],[0.10833333333333334,-0.12037037037037036],[0.10833333333333334,-0.12037037037037036],[0.10833333333333334,-0.12037037037037036],[0.10833333333333334,-0.12037037037037036],[0.10833333333333334,-0.12037037037037036],[0.10833333333333334,-0.12037037037037036],[0.10833333333333334,-0.12037037037037036],[0.10833333333333334,-0.12037037037037036],[0.10833333333333334,-0.12037037037037036],[0.10833333333333334,-0.12037037037037036],[0.10833333333333334,-0.12037037037037036],[0.10833333333333334,-0.12037037037037036],[0.10833333333333334,-0.12037037037037036],[0.10833333333333334,-0.12037037037037036],[0.10833333333333334,-0.12037037037037036],[0.10833333333333334,-0.12037037037037036],[0.10833333333333334,-0.12037037037037036],[0.10833333333333334,-0.12037037037037036],[0.10833333333333334,-0.12037037037037036],[0.10833333333333334,-0.12037037037037036],[0.10833333333333334,-0.12037037037037036],[0.10833333333333334,-0.12037037037037036],[0.10833333333333334,-0.12037037037037036],[0.10833333333333334,-0.12037037037037036],[0.10833333333333334,-0.12037037037037036],[0.10833333333333334,-0.12037037037037036],[0.10833333333333334,-0.12037037037037036],[0.10833333333333334,-0.12037037037037036],[0.10833333333333334,-0.12037037037037036],[0.10833333333333334,-0.12037037037037036],[0.10833333333333334,-0.12037037037037036],[0.10833333333333334,-0.12037037037037036],[0.10833333333333334,-0.12037037037037036],[0.10833333333333334,-0.12037037037037036],[0.10833333333333334,-0.12037037037037036],[0.10833333333333334,-0.12037037037037036],[0.10833333333333334,-0.12037037037037036],[0.10833333333333334,-0.12037037037037036],[0.10833333333333334,-0.12037037037037036],[0.10833333333333334,-0.12037037037037036],[0.10833333333333334,-0.12037037037037036],[0.10833333333333334,-0.12037037037037036],[0.10833333333333334,-0.12037037037037036],[0.10833333333333334,-0.12037037037037036],[0.10833333333333334,-0.12037037037037036],[0.10833333333333334,-0.12037037037037036],[0.10833333333333334,-0.12037037037037036],[0.10833333333333334,-0.12037037037037036],[0.10833333333333334,-0.12037037037037036],[0.10833333333333334,-0.12037037037037036],[0.10833333333333334,-0.12037037037037036],[0.10833333333333334,-0.12037037037037036],[0.10833333333333334,-0.12037037037037036],[0.10833333333333334,-0.12037037037037036],[0.10833333333333334,-0.12037037037037036],[0.10833333333333334,-0.12037037037037036],[0.10833333333333334,-0.12037037037037036],[0.10833333333333334,-0.12037037037037036],[0.10833333333333334,-0.12037037037037036],[0.10833333333333334,-0.12037037037037036],[0.10833333333333334,-0.12037037037037036],[0.10833333333333334,-0.12037037037037036],[0.10833333333333334,-0.12037037037037036],[0.10833333333333334,-0.12037037037037036],[0.10833333333333334,-0.12037037037037036],[0.10833333333333334,-0.12037037037037036],[0.10833333333333334,-0.12037037037037036],[0.10833333333333334,-0.12037037037037036],[0.10833333333333334,-0.12037037037037036],[0.10833333333333334,-0.12037037037037036],[0.10833333333333334,-0.12037037037037036],[0.10833333333333334,-0.12037037037037036],[0.10833333333333334,-0.12037037037037036],[0.10833333333333334,-0.12037037037037036],[0.10833333333333334,-0.12037037037037036],[0.10833333333333334,-0.12037037037037036],[0.10833333333333334,-0.12037037037037036],[0.10833333333333334,-0.12037037037037036],[0.10833333333333334,-0.12037037037037036],[0.10833333333333334,-0.12037037037037036],[0.10833333333333334,-0.12037037037037036],[0.10833333333333334,-0.12037037037037036],[0.10833333333333334,-0.12037037037037036],[0.10833333333333334,-0.12037037037037036],[0.10833333333333334,-0.12037037037037036],[0.10833333333333334,-0.12037037037037036],[0.10833333333333334,-0.12037037037037036],[0.10833333333333334,-0.12037037037037036],[0.10833333333333334,-0.12037037037037036],[0.10833333333333334,-0.12037037037037036],[0.10833333333333334,-0.12037037037037036],[0.10833333333333334,-0.12037037037037036],[0.10833333333333334,-0.12037037037037036],[0.10833333333333334,-0.12037037037037036],[0.10833333333333334,-0.12037037037037036],[0.10833333333333334,-0.12037037037037036],[0.10833333333333334,-0.12037037037037036],[0.10833333333333334,-0.12037037037037036],[0.10833333333333334,-0.12037037037037036],[0.10833333333333334,-0.12037037037037036],[0.10833333333333334,-0.12037037037037036],[0.10833333333333334,-0.12037037037037036],[0.10833333333333334,-0.12037037037037036],[0.10833333333333334,-0.12037037037037036],[0.10833333333333334,-0.12037037037037036],[0.10833333333333334,-0.11296296296296296],[0.11458333333333333,-0.09259259259259259],[0.14166666666666666,-0.020370370370370372],[0.14791666666666667,-0.005555555555555556],[0.1625,0.05],[0.165625,0.06296296296296296],[0.16979166666666667,0.1111111111111111],[0.17291666666666666,0.13148148148148148],[0.175,0.18518518518518517],[0.17916666666666667,0.23333333333333334],[0.17916666666666667,0.2574074074074074],[0.17916666666666667,0.26851851851851855],[0.178125,0.2814814814814815],[0.175,0.29444444444444445],[0.17395833333333333,0.3037037037037037],[0.16979166666666667,0.32037037037037036],[0.16458333333333333,0.34629629629629627],[0.16041666666666668,0.362962962962963],[0.159375,0.37222222222222223],[0.15833333333333333,0.37592592592592594],[0.15729166666666666,0.37962962962962965],[0.15729166666666666,0.38333333333333336],[0.15729166666666666,0.3907407407407407],[0.15625,0.39444444444444443],[0.15625,0.3962962962962963],[0.15625,0.3962962962962963],[0.15625,0.3962962962962963],[0.15625,0.3962962962962963],[0.15625,0.3962962962962963],[0.15625,0.3962962962962963],[0.15625,0.3962962962962963],[0.15625,0.3962962962962963],[0.15625,0.3962962962962963],[0.15625,0.3962962962962963],[0.15625,0.3962962962962963],[0.15625,0.3962962962962963],[0.15625,0.3962962962962963],[0.15625,0.3962962962962963],[0.15625,0.3962962962962963],[0.15625,0.3962962962962963],[0.15625,0.39814814814814814],[0.15416666666666667,0.39814814814814814],[0.153125,0.3907407407407407],[0.15104166666666666,0.3814814814814815],[0.14895833333333333,0.362962962962963],[0.14583333333333334,0.3351851851851852],[0.14270833333333333,0.28703703703703703],[0.1375,0.23148148148148148],[0.13229166666666667,0.17592592592592593],[0.13020833333333334,0.13333333333333333],[0.12708333333333333,0.0962962962962963],[0.12604166666666666,0.06666666666666667],[0.12291666666666666,0.040740740740740744],[0.121875,0.020370370370370372],[0.12083333333333333,0.003703703703703704],[0.12083333333333333,-0.009259259259259259],[0.12083333333333333,-0.012962962962962963],[0.12083333333333333,-0.016666666666666666],[0.12083333333333333,-0.018518518518518517],[0.12083333333333333,-0.020370370370370372],[0.12083333333333333,-0.020370370370370372],[0.12083333333333333,-0.020370370370370372],[0.12083333333333333,-0.020370370370370372],[0.12083333333333333,-0.020370370370370372],[0.12083333333333333,-0.020370370370370372],[0.12083333333333333,-0.020370370370370372],[0.12083333333333333,-0.020370370370370372],[0.12083333333333333,-0.020370370370370372],[0.12083333333333333,-0.020370370370370372],[0.12083333333333333,-0.020370370370370372],[0.12083333333333333,-0.020370370370370372],[0.12083333333333333,-0.020370370370370372],[0.12083333333333333,-0.020370370370370372],[0.12083333333333333,-0.020370370370370372],[0.12083333333333333,-0.020370370370370372],[0.12083333333333333,-0.020370370370370372],[0.12083333333333333,-0.020370370370370372],[0.12083333333333333,-0.020370370370370372],[0.12083333333333333,-0.020370370370370372],[0.12083333333333333,-0.020370370370370372],[0.12083333333333333,-0.020370370370370372],[0.12083333333333333,-0.020370370370370372],[0.12083333333333333,-0.020370370370370372],[0.12083333333333333,-0.020370370370370372],[0.12083333333333333,-0.020370370370370372],[0.12083333333333333,-0.020370370370370372],[0.12083333333333333,-0.020370370370370372]]","[[-0.010416666666666666,-0.5153703703703704],[-0.010416666666666666,-0.5153703703703704],[-0.010416666666666666,-0.5153703703703704],[-0.008437500000000023,-0.5096296296296297],[-0.008437500000000023,-0.5096296296296297],[-0.015625,-0.49314814814814817],[-0.015625,-0.49314814814814817],[-0.008541666666666715,-0.5442592592592592],[-0.008541666666666715,-0.5442592592592592],[-0.03270833333333331,-0.5196296296296297],[-0.03270833333333331,-0.5196296296296297],[-0.04604166666666672,-0.5257407407407407],[-0.04604166666666672,-0.5257407407407407],[-0.04604166666666672,-0.5257407407407407],[-0.04135416666666671,-0.5022222222222222],[-0.04135416666666671,-0.5022222222222222],[-0.035000000000000024,-0.49796296296296294],[-0.035000000000000024,-0.49796296296296294],[-0.035312499999999976,-0.4594444444444445],[-0.035312499999999976,-0.4594444444444445],[-0.06333333333333328,-0.4855555555555555],[-0.06333333333333328,-0.4855555555555555],[-0.06802083333333328,-0.4516666666666666],[-0.06802083333333328,-0.4516666666666666],[-0.11052083333333336,-0.44222222222222224],[-0.11052083333333336,-0.44222222222222224],[-0.1282291666666667,-0.43703703703703706],[-0.1282291666666667,-0.43703703703703706],[-0.16187499999999996,-0.37759259259259254],[-0.16187499999999996,-0.37759259259259254],[-0.16218750000000004,-0.35907407407407405],[-0.16218750000000004,-0.35907407407407405],[-0.16989583333333336,-0.3374074074074074],[-0.16989583333333336,-0.3374074074074074],[-0.196875,-0.33240740740740743],[-0.196875,-0.33240740740740743],[-0.23666666666666672,-0.3307407407407408],[-0.23666666666666672,-0.3307407407407408],[-0.2525,-0.30351851851851847],[-0.2525,-0.30351851851851847],[-0.24666666666666662,-0.25685185185185183],[-0.24666666666666662,-0.25685185185185183],[-0.2612499999999999,-0.24981481481481477],[-0.2612499999999999,-0.24981481481481477],[-0.2638541666666666,-0.23074074074074077],[-0.2638541666666666,-0.23074074074074077],[-0.2638541666666666,-0.23074074074074077],[-0.2638541666666666,-0.23074074074074077],[-0.28322916666666664,-0.23018518518518521],[-0.28322916666666664,-0.23018518518518521],[-0.2972916666666666,-0.19962962962962966],[-0.2972916666666666,-0.19962962962962966],[-0.319375,-0.1574074074074074],[-0.319375,-0.1574074074074074],[-0.335,-0.10888888888888891],[-0.335,-0.10888888888888891],[-0.34177083333333336,-0.05],[-0.34177083333333336,-0.05],[-0.34177083333333336,-0.05],[-0.32864583333333336,0.023333333333333376],[-0.32864583333333336,0.023333333333333376],[-0.3458333333333333,0.06666666666666667],[-0.3458333333333333,0.06666666666666667],[-0.33864583333333337,0.10166666666666663],[-0.33864583333333337,0.10166666666666663],[-0.33864583333333337,0.10166666666666663],[-0.33864583333333337,0.10166666666666663],[-0.33864583333333337,0.1816666666666667],[-0.33864583333333337,0.1816666666666667],[-0.3123958333333333,0.20092592592592592],[-0.3123958333333333,0.20092592592592592],[-0.29187500000000005,0.22814814814814824],[-0.29187500000000005,0.22814814814814824],[-0.2595833333333334,0.1685185185185185],[-0.2595833333333334,0.1685185185185185],[-0.21812499999999999,0.13203703703703695],[-0.21812499999999999,0.13203703703703695],[-0.1814583333333334,0.0551851851851851],[-0.1814583333333334,0.0551851851851851],[-0.16447916666666665,-0.01722222222222214],[-0.16447916666666665,-0.01722222222222214],[-0.15885416666666666,-0.10092592592592593],[-0.15885416666666666,-0.10092592592592593],[-0.15885416666666666,-0.10092592592592593],[-0.15885416666666666,-0.10092592592592593],[-0.14656250000000004,-0.19037037037037038],[-0.14656250000000004,-0.19037037037037038],[-0.13322916666666665,-0.2631481481481482],[-0.13322916666666665,-0.2631481481481482],[-0.09312499999999997,-0.32888888888888895],[-0.09312499999999997,-0.32888888888888895],[-0.09312499999999997,-0.32888888888888895],[-0.09312499999999997,-0.32888888888888895],[-0.06083333333333331,-0.3792592592592593],[-0.06083333333333331,-0.3792592592592593],[-0.009583333333333381,-0.37462962962962965],[-0.009583333333333381,-0.37462962962962965],[0.005729166666666666,-0.3633333333333333],[0.005729166666666666,-0.3633333333333333],[0.030208333333333334,-0.384074074074074],[0.030208333333333334,-0.384074074074074],[0.03885416666666662,-0.3731481481481482],[0.03885416666666662,-0.3731481481481482],[0.03885416666666662,-0.3731481481481482],[0.03885416666666662,-0.3731481481481482],[0.04760416666666671,-0.3181481481481482],[0.04760416666666671,-0.3181481481481482],[0.07000000000000005,-0.26740740740740737],[0.07000000000000005,-0.26740740740740737],[0.10625,-0.21666666666666667],[0.10625,-0.21666666666666667],[0.10625,-0.21666666666666667],[0.10625,-0.21666666666666667],[0.11677083333333324,-0.15499999999999997],[0.11677083333333324,-0.15499999999999997],[0.12197916666666657,-0.14870370370370373],[0.12197916666666657,-0.14870370370370373],[0.1046875,-0.08555555555555554],[0.1046875,-0.08555555555555554],[0.05416666666666667,-0.06129629629629634],[0.05416666666666667,-0.06129629629629634],[0.035416666666666666,-0.008888888888888804],[0.035416666666666666,-0.008888888888888804],[-0.009687499999999953,0.008888888888888804],[-0.009687499999999953,0.008888888888888804],[-0.04729166666666664,0.024074074074074074],[-0.04729166666666664,0.024074074074074074],[-0.05135416666666662,0.014814814814814815],[-0.05135416666666662,0.014814814814814815],[-0.06593749999999995,0.015370370370370286],[-0.06593749999999995,0.015370370370370286],[-0.06593749999999995,0.015370370370370286],[-0.06447916666666664,0.026666666666666623],[-0.06447916666666664,0.026666666666666623],[-0.07093750000000003,0.048333333333333374],[-0.07093750000000003,0.048333333333333374],[-0.07093750000000003,0.048333333333333374],[-0.07093750000000003,0.048333333333333374],[-0.08302083333333338,0.05462962962962963],[-0.08302083333333338,0.05462962962962963],[-0.13447916666666668,0.07018518518518514],[-0.13447916666666668,0.07018518518518514],[-0.14427083333333332,0.08148148148148149],[-0.14427083333333332,0.08148148148148149],[-0.1733333333333333,0.06999999999999991],[-0.1733333333333333,0.06999999999999991],[-0.1794791666666666,0.09074074074074075],[-0.1794791666666666,0.09074074074074075],[-0.21322916666666672,0.10999999999999996],[-0.21322916666666672,0.10999999999999996],[-0.21218750000000006,0.0868518518518518],[-0.21218750000000006,0.0868518518518518],[-0.25062500000000004,0.0868518518518518],[-0.25062500000000004,0.0868518518518518],[-0.29239583333333335,0.06500000000000004],[-0.29239583333333335,0.06500000000000004],[-0.32531249999999995,0.03185185185185194],[-0.32531249999999995,0.03185185185185194],[-0.32531249999999995,0.03185185185185194],[-0.32531249999999995,0.03185185185185194],[-0.3771875,-0.02296296296296292],[-0.3771875,-0.02296296296296292],[-0.3771875,-0.02296296296296292],[-0.3771875,-0.02296296296296292],[-0.3597916666666666,-0.07166666666666664],[-0.3597916666666666,-0.07166666666666664],[-0.34354166666666663,-0.1559259259259259],[-0.34354166666666663,-0.1559259259259259],[-0.3163541666666667,-0.21500000000000005],[-0.3163541666666667,-0.21500000000000005],[-0.29572916666666665,-0.2390740740740741],[-0.29572916666666665,-0.2390740740740741],[-0.23687499999999997,-0.2681481481481482],[-0.23687499999999997,-0.2681481481481482],[-0.23687499999999997,-0.2681481481481482],[-0.2046875,-0.28592592592592586],[-0.2046875,-0.28592592592592586],[-0.14510416666666662,-0.35555555555555557],[-0.14510416666666662,-0.35555555555555557],[-0.0796875,-0.39222222222222225],[-0.0796875,-0.39222222222222225],[-0.021875,-0.4540740740740741],[-0.021875,-0.4540740740740741],[0.03197916666666671,-0.4414814814814814],[0.03197916666666671,-0.4414814814814814],[0.07791666666666662,-0.4933333333333333],[0.07791666666666662,-0.4933333333333333],[0.11666666666666667,-0.47074074074074074],[0.11666666666666667,-0.47074074074074074],[0.14885416666666676,-0.43944444444444447],[0.14885416666666676,-0.43944444444444447],[0.18135416666666657,-0.44666666666666666],[0.18083333333333323,-0.46111111111111114],[0.18083333333333323,-0.46111111111111114],[0.16906249999999995,-0.4431481481481482],[0.171875,-0.3972222222222222],[0.16072916666666662,-0.3866666666666667],[0.15260416666666668,-0.3574074074074074],[0.15260416666666668,-0.3574074074074074],[0.1712500000000001,-0.3418518518518519],[0.17697916666666677,-0.26796296296296296],[0.1396874999999999,-0.19740740740740745],[0.12864583333333332,-0.17981481481481484],[0.12239583333333333,-0.1557407407407408],[0.12333333333333343,-0.09462962962962967],[0.128125,-0.057777777777777754],[0.13833333333333328,-0.007037037037036953],[0.14562499999999995,0.04944444444444453],[0.1560416666666666,0.10666666666666672],[0.16052083333333325,0.14074074074074075],[0.15729166666666666,0.14370370370370375],[0.18958333333333333,0.11814814814814806],[0.18958333333333333,0.11814814814814806],[0.17625000000000005,0.1257407407407407],[0.17625000000000005,0.1257407407407407],[0.19197916666666662,0.11999999999999991],[0.19583333333333333,0.0962962962962963],[0.19968750000000005,0.07259259259259268],[0.19427083333333334,-0.012592592592592508],[0.19427083333333334,-0.012592592592592508],[0.18114583333333342,-0.08333333333333333],[0.16979166666666667,-0.13870370370370366],[0.1540625000000001,-0.1787037037037037],[0.1304166666666667,-0.19740740740740745],[0.1304166666666667,-0.19740740740740745],[0.12208333333333338,-0.20925925925925926],[0.12697916666666675,-0.1925925925925926],[0.10927083333333343,-0.2014814814814815],[0.12208333333333338,-0.2111111111111111],[0.13489583333333333,-0.2207407407407407],[0.14812500000000003,-0.20574074074074078],[0.14812500000000003,-0.20574074074074078],[0.14510416666666662,-0.17259259259259258],[0.1352083333333333,-0.16870370370370374],[0.10447916666666662,-0.12999999999999998],[0.11416666666666657,-0.14537037037037037],[0.06229166666666662,-0.13388888888888892],[0.035208333333333286,-0.14500000000000002],[0.0036458333333333334,-0.1190740740740741],[-0.01416666666666669,-0.10981481481481484],[-0.057083333333333285,-0.11462962962962958],[-0.12354166666666669,-0.08740740740740739],[-0.16291666666666665,-0.10425925925925927],[-0.15427083333333336,-0.08796296296296297],[-0.16364583333333335,-0.12629629629629627],[-0.20343749999999997,-0.10999999999999996],[-0.17979166666666668,-0.1412962962962963],[-0.17843749999999994,-0.16277777777777774],[-0.20572916666666666,-0.19907407407407407],[-0.20572916666666666,-0.19907407407407407],[-0.2361458333333334,-0.20722222222222217],[-0.2397916666666667,-0.21055555555555552],[-0.20604166666666662,-0.24222222222222226],[-0.14249999999999996,-0.2718518518518519],[-0.17937500000000003,-0.2824074074074074],[-0.13239583333333335,-0.2935185185185185],[-0.1280208333333333,-0.28407407407407403],[-0.1408333333333334,-0.2607407407407408],[-0.17531249999999995,-0.2518518518518518],[-0.17531249999999995,-0.2518518518518518],[-0.18583333333333332,-0.23851851851851855],[-0.22687499999999997,-0.2638888888888889],[-0.265625,-0.2727777777777778],[-0.3315624999999999,-0.24407407407407408],[-0.3315624999999999,-0.24407407407407408],[-0.42520833333333335,-0.21277777777777773]]","[[-0.010416666666666666,-0.5153703703703704,0.0003000000119186552],[-0.010416666666666666,-0.5153703703703704,0.055499999999995],[-0.010416666666666666,-0.5153703703703704,0.05770000001788134],[-0.008437500000000023,-0.5096296296296297,0.09149999999999636],[-0.008437500000000023,-0.5096296296296297,0.09899999999999665],[-0.015625,-0.49314814814814817,0.12580000001192104],[-0.015625,-0.49314814814814817,0.13299999999999557],[-0.008541666666666715,-0.5442592592592592,0.1604000000059571],[-0.008541666666666715,-0.5442592592592592,0.1690999999940388],[-0.03270833333333331,-0.5196296296296297,0.1930999999940397],[-0.03270833333333331,-0.5196296296296297,0.19999999999999574],[-0.04604166666666672,-0.5257407407407407,0.22840000000595495],[-0.04604166666666672,-0.5257407407407407,0.23590000000595523],[-0.04604166666666672,-0.5257407407407407,0.2409000000059578],[-0.04135416666666671,-0.5022222222222222,0.27640000000595677],[-0.04135416666666671,-0.5022222222222222,0.2835999999940384],[-0.035000000000000024,-0.49796296296296294,0.3127000000178768],[-0.035000000000000024,-0.49796296296296294,0.31980000001191655],[-0.035312499999999976,-0.4594444444444445,0.3425999999940359],[-0.035312499999999976,-0.4594444444444445,0.3500000000000014],[-0.06333333333333328,-0.4855555555555555,0.3769000000059606],[-0.06333333333333328,-0.4855555555555555,0.38630000001192144],[-0.06802083333333328,-0.4516666666666666,0.40940000000595944],[-0.06802083333333328,-0.4516666666666666,0.41680000001191786],[-0.11052083333333336,-0.44222222222222224,0.44320000001788173],[-0.11052083333333336,-0.44222222222222224,0.4508000000119168],[-0.1282291666666667,-0.43703703703703706,0.479200000017876],[-0.1282291666666667,-0.43703703703703706,0.4864000000059576],[-0.16187499999999996,-0.37759259259259254,0.5097000000178795],[-0.16187499999999996,-0.37759259259259254,0.518499999999996],[-0.16218750000000004,-0.35907407407407405,0.5435999999940364],[-0.16218750000000004,-0.35907407407407405,0.5508000000119182],[-0.16989583333333336,-0.3374074074074074,0.5788000000119169],[-0.16989583333333336,-0.3374074074074074,0.5865999999940357],[-0.196875,-0.33240740740740743,0.6100999999940342],[-0.196875,-0.33240740740740743,0.6177000000178765],[-0.23666666666666672,-0.3307407407407408,0.6454000000059565],[-0.23666666666666672,-0.3307407407407408,0.6522000000178778],[-0.2525,-0.30351851851851847,0.6769000000059577],[-0.2525,-0.30351851851851847,0.6848000000119185],[-0.24666666666666662,-0.25685185185185183,0.7083000000119171],[-0.24666666666666662,-0.25685185185185183,0.7158000000119173],[-0.2612499999999999,-0.24981481481481477,0.744499999999995],[-0.2612499999999999,-0.24981481481481477,0.7514000000059582],[-0.2638541666666666,-0.23074074074074077,0.7770999999940358],[-0.2638541666666666,-0.23074074074074077,0.7842000000178828],[-0.2638541666666666,-0.23074074074074077,0.790900000005955],[-0.2638541666666666,-0.23074074074074077,0.808599999994037],[-0.28322916666666664,-0.23018518518518521,0.8430999999940383],[-0.28322916666666664,-0.23018518518518521,0.8504000000059548],[-0.2972916666666666,-0.19962962962962966,0.8749000000059581],[-0.2972916666666666,-0.19962962962962966,0.8832000000178795],[-0.319375,-0.1574074074074074,0.9110000000000014],[-0.319375,-0.1574074074074074,0.9179000000059574],[-0.335,-0.10888888888888891,0.943599999994035],[-0.335,-0.10888888888888891,0.95059999999404],[-0.34177083333333336,-0.05,0.9788000000119155],[-0.34177083333333336,-0.05,0.9858000000119205],[-0.34177083333333336,-0.05,0.9908000000119159],[-0.32864583333333336,0.023333333333333376,1.0265999999940405],[-0.32864583333333336,0.023333333333333376,1.033900000005957],[-0.3458333333333333,0.06666666666666667,1.0617000000178791],[-0.3458333333333333,0.06666666666666667,1.0689999999999955],[-0.33864583333333337,0.10166666666666663,1.093400000005957],[-0.33864583333333337,0.10166666666666663,1.100999999999999],[-0.33864583333333337,0.10166666666666663,1.1078000000119204],[-0.33864583333333337,0.10166666666666663,1.1252000000178768],[-0.33864583333333337,0.1816666666666667,1.1609000000059595],[-0.33864583333333337,0.1816666666666667,1.168300000011918],[-0.3123958333333333,0.20092592592592592,1.1929999999999978],[-0.3123958333333333,0.20092592592592592,1.2002000000178796],[-0.29187500000000005,0.22814814814814824,1.2283000000119202],[-0.29187500000000005,0.22814814814814824,1.235999999999997],[-0.2595833333333334,0.1685185185185185,1.2595999999940375],[-0.2595833333333334,0.1685185185185185,1.2680999999940354],[-0.21812499999999999,0.13203703703703695,1.2929999999999993],[-0.21812499999999999,0.13203703703703695,1.2999000000059553],[-0.1814583333333334,0.0551851851851851,1.3274000000059587],[-0.1814583333333334,0.0551851851851851,1.3350000000000009],[-0.16447916666666665,-0.01722222222222214,1.36040000000596],[-0.16447916666666665,-0.01722222222222214,1.3684000000059555],[-0.15885416666666666,-0.10092592592592593,1.3953000000119218],[-0.15885416666666666,-0.10092592592592593,1.4029999999999987],[-0.15885416666666666,-0.10092592592592593,1.4078000000119175],[-0.15885416666666666,-0.10092592592592593,1.42590000000596],[-0.14656250000000004,-0.19037037037037038,1.4597000000178824],[-0.14656250000000004,-0.19037037037037038,1.467599999994036],[-0.13322916666666665,-0.2631481481481482,1.492999999999995],[-0.13322916666666665,-0.2631481481481482,1.5009000000059558],[-0.09312499999999997,-0.32888888888888895,1.5267000000178825],[-0.09312499999999997,-0.32888888888888895,1.53480000001192],[-0.09312499999999997,-0.32888888888888895,1.540900000005955],[-0.09312499999999997,-0.32888888888888895,1.559400000005958],[-0.06083333333333331,-0.3792592592592593,1.5932000000178803],[-0.06083333333333331,-0.3792592592592593,1.600999999999999],[-0.009583333333333381,-0.37462962962962965,1.6264000000059582],[-0.009583333333333381,-0.37462962962962965,1.6337000000178818],[0.005729166666666666,-0.3633333333333333,1.6614000000059619],[0.005729166666666666,-0.3633333333333333,1.669800000011918],[0.030208333333333334,-0.384074074074074,1.6933000000119165],[0.030208333333333334,-0.384074074074074,1.7004000000059563],[0.03885416666666662,-0.3731481481481482,1.7285999999940387],[0.03885416666666662,-0.3731481481481482,1.736099999994039],[0.03885416666666662,-0.3731481481481482,1.7410999999940344],[0.03885416666666662,-0.3731481481481482,1.7592000000178771],[0.04760416666666671,-0.3181481481481482,1.7914999999999992],[0.04760416666666671,-0.3181481481481482,1.7988000000119158],[0.07000000000000005,-0.26740740740740737,1.8263000000119192],[0.07000000000000005,-0.26740740740740737,1.8335999999940356],[0.10625,-0.21666666666666667,1.8602000000178762],[0.10625,-0.21666666666666667,1.8680999999940369],[0.10625,-0.21666666666666667,1.8744000000059557],[0.10625,-0.21666666666666667,1.8924000000059564],[0.11677083333333324,-0.15499999999999997,1.9269000000059577],[0.11677083333333324,-0.15499999999999997,1.9349000000059604],[0.12197916666666657,-0.14870370370370373,1.9598000000119171],[0.12197916666666657,-0.14870370370370373,1.9670999999940406],[0.1046875,-0.08555555555555554,1.9948000000119208],[0.1046875,-0.08555555555555554,2.002300000011921],[0.05416666666666667,-0.06129629629629634,2.0268000000119173],[0.05416666666666667,-0.06129629629629634,2.034099999994041],[0.035416666666666666,-0.008888888888888804,2.0622000000178815],[0.035416666666666666,-0.008888888888888804,2.070099999994035],[-0.009687499999999953,0.008888888888888804,2.0932000000178803],[-0.009687499999999953,0.008888888888888804,2.100999999999999],[-0.04729166666666664,0.024074074074074074,2.126400000005958],[-0.04729166666666664,0.024074074074074074,2.13359999999404],[-0.05135416666666662,0.014814814814814815,2.161099999994036],[-0.05135416666666662,0.014814814814814815,2.168200000017876],[-0.06593749999999995,0.015370370370370286,2.1934000000059584],[-0.06593749999999995,0.015370370370370286,2.20059999999404],[-0.06593749999999995,0.015370370370370286,2.20770000001788],[-0.06447916666666664,0.026666666666666623,2.244599999994037],[-0.06447916666666664,0.026666666666666623,2.2519000000059606],[-0.07093750000000003,0.048333333333333374,2.277099999994036],[-0.07093750000000003,0.048333333333333374,2.284700000017878],[-0.07093750000000003,0.048333333333333374,2.29080000001192],[-0.07093750000000003,0.048333333333333374,2.308599999994037],[-0.08302083333333338,0.05462962962962963,2.3435999999940407],[-0.08302083333333338,0.05462962962962963,2.351200000017876],[-0.13447916666666668,0.07018518518518514,2.374900000005958],[-0.13447916666666668,0.07018518518518514,2.3830999999940374],[-0.14427083333333332,0.08148148148148149,2.411400000005962],[-0.14427083333333332,0.08148148148148149,2.41840000000596],[-0.1733333333333333,0.06999999999999991,2.4434000000059584],[-0.1733333333333333,0.06999999999999991,2.4512000000178773],[-0.1794791666666666,0.09074074074074075,2.479200000017876],[-0.1794791666666666,0.09074074074074075,2.486099999994039],[-0.21322916666666672,0.10999999999999996,2.509900000005956],[-0.21322916666666672,0.10999999999999996,2.5173000000119217],[-0.21218750000000006,0.0868518518518518,2.541599999994034],[-0.21218750000000006,0.0868518518518518,2.54940000000596],[-0.25062500000000004,0.0868518518518518,2.5793000000119193],[-0.25062500000000004,0.0868518518518518,2.5867000000178777],[-0.29239583333333335,0.06500000000000004,2.61040000000596],[-0.29239583333333335,0.06500000000000004,2.617400000005958],[-0.32531249999999995,0.03185185185185194,2.645900000005959],[-0.32531249999999995,0.03185185185185194,2.65270000001788],[-0.32531249999999995,0.03185185185185194,2.6575999999940407],[-0.32531249999999995,0.03185185185185194,2.6754000000059577],[-0.3771875,-0.02296296296296292,2.7103000000119195],[-0.3771875,-0.02296296296296292,2.7202000000178828],[-0.3771875,-0.02296296296296292,2.7240999999940385],[-0.3771875,-0.02296296296296292,2.7442000000178766],[-0.3597916666666666,-0.07166666666666664,2.7749999999999986],[-0.3597916666666666,-0.07166666666666664,2.783900000005957],[-0.34354166666666663,-0.1559259259259259,2.8125],[-0.34354166666666663,-0.1559259259259259,2.819700000017882],[-0.3163541666666667,-0.21500000000000005,2.8415999999940382],[-0.3163541666666667,-0.21500000000000005,2.8517000000178783],[-0.29572916666666665,-0.2390740740740741,2.8768000000119187],[-0.29572916666666665,-0.2390740740740741,2.884200000017877],[-0.23687499999999997,-0.2681481481481482,2.9117000000178805],[-0.23687499999999997,-0.2681481481481482,2.9200999999940365],[-0.23687499999999997,-0.2681481481481482,2.9248000000119205],[-0.2046875,-0.28592592592592586,2.9602000000178776],[-0.2046875,-0.28592592592592586,2.96780000001192],[-0.14510416666666662,-0.35555555555555557,2.993099999994037],[-0.14510416666666662,-0.35555555555555557,3.0015],[-0.0796875,-0.39222222222222225,3.0283000000119173],[-0.0796875,-0.39222222222222225,3.036200000017878],[-0.021875,-0.4540740740740741,3.062400000005958],[-0.021875,-0.4540740740740741,3.0708000000119213],[0.03197916666666671,-0.4414814814814814,3.0968000000119176],[0.03197916666666671,-0.4414814814814814,3.1048000000119202],[0.07791666666666662,-0.4933333333333333,3.1268000000119187],[0.07791666666666662,-0.4933333333333333,3.134999999999998],[0.11666666666666667,-0.47074074074074074,3.165099999994034],[0.11666666666666667,-0.47074074074074074,3.184400000005958],[0.14885416666666676,-0.43944444444444447,3.201300000011919],[0.14885416666666676,-0.43944444444444447,3.2088000000119195],[0.18135416666666657,-0.44666666666666666,3.228499999999997],[0.18083333333333323,-0.46111111111111114,3.2442000000178766],[0.18083333333333323,-0.46111111111111114,3.257700000017877],[0.16906249999999995,-0.4431481481481482,3.278500000000001],[0.171875,-0.3972222222222222,3.2934999999999945],[0.16072916666666662,-0.3866666666666667,3.3128000000119187],[0.15260416666666668,-0.3574074074074074,3.3283000000119216],[0.15260416666666668,-0.3574074074074074,3.341099999994036],[0.1712500000000001,-0.3418518518518519,3.3578000000119204],[0.17697916666666677,-0.26796296296296296,3.3748000000119163],[0.1396874999999999,-0.19740740740740745,3.395099999994038],[0.12864583333333332,-0.17981481481481484,3.4107000000178758],[0.12239583333333333,-0.1557407407407408,3.4249000000059553],[0.12333333333333343,-0.09462962962962967,3.4409000000059606],[0.128125,-0.057777777777777754,3.457499999999996],[0.13833333333333328,-0.007037037037036953,3.4748000000119177],[0.14562499999999995,0.04944444444444453,3.4935999999940393],[0.1560416666666666,0.10666666666666672,3.508700000017882],[0.16052083333333325,0.14074074074074075,3.528700000017878],[0.15729166666666666,0.14370370370370375,3.5438000000119203],[0.18958333333333333,0.11814814814814806,3.5584000000059604],[0.18958333333333333,0.11814814814814806,3.5783000000119216],[0.17625000000000005,0.1257407407407407,3.590900000005959],[0.17625000000000005,0.1257407407407407,3.6078000000119204],[0.19197916666666662,0.11999999999999991,3.624200000017879],[0.19583333333333333,0.0962962962962963,3.6409000000059564],[0.19968750000000005,0.07259259259259268,3.6603000000119224],[0.19427083333333334,-0.012592592592592508,3.6770999999940344],[0.19427083333333334,-0.012592592592592508,3.693599999994035],[0.18114583333333342,-0.08333333333333333,3.7079000000059565],[0.16979166666666667,-0.13870370370370366,3.724400000005957],[0.1540625000000001,-0.1787037037037037,3.7449999999999974],[0.1304166666666667,-0.19740740740740745,3.759400000005961],[0.1304166666666667,-0.19740740740740745,3.774599999994038],[0.12208333333333338,-0.20925925925925926,3.790999999999997],[0.12697916666666675,-0.1925925925925926,3.8119999999999976],[0.10927083333333343,-0.2014814814814815,3.826499999999996],[0.12208333333333338,-0.2111111111111111,3.841000000000001],[0.13489583333333333,-0.2207407407407407,3.8577000000178785],[0.14812500000000003,-0.20574074074074078,3.8775999999940396],[0.14812500000000003,-0.20574074074074078,3.8909999999999982],[0.14510416666666662,-0.17259259259259258,3.9079000000059594],[0.1352083333333333,-0.16870370370370374,3.92440000000596],[0.10447916666666662,-0.12999999999999998,3.9455999999940374],[0.11416666666666657,-0.14537037037037037,3.959900000005959],[0.06229166666666662,-0.13388888888888892,3.9759000000059572],[0.035208333333333286,-0.14500000000000002,3.9939999999999998],[0.0036458333333333334,-0.1190740740740741,4.012200000017877],[-0.01416666666666669,-0.10981481481481484,4.027999999999999],[-0.057083333333333285,-0.11462962962962958,4.0434999999999945],[-0.12354166666666669,-0.08740740740740739,4.057599999994039],[-0.16291666666666665,-0.10425925925925927,4.077900000005961],[-0.15427083333333336,-0.08796296296296297,4.093499999999999],[-0.16364583333333335,-0.12629629629629627,4.109499999999997],[-0.20343749999999997,-0.10999999999999996,4.124200000017879],[-0.17979166666666668,-0.1412962962962963,4.140800000011922],[-0.17843749999999994,-0.16277777777777774,4.159999999999997],[-0.20572916666666666,-0.19907407407407407,4.174900000005955],[-0.20572916666666666,-0.19907407407407407,4.190900000005961],[-0.2361458333333334,-0.20722222222222217,4.20770000001788],[-0.2397916666666667,-0.21055555555555552,4.224300000011915],[-0.20604166666666662,-0.24222222222222226,4.243499999999997],[-0.14249999999999996,-0.2718518518518519,4.257400000005958],[-0.17937500000000003,-0.2824074074074074,4.27430000001192],[-0.13239583333333335,-0.2935185185185185,4.291099999994039],[-0.1280208333333333,-0.28407407407407403,4.307800000011916],[-0.1408333333333334,-0.2607407407407408,4.326900000005956],[-0.17531249999999995,-0.2518518518518518,4.343300000011922],[-0.17531249999999995,-0.2518518518518518,4.3575999999940365],[-0.18583333333333332,-0.23851851851851855,4.374300000011921],[-0.22687499999999997,-0.2638888888888889,4.395900000005959],[-0.265625,-0.2727777777777778,4.411400000005962],[-0.3315624999999999,-0.24407407407407408,4.425400000005958],[-0.3315624999999999,-0.24407407407407408,4.440900000005961],[-0.42520833333333335,-0.21277777777777773,4.457599999994038]]","[0.0003000000119186552,0.055499999999995,0.05770000001788134,0.09149999999999636,0.09899999999999665,0.12580000001192104,0.13299999999999557,0.1604000000059571,0.1690999999940388,0.1930999999940397,0.19999999999999574,0.22840000000595495,0.23590000000595523,0.2409000000059578,0.27640000000595677,0.2835999999940384,0.3127000000178768,0.31980000001191655,0.3425999999940359,0.3500000000000014,0.3769000000059606,0.38630000001192144,0.40940000000595944,0.41680000001191786,0.44320000001788173,0.4508000000119168,0.479200000017876,0.4864000000059576,0.5097000000178795,0.518499999999996,0.5435999999940364,0.5508000000119182,0.5788000000119169,0.5865999999940357,0.6100999999940342,0.6177000000178765,0.6454000000059565,0.6522000000178778,0.6769000000059577,0.6848000000119185,0.7083000000119171,0.7158000000119173,0.744499999999995,0.7514000000059582,0.7770999999940358,0.7842000000178828,0.790900000005955,0.808599999994037,0.8430999999940383,0.8504000000059548,0.8749000000059581,0.8832000000178795,0.9110000000000014,0.9179000000059574,0.943599999994035,0.95059999999404,0.9788000000119155,0.9858000000119205,0.9908000000119159,1.0265999999940405,1.033900000005957,1.0617000000178791,1.0689999999999955,1.093400000005957,1.100999999999999,1.1078000000119204,1.1252000000178768,1.1609000000059595,1.168300000011918,1.1929999999999978,1.2002000000178796,1.2283000000119202,1.235999999999997,1.2595999999940375,1.2680999999940354,1.2929999999999993,1.2999000000059553,1.3274000000059587,1.3350000000000009,1.36040000000596,1.3684000000059555,1.3953000000119218,1.4029999999999987,1.4078000000119175,1.42590000000596,1.4597000000178824,1.467599999994036,1.492999999999995,1.5009000000059558,1.5267000000178825,1.53480000001192,1.540900000005955,1.559400000005958,1.5932000000178803,1.600999999999999,1.6264000000059582,1.6337000000178818,1.6614000000059619,1.669800000011918,1.6933000000119165,1.7004000000059563,1.7285999999940387,1.736099999994039,1.7410999999940344,1.7592000000178771,1.7914999999999992,1.7988000000119158,1.8263000000119192,1.8335999999940356,1.8602000000178762,1.8680999999940369,1.8744000000059557,1.8924000000059564,1.9269000000059577,1.9349000000059604,1.9598000000119171,1.9670999999940406,1.9948000000119208,2.002300000011921,2.0268000000119173,2.034099999994041,2.0622000000178815,2.070099999994035,2.0932000000178803,2.100999999999999,2.126400000005958,2.13359999999404,2.161099999994036,2.168200000017876,2.1934000000059584,2.20059999999404,2.20770000001788,2.244599999994037,2.2519000000059606,2.277099999994036,2.284700000017878,2.29080000001192,2.308599999994037,2.3435999999940407,2.351200000017876,2.374900000005958,2.3830999999940374,2.411400000005962,2.41840000000596,2.4434000000059584,2.4512000000178773,2.479200000017876,2.486099999994039,2.509900000005956,2.5173000000119217,2.541599999994034,2.54940000000596,2.5793000000119193,2.5867000000178777,2.61040000000596,2.617400000005958,2.645900000005959,2.65270000001788,2.6575999999940407,2.6754000000059577,2.7103000000119195,2.7202000000178828,2.7240999999940385,2.7442000000178766,2.7749999999999986,2.783900000005957,2.8125,2.819700000017882,2.8415999999940382,2.8517000000178783,2.8768000000119187,2.884200000017877,2.9117000000178805,2.9200999999940365,2.9248000000119205,2.9602000000178776,2.96780000001192,2.993099999994037,3.0015,3.0283000000119173,3.036200000017878,3.062400000005958,3.0708000000119213,3.0968000000119176,3.1048000000119202,3.1268000000119187,3.134999999999998,3.165099999994034,3.184400000005958,3.201300000011919,3.2088000000119195,3.228499999999997,3.2442000000178766,3.257700000017877,3.278500000000001,3.2934999999999945,3.3128000000119187,3.3283000000119216,3.341099999994036,3.3578000000119204,3.3748000000119163,3.395099999994038,3.4107000000178758,3.4249000000059553,3.4409000000059606,3.457499999999996,3.4748000000119177,3.4935999999940393,3.508700000017882,3.528700000017878,3.5438000000119203,3.5584000000059604,3.5783000000119216,3.590900000005959,3.6078000000119204,3.624200000017879,3.6409000000059564,3.6603000000119224,3.6770999999940344,3.693599999994035,3.7079000000059565,3.724400000005957,3.7449999999999974,3.759400000005961,3.774599999994038,3.790999999999997,3.8119999999999976,3.826499999999996,3.841000000000001,3.8577000000178785,3.8775999999940396,3.8909999999999982,3.9079000000059594,3.92440000000596,3.9455999999940374,3.959900000005959,3.9759000000059572,3.9939999999999998,4.012200000017877,4.027999999999999,4.0434999999999945,4.057599999994039,4.077900000005961,4.093499999999999,4.109499999999997,4.124200000017879,4.140800000011922,4.159999999999997,4.174900000005955,4.190900000005961,4.20770000001788,4.224300000011915,4.243499999999997,4.257400000005958,4.27430000001192,4.291099999994039,4.307800000011916,4.326900000005956,4.343300000011922,4.3575999999940365,4.374300000011921,4.395900000005959,4.411400000005962,4.425400000005958,4.440900000005961,4.457599999994038]","[1732690992404,1732690992449,1732690992451,1732690992485,1732690992493,1732690992520,1732690992527,1732690992554,1732690992563,1732690992587,1732690992594,1732690992622,1732690992630,1732690992635,1732690992670,1732690992677,1732690992706,1732690992714,1732690992736,1732690992744,1732690992771,1732690992780,1732690992803,1732690992811,1732690992837,1732690992845,1732690992873,1732690992880,1732690992903,1732690992912,1732690992937,1732690992945,1732690992973,1732690992980,1732690993004,1732690993011,1732690993039,1732690993046,1732690993071,1732690993079,1732690993102,1732690993110,1732690993138,1732690993145,1732690993171,1732690993178,1732690993185,1732690993202,1732690993237,1732690993244,1732690993269,1732690993277,1732690993305,1732690993312,1732690993337,1732690993344,1732690993373,1732690993380,1732690993385,1732690993420,1732690993428,1732690993456,1732690993463,1732690993487,1732690993495,1732690993502,1732690993519,1732690993555,1732690993562,1732690993587,1732690993594,1732690993622,1732690993630,1732690993653,1732690993662,1732690993687,1732690993694,1732690993721,1732690993729,1732690993754,1732690993762,1732690993789,1732690993797,1732690993802,1732690993820,1732690993853,1732690993861,1732690993887,1732690993895,1732690993921,1732690993929,1732690993935,1732690993953,1732690993987,1732690993995,1732690994020,1732690994027,1732690994055,1732690994063,1732690994087,1732690994094,1732690994122,1732690994130,1732690994135,1732690994153,1732690994185,1732690994192,1732690994220,1732690994227,1732690994254,1732690994262,1732690994268,1732690994286,1732690994321,1732690994329,1732690994354,1732690994361,1732690994389,1732690994396,1732690994420,1732690994428,1732690994456,1732690994464,1732690994487,1732690994495,1732690994520,1732690994527,1732690994555,1732690994562,1732690994587,1732690994594,1732690994602,1732690994638,1732690994646,1732690994671,1732690994678,1732690994685,1732690994702,1732690994737,1732690994745,1732690994769,1732690994777,1732690994805,1732690994812,1732690994837,1732690994845,1732690994873,1732690994880,1732690994904,1732690994911,1732690994935,1732690994943,1732690994973,1732690994980,1732690995004,1732690995011,1732690995040,1732690995046,1732690995051,1732690995069,1732690995104,1732690995114,1732690995118,1732690995138,1732690995169,1732690995178,1732690995206,1732690995213,1732690995235,1732690995245,1732690995270,1732690995278,1732690995306,1732690995314,1732690995319,1732690995354,1732690995362,1732690995387,1732690995395,1732690995422,1732690995430,1732690995456,1732690995465,1732690995491,1732690995499,1732690995521,1732690995529,1732690995559,1732690995578,1732690995595,1732690995602,1732690995622,1732690995638,1732690995651,1732690995672,1732690995687,1732690995707,1732690995722,1732690995735,1732690995751,1732690995769,1732690995789,1732690995805,1732690995819,1732690995835,1732690995851,1732690995869,1732690995887,1732690995902,1732690995922,1732690995938,1732690995952,1732690995972,1732690995985,1732690996002,1732690996018,1732690996035,1732690996054,1732690996071,1732690996087,1732690996102,1732690996118,1732690996139,1732690996153,1732690996168,1732690996185,1732690996206,1732690996220,1732690996235,1732690996251,1732690996271,1732690996285,1732690996302,1732690996318,1732690996339,1732690996354,1732690996370,1732690996388,1732690996406,1732690996422,1732690996437,1732690996451,1732690996472,1732690996487,1732690996503,1732690996518,1732690996535,1732690996554,1732690996569,1732690996585,1732690996601,1732690996618,1732690996637,1732690996651,1732690996668,1732690996685,1732690996702,1732690996721,1732690996737,1732690996751,1732690996768,1732690996790,1732690996805,1732690996819,1732690996835,1732690996851]","[[950,261.7],[950,261.7],[950,261.7],[951.9,264.8],[951.9,264.8],[945,273.7],[945,273.7],[951.8,246.1],[951.8,246.1],[928.6,259.4],[928.6,259.4],[915.8,256.1],[915.8,256.1],[915.8,256.1],[920.3,268.8],[920.3,268.8],[926.4,271.1],[926.4,271.1],[926.1,291.9],[926.1,291.9],[899.2,277.8],[899.2,277.8],[894.7,296.1],[894.7,296.1],[853.9,301.2],[853.9,301.2],[836.9,304],[836.9,304],[804.6,336.1],[804.6,336.1],[804.3,346.1],[804.3,346.1],[796.9,357.8],[796.9,357.8],[771,360.5],[771,360.5],[732.8,361.4],[732.8,361.4],[717.6,376.1],[717.6,376.1],[723.2,401.3],[723.2,401.3],[709.2,405.1],[709.2,405.1],[706.7,415.4],[706.7,415.4],[706.7,415.4],[706.7,415.4],[688.1,415.7],[688.1,415.7],[674.6,432.2],[674.6,432.2],[653.4,455],[653.4,455],[638.4,481.2],[638.4,481.2],[631.9,513],[631.9,513],[631.9,513],[644.5,552.6],[644.5,552.6],[628,576],[628,576],[634.9,594.9],[634.9,594.9],[634.9,594.9],[634.9,594.9],[634.9,638.1],[634.9,638.1],[660.1,648.5],[660.1,648.5],[679.8,663.2],[679.8,663.2],[710.8,631],[710.8,631],[750.6,611.3],[750.6,611.3],[785.8,569.8],[785.8,569.8],[802.1,530.7],[802.1,530.7],[807.5,485.5],[807.5,485.5],[807.5,485.5],[807.5,485.5],[819.3,437.2],[819.3,437.2],[832.1,397.9],[832.1,397.9],[870.6,362.4],[870.6,362.4],[870.6,362.4],[870.6,362.4],[901.6,335.2],[901.6,335.2],[950.8,337.7],[950.8,337.7],[965.5,343.8],[965.5,343.8],[989,332.6],[989,332.6],[997.3,338.5],[997.3,338.5],[997.3,338.5],[997.3,338.5],[1005.7,368.2],[1005.7,368.2],[1027.2,395.6],[1027.2,395.6],[1062,423],[1062,423],[1062,423],[1062,423],[1072.1,456.3],[1072.1,456.3],[1077.1,459.7],[1077.1,459.7],[1060.5,493.8],[1060.5,493.8],[1012,506.9],[1012,506.9],[994,535.2],[994,535.2],[950.7,544.8],[950.7,544.8],[914.6,553],[914.6,553],[910.7,548],[910.7,548],[896.7,548.3],[896.7,548.3],[896.7,548.3],[898.1,554.4],[898.1,554.4],[891.9,566.1],[891.9,566.1],[891.9,566.1],[891.9,566.1],[880.3,569.5],[880.3,569.5],[830.9,577.9],[830.9,577.9],[821.5,584],[821.5,584],[793.6,577.8],[793.6,577.8],[787.7,589],[787.7,589],[755.3,599.4],[755.3,599.4],[756.3,586.9],[756.3,586.9],[719.4,586.9],[719.4,586.9],[679.3,575.1],[679.3,575.1],[647.7,557.2],[647.7,557.2],[647.7,557.2],[647.7,557.2],[597.9,527.6],[597.9,527.6],[597.9,527.6],[597.9,527.6],[614.6,501.3],[614.6,501.3],[630.2,455.8],[630.2,455.8],[656.3,423.9],[656.3,423.9],[676.1,410.9],[676.1,410.9],[732.6,395.2],[732.6,395.2],[732.6,395.2],[763.5,385.6],[763.5,385.6],[820.7,348],[820.7,348],[883.5,328.2],[883.5,328.2],[939,294.8],[939,294.8],[990.7,301.6],[990.7,301.6],[1034.8,273.6],[1034.8,273.6],[1072,285.8],[1072,285.8],[1102.9,302.7],[1102.9,302.7],[1134.1,298.8],[1133.6,291],[1133.6,291],[1122.3,300.7],[1125,325.5],[1114.3,331.2],[1106.5,347],[1106.5,347],[1124.4,355.4],[1129.9,395.3],[1094.1,433.4],[1083.5,442.9],[1077.5,455.9],[1078.4,488.9],[1083,508.8],[1092.8,536.2],[1099.8,566.7],[1109.8,597.6],[1114.1,616],[1111,617.6],[1142,603.8],[1142,603.8],[1129.2,607.9],[1129.2,607.9],[1144.3,604.8],[1148,592],[1151.7,579.2],[1146.5,533.2],[1146.5,533.2],[1133.9,495],[1123,465.1],[1107.9,443.5],[1085.2,433.4],[1085.2,433.4],[1077.2,427],[1081.9,436],[1064.9,431.2],[1077.2,426],[1089.5,420.8],[1102.2,428.9],[1102.2,428.9],[1099.3,446.8],[1089.8,448.9],[1060.3,469.8],[1069.6,461.5],[1019.8,467.7],[993.8,461.7],[963.5,475.7],[946.4,480.7],[905.2,478.1],[841.4,492.8],[803.6,483.7],[811.9,492.5],[802.9,471.8],[764.7,480.6],[787.4,463.7],[788.7,452.1],[762.5,432.5],[762.5,432.5],[733.3,428.1],[729.8,426.3],[762.2,409.2],[823.2,393.2],[787.8,387.5],[832.9,381.5],[837.1,386.6],[824.8,399.2],[791.7,404],[791.7,404],[781.6,411.2],[742.2,397.5],[705,392.7],[641.7,408.2],[641.7,408.2],[551.8,425.1]]","[-0.132282,0.39684600000000003]","[0.132282,0.39684600000000003]","[0.39684600000000003,0.39684600000000003]","[-0.39684600000000003,0.132282]","[-0.39684600000000003,-0.132282]","[-0.39684600000000003,-0.39684600000000003]","[-0.132282,0.132282]","[0.132282,0.132282]","[0.39684600000000003,0.132282]","[-0.132282,-0.132282]","[0.132282,-0.132282]","[0.39684600000000003,-0.132282]","[-0.132282,-0.39684600000000003]","[0.132282,-0.39684600000000003]","[0.39684600000000003,-0.39684600000000003]",0,0,0,0,1,1,Tablet,20,20,7,2,70,4,2,70,4
