inst1_resp.keys,inst1_resp.rt,calibrationMouse.x,calibrationMouse.y,calibrationMouse.leftButton,calibrationMouse.midButton,calibrationMouse.rightButton,calibrationClick.x,calibrationClick.y,calibrationClick.leftButton,calibrationClick.midButton,calibrationClick.rightButton,trialsc.thisRepN,trialsc.thisTrialN,trialsc.thisN,trialsc.thisIndex,trialsc.ran,calibration_x,calibration_y,participant,session,date,expName,psychopyVersion,OS,frameRate,calibrationClick.clicked_name,ScreenRes_pixels,Camera_pixels,mouse_2.x,mouse_2.y,mouse_2.leftButton,mouse_2.midButton,mouse_2.rightButton,mouse_2.time,mouse_2.clicked_name,mouse.x,mouse.y,mouse.leftButton,mouse.midButton,mouse.rightButton,mouse.time,mouse.clicked_name,Choice,Trial,TrialDuration,MOUSE_GAZE,ET_GAZE,ET_GAZE_x_T,time,unixTime,ET_GAZE_NF,Loc_Bus_label,Loc_Metro_label,Loc_RH_label,Loc_Cost_label,Loc_Travel_label,Loc_Comfort_label,Loc_Bus_cost,Loc_Metro_cost,Loc_RH_cost,Loc_Bus_travel,Loc_Metro_travel,Loc_RH_travel,Loc_Bus_comfort,Loc_Metro_comfort,Loc_RH_comfort,trials.thisRepN,trials.thisTrialN,trials.thisN,trials.thisIndex,trials.ran,Block,Device,RH_cost,RH_travel_time,RH_Comfort,metro_cost,metro_travel_time,metro_Comfort,Bus_cost,Bus_travel_time,Bus_Comfort
space,1.4635,-0.992708333,-0.998148148,1,0,0,-0.673958333,-0.655555556,1,0,0,0,0,0,0,1,-0.67,-0.67,28,001,2024-11-26_15h36.21.793,Attention_exp_legacy,2023.1.0,Win32,59.88023952,,,,,,,,,,,,,,,,,,,,,,,,,,,,,,,,,,,,,,,,,,,,,,,,,,,,,,,,,
,,,,,,,0.315625,-0.324074074,1,0,0,0,1,1,15,1,0.33,-0.33,28,001,2024-11-26_15h36.21.793,Attention_exp_legacy,2023.1.0,Win32,59.88023952,,,,,,,,,,,,,,,,,,,,,,,,,,,,,,,,,,,,,,,,,,,,,,,,,,,,,,,,,
,,,,,,,0.669791667,-0.659259259,1,0,0,0,2,2,20,1,0.67,-0.67,28,001,2024-11-26_15h36.21.793,Attention_exp_legacy,2023.1.0,Win32,59.88023952,,,,,,,,,,,,,,,,,,,,,,,,,,,,,,,,,,,,,,,,,,,,,,,,,,,,,,,,,
,,,,,,,0.327083333,0.666666667,1,0,0,0,3,3,18,1,0.33,0.67,28,001,2024-11-26_15h36.21.793,Attention_exp_legacy,2023.1.0,Win32,59.88023952,calibration_square,,,,,,,,,,,,,,,,,,,,,,,,,,,,,,,,,,,,,,,,,,,,,,,,,,,,,,,,
,,,,,,,0.684375,0.675925926,1,0,0,0,4,4,19,1,0.67,0.67,28,001,2024-11-26_15h36.21.793,Attention_exp_legacy,2023.1.0,Win32,59.88023952,,,,,,,,,,,,,,,,,,,,,,,,,,,,,,,,,,,,,,,,,,,,,,,,,,,,,,,,,
,,,,,,,-0.676041667,0.007407407,1,0,0,0,5,5,2,1,-0.67,0,28,001,2024-11-26_15h36.21.793,Attention_exp_legacy,2023.1.0,Win32,59.88023952,calibration_square,,,,,,,,,,,,,,,,,,,,,,,,,,,,,,,,,,,,,,,,,,,,,,,,,,,,,,,,
,,,,,,,0.323958333,-0.687037037,1,0,0,0,6,6,14,1,0.33,-0.67,28,001,2024-11-26_15h36.21.793,Attention_exp_legacy,2023.1.0,Win32,59.88023952,,,,,,,,,,,,,,,,,,,,,,,,,,,,,,,,,,,,,,,,,,,,,,,,,,,,,,,,,
,,,,,,,-0.003125,0.677777778,1,0,0,0,7,7,13,1,0,0.67,28,001,2024-11-26_15h36.21.793,Attention_exp_legacy,2023.1.0,Win32,59.88023952,calibration_square,,,,,,,,,,,,,,,,,,,,,,,,,,,,,,,,,,,,,,,,,,,,,,,,,,,,,,,,
,,,,,,,-0.328125,0.32962963,1,0,0,0,8,8,7,1,-0.33,0.33,28,001,2024-11-26_15h36.21.793,Attention_exp_legacy,2023.1.0,Win32,59.88023952,calibration_square,,,,,,,,,,,,,,,,,,,,,,,,,,,,,,,,,,,,,,,,,,,,,,,,,,,,,,,,
,,,,,,,-0.671875,0.318518519,1,0,0,0,9,9,3,1,-0.67,0.33,28,001,2024-11-26_15h36.21.793,Attention_exp_legacy,2023.1.0,Win32,59.88023952,,,,,,,,,,,,,,,,,,,,,,,,,,,,,,,,,,,,,,,,,,,,,,,,,,,,,,,,,
,,,,,,,0.004166667,-0.314814815,1,0,0,0,10,10,10,1,0,-0.33,28,001,2024-11-26_15h36.21.793,Attention_exp_legacy,2023.1.0,Win32,59.88023952,,,,,,,,,,,,,,,,,,,,,,,,,,,,,,,,,,,,,,,,,,,,,,,,,,,,,,,,,
,,,,,,,-0.669791667,-0.32037037,1,0,0,0,11,11,1,1,-0.67,-0.33,28,001,2024-11-26_15h36.21.793,Attention_exp_legacy,2023.1.0,Win32,59.88023952,calibration_square,,,,,,,,,,,,,,,,,,,,,,,,,,,,,,,,,,,,,,,,,,,,,,,,,,,,,,,,
,,,,,,,-0.3375,0.674074074,1,0,0,0,12,12,8,1,-0.33,0.67,28,001,2024-11-26_15h36.21.793,Attention_exp_legacy,2023.1.0,Win32,59.88023952,calibration_square,,,,,,,,,,,,,,,,,,,,,,,,,,,,,,,,,,,,,,,,,,,,,,,,,,,,,,,,
,,,,,,,-0.33125,0,1,0,0,0,13,13,6,1,-0.33,0,28,001,2024-11-26_15h36.21.793,Attention_exp_legacy,2023.1.0,Win32,59.88023952,calibration_square,,,,,,,,,,,,,,,,,,,,,,,,,,,,,,,,,,,,,,,,,,,,,,,,,,,,,,,,
,,,,,,,-0.010416667,-0.664814815,1,0,0,0,14,14,9,1,0,-0.67,28,001,2024-11-26_15h36.21.793,Attention_exp_legacy,2023.1.0,Win32,59.88023952,,,,,,,,,,,,,,,,,,,,,,,,,,,,,,,,,,,,,,,,,,,,,,,,,,,,,,,,,
,,,,,,,-0.00625,0.324074074,1,0,0,0,15,15,12,1,0,0.33,28,001,2024-11-26_15h36.21.793,Attention_exp_legacy,2023.1.0,Win32,59.88023952,calibration_square,,,,,,,,,,,,,,,,,,,,,,,,,,,,,,,,,,,,,,,,,,,,,,,,,,,,,,,,
,,,,,,,-0.009375,-0.003703704,1,0,0,0,16,16,11,1,0,0,28,001,2024-11-26_15h36.21.793,Attention_exp_legacy,2023.1.0,Win32,59.88023952,calibration_square,,,,,,,,,,,,,,,,,,,,,,,,,,,,,,,,,,,,,,,,,,,,,,,,,,,,,,,,
,,,,,,,0.328125,0.318518519,1,0,0,0,17,17,17,1,0.33,0.33,28,001,2024-11-26_15h36.21.793,Attention_exp_legacy,2023.1.0,Win32,59.88023952,,,,,,,,,,,,,,,,,,,,,,,,,,,,,,,,,,,,,,,,,,,,,,,,,,,,,,,,,
,,,,,,,-0.33125,-0.32037037,1,0,0,0,18,18,5,1,-0.33,-0.33,28,001,2024-11-26_15h36.21.793,Attention_exp_legacy,2023.1.0,Win32,59.88023952,calibration_square,,,,,,,,,,,,,,,,,,,,,,,,,,,,,,,,,,,,,,,,,,,,,,,,,,,,,,,,
,,,,,,,0.332291667,0,1,0,0,0,19,19,16,1,0.33,0,28,001,2024-11-26_15h36.21.793,Attention_exp_legacy,2023.1.0,Win32,59.88023952,calibration_square,,,,,,,,,,,,,,,,,,,,,,,,,,,,,,,,,,,,,,,,,,,,,,,,,,,,,,,,
,,,,,,,-0.322916667,-0.653703704,1,0,0,0,20,20,4,1,-0.33,-0.67,28,001,2024-11-26_15h36.21.793,Attention_exp_legacy,2023.1.0,Win32,59.88023952,,,,,,,,,,,,,,,,,,,,,,,,,,,,,,,,,,,,,,,,,,,,,,,,,,,,,,,,,
,,,,,,,,,,,,,,,,,,,28,001,2024-11-26_15h36.21.793,Attention_exp_legacy,2023.1.0,Win32,59.88023952,,"[1920,1080]","[640,480]",[-0.057291666666666664],[-0.5185185185185185],[1],[0],[0],[1.6622000000029757],"[""StartButton""]",[0.16458333333333333],[0.4],[1],[0],[0],[6.116500000000002],"[""Metro_label""]",Metro_label,1,7.1463,"[[0.06041666666666667,-0.04259259259259259],[0.06041666666666667,-0.04259259259259259],[0.06041666666666667,-0.04259259259259259],[0.06041666666666667,-0.04259259259259259],[0.06041666666666667,-0.04259259259259259],[0.06041666666666667,-0.04259259259259259],[0.06041666666666667,-0.04259259259259259],[0.06041666666666667,-0.04259259259259259],[0.06041666666666667,-0.04259259259259259],[0.06041666666666667,-0.04259259259259259],[0.06041666666666667,-0.04259259259259259],[0.06041666666666667,-0.04259259259259259],[0.06041666666666667,-0.04259259259259259],[0.06041666666666667,-0.04259259259259259],[0.06041666666666667,-0.04259259259259259],[0.06041666666666667,-0.04259259259259259],[0.06041666666666667,-0.04259259259259259],[0.06041666666666667,-0.04259259259259259],[0.06041666666666667,-0.04259259259259259],[0.06041666666666667,-0.04259259259259259],[0.06041666666666667,-0.04259259259259259],[0.06041666666666667,-0.04259259259259259],[0.06041666666666667,-0.04259259259259259],[0.06041666666666667,-0.04259259259259259],[0.06041666666666667,-0.04259259259259259],[0.06041666666666667,-0.04259259259259259],[0.06041666666666667,-0.04259259259259259],[0.06041666666666667,-0.04259259259259259],[0.06041666666666667,-0.04259259259259259],[0.06041666666666667,-0.04259259259259259],[0.06041666666666667,-0.04259259259259259],[0.06041666666666667,-0.04259259259259259],[0.06041666666666667,-0.04259259259259259],[0.06041666666666667,-0.04259259259259259],[0.06041666666666667,-0.04259259259259259],[0.06041666666666667,-0.04259259259259259],[0.06041666666666667,-0.04259259259259259],[0.06041666666666667,-0.04259259259259259],[0.06041666666666667,-0.04259259259259259],[0.06041666666666667,-0.04259259259259259],[0.06041666666666667,-0.04259259259259259],[0.06041666666666667,-0.04259259259259259],[0.06041666666666667,-0.04259259259259259],[0.06041666666666667,-0.04259259259259259],[0.06041666666666667,-0.04259259259259259],[0.06041666666666667,-0.04259259259259259],[0.06041666666666667,-0.04259259259259259],[0.06041666666666667,-0.04259259259259259],[0.06041666666666667,-0.04259259259259259],[0.06041666666666667,-0.04259259259259259],[0.06041666666666667,-0.04259259259259259],[0.06041666666666667,-0.04259259259259259],[0.06041666666666667,-0.04259259259259259],[0.06041666666666667,-0.04259259259259259],[0.06041666666666667,-0.04259259259259259],[0.06041666666666667,-0.04259259259259259],[0.06041666666666667,-0.04259259259259259],[0.0625,-0.04259259259259259],[0.06666666666666667,-0.040740740740740744],[0.07291666666666667,-0.03888888888888889],[0.0875,-0.03333333333333333],[0.10729166666666666,-0.02962962962962963],[0.13958333333333334,-0.022222222222222223],[0.16145833333333334,-0.012962962962962963],[0.184375,-0.009259259259259259],[0.2125,-0.001851851851851852],[0.24166666666666667,0.007407407407407408],[0.2708333333333333,0.011111111111111112],[0.29583333333333334,0.018518518518518517],[0.321875,0.027777777777777776],[0.34375,0.03148148148148148],[0.3625,0.037037037037037035],[0.390625,0.04259259259259259],[0.40729166666666666,0.046296296296296294],[0.41458333333333336,0.04814814814814815],[0.44166666666666665,0.05555555555555555],[0.453125,0.05740740740740741],[0.48125,0.06666666666666667],[0.49583333333333335,0.07037037037037037],[0.509375,0.07407407407407407],[0.5197916666666667,0.07592592592592592],[0.5260416666666666,0.07592592592592592],[0.5302083333333333,0.07592592592592592],[0.5302083333333333,0.07592592592592592],[0.53125,0.07592592592592592],[0.53125,0.07592592592592592],[0.53125,0.07592592592592592],[0.53125,0.07592592592592592],[0.53125,0.07592592592592592],[0.53125,0.07592592592592592],[0.53125,0.07592592592592592],[0.53125,0.07592592592592592],[0.53125,0.07592592592592592],[0.53125,0.07592592592592592],[0.53125,0.07592592592592592],[0.53125,0.07592592592592592],[0.53125,0.07592592592592592],[0.53125,0.07592592592592592],[0.53125,0.07592592592592592],[0.53125,0.07592592592592592],[0.528125,0.07592592592592592],[0.5260416666666666,0.07592592592592592],[0.5239583333333333,0.07592592592592592],[0.521875,0.07407407407407407],[0.51875,0.07407407407407407],[0.515625,0.07407407407407407],[0.5145833333333333,0.07407407407407407],[0.5125,0.07407407407407407],[0.5114583333333333,0.07222222222222222],[0.509375,0.07222222222222222],[0.5083333333333333,0.07037037037037037],[0.5083333333333333,0.07037037037037037],[0.50625,0.06851851851851852],[0.50625,0.06851851851851852],[0.5052083333333334,0.06851851851851852],[0.5052083333333334,0.06851851851851852],[0.5052083333333334,0.06851851851851852],[0.5052083333333334,0.06851851851851852],[0.5052083333333334,0.06851851851851852],[0.5052083333333334,0.06851851851851852],[0.5052083333333334,0.06851851851851852],[0.5052083333333334,0.06851851851851852],[0.5052083333333334,0.06851851851851852],[0.5052083333333334,0.06851851851851852],[0.5052083333333334,0.06851851851851852],[0.5052083333333334,0.06851851851851852],[0.5052083333333334,0.06851851851851852],[0.5052083333333334,0.06851851851851852],[0.5052083333333334,0.06851851851851852],[0.5052083333333334,0.06851851851851852],[0.5052083333333334,0.06851851851851852],[0.5052083333333334,0.06851851851851852],[0.5052083333333334,0.06851851851851852],[0.5052083333333334,0.06851851851851852],[0.5052083333333334,0.06851851851851852],[0.5052083333333334,0.06851851851851852],[0.5052083333333334,0.06851851851851852],[0.5052083333333334,0.06851851851851852],[0.5052083333333334,0.06851851851851852],[0.5052083333333334,0.06851851851851852],[0.5052083333333334,0.06851851851851852],[0.5052083333333334,0.06851851851851852],[0.5052083333333334,0.06851851851851852],[0.5052083333333334,0.06851851851851852],[0.5052083333333334,0.06851851851851852],[0.5052083333333334,0.06851851851851852],[0.5052083333333334,0.06851851851851852],[0.5052083333333334,0.06851851851851852],[0.5052083333333334,0.06851851851851852],[0.5052083333333334,0.06851851851851852],[0.5052083333333334,0.06851851851851852],[0.5052083333333334,0.06851851851851852],[0.5052083333333334,0.06851851851851852],[0.5052083333333334,0.06851851851851852],[0.5052083333333334,0.06851851851851852],[0.5052083333333334,0.06851851851851852],[0.5052083333333334,0.06851851851851852],[0.5052083333333334,0.06851851851851852],[0.5052083333333334,0.06851851851851852],[0.5052083333333334,0.06851851851851852],[0.5052083333333334,0.06851851851851852],[0.5052083333333334,0.06851851851851852],[0.5052083333333334,0.06851851851851852],[0.5052083333333334,0.06851851851851852],[0.5052083333333334,0.06851851851851852],[0.5052083333333334,0.06851851851851852],[0.5052083333333334,0.06851851851851852],[0.5052083333333334,0.06851851851851852],[0.5052083333333334,0.06851851851851852],[0.5052083333333334,0.06851851851851852],[0.5052083333333334,0.06851851851851852],[0.5052083333333334,0.06851851851851852],[0.5052083333333334,0.06851851851851852],[0.5052083333333334,0.06851851851851852],[0.5052083333333334,0.06851851851851852],[0.5052083333333334,0.06851851851851852],[0.5052083333333334,0.06851851851851852],[0.5052083333333334,0.06851851851851852],[0.5052083333333334,0.06851851851851852],[0.5052083333333334,0.06851851851851852],[0.5052083333333334,0.06851851851851852],[0.5052083333333334,0.06851851851851852],[0.5052083333333334,0.06851851851851852],[0.5052083333333334,0.06851851851851852],[0.5052083333333334,0.06851851851851852],[0.5052083333333334,0.06851851851851852],[0.5052083333333334,0.06851851851851852],[0.5052083333333334,0.06851851851851852],[0.5052083333333334,0.06851851851851852],[0.5052083333333334,0.06851851851851852],[0.5052083333333334,0.06851851851851852],[0.5052083333333334,0.06851851851851852],[0.5052083333333334,0.06851851851851852],[0.5052083333333334,0.06851851851851852],[0.5052083333333334,0.06851851851851852],[0.5052083333333334,0.06851851851851852],[0.5052083333333334,0.06851851851851852],[0.5052083333333334,0.06851851851851852],[0.5052083333333334,0.06851851851851852],[0.5052083333333334,0.06851851851851852],[0.5052083333333334,0.06851851851851852],[0.5052083333333334,0.06851851851851852],[0.5052083333333334,0.06851851851851852],[0.5052083333333334,0.06851851851851852],[0.5052083333333334,0.06851851851851852],[0.5052083333333334,0.06851851851851852],[0.5052083333333334,0.06851851851851852],[0.5052083333333334,0.06851851851851852],[0.5052083333333334,0.06851851851851852],[0.5052083333333334,0.06851851851851852],[0.5052083333333334,0.06851851851851852],[0.5052083333333334,0.06851851851851852],[0.5052083333333334,0.06851851851851852],[0.5052083333333334,0.06851851851851852],[0.5052083333333334,0.06851851851851852],[0.5052083333333334,0.06851851851851852],[0.5052083333333334,0.06851851851851852],[0.5052083333333334,0.06851851851851852],[0.5052083333333334,0.06851851851851852],[0.5052083333333334,0.06851851851851852],[0.5052083333333334,0.06851851851851852],[0.5052083333333334,0.06851851851851852],[0.5052083333333334,0.06851851851851852],[0.5052083333333334,0.06851851851851852],[0.5052083333333334,0.06851851851851852],[0.5052083333333334,0.06851851851851852],[0.5052083333333334,0.06851851851851852],[0.5052083333333334,0.06851851851851852],[0.5052083333333334,0.06851851851851852],[0.5052083333333334,0.06851851851851852],[0.5052083333333334,0.06851851851851852],[0.5052083333333334,0.06851851851851852],[0.5052083333333334,0.06851851851851852],[0.5052083333333334,0.06851851851851852],[0.5052083333333334,0.06851851851851852],[0.5052083333333334,0.06851851851851852],[0.5052083333333334,0.06851851851851852],[0.5052083333333334,0.06851851851851852],[0.5052083333333334,0.06851851851851852],[0.5052083333333334,0.06851851851851852],[0.5052083333333334,0.06851851851851852],[0.5052083333333334,0.06851851851851852],[0.5052083333333334,0.06851851851851852],[0.5041666666666667,0.06851851851851852],[0.5041666666666667,0.06851851851851852],[0.5041666666666667,0.06851851851851852],[0.503125,0.06851851851851852],[0.503125,0.06851851851851852],[0.5020833333333333,0.06851851851851852],[0.5020833333333333,0.06666666666666667],[0.5020833333333333,0.06666666666666667],[0.5020833333333333,0.06666666666666667],[0.5020833333333333,0.06666666666666667],[0.5020833333333333,0.06666666666666667],[0.5020833333333333,0.06666666666666667],[0.5,0.06481481481481481],[0.5,0.06481481481481481],[0.49895833333333334,0.06481481481481481],[0.496875,0.06296296296296296],[0.49583333333333335,0.06296296296296296],[0.49270833333333336,0.06296296296296296],[0.48854166666666665,0.06111111111111111],[0.484375,0.05925925925925926],[0.48125,0.05925925925925926],[0.47708333333333336,0.05740740740740741],[0.4708333333333333,0.05740740740740741],[0.46770833333333334,0.05555555555555555],[0.46041666666666664,0.05555555555555555],[0.45729166666666665,0.05555555555555555],[0.45,0.05185185185185185],[0.44375,0.05],[0.4395833333333333,0.05],[0.4354166666666667,0.05],[0.4322916666666667,0.04814814814814815],[0.43020833333333336,0.04814814814814815],[0.4270833333333333,0.046296296296296294],[0.42604166666666665,0.046296296296296294],[0.42291666666666666,0.046296296296296294],[0.4197916666666667,0.046296296296296294],[0.4166666666666667,0.046296296296296294],[0.4125,0.046296296296296294],[0.409375,0.046296296296296294],[0.4041666666666667,0.046296296296296294],[0.39895833333333336,0.046296296296296294],[0.39479166666666665,0.046296296296296294],[0.38958333333333334,0.046296296296296294],[0.384375,0.046296296296296294],[0.37916666666666665,0.046296296296296294],[0.37083333333333335,0.044444444444444446],[0.365625,0.044444444444444446],[0.35833333333333334,0.044444444444444446],[0.3489583333333333,0.044444444444444446],[0.3333333333333333,0.044444444444444446],[0.321875,0.04259259259259259],[0.31145833333333334,0.040740740740740744],[0.3,0.03518518518518519],[0.28958333333333336,0.03333333333333333],[0.28020833333333334,0.03333333333333333],[0.26979166666666665,0.03333333333333333],[0.26145833333333335,0.03333333333333333],[0.25625,0.03333333333333333],[0.25416666666666665,0.03333333333333333],[0.24791666666666667,0.03888888888888889],[0.24583333333333332,0.04259259259259259],[0.23854166666666668,0.06666666666666667],[0.23645833333333333,0.0962962962962963],[0.23125,0.12777777777777777],[0.22708333333333333,0.1537037037037037],[0.22291666666666668,0.17222222222222222],[0.21875,0.18518518518518517],[0.21458333333333332,0.2],[0.209375,0.21481481481481482],[0.20625,0.22962962962962963],[0.203125,0.24074074074074073],[0.2,0.25555555555555554],[0.19895833333333332,0.26296296296296295],[0.19583333333333333,0.2740740740740741],[0.19479166666666667,0.2851851851851852],[0.19270833333333334,0.29444444444444445],[0.190625,0.3037037037037037],[0.1875,0.31296296296296294],[0.184375,0.32222222222222224],[0.18333333333333332,0.32407407407407407],[0.18333333333333332,0.32592592592592595],[0.18125,0.3333333333333333],[0.18020833333333333,0.3388888888888889],[0.178125,0.34444444444444444],[0.17708333333333334,0.35],[0.175,0.3574074074074074],[0.17291666666666666,0.3611111111111111],[0.17291666666666666,0.362962962962963],[0.17083333333333334,0.3685185185185185],[0.17083333333333334,0.37222222222222223],[0.16979166666666667,0.37777777777777777],[0.16979166666666667,0.3814814814814815],[0.16979166666666667,0.38333333333333336],[0.16875,0.387037037037037],[0.16770833333333332,0.3907407407407407],[0.16666666666666666,0.39444444444444443],[0.16666666666666666,0.39444444444444443],[0.16666666666666666,0.3962962962962963],[0.165625,0.39814814814814814],[0.165625,0.39814814814814814],[0.165625,0.39814814814814814],[0.165625,0.39814814814814814],[0.165625,0.39814814814814814],[0.165625,0.39814814814814814],[0.165625,0.39814814814814814],[0.165625,0.39814814814814814],[0.16458333333333333,0.4],[0.16458333333333333,0.4],[0.16458333333333333,0.4],[0.16458333333333333,0.4],[0.16458333333333333,0.4],[0.16458333333333333,0.4],[0.16458333333333333,0.4],[0.16458333333333333,0.4],[0.16458333333333333,0.4],[0.16458333333333333,0.4],[0.16458333333333333,0.4],[0.16458333333333333,0.4],[0.16458333333333333,0.4],[0.16458333333333333,0.4],[0.16458333333333333,0.4],[0.16458333333333333,0.4],[0.16458333333333333,0.4],[0.16458333333333333,0.4],[0.16458333333333333,0.4],[0.16458333333333333,0.4],[0.16458333333333333,0.4],[0.16458333333333333,0.4],[0.16458333333333333,0.4],[0.16458333333333333,0.4],[0.16458333333333333,0.4],[0.16458333333333333,0.4],[0.16458333333333333,0.4],[0.16458333333333333,0.4],[0.16458333333333333,0.4],[0.16458333333333333,0.4],[0.16458333333333333,0.4],[0.16458333333333333,0.4],[0.16458333333333333,0.4],[0.16458333333333333,0.4],[0.16458333333333333,0.4],[0.16458333333333333,0.4],[0.16458333333333333,0.4],[0.16458333333333333,0.4],[0.16458333333333333,0.4],[0.16458333333333333,0.4],[0.16458333333333333,0.4],[0.16458333333333333,0.4],[0.16458333333333333,0.4],[0.16458333333333333,0.4],[0.16458333333333333,0.4],[0.16458333333333333,0.4],[0.16458333333333333,0.4],[0.16458333333333333,0.4],[0.16458333333333333,0.4],[0.16458333333333333,0.4],[0.16458333333333333,0.4],[0.16458333333333333,0.4],[0.16458333333333333,0.4],[0.16458333333333333,0.4],[0.16458333333333333,0.4],[0.16458333333333333,0.4],[0.16458333333333333,0.4],[0.16458333333333333,0.4],[0.16458333333333333,0.4],[0.16458333333333333,0.4],[0.16458333333333333,0.4],[0.16458333333333333,0.4],[0.16458333333333333,0.4],[0.16458333333333333,0.4],[0.16458333333333333,0.4],[0.16458333333333333,0.4],[0.16458333333333333,0.4],[0.16458333333333333,0.4],[0.16458333333333333,0.4],[0.16458333333333333,0.4],[0.16458333333333333,0.4],[0.16458333333333333,0.4],[0.16458333333333333,0.4],[0.16458333333333333,0.4],[0.16458333333333333,0.4],[0.16458333333333333,0.4],[0.16458333333333333,0.4],[0.16458333333333333,0.4],[0.16458333333333333,0.4]]","[[0.022187499999999954,0.05611111111111103],[0.022187499999999954,0.05611111111111103],[0.017604166666666643,0.03833333333333342],[0.012916666666666642,0.037037037037037035],[0.00614583333333331,0.03314814814814811],[0.018229166666666668,0.030740740740740784],[0.03125,0.032037037037036954],[0.03177083333333333,0.041666666666666664],[0.049270833333333285,0.02388888888888885],[0.0640625,-0.006296296296296254],[0.06239583333333331,-0.04222222222222214],[0.0625,-0.05240740740740743],[0.06749999999999995,-0.08185185185185183],[0.06749999999999995,-0.08185185185185183],[0.08291666666666657,-0.1037037037037037],[0.08302083333333338,-0.1190740740740741],[0.08624999999999995,-0.1455555555555556],[0.08760416666666657,-0.1588888888888889],[0.09500000000000004,-0.18425925925925926],[0.09500000000000004,-0.18425925925925926],[0.07270833333333329,-0.16870370370370374],[0.05552083333333328,-0.1227777777777778],[0.042708333333333334,-0.09185185185185189],[0.04020833333333336,-0.07629629629629628],[0.03229166666666667,-0.04666666666666675],[0.028125,-0.027037037037037078],[0.022500000000000023,-0.0301851851851851],[0.022500000000000023,-0.0301851851851851],[0.03166666666666664,-0.0242592592592593],[0.05625,-0.05740740740740741],[0.08083333333333324,-0.09055555555555551],[0.1196875000000001,-0.12814814814814812],[0.15614583333333343,-0.17407407407407408],[0.1872916666666666,-0.21203703703703702],[0.1872916666666666,-0.21203703703703702],[0.21843750000000003,-0.24370370370370376],[0.2604166666666667,-0.27240740740740743],[0.2837500000000001,-0.30351851851851847],[0.3084374999999999,-0.32592592592592595],[0.3084374999999999,-0.32592592592592595],[0.3104166666666667,-0.3087037037037037],[0.29677083333333343,-0.2783333333333334],[0.28312499999999996,-0.2479629629629629],[0.28843750000000007,-0.22537037037037036],[0.29375,-0.20277777777777778],[0.29500000000000004,-0.16666666666666666],[0.29812500000000003,-0.1331481481481481],[0.2959374999999999,-0.1037037037037037],[0.3064583333333334,-0.07314814814814814],[0.3064583333333334,-0.07314814814814814],[0.31708333333333344,-0.03185185185185194],[0.33447916666666655,-0.0242592592592593],[0.35395833333333326,-0.003888888888888931],[0.37562499999999993,0.014259259259259343],[0.38260416666666663,0.046481481481481526],[0.384375,0.05092592592592592],[0.39375,0.045740740740740825],[0.40593750000000006,0.060370370370370414],[0.40593750000000006,0.060370370370370414],[0.38312499999999994,0.06574074074074074],[0.36614583333333334,0.0705555555555556],[0.35010416666666655,0.06314814814814819],[0.32302083333333326,0.04425925925925922],[0.3051041666666668,0.028518518518518478],[0.2849999999999999,0.015000000000000043],[0.2849999999999999,0.015000000000000043],[0.23968749999999991,0.0007407407407406986],[0.2335416666666667,0.024074074074074074],[0.21552083333333344,0.018148148148148063],[0.19145833333333329,0.005740740740740783],[0.196875,0.003703703703703704],[0.17020833333333343,-0.012407407407407492],[0.17895833333333327,-0.0012962962962963806],[0.2007291666666667,0.008703703703703788],[0.2133333333333333,0.015555555555555513],[0.21885416666666657,0.04944444444444453],[0.21885416666666657,0.04944444444444453],[0.2569791666666667,0.07370370370370362],[0.26114583333333335,0.08814814814814818],[0.2530208333333334,0.09592592592592585],[0.28854166666666664,0.07592592592592592],[0.2977083333333333,0.06851851851851852],[0.3444791666666667,0.08777777777777773],[0.3444791666666667,0.08777777777777773],[0.35989583333333336,0.0787037037037037],[0.3776041666666667,0.09666666666666675],[0.3953125,0.11462962962962958],[0.3953125,0.11462962962962958],[0.4013541666666666,0.08499999999999996],[0.41354166666666664,0.08111111111111102],[0.4257291666666667,0.0772222222222223],[0.4570833333333333,0.09962962962962954],[0.44802083333333326,0.13648148148148156],[0.44989583333333344,0.1668518518518519],[0.44989583333333344,0.1668518518518519],[0.4404166666666666,0.18518518518518517],[0.4388541666666666,0.21055555555555563],[0.43250000000000005,0.21870370370370373],[0.4261458333333332,0.22685185185185186],[0.4261458333333332,0.22685185185185186],[0.4227083333333333,0.22851851851851848],[0.42156250000000006,0.2024074074074073],[0.42156250000000006,0.2024074074074073],[0.41854166666666665,0.18703703703703703],[0.41854166666666665,0.18703703703703703],[0.434375,0.17703703703703708],[0.41343750000000007,0.18074074074074079],[0.4079166666666666,0.17833333333333326],[0.3919791666666666,0.15055555555555547],[0.36208333333333326,0.10944444444444448],[0.33177083333333335,0.0712962962962963],[0.30229166666666674,0.035740740740740656],[0.27802083333333344,0.016851851851851896],[0.27802083333333344,0.016851851851851896],[0.28791666666666677,-0.02092592592592584],[0.23052083333333329,-0.045740740740740825],[0.15927083333333342,-0.06629629629629631],[0.11458333333333333,-0.12296296296296293],[0.11458333333333333,-0.12296296296296293],[0.06989583333333324,-0.17962962962962964],[0.04854166666666669,-0.19648148148148153],[0.03854166666666667,-0.18518518518518517],[0.028541666666666642,-0.17388888888888884],[-0.0036458333333333334,-0.18629629629629635],[-0.02520833333333338,-0.18833333333333332],[-0.02520833333333338,-0.18833333333333332],[-0.11447916666666665,-0.17111111111111107],[-0.11447916666666665,-0.17111111111111107],[-0.11156250000000002,-0.19944444444444442],[-0.11489583333333328,-0.2044444444444444],[-0.11885416666666669,-0.20333333333333337],[-0.12291666666666666,-0.2074074074074074],[-0.12708333333333333,-0.23407407407407405],[-0.14479166666666668,-0.2581481481481481],[-0.14479166666666668,-0.2581481481481481],[-0.1625,-0.2822222222222222],[-0.1577083333333333,-0.29240740740740734],[-0.15906250000000005,-0.2983333333333334],[-0.14854166666666668,-0.30759259259259264],[-0.14854166666666668,-0.30759259259259264],[-0.14260416666666664,-0.2764814814814815],[-0.13031250000000003,-0.2712962962962963],[-0.12260416666666671,-0.23444444444444448],[-0.12260416666666671,-0.23444444444444448],[-0.10885416666666667,-0.1838888888888889],[-0.10989583333333333,-0.13629629629629633],[-0.1078125,-0.11055555555555553],[-0.1078125,-0.11055555555555553],[-0.09114583333333333,-0.10462962962962963],[-0.09114583333333333,-0.10462962962962963],[-0.04208333333333331,-0.06611111111111109],[0.02312500000000005,-0.08851851851851854],[0.0796875,-0.0824074074074074],[0.1178124999999999,-0.0948148148148148],[0.1178124999999999,-0.0948148148148148],[0.15583333333333324,-0.10462962962962963],[0.22729166666666673,-0.14814814814814814],[0.2989583333333333,-0.18907407407407412],[0.37260416666666674,-0.21888888888888886],[0.37260416666666674,-0.21888888888888886],[0.42906250000000007,-0.24722222222222223],[0.5085416666666667,-0.25685185185185183],[0.5382291666666668,-0.2975925925925926],[0.5569791666666667,-0.25981481481481483],[0.6008333333333333,-0.24500000000000002],[0.6216666666666666,-0.25037037037037035],[0.6425,-0.25574074074074077],[0.6506249999999999,-0.24203703703703702],[0.6525000000000001,-0.23259259259259263],[0.6525000000000001,-0.23259259259259263],[0.6565624999999999,-0.1948148148148148],[0.6651041666666667,-0.1492592592592593],[0.6360416666666666,-0.10259259259259255],[0.6025000000000001,-0.04000000000000004],[0.5698958333333333,0.0007407407407406986],[0.5247916666666667,0.024074074074074074],[0.5027083333333332,0.06759259259259259],[0.4730208333333332,0.13037037037037033],[0.43802083333333336,0.19240740740740736],[0.43802083333333336,0.19240740740740736],[0.403125,0.24759259259259267],[0.3765625,0.28462962962962973],[0.36270833333333335,0.31240740740740747],[0.3458333333333333,0.33055555555555555],[0.3458333333333333,0.33055555555555555],[0.34968750000000004,0.33851851851851844],[0.34364583333333343,0.33240740740740743],[0.34489583333333323,0.3701851851851851],[0.34395833333333337,0.40018518518518525],[0.30572916666666666,0.48222222222222216],[0.26749999999999996,0.5642592592592593],[0.22781250000000006,0.6401851851851853],[0.17760416666666667,0.705925925925926],[0.17760416666666667,0.705925925925926],[0.12354166666666658,0.7872222222222223],[0.0859375,0.8572222222222222],[0.035312499999999976,0.9212962962962963],[0.035312499999999976,0.9212962962962963],[-0.008645833333333287,0.9825925925925925],[-0.07729166666666672,1.0162962962962963],[-0.14375,1.057777777777778],[-0.16281249999999994,1.0144444444444443],[-0.18229166666666666,0.9644444444444443],[-0.17395833333333333,0.9268518518518518],[-0.165625,0.8892592592592593],[-0.11822916666666666,0.7933333333333333],[-0.08052083333333329,0.721111111111111],[-0.08052083333333329,0.721111111111111],[-0.041979166666666616,0.6520370370370371],[0.007604166666666619,0.5890740740740741],[0.07062499999999995,0.5216666666666667],[0.13645833333333332,0.4414814814814814],[0.19979166666666662,0.37481481481481477],[0.2582291666666668,0.3227777777777777],[0.2582291666666668,0.3227777777777777],[0.29031250000000003,0.26444444444444437],[0.3303124999999999,0.19203703703703712],[0.33562500000000006,0.16629629629629622],[0.33541666666666664,0.13907407407407413],[0.3345833333333334,0.09185185185185189],[0.32625000000000004,0.06703703703703712],[0.2959374999999999,0.0455555555555556],[0.26281249999999995,0.03685185185185181],[0.24343750000000006,0.011481481481481566],[0.22937500000000005,-0.021851851851851768],[0.21166666666666673,-0.04759259259259268],[0.18604166666666658,-0.05925925925925926],[0.18604166666666658,-0.05925925925925926],[0.15979166666666675,-0.08351851851851856],[0.1428124999999999,-0.10907407407407403],[0.13864583333333325,-0.11185185185185181],[0.11822916666666666,-0.10981481481481484],[0.11979166666666667,-0.1111111111111111],[0.11729166666666657,-0.11814814814814817],[0.11687500000000005,-0.11129629629629634],[0.10791666666666658,-0.06370370370370367],[0.09239583333333339,-0.027962962962963005],[0.07677083333333339,0.01629629629629621],[0.07677083333333339,0.01629629629629621],[0.06124999999999995,0.06925925925925921],[0.03708333333333336,0.1331481481481481],[0.019687499999999976,0.17796296296296302],[0.015416666666666618,0.22740740740740734],[0.0017708333333333807,0.29222222222222216],[0.0017708333333333807,0.29222222222222216],[0.04812500000000005,0.2681481481481481],[0.07541666666666676,0.2796296296296296],[0.10083333333333329,0.262037037037037],[0.13645833333333332,0.24870370370370362],[0.2,0.19740740740740745],[0.26875,0.1398148148148148],[0.31375000000000003,0.09722222222222222],[0.3580208333333334,0.07592592592592592],[0.4131249999999999,0.03185185185185194],[0.47760416666666666,-0.02759259259259255],[0.4830208333333334,0.004444444444444402],[0.4830208333333334,0.004444444444444402],[0.4900000000000001,-0.003333333333333249],[0.5143749999999999,-0.009629629629629714],[0.5143749999999999,-0.009629629629629714],[0.5288541666666667,-0.02555555555555547],[0.5220833333333333,-0.004259259259259175],[0.5101041666666667,0.023333333333333376],[0.5101041666666667,0.023333333333333376],[0.5251041666666666,0.0031481481481482323],[0.5330208333333334,-0.003888888888888931],[0.5329166666666666,-0.009259259259259259],[0.5329166666666666,-0.009259259259259259],[0.5332291666666668,-0.00851851851851856],[0.5363541666666668,-0.016851851851851896],[0.5313541666666666,-0.01574074074074074],[0.5166666666666667,-0.014259259259259343],[0.5416666666666666,-0.013888888888888888],[0.5416666666666666,-0.013888888888888888],[0.5315624999999999,-0.02370370370370362],[0.5229166666666667,-0.0301851851851851],[0.5070833333333333,-0.025370370370370456],[0.5070833333333333,-0.025370370370370456],[0.46927083333333336,-0.02759259259259255],[0.4296875,-0.03185185185185194],[0.4161458333333333,-0.041111111111111195],[0.39604166666666674,-0.03370370370370379],[0.3680208333333333,-0.03685185185185181],[0.3680208333333333,-0.03685185185185181],[0.3556250000000001,-0.05333333333333336],[0.30520833333333336,-0.05888888888888891],[0.2833333333333333,-0.062037037037037036],[0.2833333333333333,-0.062037037037037036],[0.2599999999999999,-0.06166666666666669],[0.23708333333333323,-0.0477777777777777],[0.23718750000000005,-0.04222222222222214],[0.23718750000000005,-0.04222222222222214],[0.265625,-0.03592592592592588],[0.26437499999999997,-0.022592592592592678],[0.26541666666666663,-0.021296296296296296],[0.2841666666666666,-0.01185185185185181],[0.2900000000000001,-0.0025925925925925505],[0.2847916666666668,0.01055555555555564],[0.2847916666666668,0.01055555555555564],[0.29104166666666675,0.015370370370370286],[0.31218750000000006,-0.0014814814814813973],[0.31145833333333334,-0.0012962962962963806],[0.3094791666666666,-0.01055555555555564],[0.3094791666666666,-0.01055555555555564],[0.27937500000000004,0.027777777777777776],[0.2171875,0.029259259259259176],[0.20499999999999996,0.018703703703703747],[0.20499999999999996,0.018703703703703747],[0.20614583333333342,0.036481481481481566],[0.20614583333333342,0.036481481481481566],[0.19864583333333338,0.02111111111111107],[0.19864583333333338,0.02111111111111107],[0.2275000000000001,0.01574074074074074],[0.23875000000000005,0.01648148148148144],[0.21624999999999991,0.01055555555555564],[0.23489583333333333,-0.02833333333333325],[0.2529166666666666,-0.05351851851851848],[0.2529166666666666,-0.05351851851851848],[0.28229166666666666,-0.1294444444444444],[0.28229166666666666,-0.1294444444444444],[0.3203125,-0.19037037037037038],[0.33708333333333323,-0.17037037037037037],[0.3400000000000001,-0.18370370370370367],[0.3584374999999999,-0.19000000000000003],[0.3319791666666667,-0.21962962962962967],[0.28666666666666674,-0.27148148148148155],[0.26020833333333326,-0.30185185185185187],[0.26020833333333326,-0.30185185185185187],[0.22447916666666667,-0.3118518518518518],[0.22447916666666667,-0.3118518518518518],[0.19385416666666658,-0.33055555555555555],[0.1474999999999999,-0.35759259259259263],[0.146875,-0.35111111111111115],[0.146875,-0.35111111111111115],[0.13354166666666673,-0.39351851851851855],[0.08354166666666671,-0.42055555555555557],[0.05375000000000003,-0.4381481481481482],[0.0140625,-0.43796296296296294],[0.011354166666666643,-0.40907407407407403],[0.04562499999999995,-0.3925925925925926],[0.07458333333333324,-0.38351851851851854],[0.08697916666666666,-0.34092592592592597],[0.08697916666666666,-0.34092592592592597],[0.09072916666666657,-0.3074074074074074],[0.07541666666666676,-0.29370370370370374],[0.07677083333333339,-0.3237037037037037],[0.11531250000000005,-0.3640740740740741],[0.1267708333333334,-0.3877777777777777],[0.15770833333333342,-0.40611111111111114],[0.1859375,-0.41074074074074074],[0.1742708333333333,-0.41277777777777774],[0.15656249999999997,-0.4003703703703704],[0.14656250000000004,-0.4255555555555556],[0.16906249999999995,-0.427962962962963],[0.16906249999999995,-0.427962962962963],[0.1915625000000001,-0.43037037037037035],[0.16218750000000004,-0.397037037037037],[0.16104166666666658,-0.3646296296296296],[0.16104166666666658,-0.3646296296296296],[0.15989583333333332,-0.3322222222222222],[0.17197916666666657,-0.30185185185185187],[0.18364583333333329,-0.28833333333333333],[0.19822916666666662,-0.26500000000000007],[0.19822916666666662,-0.26500000000000007],[0.21802083333333327,-0.26537037037037037],[0.21802083333333327,-0.26537037037037037],[0.25,-0.2785185185185185],[0.26104166666666656,-0.2770370370370371],[0.2720833333333334,-0.27555555555555555],[0.2720833333333334,-0.27555555555555555],[0.3154166666666666,-0.28777777777777774],[0.3069791666666667,-0.2718518518518519],[0.3069791666666667,-0.2718518518518519],[0.29625000000000007,-0.2822222222222222],[0.29625000000000007,-0.2822222222222222],[0.28854166666666664,-0.3068518518518518],[0.24989583333333343,-0.3],[0.23312499999999994,-0.31722222222222224],[0.2171875,-0.32518518518518524],[0.19645833333333323,-0.32462962962962966],[0.1787499999999999,-0.3396296296296296],[0.1453125,-0.3264814814814815],[0.10697916666666671,-0.3148148148148148],[0.1099999999999999,-0.3338888888888889],[0.11927083333333334,-0.32703703703703707],[0.14833333333333343,-0.32388888888888884],[0.20989583333333334,-0.36518518518518517],[0.20989583333333334,-0.36518518518518517],[0.23166666666666677,-0.3696296296296297],[0.23166666666666677,-0.3696296296296297],[0.2540625000000001,-0.3707407407407407],[0.25833333333333336,-0.3483333333333334],[0.24864583333333337,-0.3085185185185186],[0.2673958333333334,-0.30574074074074076],[0.28250000000000003,-0.2922222222222222],[0.2875,-0.290925925925926],[0.2881249999999999,-0.2890740740740741],[0.27843749999999995,-0.2868518518518518],[0.25833333333333336,-0.2727777777777778],[0.2612499999999999,-0.29000000000000004],[0.2635416666666667,-0.31055555555555553],[0.2698958333333332,-0.32518518518518524],[0.28270833333333345,-0.3538888888888889],[0.3125,-0.38074074074074077],[0.34229166666666655,-0.4075925925925926],[0.3494791666666667,-0.41],[0.3570833333333333,-0.4125925925925926],[0.37385416666666677,-0.4112962962962963],[0.390625,-0.41],[0.390625,-0.41],[0.4071875000000001,-0.41351851851851856],[0.4178124999999999,-0.397037037037037],[0.44072916666666656,-0.3972222222222222],[0.4509375000000001,-0.38555555555555554],[0.43697916666666664,-0.3496296296296296],[0.42385416666666675,-0.29500000000000004],[0.4256249999999999,-0.2490740740740741],[0.4044791666666666,-0.1712962962962963],[0.36218750000000005,-0.09648148148148153],[0.3402083333333332,-0.04740740740740745],[0.3162499999999999,0.061666666666666585],[0.28250000000000003,0.11092592592592589],[0.24874999999999994,0.16018518518518518],[0.22916666666666666,0.2140740740740741],[0.22916666666666666,0.2140740740740741],[0.20677083333333332,0.25759259259259265],[0.22083333333333333,0.23055555555555557],[0.2040625000000001,0.21814814814814806]]","[[0.022187499999999954,0.05611111111111103,0.0005000000000023874],[0.022187499999999954,0.05611111111111103,0.044600000008941265],[0.017604166666666643,0.03833333333333342,0.06010000000894422],[0.012916666666666642,0.037037037037037035,0.07840000000596348],[0.00614583333333331,0.03314814814814811,0.09340000000596405],[0.018229166666666668,0.030740740740740784,0.11180000001191814],[0.03125,0.032037037037036954,0.12670000000298387],[0.03177083333333333,0.041666666666666664,0.14650000000000318],[0.049270833333333285,0.02388888888888885,0.16010000000893854],[0.0640625,-0.006296296296296254,0.17999999999999972],[0.06239583333333331,-0.04222222222222214,0.19370000000297694],[0.0625,-0.05240740740740743,0.21020000000297756],[0.06749999999999995,-0.08185185185185183,0.22960000000894354],[0.06749999999999995,-0.08185185185185183,0.24360000000893933],[0.08291666666666657,-0.1037037037037037,0.26030000001192377],[0.08302083333333338,-0.1190740740740741,0.2798000000119245],[0.08624999999999995,-0.1455555555555556,0.2989999999999995],[0.08760416666666657,-0.1588888888888889,0.3132000000029791],[0.09500000000000004,-0.18425925925925926,0.3267000000029796],[0.09500000000000004,-0.18425925925925926,0.3434999999999988],[0.07270833333333329,-0.16870370370370374,0.36020000000298324],[0.05552083333333328,-0.1227777777777778,0.37700000000000244],[0.042708333333333334,-0.09185185185185189,0.396600000008938],[0.04020833333333336,-0.07629629629629628,0.41030000001192235],[0.03229166666666667,-0.04666666666666675,0.426800000011923],[0.028125,-0.027037037037037078,0.44340000000595836],[0.022500000000000023,-0.0301851851851851,0.46020000000297756],[0.022500000000000023,-0.0301851851851851,0.4781000000089435],[0.03166666666666664,-0.0242592592592593,0.49360000000893933],[0.05625,-0.05740740740740741,0.51010000000894],[0.08083333333333324,-0.09055555555555551,0.5268000000119244],[0.1196875000000001,-0.12814814814814812,0.5435000000000016],[0.15614583333333343,-0.17407407407407408,0.5634000000059629],[0.1872916666666666,-0.21203703703703702,0.5784000000059635],[0.1872916666666666,-0.21203703703703702,0.593400000005964],[0.21843750000000003,-0.24370370370370376,0.6101000000089414],[0.2604166666666667,-0.27240740740740743,0.6268000000119187],[0.2837500000000001,-0.30351851851851847,0.646600000008938],[0.3084374999999999,-0.32592592592592595,0.6614000000059619],[0.3084374999999999,-0.32592592592592595,0.676800000011923],[0.3104166666666667,-0.3087037037037037,0.6934000000059584],[0.29677083333333343,-0.2783333333333334,0.7101000000089428],[0.28312499999999996,-0.2479629629629629,0.7302000000029807],[0.28843750000000007,-0.22537037037037036,0.7438000000119231],[0.29375,-0.20277777777777778,0.76010000000894],[0.29500000000000004,-0.16666666666666666,0.7790000000000035],[0.29812500000000003,-0.1331481481481481,0.7934000000059598],[0.2959374999999999,-0.1037037037037037,0.8136000000089396],[0.3064583333333334,-0.07314814814814814,0.8281000000089378],[0.3064583333333334,-0.07314814814814814,0.843400000005964],[0.31708333333333344,-0.03185185185185194,0.8602000000029832],[0.33447916666666655,-0.0242592592592593,0.8782000000029839],[0.35395833333333326,-0.003888888888888931,0.897400000005959],[0.37562499999999993,0.014259259259259343,0.9119000000059572],[0.38260416666666663,0.046481481481481526,0.926800000011923],[0.384375,0.05092592592592592,0.9438000000119189],[0.39375,0.045740740740740825,0.9602000000029776],[0.40593750000000006,0.060370370370370414,0.982999999999997],[0.40593750000000006,0.060370370370370414,0.9936000000089393],[0.38312499999999994,0.06574074074074074,1.0104000000059585],[0.36614583333333334,0.0705555555555556,1.0269000000059592],[0.35010416666666655,0.06314814814814819,1.0476000000089414],[0.32302083333333326,0.04425925925925922,1.064800000011921],[0.3051041666666668,0.028518518518518478,1.080300000011924],[0.2849999999999999,0.015000000000000043,1.0992000000029805],[0.2849999999999999,0.015000000000000043,1.1102000000029832],[0.23968749999999991,0.0007407407407406986,1.1269000000059606],[0.2335416666666667,0.024074074074074074,1.1465000000000032],[0.21552083333333344,0.018148148148148063,1.1634000000059572],[0.19145833333333329,0.005740740740740783,1.1793000000119207],[0.196875,0.003703703703703704,1.1941000000089375],[0.17020833333333343,-0.012407407407407492,1.2150000000000034],[0.17895833333333327,-0.0012962962962963806,1.2313000000119203],[0.2007291666666667,0.008703703703703788,1.2467000000029813],[0.2133333333333333,0.015555555555555513,1.2649000000059587],[0.21885416666666657,0.04944444444444453,1.2813000000119246],[0.21885416666666657,0.04944444444444453,1.2937000000029784],[0.2569791666666667,0.07370370370370362,1.310300000011921],[0.26114583333333335,0.08814814814814818,1.3299999999999983],[0.2530208333333334,0.09592592592592585,1.3468000000119247],[0.28854166666666664,0.07592592592592592,1.3608000000119205],[0.2977083333333333,0.06851851851851852,1.3825000000000003],[0.3444791666666667,0.08777777777777773,1.3988000000119243],[0.3444791666666667,0.08777777777777773,1.4101000000089385],[0.35989583333333336,0.0787037037037037,1.4271000000089415],[0.3776041666666667,0.09666666666666675,1.4447000000029817],[0.3953125,0.11462962962962958,1.4604000000059614],[0.3953125,0.11462962962962958,1.4768000000119201],[0.4013541666666666,0.08499999999999996,1.4936000000089393],[0.41354166666666664,0.08111111111111102,1.5104000000059585],[0.4257291666666667,0.0772222222222223,1.5267000000029824],[0.4570833333333333,0.09962962962962954,1.5434000000059598],[0.44802083333333326,0.13648148148148156,1.5639000000059582],[0.44989583333333344,0.1668518518518519,1.5797000000029797],[0.44989583333333344,0.1668518518518519,1.5934999999999988],[0.4404166666666666,0.18518518518518517,1.6101000000089414],[0.4388541666666666,0.21055555555555563,1.6267000000029839],[0.43250000000000005,0.21870370370370373,1.6468000000119218],[0.4261458333333332,0.22685185185185186,1.6604000000059642],[0.4261458333333332,0.22685185185185186,1.6771000000089415],[0.4227083333333333,0.22851851851851848,1.696800000011919],[0.42156250000000006,0.2024074074074073,1.7157000000029825],[0.42156250000000006,0.2024074074074073,1.7268000000119201],[0.41854166666666665,0.18703703703703703,1.746200000002979],[0.41854166666666665,0.18703703703703703,1.7603000000119238],[0.434375,0.17703703703703708,1.7772000000029777],[0.41343750000000007,0.18074074074074079,1.7936000000089436],[0.4079166666666666,0.17833333333333326,1.8155000000000001],[0.3919791666666666,0.15055555555555547,1.8314999999999984],[0.36208333333333326,0.10944444444444448,1.8469000000059594],[0.33177083333333335,0.0712962962962963,1.8616000000089414],[0.30229166666666674,0.035740740740740656,1.8772000000029792],[0.27802083333333344,0.016851851851851896,1.900500000000001],[0.27802083333333344,0.016851851851851896,1.9101000000089385],[0.28791666666666677,-0.02092592592592584,1.9269000000059577],[0.23052083333333329,-0.045740740740740825,1.9447000000029817],[0.15927083333333342,-0.06629629629629631,1.9600000000000009],[0.11458333333333333,-0.12296296296296293,1.9814000000059622],[0.11458333333333333,-0.12296296296296293,1.9934000000059626],[0.06989583333333324,-0.17962962962962964,2.01010000000894],[0.04854166666666669,-0.19648148148148153,2.027000000000001],[0.03854166666666667,-0.18518518518518517,2.0436000000089436],[0.028541666666666642,-0.17388888888888884,2.0637000000029815],[-0.0036458333333333334,-0.18629629629629635,2.0812000000029798],[-0.02520833333333338,-0.18833333333333332,2.0985000000000014],[-0.02520833333333338,-0.18833333333333332,2.1163000000119183],[-0.11447916666666665,-0.17111111111111107,2.1331000000089375],[-0.11447916666666665,-0.17111111111111107,2.143500000000003],[-0.11156250000000002,-0.19944444444444442,2.1601000000089385],[-0.11489583333333328,-0.2044444444444444,2.1792000000029788],[-0.11885416666666669,-0.20333333333333337,2.1934000000059584],[-0.12291666666666666,-0.2074074074074074,2.210100000008943],[-0.12708333333333333,-0.23407407407407405,2.229900000005962],[-0.14479166666666668,-0.2581481481481481,2.2434000000059626],[-0.14479166666666668,-0.2581481481481481,2.260200000002982],[-0.1625,-0.2822222222222222,2.277100000008943],[-0.1577083333333333,-0.29240740740740734,2.29490000000596],[-0.15906250000000005,-0.2983333333333334,2.313400000005963],[-0.14854166666666668,-0.30759259259259264,2.327200000002982],[-0.14854166666666668,-0.30759259259259264,2.343400000005964],[-0.14260416666666664,-0.2764814814814815,2.3601000000089414],[-0.13031250000000003,-0.2712962962962963,2.378800000011921],[-0.12260416666666671,-0.23444444444444448,2.3973000000119242],[-0.12260416666666671,-0.23444444444444448,2.4101000000089385],[-0.10885416666666667,-0.1838888888888889,2.426800000011923],[-0.10989583333333333,-0.13629629629629633,2.4434000000059584],[-0.1078125,-0.11055555555555553,2.460000000000001],[-0.1078125,-0.11055555555555553,2.476700000002978],[-0.09114583333333333,-0.10462962962962963,2.4934999999999974],[-0.09114583333333333,-0.10462962962962963,2.51010000000894],[-0.04208333333333331,-0.06611111111111109,2.5267000000029824],[0.02312500000000005,-0.08851851851851854,2.54340000000596],[0.0796875,-0.0824074074074074,2.563400000005963],[0.1178124999999999,-0.0948148148148148,2.57710000000894],[0.1178124999999999,-0.0948148148148148,2.593400000005964],[0.15583333333333324,-0.10462962962962963,2.6101000000089414],[0.22729166666666673,-0.14814814814814814,2.626700000002984],[0.2989583333333333,-0.18907407407407412,2.64670000000298],[0.37260416666666674,-0.21888888888888886,2.6608000000119176],[0.37260416666666674,-0.21888888888888886,2.6769999999999996],[0.42906250000000007,-0.24722222222222223,2.6935000000000002],[0.5085416666666667,-0.25685185185185183,2.710000000000001],[0.5382291666666668,-0.2975925925925926,2.7295000000000016],[0.5569791666666667,-0.25981481481481483,2.7436000000089393],[0.6008333333333333,-0.24500000000000002,2.760200000002982],[0.6216666666666666,-0.25037037037037035,2.7783000000119245],[0.6425,-0.25574074074074077,2.79340000000596],[0.6506249999999999,-0.24203703703703702,2.813300000011921],[0.6525000000000001,-0.23259259259259263,2.8267000000029796],[0.6525000000000001,-0.23259259259259263,2.843499999999999],[0.6565624999999999,-0.1948148148148148,2.8601000000089414],[0.6651041666666667,-0.1492592592592593,2.8769000000059606],[0.6360416666666666,-0.10259259259259255,2.89670000000298],[0.6025000000000001,-0.04000000000000004,2.9115000000000038],[0.5698958333333333,0.0007407407407406986,2.926700000002981],[0.5247916666666667,0.024074074074074074,2.9463000000119237],[0.5027083333333332,0.06759259259259259,2.960100000008943],[0.4730208333333332,0.13037037037037033,2.9810000000000016],[0.43802083333333336,0.19240740740740736,2.993800000011923],[0.43802083333333336,0.19240740740740736,3.009999999999998],[0.403125,0.24759259259259267,3.0267000000029824],[0.3765625,0.28462962962962973,3.04340000000596],[0.36270833333333335,0.31240740740740747,3.064100000008942],[0.3458333333333333,0.33055555555555555,3.079500000000003],[0.3458333333333333,0.33055555555555555,3.093400000005964],[0.34968750000000004,0.33851851851851844,3.1101000000089414],[0.34364583333333343,0.33240740740740743,3.126700000002984],[0.34489583333333323,0.3701851851851851,3.1469000000059637],[0.34395833333333337,0.40018518518518525,3.161400000005962],[0.30572916666666666,0.48222222222222216,3.179800000011923],[0.26749999999999996,0.5642592592592593,3.1934000000059584],[0.22781250000000006,0.6401851851851853,3.210000000000001],[0.17760416666666667,0.705925925925926,3.229999999999997],[0.17760416666666667,0.705925925925926,3.2434999999999974],[0.12354166666666658,0.7872222222222223,3.26010000000894],[0.0859375,0.8572222222222222,3.2774000000059615],[0.035312499999999976,0.9212962962962963,3.29340000000596],[0.035312499999999976,0.9212962962962963,3.310100000008944],[-0.008645833333333287,0.9825925925925925,3.3268000000119216],[-0.07729166666666672,1.0162962962962963,3.3463000000119223],[-0.14375,1.057777777777778,3.3601000000089414],[-0.16281249999999994,1.0144444444444443,3.3771000000089444],[-0.18229166666666666,0.9644444444444443,3.3971000000089404],[-0.17395833333333333,0.9268518518518518,3.4123000000119177],[-0.165625,0.8892592592592593,3.426800000011923],[-0.11822916666666666,0.7933333333333333,3.443800000011919],[-0.08052083333333329,0.721111111111111,3.4602000000029776],[-0.08052083333333329,0.721111111111111,3.47680000001192],[-0.041979166666666616,0.6520370370370371,3.4934999999999974],[0.007604166666666619,0.5890740740740741,3.510200000002982],[0.07062499999999995,0.5216666666666667,3.5267000000029824],[0.13645833333333332,0.4414814814814814,3.54340000000596],[0.19979166666666662,0.37481481481481477,3.564200000002984],[0.2582291666666668,0.3227777777777777,3.5814000000059636],[0.2582291666666668,0.3227777777777777,3.593400000005964],[0.29031250000000003,0.26444444444444437,3.6099999999999994],[0.3303124999999999,0.19203703703703712,3.6268000000119187],[0.33562500000000006,0.16629629629629622,3.6469999999999985],[0.33541666666666664,0.13907407407407413,3.6603000000119224],[0.3345833333333334,0.09185185185185189,3.6772000000029834],[0.32625000000000004,0.06703703703703712,3.6934000000059584],[0.2959374999999999,0.0455555555555556,3.7103000000119195],[0.26281249999999995,0.03685185185185181,3.7304000000059574],[0.24343750000000006,0.011481481481481566,3.744800000011921],[0.22937500000000005,-0.021851851851851768,3.764499999999998],[0.21166666666666673,-0.04759259259259268,3.7806000000089384],[0.18604166666666658,-0.05925925925925926,3.799600000008944],[0.18604166666666658,-0.05925925925925926,3.810100000008944],[0.15979166666666675,-0.08351851851851856,3.8267000000029796],[0.1428124999999999,-0.10907407407407403,3.8468000000119247],[0.13864583333333325,-0.11185185185185181,3.8617000000029833],[0.11822916666666666,-0.10981481481481484,3.8768000000119187],[0.11979166666666667,-0.1111111111111111,3.89670000000298],[0.11729166666666657,-0.11814814814814817,3.9116000000089386],[0.11687500000000005,-0.11129629629629634,3.926700000002981],[0.10791666666666658,-0.06370370370370367,3.9440000000000026],[0.09239583333333339,-0.027962962962963005,3.960000000000001],[0.07677083333333339,0.01629629629629621,3.9812000000029784],[0.07677083333333339,0.01629629629629621,3.9934000000059626],[0.06124999999999995,0.06925925925925921,4.009999999999998],[0.03708333333333336,0.1331481481481481,4.0267000000029824],[0.019687499999999976,0.17796296296296302,4.04340000000596],[0.015416666666666618,0.22740740740740734,4.0637000000029815],[0.0017708333333333807,0.29222222222222216,4.083400000005959],[0.0017708333333333807,0.29222222222222216,4.093400000005964],[0.04812500000000005,0.2681481481481481,4.110200000002983],[0.07541666666666676,0.2796296296296296,4.126800000011919],[0.10083333333333329,0.262037037037037,4.146500000000003],[0.13645833333333332,0.24870370370370362,4.162700000002978],[0.2,0.19740740740740745,4.179900000005958],[0.26875,0.1398148148148148,4.194000000000003],[0.31375000000000003,0.09722222222222222,4.210000000000001],[0.3580208333333334,0.07592592592592592,4.230600000008941],[0.4131249999999999,0.03185185185185194,4.244800000011921],[0.47760416666666666,-0.02759259259259255,4.26010000000894],[0.4830208333333334,0.004444444444444402,4.2836000000089385],[0.4830208333333334,0.004444444444444402,4.29340000000596],[0.4900000000000001,-0.003333333333333249,4.310200000002979],[0.5143749999999999,-0.009629629629629714,4.3268000000119216],[0.5143749999999999,-0.009629629629629714,4.346300000011922],[0.5288541666666667,-0.02555555555555547,4.360200000002983],[0.5220833333333333,-0.004259259259259175,4.378700000002979],[0.5101041666666667,0.023333333333333376,4.400500000000001],[0.5101041666666667,0.023333333333333376,4.41020000000298],[0.5251041666666666,0.0031481481481482323,4.426900000005958],[0.5330208333333334,-0.003888888888888931,4.4456000000089375],[0.5329166666666666,-0.009259259259259259,4.470500000000001],[0.5329166666666666,-0.009259259259259259,4.485100000008941],[0.5332291666666668,-0.00851851851851856,4.493600000008939],[0.5363541666666668,-0.016851851851851896,4.513300000011924],[0.5313541666666666,-0.01574074074074074,4.529499999999999],[0.5166666666666667,-0.014259259259259343,4.547600000008941],[0.5416666666666666,-0.013888888888888888,4.567200000002984],[0.5416666666666666,-0.013888888888888888,4.57710000000894],[0.5315624999999999,-0.02370370370370362,4.593499999999999],[0.5229166666666667,-0.0301851851851851,4.611400000005958],[0.5070833333333333,-0.025370370370370456,4.631500000000003],[0.5070833333333333,-0.025370370370370456,4.643500000000003],[0.46927083333333336,-0.02759259259259255,4.660300000011922],[0.4296875,-0.03185185185185194,4.68190000000596],[0.4161458333333333,-0.041111111111111195,4.697100000008938],[0.39604166666666674,-0.03370370370370379,4.71520000000298],[0.3680208333333333,-0.03685185185185181,4.732200000002983],[0.3680208333333333,-0.03685185185185181,4.743600000008939],[0.3556250000000001,-0.05333333333333336,4.760300000011924],[0.30520833333333336,-0.05888888888888891,4.77920000000298],[0.2833333333333333,-0.062037037037037036,4.799500000000002],[0.2833333333333333,-0.062037037037037036,4.810200000002979],[0.2599999999999999,-0.06166666666666669,4.8268000000119216],[0.23708333333333323,-0.0477777777777777,4.844200000002978],[0.23718750000000005,-0.04222222222222214,4.8639000000059625],[0.23718750000000005,-0.04222222222222214,4.877100000008944],[0.265625,-0.03592592592592588,4.893600000008938],[0.26437499999999997,-0.022592592592592678,4.915100000008941],[0.26541666666666663,-0.021296296296296296,4.930999999999997],[0.2841666666666666,-0.01185185185185181,4.945300000011919],[0.2900000000000001,-0.0025925925925925505,4.960200000002978],[0.2847916666666668,0.01055555555555564,4.983800000011918],[0.2847916666666668,0.01055555555555564,4.993499999999997],[0.29104166666666675,0.015370370370370286,5.010200000002982],[0.31218750000000006,-0.0014814814814813973,5.026800000011924],[0.31145833333333334,-0.0012962962962963806,5.048100000008944],[0.3094791666666666,-0.01055555555555564,5.0645000000000024],[0.3094791666666666,-0.01055555555555564,5.07710000000894],[0.27937500000000004,0.027777777777777776,5.093600000008941],[0.2171875,0.029259259259259176,5.116600000008944],[0.20499999999999996,0.018703703703703747,5.132700000002977],[0.20499999999999996,0.018703703703703747,5.143600000008938],[0.20614583333333342,0.036481481481481566,5.160300000011922],[0.20614583333333342,0.036481481481481566,5.180300000011918],[0.19864583333333338,0.02111111111111107,5.1935],[0.19864583333333338,0.02111111111111107,5.210200000002978],[0.2275000000000001,0.01574074074074074,5.22680000001192],[0.23875000000000005,0.01648148148148144,5.247700000002979],[0.21624999999999991,0.01055555555555564,5.2636000000089425],[0.23489583333333333,-0.02833333333333325,5.281200000002983],[0.2529166666666666,-0.05351851851851848,5.30240000000596],[0.2529166666666666,-0.05351851851851848,5.310400000005963],[0.28229166666666666,-0.1294444444444444,5.326999999999998],[0.28229166666666666,-0.1294444444444444,5.343499999999999],[0.3203125,-0.19037037037037038,5.363500000000002],[0.33708333333333323,-0.17037037037037037,5.383499999999998],[0.3400000000000001,-0.18370370370370367,5.397500000000001],[0.3584374999999999,-0.19000000000000003,5.415200000002983],[0.3319791666666667,-0.21962962962962967,5.429700000002981],[0.28666666666666674,-0.27148148148148155,5.445500000000003],[0.26020833333333326,-0.30185185185185187,5.4611000000089405],[0.26020833333333326,-0.30185185185185187,5.482600000008944],[0.22447916666666667,-0.3118518518518518,5.493600000008939],[0.22447916666666667,-0.3118518518518518,5.510200000002982],[0.19385416666666658,-0.33055555555555555,5.526900000005959],[0.1474999999999999,-0.35759259259259263,5.5482000000029785],[0.146875,-0.35111111111111115,5.564],[0.146875,-0.35111111111111115,5.576999999999998],[0.13354166666666673,-0.39351851851851855,5.593600000008941],[0.08354166666666671,-0.42055555555555557,5.613500000000002],[0.05375000000000003,-0.4381481481481482,5.628300000011919],[0.0140625,-0.43796296296296294,5.646500000000003],[0.011354166666666643,-0.40907407407407403,5.664999999999999],[0.04562499999999995,-0.3925925925925926,5.680600000008944],[0.07458333333333324,-0.38351851851851854,5.695400000005961],[0.08697916666666666,-0.34092592592592597,5.7165000000000035],[0.08697916666666666,-0.34092592592592597,5.726700000002978],[0.09072916666666657,-0.3074074074074074,5.743400000005963],[0.07541666666666676,-0.29370370370370374,5.76010000000894],[0.07677083333333339,-0.3237037037037037,5.779600000008941],[0.11531250000000005,-0.3640740740740741,5.793900000005962],[0.1267708333333334,-0.3877777777777777,5.8137000000029815],[0.15770833333333342,-0.40611111111111114,5.827500000000001],[0.1859375,-0.41074074074074074,5.846700000002983],[0.1742708333333333,-0.41277777777777774,5.8608000000119205],[0.15656249999999997,-0.4003703703703704,5.8786000000089444],[0.14656250000000004,-0.4255555555555556,5.897200000002982],[0.16906249999999995,-0.427962962962963,5.9133000000119225],[0.16906249999999995,-0.427962962962963,5.926700000002981],[0.1915625000000001,-0.43037037037037035,5.943400000005958],[0.16218750000000004,-0.397037037037037,5.960000000000001],[0.16104166666666658,-0.3646296296296296,5.981100000008944],[0.16104166666666658,-0.3646296296296296,5.993300000011921],[0.15989583333333332,-0.3322222222222222,6.01010000000894],[0.17197916666666657,-0.30185185185185187,6.0267000000029824],[0.18364583333333329,-0.28833333333333333,6.043300000011918],[0.19822916666666662,-0.26500000000000007,6.064999999999998],[0.19822916666666662,-0.26500000000000007,6.08680000001192],[0.21802083333333327,-0.26537037037037037,6.104300000011918],[0.21802083333333327,-0.26537037037037037,6.110500000000002],[0.25,-0.2785185185185185,6.126700000002984],[0.26104166666666656,-0.2770370370370371,6.146500000000003],[0.2720833333333334,-0.27555555555555555,6.160000000000004],[0.2720833333333334,-0.27555555555555555,6.176800000011923],[0.3154166666666666,-0.28777777777777774,6.193400000005958],[0.3069791666666667,-0.2718518518518519,6.211600000008943],[0.3069791666666667,-0.2718518518518519,6.228499999999997],[0.29625000000000007,-0.2822222222222222,6.243499999999997],[0.29625000000000007,-0.2822222222222222,6.260200000002982],[0.28854166666666664,-0.3068518518518518,6.277200000002978],[0.24989583333333343,-0.3,6.293300000011918],[0.23312499999999994,-0.31722222222222224,6.313499999999998],[0.2171875,-0.32518518518518524,6.329500000000003],[0.19645833333333323,-0.32462962962962966,6.34580000001192],[0.1787499999999999,-0.3396296296296296,6.360100000008941],[0.1453125,-0.3264814814814815,6.377200000002979],[0.10697916666666671,-0.3148148148148148,6.39670000000298],[0.1099999999999999,-0.3338888888888889,6.411500000000004],[0.11927083333333334,-0.32703703703703707,6.426700000002981],[0.14833333333333343,-0.32388888888888884,6.443400000005958],[0.20989583333333334,-0.36518518518518517,6.460000000000001],[0.20989583333333334,-0.36518518518518517,6.478499999999997],[0.23166666666666677,-0.3696296296296297,6.493400000005963],[0.23166666666666677,-0.3696296296296297,6.509999999999998],[0.2540625000000001,-0.3707407407407407,6.526600000008941],[0.25833333333333336,-0.3483333333333334,6.543600000008944],[0.24864583333333337,-0.3085185185185186,6.56210000000894],[0.2673958333333334,-0.30574074074074076,6.576900000005963],[0.28250000000000003,-0.2922222222222222,6.596600000008941],[0.2875,-0.290925925925926,6.610200000002983],[0.2881249999999999,-0.2890740740740741,6.626700000002984],[0.27843749999999995,-0.2868518518518518,6.6469999999999985],[0.25833333333333336,-0.2727777777777778,6.660700000002983],[0.2612499999999999,-0.29000000000000004,6.676800000011923],[0.2635416666666667,-0.31055555555555553,6.693400000005958],[0.2698958333333332,-0.32518518518518524,6.710000000000001],[0.28270833333333345,-0.3538888888888889,6.729900000005962],[0.3125,-0.38074074074074077,6.743400000005963],[0.34229166666666655,-0.4075925925925926,6.76010000000894],[0.3494791666666667,-0.41,6.7774000000059615],[0.3570833333333333,-0.4125925925925926,6.793300000011918],[0.37385416666666677,-0.4112962962962963,6.813200000002979],[0.390625,-0.41,6.826600000008938],[0.390625,-0.41,6.843400000005964],[0.4071875000000001,-0.41351851851851856,6.859999999999999],[0.4178124999999999,-0.397037037037037,6.877300000011921],[0.44072916666666656,-0.3972222222222222,6.8963000000119195],[0.4509375000000001,-0.38555555555555554,6.9117000000029805],[0.43697916666666664,-0.3496296296296296,6.926700000002981],[0.42385416666666675,-0.29500000000000004,6.943300000011924],[0.4256249999999999,-0.2490740740740741,6.960000000000001],[0.4044791666666666,-0.1712962962962963,6.981100000008944],[0.36218750000000005,-0.09648148148148153,6.995200000002981],[0.3402083333333332,-0.04740740740740745,7.009999999999998],[0.3162499999999999,0.061666666666666585,7.0267000000029824],[0.28250000000000003,0.11092592592592589,7.04340000000596],[0.24874999999999994,0.16018518518518518,7.063900000005958],[0.22916666666666666,0.2140740740740741,7.078900000005959],[0.22916666666666666,0.2140740740740741,7.093400000005964],[0.20677083333333332,0.25759259259259265,7.110200000002983],[0.22083333333333333,0.23055555555555557,7.126600000008942],[0.2040625000000001,0.21814814814814806,7.1463000000119195]]","[0.0005000000000023874,0.044600000008941265,0.06010000000894422,0.07840000000596348,0.09340000000596405,0.11180000001191814,0.12670000000298387,0.14650000000000318,0.16010000000893854,0.17999999999999972,0.19370000000297694,0.21020000000297756,0.22960000000894354,0.24360000000893933,0.26030000001192377,0.2798000000119245,0.2989999999999995,0.3132000000029791,0.3267000000029796,0.3434999999999988,0.36020000000298324,0.37700000000000244,0.396600000008938,0.41030000001192235,0.426800000011923,0.44340000000595836,0.46020000000297756,0.4781000000089435,0.49360000000893933,0.51010000000894,0.5268000000119244,0.5435000000000016,0.5634000000059629,0.5784000000059635,0.593400000005964,0.6101000000089414,0.6268000000119187,0.646600000008938,0.6614000000059619,0.676800000011923,0.6934000000059584,0.7101000000089428,0.7302000000029807,0.7438000000119231,0.76010000000894,0.7790000000000035,0.7934000000059598,0.8136000000089396,0.8281000000089378,0.843400000005964,0.8602000000029832,0.8782000000029839,0.897400000005959,0.9119000000059572,0.926800000011923,0.9438000000119189,0.9602000000029776,0.982999999999997,0.9936000000089393,1.0104000000059585,1.0269000000059592,1.0476000000089414,1.064800000011921,1.080300000011924,1.0992000000029805,1.1102000000029832,1.1269000000059606,1.1465000000000032,1.1634000000059572,1.1793000000119207,1.1941000000089375,1.2150000000000034,1.2313000000119203,1.2467000000029813,1.2649000000059587,1.2813000000119246,1.2937000000029784,1.310300000011921,1.3299999999999983,1.3468000000119247,1.3608000000119205,1.3825000000000003,1.3988000000119243,1.4101000000089385,1.4271000000089415,1.4447000000029817,1.4604000000059614,1.4768000000119201,1.4936000000089393,1.5104000000059585,1.5267000000029824,1.5434000000059598,1.5639000000059582,1.5797000000029797,1.5934999999999988,1.6101000000089414,1.6267000000029839,1.6468000000119218,1.6604000000059642,1.6771000000089415,1.696800000011919,1.7157000000029825,1.7268000000119201,1.746200000002979,1.7603000000119238,1.7772000000029777,1.7936000000089436,1.8155000000000001,1.8314999999999984,1.8469000000059594,1.8616000000089414,1.8772000000029792,1.900500000000001,1.9101000000089385,1.9269000000059577,1.9447000000029817,1.9600000000000009,1.9814000000059622,1.9934000000059626,2.01010000000894,2.027000000000001,2.0436000000089436,2.0637000000029815,2.0812000000029798,2.0985000000000014,2.1163000000119183,2.1331000000089375,2.143500000000003,2.1601000000089385,2.1792000000029788,2.1934000000059584,2.210100000008943,2.229900000005962,2.2434000000059626,2.260200000002982,2.277100000008943,2.29490000000596,2.313400000005963,2.327200000002982,2.343400000005964,2.3601000000089414,2.378800000011921,2.3973000000119242,2.4101000000089385,2.426800000011923,2.4434000000059584,2.460000000000001,2.476700000002978,2.4934999999999974,2.51010000000894,2.5267000000029824,2.54340000000596,2.563400000005963,2.57710000000894,2.593400000005964,2.6101000000089414,2.626700000002984,2.64670000000298,2.6608000000119176,2.6769999999999996,2.6935000000000002,2.710000000000001,2.7295000000000016,2.7436000000089393,2.760200000002982,2.7783000000119245,2.79340000000596,2.813300000011921,2.8267000000029796,2.843499999999999,2.8601000000089414,2.8769000000059606,2.89670000000298,2.9115000000000038,2.926700000002981,2.9463000000119237,2.960100000008943,2.9810000000000016,2.993800000011923,3.009999999999998,3.0267000000029824,3.04340000000596,3.064100000008942,3.079500000000003,3.093400000005964,3.1101000000089414,3.126700000002984,3.1469000000059637,3.161400000005962,3.179800000011923,3.1934000000059584,3.210000000000001,3.229999999999997,3.2434999999999974,3.26010000000894,3.2774000000059615,3.29340000000596,3.310100000008944,3.3268000000119216,3.3463000000119223,3.3601000000089414,3.3771000000089444,3.3971000000089404,3.4123000000119177,3.426800000011923,3.443800000011919,3.4602000000029776,3.47680000001192,3.4934999999999974,3.510200000002982,3.5267000000029824,3.54340000000596,3.564200000002984,3.5814000000059636,3.593400000005964,3.6099999999999994,3.6268000000119187,3.6469999999999985,3.6603000000119224,3.6772000000029834,3.6934000000059584,3.7103000000119195,3.7304000000059574,3.744800000011921,3.764499999999998,3.7806000000089384,3.799600000008944,3.810100000008944,3.8267000000029796,3.8468000000119247,3.8617000000029833,3.8768000000119187,3.89670000000298,3.9116000000089386,3.926700000002981,3.9440000000000026,3.960000000000001,3.9812000000029784,3.9934000000059626,4.009999999999998,4.0267000000029824,4.04340000000596,4.0637000000029815,4.083400000005959,4.093400000005964,4.110200000002983,4.126800000011919,4.146500000000003,4.162700000002978,4.179900000005958,4.194000000000003,4.210000000000001,4.230600000008941,4.244800000011921,4.26010000000894,4.2836000000089385,4.29340000000596,4.310200000002979,4.3268000000119216,4.346300000011922,4.360200000002983,4.378700000002979,4.400500000000001,4.41020000000298,4.426900000005958,4.4456000000089375,4.470500000000001,4.485100000008941,4.493600000008939,4.513300000011924,4.529499999999999,4.547600000008941,4.567200000002984,4.57710000000894,4.593499999999999,4.611400000005958,4.631500000000003,4.643500000000003,4.660300000011922,4.68190000000596,4.697100000008938,4.71520000000298,4.732200000002983,4.743600000008939,4.760300000011924,4.77920000000298,4.799500000000002,4.810200000002979,4.8268000000119216,4.844200000002978,4.8639000000059625,4.877100000008944,4.893600000008938,4.915100000008941,4.930999999999997,4.945300000011919,4.960200000002978,4.983800000011918,4.993499999999997,5.010200000002982,5.026800000011924,5.048100000008944,5.0645000000000024,5.07710000000894,5.093600000008941,5.116600000008944,5.132700000002977,5.143600000008938,5.160300000011922,5.180300000011918,5.1935,5.210200000002978,5.22680000001192,5.247700000002979,5.2636000000089425,5.281200000002983,5.30240000000596,5.310400000005963,5.326999999999998,5.343499999999999,5.363500000000002,5.383499999999998,5.397500000000001,5.415200000002983,5.429700000002981,5.445500000000003,5.4611000000089405,5.482600000008944,5.493600000008939,5.510200000002982,5.526900000005959,5.5482000000029785,5.564,5.576999999999998,5.593600000008941,5.613500000000002,5.628300000011919,5.646500000000003,5.664999999999999,5.680600000008944,5.695400000005961,5.7165000000000035,5.726700000002978,5.743400000005963,5.76010000000894,5.779600000008941,5.793900000005962,5.8137000000029815,5.827500000000001,5.846700000002983,5.8608000000119205,5.8786000000089444,5.897200000002982,5.9133000000119225,5.926700000002981,5.943400000005958,5.960000000000001,5.981100000008944,5.993300000011921,6.01010000000894,6.0267000000029824,6.043300000011918,6.064999999999998,6.08680000001192,6.104300000011918,6.110500000000002,6.126700000002984,6.146500000000003,6.160000000000004,6.176800000011923,6.193400000005958,6.211600000008943,6.228499999999997,6.243499999999997,6.260200000002982,6.277200000002978,6.293300000011918,6.313499999999998,6.329500000000003,6.34580000001192,6.360100000008941,6.377200000002979,6.39670000000298,6.411500000000004,6.426700000002981,6.443400000005958,6.460000000000001,6.478499999999997,6.493400000005963,6.509999999999998,6.526600000008941,6.543600000008944,6.56210000000894,6.576900000005963,6.596600000008941,6.610200000002983,6.626700000002984,6.6469999999999985,6.660700000002983,6.676800000011923,6.693400000005958,6.710000000000001,6.729900000005962,6.743400000005963,6.76010000000894,6.7774000000059615,6.793300000011918,6.813200000002979,6.826600000008938,6.843400000005964,6.859999999999999,6.877300000011921,6.8963000000119195,6.9117000000029805,6.926700000002981,6.943300000011924,6.960000000000001,6.981100000008944,6.995200000002981,7.009999999999998,7.0267000000029824,7.04340000000596,7.063900000005958,7.078900000005959,7.093400000005964,7.110200000002983,7.126600000008942,7.1463000000119195]","[1732606621919,1732606621953,1732606621968,1732606621987,1732606622002,1732606622020,1732606622035,1732606622055,1732606622068,1732606622088,1732606622102,1732606622118,1732606622138,1732606622152,1732606622169,1732606622188,1732606622207,1732606622221,1732606622235,1732606622253,1732606622270,1732606622286,1732606622306,1732606622320,1732606622336,1732606622353,1732606622370,1732606622388,1732606622403,1732606622420,1732606622436,1732606622453,1732606622473,1732606622488,1732606622503,1732606622520,1732606622536,1732606622556,1732606622571,1732606622586,1732606622603,1732606622620,1732606622640,1732606622653,1732606622670,1732606622688,1732606622703,1732606622723,1732606622738,1732606622753,1732606622770,1732606622788,1732606622807,1732606622821,1732606622836,1732606622853,1732606622870,1732606622892,1732606622903,1732606622920,1732606622936,1732606622957,1732606622974,1732606622990,1732606623009,1732606623020,1732606623036,1732606623056,1732606623073,1732606623089,1732606623104,1732606623124,1732606623141,1732606623156,1732606623174,1732606623191,1732606623203,1732606623220,1732606623239,1732606623256,1732606623270,1732606623292,1732606623308,1732606623319,1732606623337,1732606623354,1732606623370,1732606623386,1732606623403,1732606623420,1732606623436,1732606623453,1732606623473,1732606623489,1732606623503,1732606623520,1732606623536,1732606623556,1732606623570,1732606623587,1732606623606,1732606623625,1732606623636,1732606623656,1732606623670,1732606623687,1732606623703,1732606623725,1732606623741,1732606623756,1732606623771,1732606623787,1732606623810,1732606623819,1732606623836,1732606623854,1732606623869,1732606623891,1732606623903,1732606623920,1732606623936,1732606623953,1732606623973,1732606623991,1732606624008,1732606624026,1732606624043,1732606624053,1732606624070,1732606624089,1732606624103,1732606624120,1732606624139,1732606624153,1732606624170,1732606624186,1732606624204,1732606624223,1732606624237,1732606624253,1732606624270,1732606624288,1732606624307,1732606624320,1732606624336,1732606624353,1732606624369,1732606624386,1732606624403,1732606624419,1732606624436,1732606624453,1732606624473,1732606624487,1732606624503,1732606624520,1732606624536,1732606624556,1732606624570,1732606624586,1732606624603,1732606624620,1732606624639,1732606624653,1732606624670,1732606624688,1732606624703,1732606624723,1732606624736,1732606624753,1732606624770,1732606624786,1732606624806,1732606624821,1732606624836,1732606624856,1732606624869,1732606624890,1732606624903,1732606624919,1732606624936,1732606624953,1732606624974,1732606624989,1732606625003,1732606625020,1732606625036,1732606625056,1732606625071,1732606625089,1732606625103,1732606625119,1732606625139,1732606625153,1732606625170,1732606625187,1732606625203,1732606625219,1732606625236,1732606625256,1732606625269,1732606625287,1732606625307,1732606625322,1732606625336,1732606625353,1732606625370,1732606625386,1732606625403,1732606625420,1732606625436,1732606625453,1732606625474,1732606625491,1732606625503,1732606625519,1732606625536,1732606625556,1732606625570,1732606625587,1732606625603,1732606625620,1732606625640,1732606625654,1732606625674,1732606625690,1732606625709,1732606625720,1732606625736,1732606625756,1732606625771,1732606625786,1732606625806,1732606625821,1732606625836,1732606625853,1732606625869,1732606625891,1732606625903,1732606625919,1732606625936,1732606625953,1732606625973,1732606625993,1732606626003,1732606626020,1732606626036,1732606626056,1732606626072,1732606626089,1732606626103,1732606626119,1732606626140,1732606626154,1732606626169,1732606626193,1732606626203,1732606626220,1732606626236,1732606626256,1732606626270,1732606626288,1732606626310,1732606626320,1732606626336,1732606626355,1732606626380,1732606626395,1732606626403,1732606626423,1732606626439,1732606626457,1732606626477,1732606626487,1732606626503,1732606626521,1732606626541,1732606626553,1732606626570,1732606626591,1732606626606,1732606626625,1732606626642,1732606626653,1732606626670,1732606626689,1732606626709,1732606626720,1732606626736,1732606626754,1732606626773,1732606626787,1732606626803,1732606626825,1732606626840,1732606626855,1732606626870,1732606626893,1732606626903,1732606626920,1732606626936,1732606626958,1732606626974,1732606626987,1732606627003,1732606627026,1732606627042,1732606627053,1732606627070,1732606627090,1732606627103,1732606627120,1732606627136,1732606627157,1732606627173,1732606627191,1732606627212,1732606627220,1732606627236,1732606627253,1732606627273,1732606627293,1732606627307,1732606627325,1732606627339,1732606627355,1732606627371,1732606627392,1732606627403,1732606627420,1732606627436,1732606627458,1732606627473,1732606627486,1732606627503,1732606627523,1732606627538,1732606627556,1732606627574,1732606627590,1732606627605,1732606627626,1732606627636,1732606627653,1732606627669,1732606627689,1732606627703,1732606627723,1732606627737,1732606627756,1732606627770,1732606627788,1732606627807,1732606627823,1732606627836,1732606627853,1732606627869,1732606627891,1732606627903,1732606627920,1732606627936,1732606627953,1732606627974,1732606627996,1732606628014,1732606628020,1732606628036,1732606628056,1732606628069,1732606628086,1732606628103,1732606628121,1732606628138,1732606628153,1732606628170,1732606628187,1732606628203,1732606628223,1732606628239,1732606628255,1732606628269,1732606628287,1732606628306,1732606628321,1732606628336,1732606628353,1732606628369,1732606628388,1732606628403,1732606628419,1732606628436,1732606628453,1732606628472,1732606628486,1732606628506,1732606628520,1732606628536,1732606628556,1732606628570,1732606628586,1732606628603,1732606628619,1732606628639,1732606628653,1732606628670,1732606628687,1732606628703,1732606628723,1732606628736,1732606628753,1732606628769,1732606628787,1732606628806,1732606628821,1732606628836,1732606628853,1732606628869,1732606628891,1732606628905,1732606628919,1732606628936,1732606628953,1732606628973,1732606628988,1732606629003,1732606629020,1732606629036,1732606629056]","[[981.3,570.3],[981.3,570.3],[976.9,560.7],[972.4,560],[965.9,557.9],[977.5,556.6],[990,557.3],[990.5,562.5],[1007.3,552.9],[1021.5,536.6],[1019.9,517.2],[1020,511.7],[1024.8,495.8],[1024.8,495.8],[1039.6,484],[1039.7,475.7],[1042.8,461.4],[1044.1,454.2],[1051.2,440.5],[1051.2,440.5],[1029.8,448.9],[1013.3,473.7],[1001,490.4],[998.6,498.8],[991,514.8],[987,525.4],[981.6,523.7],[981.6,523.7],[990.4,526.9],[1014,509],[1037.6,491.1],[1074.9,470.8],[1109.9,446],[1139.8,425.5],[1139.8,425.5],[1169.7,408.4],[1210,392.9],[1232.4,376.1],[1256.1,364],[1256.1,364],[1258,373.3],[1244.9,389.7],[1231.8,406.1],[1236.9,418.3],[1242,430.5],[1243.2,450],[1246.2,468.1],[1244.1,484],[1254.2,500.5],[1254.2,500.5],[1264.4,522.8],[1281.1,526.9],[1299.8,537.9],[1320.6,547.7],[1327.3,565.1],[1329,567.5],[1338,564.7],[1349.7,572.6],[1349.7,572.6],[1327.8,575.5],[1311.5,578.1],[1296.1,574.1],[1270.1,563.9],[1252.9,555.4],[1233.6,548.1],[1233.6,548.1],[1190.1,540.4],[1184.2,553],[1166.9,549.8],[1143.8,543.1],[1149,542],[1123.4,533.3],[1131.8,539.3],[1152.7,544.7],[1164.8,548.4],[1170.1,566.7],[1170.1,566.7],[1206.7,579.8],[1210.7,587.6],[1202.9,591.8],[1237,581],[1245.8,577],[1290.7,587.4],[1290.7,587.4],[1305.5,582.5],[1322.5,592.2],[1339.5,601.9],[1339.5,601.9],[1345.3,585.9],[1357,583.8],[1368.7,581.7],[1398.8,593.8],[1390.1,613.7],[1391.9,630.1],[1391.9,630.1],[1382.8,640],[1381.3,653.7],[1375.2,658.1],[1369.1,662.5],[1369.1,662.5],[1365.8,663.4],[1364.7,649.3],[1364.7,649.3],[1361.8,641],[1361.8,641],[1377,635.6],[1356.9,637.6],[1351.6,636.3],[1336.3,621.3],[1307.6,599.1],[1278.5,578.5],[1250.2,559.3],[1226.9,549.1],[1226.9,549.1],[1236.4,528.7],[1181.3,515.3],[1112.9,504.2],[1070,473.6],[1070,473.6],[1027.1,443],[1006.6,433.9],[997,440],[987.4,446.1],[956.5,439.4],[935.8,438.3],[935.8,438.3],[850.1,447.6],[850.1,447.6],[852.9,432.3],[849.7,429.6],[845.9,430.2],[842,428],[838,413.6],[821,400.6],[821,400.6],[804,387.6],[808.6,382.1],[807.3,378.9],[817.4,373.9],[817.4,373.9],[823.1,390.7],[834.9,393.5],[842.3,413.4],[842.3,413.4],[855.5,440.7],[854.5,466.4],[856.5,480.3],[856.5,480.3],[872.5,483.5],[872.5,483.5],[919.6,504.3],[982.2,492.2],[1036.5,495.5],[1073.1,488.8],[1073.1,488.8],[1109.6,483.5],[1178.2,460],[1247,437.9],[1317.7,421.8],[1317.7,421.8],[1371.9,406.5],[1448.2,401.3],[1476.7,379.3],[1494.7,399.7],[1536.8,407.7],[1556.8,404.8],[1576.8,401.9],[1584.6,409.3],[1586.4,414.4],[1586.4,414.4],[1590.3,434.8],[1598.5,459.4],[1570.6,484.6],[1538.4,518.4],[1507.1,540.4],[1463.8,553],[1442.6,576.5],[1414.1,610.4],[1380.5,643.9],[1380.5,643.9],[1347,673.7],[1321.5,693.7],[1308.2,708.7],[1292,718.5],[1292,718.5],[1295.7,722.8],[1289.9,719.5],[1291.1,739.9],[1290.2,756.1],[1253.5,800.4],[1216.8,844.7],[1178.7,885.7],[1130.5,921.2],[1130.5,921.2],[1078.6,965.1],[1042.5,1002.9],[993.9,1037.5],[993.9,1037.5],[951.7,1070.6],[885.8,1088.8],[822,1111.2],[803.7,1087.8],[785,1060.8],[793,1040.5],[801,1020.2],[846.5,968.4],[882.7,929.4],[882.7,929.4],[919.7,892.1],[967.3,858.1],[1027.8,821.7],[1091,778.4],[1151.8,742.4],[1207.9,714.3],[1207.9,714.3],[1238.7,682.8],[1277.1,643.7],[1282.2,629.8],[1282,615.1],[1281.2,589.6],[1273.2,576.2],[1244.1,564.6],[1212.3,559.9],[1193.7,546.2],[1180.2,528.2],[1163.2,514.3],[1138.6,508],[1138.6,508],[1113.4,494.9],[1097.1,481.1],[1093.1,479.6],[1073.5,480.7],[1075,480],[1072.6,476.2],[1072.2,479.9],[1063.6,505.6],[1048.7,524.9],[1033.7,548.8],[1033.7,548.8],[1018.8,577.4],[995.6,611.9],[978.9,636.1],[974.8,662.8],[961.7,697.8],[961.7,697.8],[1006.2,684.8],[1032.4,691],[1056.8,681.5],[1091,674.3],[1152,646.6],[1218,615.5],[1261.2,592.5],[1303.7,581],[1356.6,557.2],[1418.5,525.1],[1423.7,542.4],[1423.7,542.4],[1430.4,538.2],[1453.8,534.8],[1453.8,534.8],[1467.7,526.2],[1461.2,537.7],[1449.7,552.6],[1449.7,552.6],[1464.1,541.7],[1471.7,537.9],[1471.6,535],[1471.6,535],[1471.9,535.4],[1474.9,530.9],[1470.1,531.5],[1456,532.3],[1480,532.5],[1480,532.5],[1470.3,527.2],[1462,523.7],[1446.8,526.3],[1446.8,526.3],[1410.5,525.1],[1372.5,522.8],[1359.5,517.8],[1340.2,521.8],[1313.3,520.1],[1313.3,520.1],[1301.4,511.2],[1253,508.2],[1232,506.5],[1232,506.5],[1209.6,506.7],[1187.6,514.2],[1187.7,517.2],[1187.7,517.2],[1215,520.6],[1213.8,527.8],[1214.8,528.5],[1232.8,533.6],[1238.4,538.6],[1233.4,545.7],[1233.4,545.7],[1239.4,548.3],[1259.7,539.2],[1259,539.3],[1257.1,534.3],[1257.1,534.3],[1228.2,555],[1168.5,555.8],[1156.8,550.1],[1156.8,550.1],[1157.9,559.7],[1157.9,559.7],[1150.7,551.4],[1150.7,551.4],[1178.4,548.5],[1189.2,548.9],[1167.6,545.7],[1185.5,524.7],[1202.8,511.1],[1202.8,511.1],[1231,470.1],[1231,470.1],[1267.5,437.2],[1283.6,448],[1286.4,440.8],[1304.1,437.4],[1278.7,421.4],[1235.2,393.4],[1209.8,377],[1209.8,377],[1175.5,371.6],[1175.5,371.6],[1146.1,361.5],[1101.6,346.9],[1101,350.4],[1101,350.4],[1088.2,327.5],[1040.2,312.9],[1011.6,303.4],[973.5,303.5],[970.9,319.1],[1003.8,328],[1031.6,332.9],[1043.5,355.9],[1043.5,355.9],[1047.1,374],[1032.4,381.4],[1033.7,365.2],[1070.7,343.4],[1081.7,330.6],[1111.4,320.7],[1138.5,318.2],[1127.3,317.1],[1110.3,323.8],[1100.7,310.2],[1122.3,308.9],[1122.3,308.9],[1143.9,307.6],[1115.7,325.6],[1114.6,343.1],[1114.6,343.1],[1113.5,360.6],[1125.1,377],[1136.3,384.3],[1150.3,396.9],[1150.3,396.9],[1169.3,396.7],[1169.3,396.7],[1200,389.6],[1210.6,390.4],[1221.2,391.2],[1221.2,391.2],[1262.8,384.6],[1254.7,393.2],[1254.7,393.2],[1244.4,387.6],[1244.4,387.6],[1237,374.3],[1199.9,378],[1183.8,368.7],[1168.5,364.4],[1148.6,364.7],[1131.6,356.6],[1099.5,363.7],[1062.7,370],[1065.6,359.7],[1074.5,363.4],[1102.4,365.1],[1161.5,342.8],[1161.5,342.8],[1182.4,340.4],[1182.4,340.4],[1203.9,339.8],[1208,351.9],[1198.7,373.4],[1216.7,374.9],[1231.2,382.2],[1236,382.9],[1236.6,383.9],[1227.3,385.1],[1208,392.7],[1210.8,383.4],[1213,372.3],[1219.1,364.4],[1231.4,348.9],[1260,334.4],[1288.6,319.9],[1295.5,318.6],[1302.8,317.2],[1318.9,317.9],[1335,318.6],[1335,318.6],[1350.9,316.7],[1361.1,325.6],[1383.1,325.5],[1392.9,331.8],[1379.5,351.2],[1366.9,380.7],[1368.6,405.5],[1348.3,447.5],[1307.7,487.9],[1286.6,514.4],[1263.6,573.3],[1231.2,599.9],[1198.8,626.5],[1180,655.6],[1180,655.6],[1158.5,679.1],[1172,664.5],[1155.9,657.8]]","[-0.142,0.42599999999999993]","[0.142,0.42599999999999993]","[0.42599999999999993,0.42599999999999993]","[-0.42599999999999993,0.142]","[-0.42599999999999993,-0.142]","[-0.42599999999999993,-0.42599999999999993]","[-0.142,0.142]","[0.142,0.142]","[0.42599999999999993,0.142]","[-0.142,-0.142]","[0.142,-0.142]","[0.42599999999999993,-0.142]","[-0.142,-0.42599999999999993]","[0.142,-0.42599999999999993]","[0.42599999999999993,-0.42599999999999993]",0,0,0,0,1,4,Laptop,25,20,8,1,60,4,1,60,3
