inst1_resp.keys,inst1_resp.rt,calibrationMouse.x,calibrationMouse.y,calibrationMouse.leftButton,calibrationMouse.midButton,calibrationMouse.rightButton,calibrationClick.x,calibrationClick.y,calibrationClick.leftButton,calibrationClick.midButton,calibrationClick.rightButton,calibrationClick.clicked_name,trialsc.thisRepN,trialsc.thisTrialN,trialsc.thisN,trialsc.thisIndex,trialsc.ran,calibration_x,calibration_y,participant,session,date,expName,psychopyVersion,OS,frameRate,ScreenRes_pixels,Camera_pixels,mouse_2.x,mouse_2.y,mouse_2.leftButton,mouse_2.midButton,mouse_2.rightButton,mouse_2.time,mouse_2.clicked_name,mouse.x,mouse.y,mouse.leftButton,mouse.midButton,mouse.rightButton,mouse.time,mouse.clicked_name,Choice,Trial,TrialDuration,MOUSE_GAZE,ET_GAZE,ET_GAZE_x_T,time,unixTime,ET_GAZE_NF,Loc_Bus_label,Loc_Metro_label,Loc_RH_label,Loc_Cost_label,Loc_Travel_label,Loc_Comfort_label,Loc_Bus_cost,Loc_Metro_cost,Loc_RH_cost,Loc_Bus_travel,Loc_Metro_travel,Loc_RH_travel,Loc_Bus_comfort,Loc_Metro_comfort,Loc_RH_comfort,trials.thisRepN,trials.thisTrialN,trials.thisN,trials.thisIndex,trials.ran,Block,Device,RH_cost,RH_travel_time,RH_Comfort,metro_cost,metro_travel_time,metro_Comfort,Bus_cost,Bus_travel_time,Bus_Comfort
space,1.8684,-0.4,-0.32037037,1,0,0,0.329166667,-0.003703704,1,0,0,calibration_square,0,0,0,16,1,0.33,0,02,001,2024-11-18_12h48.02.634,Attention_exp_legacy,2023.1.0,Win32,60.24096386,,,,,,,,,,,,,,,,,,,,,,,,,,,,,,,,,,,,,,,,,,,,,,,,,,,,,,,,
,,,,,,,-0.667708333,0.005555556,1,0,0,calibration_square,0,1,1,2,1,-0.67,0,02,001,2024-11-18_12h48.02.634,Attention_exp_legacy,2023.1.0,Win32,60.24096386,,,,,,,,,,,,,,,,,,,,,,,,,,,,,,,,,,,,,,,,,,,,,,,,,,,,,,,,
,,,,,,,0.005208333,0.677777778,1,0,0,calibration_square,0,2,2,13,1,0,0.67,02,001,2024-11-18_12h48.02.634,Attention_exp_legacy,2023.1.0,Win32,60.24096386,,,,,,,,,,,,,,,,,,,,,,,,,,,,,,,,,,,,,,,,,,,,,,,,,,,,,,,,
,,,,,,,-0.669791667,0.331481481,1,0,0,calibration_square,0,3,3,3,1,-0.67,0.33,02,001,2024-11-18_12h48.02.634,Attention_exp_legacy,2023.1.0,Win32,60.24096386,,,,,,,,,,,,,,,,,,,,,,,,,,,,,,,,,,,,,,,,,,,,,,,,,,,,,,,,
,,,,,,,0.328125,-0.331481481,1,0,0,calibration_square,0,4,4,15,1,0.33,-0.33,02,001,2024-11-18_12h48.02.634,Attention_exp_legacy,2023.1.0,Win32,60.24096386,,,,,,,,,,,,,,,,,,,,,,,,,,,,,,,,,,,,,,,,,,,,,,,,,,,,,,,,
,,,,,,,-0.669791667,-0.661111111,1,0,0,calibration_square,0,5,5,0,1,-0.67,-0.67,02,001,2024-11-18_12h48.02.634,Attention_exp_legacy,2023.1.0,Win32,60.24096386,,,,,,,,,,,,,,,,,,,,,,,,,,,,,,,,,,,,,,,,,,,,,,,,,,,,,,,,
,,,,,,,-0.008333333,-0.325925926,1,0,0,calibration_square,0,6,6,10,1,0,-0.33,02,001,2024-11-18_12h48.02.634,Attention_exp_legacy,2023.1.0,Win32,60.24096386,,,,,,,,,,,,,,,,,,,,,,,,,,,,,,,,,,,,,,,,,,,,,,,,,,,,,,,,
,,,,,,,-0.332291667,0.672222222,1,0,0,calibration_square,0,7,7,8,1,-0.33,0.67,02,001,2024-11-18_12h48.02.634,Attention_exp_legacy,2023.1.0,Win32,60.24096386,,,,,,,,,,,,,,,,,,,,,,,,,,,,,,,,,,,,,,,,,,,,,,,,,,,,,,,,
,,,,,,,0.328125,0.324074074,1,0,0,calibration_square,0,8,8,17,1,0.33,0.33,02,001,2024-11-18_12h48.02.634,Attention_exp_legacy,2023.1.0,Win32,60.24096386,,,,,,,,,,,,,,,,,,,,,,,,,,,,,,,,,,,,,,,,,,,,,,,,,,,,,,,,
,,,,,,,-0.002083333,-0.668518519,1,0,0,calibration_square,0,9,9,9,1,0,-0.67,02,001,2024-11-18_12h48.02.634,Attention_exp_legacy,2023.1.0,Win32,60.24096386,,,,,,,,,,,,,,,,,,,,,,,,,,,,,,,,,,,,,,,,,,,,,,,,,,,,,,,,
,,,,,,,-0.335416667,-0.664814815,1,0,0,calibration_square,0,10,10,4,1,-0.33,-0.67,02,001,2024-11-18_12h48.02.634,Attention_exp_legacy,2023.1.0,Win32,60.24096386,,,,,,,,,,,,,,,,,,,,,,,,,,,,,,,,,,,,,,,,,,,,,,,,,,,,,,,,
,,,,,,,-0.663541667,-0.32962963,1,0,0,calibration_square,0,11,11,1,1,-0.67,-0.33,02,001,2024-11-18_12h48.02.634,Attention_exp_legacy,2023.1.0,Win32,60.24096386,,,,,,,,,,,,,,,,,,,,,,,,,,,,,,,,,,,,,,,,,,,,,,,,,,,,,,,,
,,,,,,,-0.335416667,-0.327777778,1,0,0,calibration_square,0,12,12,5,1,-0.33,-0.33,02,001,2024-11-18_12h48.02.634,Attention_exp_legacy,2023.1.0,Win32,60.24096386,,,,,,,,,,,,,,,,,,,,,,,,,,,,,,,,,,,,,,,,,,,,,,,,,,,,,,,,
,,,,,,,0.666666667,-0.655555556,1,0,0,,0,13,13,20,1,0.67,-0.67,02,001,2024-11-18_12h48.02.634,Attention_exp_legacy,2023.1.0,Win32,60.24096386,,,,,,,,,,,,,,,,,,,,,,,,,,,,,,,,,,,,,,,,,,,,,,,,,,,,,,,,
,,,,,,,-0.335416667,-0.009259259,1,0,0,calibration_square,0,14,14,6,1,-0.33,0,02,001,2024-11-18_12h48.02.634,Attention_exp_legacy,2023.1.0,Win32,60.24096386,,,,,,,,,,,,,,,,,,,,,,,,,,,,,,,,,,,,,,,,,,,,,,,,,,,,,,,,
,,,,,,,0.338541667,0.664814815,1,0,0,calibration_square,0,15,15,18,1,0.33,0.67,02,001,2024-11-18_12h48.02.634,Attention_exp_legacy,2023.1.0,Win32,60.24096386,,,,,,,,,,,,,,,,,,,,,,,,,,,,,,,,,,,,,,,,,,,,,,,,,,,,,,,,
,,,,,,,-0.327083333,0.322222222,1,0,0,calibration_square,0,16,16,7,1,-0.33,0.33,02,001,2024-11-18_12h48.02.634,Attention_exp_legacy,2023.1.0,Win32,60.24096386,,,,,,,,,,,,,,,,,,,,,,,,,,,,,,,,,,,,,,,,,,,,,,,,,,,,,,,,
,,,,,,,0.009375,-0.005555556,1,0,0,calibration_square,0,17,17,11,1,0,0,02,001,2024-11-18_12h48.02.634,Attention_exp_legacy,2023.1.0,Win32,60.24096386,,,,,,,,,,,,,,,,,,,,,,,,,,,,,,,,,,,,,,,,,,,,,,,,,,,,,,,,
,,,,,,,-0.004166667,0.331481481,1,0,0,calibration_square,0,18,18,12,1,0,0.33,02,001,2024-11-18_12h48.02.634,Attention_exp_legacy,2023.1.0,Win32,60.24096386,,,,,,,,,,,,,,,,,,,,,,,,,,,,,,,,,,,,,,,,,,,,,,,,,,,,,,,,
,,,,,,,0.667708333,0.67037037,1,0,0,calibration_square,0,19,19,19,1,0.67,0.67,02,001,2024-11-18_12h48.02.634,Attention_exp_legacy,2023.1.0,Win32,60.24096386,,,,,,,,,,,,,,,,,,,,,,,,,,,,,,,,,,,,,,,,,,,,,,,,,,,,,,,,
,,,,,,,0.325,-0.659259259,1,0,0,,0,20,20,14,1,0.33,-0.67,02,001,2024-11-18_12h48.02.634,Attention_exp_legacy,2023.1.0,Win32,60.24096386,,,,,,,,,,,,,,,,,,,,,,,,,,,,,,,,,,,,,,,,,,,,,,,,,,,,,,,,
,,,,,,,,,,,,,,,,,,,,02,001,2024-11-18_12h48.02.634,Attention_exp_legacy,2023.1.0,Win32,60.24096386,"[1920,1080]","[640,480]",[0.075],[-0.5],[1],[0],[0],[3.965599999904633],"[""StartButton""]",[0.12395833333333334],[0.4351851851851852],[1],[0],[0],[3.3001000003814767],"[""Metro_label""]",Metro_label,1,4.3271,"[[0.075,-0.5],[0.075,-0.5],[0.075,-0.5],[0.075,-0.5],[0.075,-0.5],[0.075,-0.5],[0.075,-0.5],[0.075,-0.5],[0.075,-0.5],[0.075,-0.5],[0.075,-0.5],[0.075,-0.5],[0.075,-0.5],[0.075,-0.5],[0.075,-0.5],[0.075,-0.5],[0.075,-0.5],[0.075,-0.5],[0.075,-0.5],[0.075,-0.5],[0.075,-0.5],[0.075,-0.5],[0.075,-0.5],[0.075,-0.5],[0.075,-0.5],[0.075,-0.5],[0.075,-0.5],[0.075,-0.5],[0.075,-0.5],[0.075,-0.5],[0.075,-0.5],[0.075,-0.5],[0.075,-0.5],[0.075,-0.5],[0.075,-0.5],[0.075,-0.5],[0.075,-0.5],[0.075,-0.5],[0.075,-0.5],[0.075,-0.5],[0.075,-0.5],[0.075,-0.5],[0.075,-0.5],[0.075,-0.5],[0.075,-0.5],[0.075,-0.5],[0.075,-0.5],[0.075,-0.5],[0.075,-0.5],[0.075,-0.5],[0.075,-0.5],[0.075,-0.5],[0.075,-0.5],[0.075,-0.5],[0.075,-0.5],[0.075,-0.5],[0.075,-0.5],[0.075,-0.5],[0.075,-0.5],[0.075,-0.5],[0.075,-0.5],[0.075,-0.5],[0.075,-0.5],[0.075,-0.5],[0.075,-0.5],[0.075,-0.5],[0.075,-0.5],[0.075,-0.5],[0.075,-0.5],[0.075,-0.5],[0.075,-0.5],[0.075,-0.5],[0.075,-0.5],[0.075,-0.5],[0.075,-0.5],[0.075,-0.5],[0.075,-0.5],[0.075,-0.5],[0.075,-0.5],[0.075,-0.5],[0.07395833333333333,-0.4981481481481482],[0.075,-0.48703703703703705],[0.07916666666666666,-0.45740740740740743],[0.084375,-0.42592592592592593],[0.09166666666666666,-0.37962962962962965],[0.1,-0.3037037037037037],[0.10625,-0.21481481481481482],[0.10729166666666666,-0.13703703703703704],[0.10729166666666666,-0.06111111111111111],[0.10729166666666666,-0.003703703703703704],[0.10729166666666666,0.04259259259259259],[0.10729166666666666,0.09444444444444444],[0.10729166666666666,0.11481481481481481],[0.10729166666666666,0.12777777777777777],[0.10625,0.1388888888888889],[0.10520833333333333,0.14629629629629629],[0.10416666666666667,0.14814814814814814],[0.103125,0.15185185185185185],[0.10208333333333333,0.1537037037037037],[0.10208333333333333,0.1537037037037037],[0.10208333333333333,0.1537037037037037],[0.10208333333333333,0.1537037037037037],[0.1,0.15555555555555556],[0.096875,0.15555555555555556],[0.09375,0.15555555555555556],[0.09270833333333334,0.15555555555555556],[0.09270833333333334,0.15555555555555556],[0.09166666666666666,0.15555555555555556],[0.090625,0.15555555555555556],[0.08958333333333333,0.15555555555555556],[0.08958333333333333,0.15555555555555556],[0.0875,0.15555555555555556],[0.0875,0.15555555555555556],[0.08645833333333333,0.15555555555555556],[0.08645833333333333,0.15555555555555556],[0.08645833333333333,0.15555555555555556],[0.08645833333333333,0.15555555555555556],[0.08645833333333333,0.15555555555555556],[0.08854166666666667,0.15925925925925927],[0.09270833333333334,0.1685185185185185],[0.096875,0.17592592592592593],[0.1,0.18333333333333332],[0.103125,0.19814814814814816],[0.10729166666666666,0.21481481481481482],[0.10833333333333334,0.22962962962962963],[0.11458333333333333,0.25],[0.11875,0.26666666666666666],[0.125,0.28888888888888886],[0.13125,0.3074074074074074],[0.1375,0.32592592592592595],[0.14583333333333334,0.34814814814814815],[0.15208333333333332,0.36666666666666664],[0.15833333333333333,0.3814814814814815],[0.16145833333333334,0.3925925925925926],[0.16666666666666666,0.40925925925925927],[0.16875,0.4148148148148148],[0.16979166666666667,0.4203703703703704],[0.17083333333333334,0.42777777777777776],[0.17083333333333334,0.42962962962962964],[0.17083333333333334,0.43333333333333335],[0.17083333333333334,0.43333333333333335],[0.17083333333333334,0.43703703703703706],[0.17083333333333334,0.4388888888888889],[0.17083333333333334,0.44074074074074077],[0.17083333333333334,0.44074074074074077],[0.17083333333333334,0.4425925925925926],[0.17083333333333334,0.4425925925925926],[0.17083333333333334,0.4444444444444444],[0.16875,0.4462962962962963],[0.16875,0.4462962962962963],[0.165625,0.45],[0.1625,0.45],[0.16041666666666668,0.45],[0.15729166666666666,0.45185185185185184],[0.15520833333333334,0.45185185185185184],[0.153125,0.45185185185185184],[0.15208333333333332,0.45185185185185184],[0.15,0.45185185185185184],[0.14791666666666667,0.45185185185185184],[0.146875,0.45185185185185184],[0.14270833333333333,0.45185185185185184],[0.140625,0.45185185185185184],[0.140625,0.45185185185185184],[0.13854166666666667,0.45185185185185184],[0.1375,0.45185185185185184],[0.1375,0.45185185185185184],[0.13645833333333332,0.45185185185185184],[0.13645833333333332,0.45185185185185184],[0.13541666666666666,0.45185185185185184],[0.134375,0.45185185185185184],[0.134375,0.45185185185185184],[0.134375,0.45185185185185184],[0.134375,0.45185185185185184],[0.134375,0.45185185185185184],[0.134375,0.45185185185185184],[0.134375,0.45185185185185184],[0.134375,0.45185185185185184],[0.134375,0.45185185185185184],[0.134375,0.45185185185185184],[0.134375,0.45185185185185184],[0.134375,0.45185185185185184],[0.134375,0.45185185185185184],[0.13333333333333333,0.45185185185185184],[0.13229166666666667,0.45],[0.13125,0.44814814814814813],[0.12916666666666668,0.4462962962962963],[0.128125,0.4444444444444444],[0.12708333333333333,0.4425925925925926],[0.125,0.4388888888888889],[0.125,0.43703703703703706],[0.125,0.43703703703703706],[0.12395833333333334,0.4351851851851852],[0.12395833333333334,0.4351851851851852],[0.12395833333333334,0.4351851851851852],[0.12395833333333334,0.4351851851851852],[0.12395833333333334,0.4351851851851852],[0.12395833333333334,0.4351851851851852],[0.12395833333333334,0.4351851851851852],[0.12395833333333334,0.4351851851851852],[0.12395833333333334,0.4351851851851852],[0.12395833333333334,0.4351851851851852],[0.12395833333333334,0.4351851851851852],[0.12395833333333334,0.4351851851851852],[0.12395833333333334,0.4351851851851852],[0.12395833333333334,0.4351851851851852],[0.12395833333333334,0.4351851851851852],[0.12395833333333334,0.4351851851851852],[0.12395833333333334,0.4351851851851852],[0.12395833333333334,0.4351851851851852],[0.12395833333333334,0.4351851851851852],[0.12395833333333334,0.4351851851851852],[0.12395833333333334,0.4351851851851852],[0.12395833333333334,0.4351851851851852],[0.12395833333333334,0.4351851851851852],[0.12395833333333334,0.4351851851851852],[0.12395833333333334,0.4351851851851852],[0.12395833333333334,0.4351851851851852],[0.12395833333333334,0.4351851851851852],[0.12395833333333334,0.4351851851851852],[0.12395833333333334,0.4351851851851852],[0.12395833333333334,0.4351851851851852],[0.12395833333333334,0.4351851851851852],[0.12395833333333334,0.4351851851851852],[0.12395833333333334,0.4351851851851852],[0.12395833333333334,0.4351851851851852],[0.12395833333333334,0.4351851851851852],[0.12395833333333334,0.4351851851851852],[0.12395833333333334,0.4351851851851852],[0.12395833333333334,0.4351851851851852],[0.12395833333333334,0.4351851851851852],[0.12395833333333334,0.4351851851851852],[0.12395833333333334,0.4351851851851852],[0.12395833333333334,0.4351851851851852],[0.12395833333333334,0.4351851851851852],[0.12395833333333334,0.4351851851851852],[0.12395833333333334,0.4351851851851852],[0.12395833333333334,0.4351851851851852],[0.12395833333333334,0.4351851851851852],[0.12395833333333334,0.4351851851851852],[0.12395833333333334,0.4351851851851852],[0.12395833333333334,0.4351851851851852],[0.12395833333333334,0.4351851851851852],[0.12395833333333334,0.4351851851851852],[0.12395833333333334,0.4351851851851852],[0.12395833333333334,0.4351851851851852],[0.12395833333333334,0.4351851851851852],[0.12395833333333334,0.4351851851851852],[0.12395833333333334,0.4351851851851852],[0.12395833333333334,0.4351851851851852],[0.12395833333333334,0.4351851851851852],[0.12395833333333334,0.4351851851851852],[0.12395833333333334,0.4351851851851852],[0.12395833333333334,0.4351851851851852],[0.12395833333333334,0.4351851851851852],[0.12395833333333334,0.4351851851851852],[0.12395833333333334,0.4351851851851852],[0.12395833333333334,0.4351851851851852],[0.12395833333333334,0.4351851851851852],[0.12395833333333334,0.4351851851851852]]","[[-0.15729166666666666,0.1668518518518519],[-0.15729166666666666,0.1668518518518519],[-0.16958333333333328,0.16277777777777774],[-0.18697916666666667,0.16999999999999993],[-0.1564583333333334,0.15481481481481485],[-0.16343749999999999,0.17074074074074083],[-0.17458333333333337,0.202962962962963],[-0.17687499999999995,0.20462962962962963],[-0.18312499999999995,0.18981481481481483],[-0.17374999999999996,0.1814814814814815],[-0.18947916666666664,0.17611111111111116],[-0.18947916666666664,0.17611111111111116],[-0.20822916666666663,0.16777777777777783],[-0.1938541666666667,0.1507407407407407],[-0.19468749999999999,0.14833333333333337],[-0.20906250000000004,0.14518518518518514],[-0.19750000000000004,0.12740740740740733],[-0.19750000000000004,0.12740740740740733],[-0.2013541666666666,0.11722222222222214],[-0.22083333333333333,0.15055555555555547],[-0.21510416666666668,0.15592592592592602],[-0.22770833333333335,0.1648148148148148],[-0.24645833333333336,0.13555555555555565],[-0.24645833333333336,0.13555555555555565],[-0.26322916666666674,0.11500000000000005],[-0.2713541666666667,0.11611111111111119],[-0.28500000000000003,0.10018518518518522],[-0.28500000000000003,0.10018518518518522],[-0.3138541666666666,0.09888888888888885],[-0.35874999999999996,0.0962962962962963],[-0.35874999999999996,0.0962962962962963],[-0.42156250000000006,0.06574074074074074],[-0.42156250000000006,0.06574074074074074],[-0.44249999999999995,0.0455555555555556],[-0.44249999999999995,0.0455555555555556],[-0.47281249999999997,0.05222222222222231],[-0.47281249999999997,0.05222222222222231],[-0.5052083333333334,0.03462962962962971],[-0.5052083333333334,0.03462962962962971],[-0.513125,0.04388888888888897],[-0.513125,0.04388888888888897],[-0.5252083333333333,0.058703703703703786],[-0.5252083333333333,0.058703703703703786],[-0.5539583333333333,0.05462962962962963],[-0.5539583333333333,0.05462962962962963],[-0.5665625,0.052407407407407326],[-0.5914583333333333,0.052407407407407326],[-0.6079166666666667,0.045740740740740825],[-0.6079166666666667,0.045740740740740825],[-0.6045833333333334,0.0625925925925925],[-0.6045833333333334,0.0625925925925925],[-0.6288541666666667,0.03481481481481473],[-0.6202083333333334,-0.0031481481481482323],[-0.6106250000000001,-0.01648148148148144],[-0.6,-0.03981481481481482],[-0.6,-0.03981481481481482],[-0.5736458333333334,-0.06925925925925921],[-0.5669791666666666,-0.06592592592592597],[-0.5557291666666667,-0.062037037037037036],[-0.5345833333333334,-0.10759259259259263],[-0.5134375,-0.15314814814814812],[-0.4709375,-0.20462962962962963],[-0.4270833333333333,-0.24500000000000002],[-0.40958333333333335,-0.28111111111111114],[-0.4,-0.30462962962962964],[-0.39041666666666663,-0.32814814814814813],[-0.39645833333333336,-0.3225925925925926],[-0.38875000000000004,-0.3387037037037037],[-0.3589583333333334,-0.387037037037037],[-0.3267708333333334,-0.3881481481481482],[-0.32781250000000006,-0.35537037037037034],[-0.35354166666666664,-0.33851851851851855],[-0.35437500000000005,-0.29314814814814816],[-0.35520833333333335,-0.2477777777777778],[-0.31656249999999997,-0.20611111111111113],[-0.31656249999999997,-0.20611111111111113],[-0.2915625,-0.16314814814814818],[-0.23645833333333333,-0.1331481481481481],[-0.23645833333333333,-0.1331481481481481],[-0.17999999999999997,-0.10111111111111115],[-0.12239583333333333,-0.0455555555555556],[-0.0953125,0.04259259259259259],[-0.035000000000000024,0.09685185185185177],[0.04125000000000002,0.1685185185185185],[0.09260416666666677,0.2116666666666666],[0.12135416666666667,0.2455555555555556],[0.1196875000000001,0.27018518518518514],[0.13166666666666677,0.2935185185185185],[0.04822916666666662,0.3374074074074075],[0.03729166666666662,0.32759259259259255],[0.013437499999999976,0.3066666666666667],[0.02010416666666662,0.25314814814814823],[0.03718750000000005,0.18703703703703703],[0.01416666666666669,0.15037037037037046],[-0.0012500000000000473,0.11481481481481481],[0.04770833333333328,0.05962962962962971],[0.04770833333333328,0.0448148148148149],[0.04770833333333328,0.030000000000000086],[0.11500000000000009,-0.04888888888888885],[0.11197916666666667,-0.09870370370370372],[0.09864583333333338,-0.1287037037037037],[0.0853125000000001,-0.15870370370370368],[0.05302083333333331,-0.15462962962962962],[0.06854166666666663,-0.18555555555555553],[0.07645833333333343,-0.2175925925925926],[0.028854166666666715,-0.20981481481481484],[0.03781249999999995,-0.23740740740740737],[0.033958333333333354,-0.257962962962963],[0.033958333333333354,-0.257962962962963],[0.03218749999999997,-0.2505555555555556],[0.05281250000000005,-0.2044444444444444],[0.0734375,-0.15833333333333333],[0.04500000000000005,-0.09055555555555551],[0.04500000000000005,-0.09055555555555551],[0.06041666666666667,-0.08888888888888889],[0.013229166666666714,-0.018703703703703747],[-0.03843749999999998,0.05944444444444449],[-0.07635416666666663,0.12666666666666662],[-0.08958333333333333,0.1874074074074075],[-0.07718750000000002,0.1801851851851851],[-0.05322916666666669,0.16999999999999993],[-0.05520833333333333,0.14370370370370375],[-0.05916666666666662,0.13203703703703695],[-0.0140625,0.09870370370370361],[-0.016666666666666666,0.1270370370370371],[0.06145833333333333,0.057777777777777865],[0.14406249999999995,-0.019444444444444445],[0.22843749999999996,-0.06722222222222224],[0.24500000000000005,-0.1411111111111111],[0.2608333333333334,-0.08796296296296297],[0.2421875,-0.07074074074074072],[0.2421875,-0.07074074074074072],[0.2493750000000001,-0.08203703703703706],[0.24572916666666675,-0.1272222222222222],[0.24208333333333343,-0.17240740740740745],[0.24208333333333343,-0.17240740740740745],[0.2529166666666666,-0.22685185185185186],[0.21437499999999995,-0.22018518518518515],[0.21437499999999995,-0.22018518518518515],[0.1912499999999999,-0.20555555555555555],[0.1476041666666667,-0.20666666666666672],[0.13947916666666677,-0.1801851851851852],[0.12000000000000005,-0.22314814814814815],[0.13531250000000009,-0.26537037037037037],[0.12156250000000005,-0.2803703703703703],[0.12156250000000005,-0.2803703703703703],[0.12062499999999995,-0.27611111111111114],[0.11697916666666662,-0.28648148148148145],[0.08083333333333324,-0.2983333333333334],[0.03770833333333338,-0.29740740740740745],[-0.020833333333333332,-0.3044444444444444],[-0.020833333333333332,-0.3044444444444444],[-0.05343749999999995,-0.3274074074074074],[-0.0907291666666667,-0.355],[-0.12875000000000003,-0.3792592592592593],[-0.15895833333333337,-0.35351851851851845],[-0.1859375,-0.3264814814814815],[-0.2419791666666666,-0.30574074074074076],[-0.2953125,-0.27037037037037037],[-0.2612499999999999,-0.262037037037037],[-0.1905208333333333,-0.29685185185185187],[-0.1905208333333333,-0.29685185185185187],[-0.14104166666666665,-0.3190740740740741],[-0.14104166666666665,-0.3190740740740741],[-0.11270833333333338,-0.33666666666666667],[-0.07239583333333334,-0.35703703703703704],[-0.07239583333333334,-0.35703703703703704],[-0.01906249999999995,-0.32333333333333336],[-0.01906249999999995,-0.32333333333333336],[0.0203125,-0.36944444444444446],[0.0203125,-0.36944444444444446],[0.06062500000000005,-0.38851851851851854],[0.06062500000000005,-0.38851851851851854],[0.1068749999999999,-0.4038888888888889],[0.17479166666666662,-0.3931481481481482],[0.15822916666666675,-0.3824074074074074],[0.11291666666666676,-0.36259259259259263],[0.1212500000000001,-0.3696296296296297],[0.1484375,-0.3538888888888889],[0.20989583333333334,-0.35759259259259263],[0.2777083333333332,-0.3933333333333333],[0.3302083333333333,-0.3718518518518519],[0.38177083333333334,-0.3774074074074074],[0.39114583333333336,-0.3827777777777778],[0.39968750000000003,-0.3977777777777778],[0.4084374999999999,-0.37962962962962965],[0.4664583333333333,-0.3592592592592593],[0.4664583333333333,-0.3592592592592593],[0.4568749999999999,-0.3512962962962963],[0.4243750000000001,-0.3587037037037037],[0.3637500000000001,-0.3344444444444445],[0.2837500000000001,-0.3322222222222222],[0.2415625000000001,-0.32611111111111113],[0.2415625000000001,-0.32611111111111113],[0.17458333333333323,-0.307962962962963],[0.17291666666666666,-0.2874074074074074],[0.17291666666666666,-0.2874074074074074],[0.1834374999999999,-0.29240740740740734],[0.2068749999999999,-0.2946296296296297],[0.19885416666666675,-0.31425925925925924],[0.22604166666666667,-0.3072222222222222],[0.24468750000000009,-0.2940740740740741],[0.24989583333333343,-0.28574074074074074],[0.3,-0.2772222222222222],[0.321875,-0.26185185185185184],[0.321875,-0.26185185185185184],[0.33083333333333326,-0.25629629629629624],[0.3397916666666667,-0.2507407407407407],[0.33572916666666663,-0.22851851851851848],[0.3460416666666667,-0.22148148148148153],[0.34406249999999994,-0.20851851851851855],[0.34270833333333334,-0.19537037037037036],[0.3415625000000001,-0.19018518518518515],[0.34041666666666665,-0.18499999999999997],[0.32229166666666675,-0.1794444444444444],[0.30791666666666656,-0.17462962962962966],[0.32843749999999994,-0.1766666666666666],[0.34885416666666674,-0.1814814814814815],[0.3259375000000001,-0.18314814814814812],[0.28968749999999993,-0.18407407407407403],[0.2795833333333334,-0.1814814814814815],[0.27677083333333335,-0.2205555555555556],[0.28781249999999997,-0.22777777777777777],[0.28781249999999997,-0.22777777777777777],[0.25145833333333345,-0.20925925925925926],[0.19718749999999996,-0.17796296296296302],[0.18239583333333323,-0.20537037037037034],[0.17291666666666666,-0.2507407407407407],[0.16354166666666667,-0.2933333333333333],[0.1631249999999999,-0.32314814814814813],[0.17239583333333333,-0.3527777777777778],[0.15812499999999996,-0.37296296296296294],[0.121875,-0.3690740740740741],[0.09812500000000005,-0.40499999999999997],[0.13031249999999991,-0.45018518518518524],[0.13635416666666675,-0.5012962962962962],[0.11635416666666672,-0.5114814814814814],[0.09385416666666657,-0.49907407407407406],[0.10322916666666657,-0.492037037037037],[0.12697916666666675,-0.5085185185185186],[0.14010416666666667,-0.505],[0.17718749999999991,-0.49962962962962965],[0.16072916666666662,-0.46722222222222226],[0.14333333333333323,-0.43499999999999994],[0.15979166666666675,-0.4572222222222222],[0.19239583333333338,-0.4868518518518518],[0.22072916666666675,-0.492037037037037],[0.24645833333333325,-0.5218518518518519],[0.24031250000000004,-0.5462962962962963],[0.20270833333333324,-0.49740740740740746],[0.18250000000000005,-0.4801851851851852],[0.17239583333333333,-0.552962962962963],[0.21906249999999997,-0.6042592592592593],[0.2790625000000001,-0.5942592592592593],[0.29666666666666663,-0.5462962962962963],[0.29666666666666663,-0.5462962962962963],[0.3142708333333334,-0.49833333333333335],[0.3142708333333334,-0.49833333333333335],[0.3260416666666667,-0.48259259259259263]]","[[-0.15729166666666666,0.1668518518518519,0.0003000001907338401],[-0.15729166666666666,0.1668518518518519,0.05100000000000193],[-0.16958333333333328,0.16277777777777774,0.060499999999997556],[-0.18697916666666667,0.16999999999999993,0.07720000028609775],[-0.1564583333333334,0.15481481481481485,0.0953000001907327],[-0.16343749999999999,0.17074074074074083,0.11299999999999955],[-0.17458333333333337,0.202962962962963,0.127200000286102],[-0.17687499999999995,0.20462962962962963,0.14759999990462802],[-0.18312499999999995,0.18981481481481483,0.16199999999999903],[-0.17374999999999996,0.1814814814814815,0.17720000028609917],[-0.18947916666666664,0.17611111111111116,0.20490000009536402],[-0.18947916666666664,0.17611111111111116,0.21180000019073475],[-0.20822916666666663,0.16777777777777783,0.22720000028610343],[-0.1938541666666667,0.1507407407407407,0.24420000028609934],[-0.19468749999999999,0.14833333333333337,0.2605000000000004],[-0.20906250000000004,0.14518518518518514,0.2810999999046331],[-0.19750000000000004,0.12740740740740733,0.29790000009536755],[-0.19750000000000004,0.12740740740740733,0.31049999999999756],[-0.2013541666666666,0.11722222222222214,0.32720000028609775],[-0.22083333333333333,0.15055555555555547,0.34550000000000125],[-0.21510416666666668,0.15592592592592602,0.3623000001907357],[-0.22770833333333335,0.1648148148148148,0.3770999999046296],[-0.24645833333333336,0.13555555555555565,0.3938000001907369],[-0.24645833333333336,0.13555555555555565,0.410499999999999],[-0.26322916666666674,0.11500000000000005,0.42730000019073344],[-0.2713541666666667,0.11611111111111119,0.4459000000953637],[-0.28500000000000003,0.10018518518518522,0.4619999999999962],[-0.28500000000000003,0.10018518518518522,0.47709999990463103],[-0.3138541666666666,0.09888888888888885,0.4939000000953655],[-0.35874999999999996,0.0962962962962963,0.5165999999046278],[-0.35874999999999996,0.0962962962962963,0.5272000002861006],[-0.42156250000000006,0.06574074074074074,0.5438000001907355],[-0.42156250000000006,0.06574074074074074,0.5604999999999976],[-0.44249999999999995,0.0455555555555556,0.5772000002860977],[-0.44249999999999995,0.0455555555555556,0.5939000000953669],[-0.47281249999999997,0.05222222222222231,0.6105000000000018],[-0.47281249999999997,0.05222222222222231,0.6270999999046296],[-0.5052083333333334,0.03462962962962971,0.6439000000953641],[-0.5052083333333334,0.03462962962962971,0.6604000000953647],[-0.513125,0.04388888888888897,0.6770999999046339],[-0.513125,0.04388888888888897,0.6938000001907341],[-0.5252083333333333,0.058703703703703786,0.710400000095369],[-0.5252083333333333,0.058703703703703786,0.7272000002861034],[-0.5539583333333333,0.05462962962962963,0.7447000002861017],[-0.5539583333333333,0.05462962962962963,0.7605000000000004],[-0.5665625,0.052407407407407326,0.7770999999046282],[-0.5914583333333333,0.052407407407407326,0.7993000001907333],[-0.6079166666666667,0.045740740740740825,0.8159000000953682],[-0.6079166666666667,0.045740740740740825,0.8272000002860977],[-0.6045833333333334,0.0625925925925925,0.8438000001907326],[-0.6045833333333334,0.0625925925925925,0.8604000000953675],[-0.6288541666666667,0.03481481481481473,0.8770999999046296],[-0.6202083333333334,-0.0031481481481482323,0.897900000095369],[-0.6106250000000001,-0.01648148148148144,0.9133000001907305],[-0.6,-0.03981481481481482,0.9314999999999998],[-0.6,-0.03981481481481482,0.9438000001907341],[-0.5736458333333334,-0.06925925925925921,0.9604999999999961],[-0.5669791666666666,-0.06592592592592597,0.9798000001907354],[-0.5557291666666667,-0.062037037037037036,0.9965999999046318],[-0.5345833333333334,-0.10759259259259263,1.0138000001907344],[-0.5134375,-0.15314814814814812,1.0302000002861007],[-0.4709375,-0.20462962962962963,1.0475999999046337],[-0.4270833333333333,-0.24500000000000002,1.0637000002861043],[-0.40958333333333335,-0.28111111111111114,1.0794000000953687],[-0.4,-0.30462962962962964,1.0970000000000013],[-0.39041666666666663,-0.32814814814814813,1.1119000000953676],[-0.39645833333333336,-0.3225925925925926,1.1274999999999977],[-0.38875000000000004,-0.3387037037037037,1.1439999999999984],[-0.3589583333333334,-0.387037037037037,1.1604000000953647],[-0.3267708333333334,-0.3881481481481482,1.1770999999046339],[-0.32781250000000006,-0.35537037037037034,1.1937000002860998],[-0.35354166666666664,-0.33851851851851855,1.2122000002861029],[-0.35437500000000005,-0.29314814814814816,1.228599999904631],[-0.35520833333333335,-0.2477777777777778,1.2450999999046317],[-0.31656249999999997,-0.20611111111111113,1.2604000000953661],[-0.31656249999999997,-0.20611111111111113,1.2772000002861006],[-0.2915625,-0.16314814814814818,1.2938000001907355],[-0.23645833333333333,-0.1331481481481481,1.315099999904632],[-0.23645833333333333,-0.1331481481481481,1.3272000002860977],[-0.17999999999999997,-0.10111111111111115,1.3440000000000012],[-0.12239583333333333,-0.0455555555555556,1.3632000002860991],[-0.0953125,0.04259259259259259,1.3779000000953658],[-0.035000000000000024,0.09685185185185177,1.393900000095364],[0.04125000000000002,0.1685185185185185,1.410499999999999],[0.09260416666666677,0.2116666666666666,1.4294999999999973],[0.12135416666666667,0.2455555555555556,1.4439999999999955],[0.1196875000000001,0.27018518518518514,1.4605999999046304],[0.13166666666666677,0.2935185185185185,1.4772000002861034],[0.04822916666666662,0.3374074074074075,1.495900000095368],[0.03729166666666662,0.32759259259259255,1.5105999999046276],[0.013437499999999976,0.3066666666666667,1.5274999999999963],[0.02010416666666662,0.25314814814814823,1.5467000002861013],[0.03718750000000005,0.18703703703703703,1.5612000002860995],[0.01416666666666669,0.15037037037037046,1.5772000002860977],[-0.0012500000000000473,0.11481481481481481,1.5959999999999965],[0.04770833333333328,0.05962962962962971,1.610599999904629],[0.04770833333333328,0.0448148148148149,1.6274000000953635],[0.04770833333333328,0.030000000000000086,1.643900000095364],[0.11500000000000009,-0.04888888888888885,1.6628000001907353],[0.11197916666666667,-0.09870370370370372,1.678599999904634],[0.09864583333333338,-0.1287037037037037,1.693800000190734],[0.0853125000000001,-0.15870370370370368,1.710400000095369],[0.05302083333333331,-0.15462962962962962,1.7303000001907307],[0.06854166666666663,-0.18555555555555553,1.7445999999046293],[0.07645833333333343,-0.2175925925925926,1.7605999999046276],[0.028854166666666715,-0.20981481481481484,1.779599999904633],[0.03781249999999995,-0.23740740740740737,1.7938000001907355],[0.033958333333333354,-0.257962962962963,1.8105999999046318],[0.033958333333333354,-0.257962962962963,1.8278000001907344],[0.03218749999999997,-0.2505555555555556,1.8462000002861032],[0.05281250000000005,-0.2044444444444444,1.8604000000953675],[0.0734375,-0.15833333333333333,1.877200000286102],[0.04500000000000005,-0.09055555555555551,1.8937000002861026],[0.04500000000000005,-0.09055555555555551,1.912700000286101],[0.06041666666666667,-0.08888888888888889,1.9272000002860992],[0.013229166666666714,-0.018703703703703747,1.943800000190734],[-0.03843749999999998,0.05944444444444449,1.960400000095369],[-0.07635416666666663,0.12666666666666662,1.977099999904631],[-0.08958333333333333,0.1874074074074075,1.995900000095368],[-0.07718750000000002,0.1801851851851851,2.0105999999046276],[-0.05322916666666669,0.16999999999999993,2.0282000002860983],[-0.05520833333333333,0.14370370370370375,2.046300000190733],[-0.05916666666666662,0.13203703703703695,2.060599999904632],[-0.0140625,0.09870370370370361,2.077300000190732],[-0.016666666666666666,0.1270370370370371,2.0968000001907328],[0.06145833333333333,0.057777777777777865,2.1108000001907357],[0.14406249999999995,-0.019444444444444445,2.1274999999999977],[0.22843749999999996,-0.06722222222222224,2.1473000001907323],[0.24500000000000005,-0.1411111111111111,2.1605999999046333],[0.2608333333333334,-0.08796296296296297,2.177200000286099],[0.2421875,-0.07074074074074072,2.1943000001907365],[0.2421875,-0.07074074074074072,2.2150999999046306],[0.2493750000000001,-0.08203703703703706,2.227499999999999],[0.24572916666666675,-0.1272222222222222,2.2439000000953655],[0.24208333333333343,-0.17240740740740745,2.2605999999046276],[0.24208333333333343,-0.17240740740740745,2.2805999999046307],[0.2529166666666666,-0.22685185185185186,2.294099999904631],[0.21437499999999995,-0.22018518518518515,2.315400000095366],[0.21437499999999995,-0.22018518518518515,2.332099999904628],[0.1912499999999999,-0.20555555555555555,2.343900000095367],[0.1476041666666667,-0.20666666666666672,2.3604000000953675],[0.13947916666666677,-0.1801851851851852,2.377200000286102],[0.12000000000000005,-0.22314814814814815,2.396400000095369],[0.13531250000000009,-0.26537037037037037,2.4114000000953695],[0.12156250000000005,-0.2803703703703703,2.428300000190731],[0.12156250000000005,-0.2803703703703703,2.4439000000953683],[0.12062499999999995,-0.27611111111111114,2.460400000095369],[0.11697916666666662,-0.28648148148148145,2.4795999999046288],[0.08083333333333324,-0.2983333333333334,2.4965999999046318],[0.03770833333333338,-0.29740740740740745,2.5109999999999957],[-0.020833333333333332,-0.3044444444444444,2.5324000000953646],[-0.020833333333333332,-0.3044444444444444,2.5438000001907355],[-0.05343749999999995,-0.3274074074074074,2.560599999904632],[-0.0907291666666667,-0.355,2.577300000190732],[-0.12875000000000003,-0.3792592592592593,2.5967000002860985],[-0.15895833333333337,-0.35351851851851845,2.6123000001907357],[-0.1859375,-0.3264814814814815,2.627900000095366],[-0.2419791666666666,-0.30574074074074076,2.643900000095364],[-0.2953125,-0.27037037037037037,2.6633000001907305],[-0.2612499999999999,-0.262037037037037,2.6787000002860992],[-0.1905208333333333,-0.29685185185185187,2.6995000000000005],[-0.1905208333333333,-0.29685185185185187,2.7218000001907328],[-0.14104166666666665,-0.3190740740740741,2.7309000000953674],[-0.14104166666666665,-0.3190740740740741,2.7438000001907312],[-0.11270833333333338,-0.33666666666666667,2.7605999999046276],[-0.07239583333333334,-0.35703703703703704,2.782599999904633],[-0.07239583333333334,-0.35703703703703704,2.797400000095365],[-0.01906249999999995,-0.32333333333333336,2.8104000000953633],[-0.01906249999999995,-0.32333333333333336,2.8272000002860977],[0.0203125,-0.36944444444444446,2.849099999904631],[0.0203125,-0.36944444444444446,2.8607000002861014],[0.06062500000000005,-0.38851851851851854,2.8769999999999953],[0.06062500000000005,-0.38851851851851854,2.8937000002861026],[0.1068749999999999,-0.4038888888888889,2.910499999999999],[0.17479166666666662,-0.3931481481481482,2.931200000286104],[0.15822916666666675,-0.3824074074074074,2.946800000190734],[0.11291666666666676,-0.36259259259259263,2.9613000001907324],[0.1212500000000001,-0.3696296296296297,2.9795999999046288],[0.1484375,-0.3538888888888889,2.995200000286104],[0.20989583333333334,-0.35759259259259263,3.0105999999046276],[0.2777083333333332,-0.3933333333333333,3.0279000000953644],[0.3302083333333333,-0.3718518518518519,3.044099999904631],[0.38177083333333334,-0.3774074074074074,3.0634999999999977],[0.39114583333333336,-0.3827777777777778,3.0799999999999983],[0.39968750000000003,-0.3977777777777778,3.0945999999046307],[0.4084374999999999,-0.37962962962962965,3.1107000002861014],[0.4664583333333333,-0.3592592592592593,3.1312000002861],[0.4664583333333333,-0.3592592592592593,3.143900000095364],[0.4568749999999999,-0.3512962962962963,3.1605999999046333],[0.4243750000000001,-0.3587037037037037,3.177900000095363],[0.3637500000000001,-0.3344444444444445,3.1937000002861],[0.2837500000000001,-0.3322222222222222,3.2129000000953667],[0.2415625000000001,-0.32611111111111113,3.237499999999997],[0.2415625000000001,-0.32611111111111113,3.244099999904634],[0.17458333333333323,-0.307962962962963,3.260400000095366],[0.17291666666666666,-0.2874074074074074,3.2809000000953645],[0.17291666666666666,-0.2874074074074074,3.2938000001907355],[0.1834374999999999,-0.29240740740740734,3.3104999999999976],[0.2068749999999999,-0.2946296296296297,3.3312000002861026],[0.19885416666666675,-0.31425925925925924,3.3477000002861033],[0.22604166666666667,-0.3072222222222222,3.363200000286099],[0.24468750000000009,-0.2940740740740741,3.3770999999046296],[0.24989583333333343,-0.28574074074074074,3.393800000190737],[0.3,-0.2772222222222222,3.412300000190733],[0.321875,-0.26185185185185184,3.4292000002861016],[0.321875,-0.26185185185185184,3.444599999904632],[0.33083333333333326,-0.25629629629629624,3.460400000095369],[0.3397916666666667,-0.2507407407407407,3.4790999999046335],[0.33572916666666663,-0.22851851851851848,3.493700000286104],[0.3460416666666667,-0.22148148148148153,3.5109999999999957],[0.34406249999999994,-0.20851851851851855,3.5285999999046282],[0.34270833333333334,-0.19537037037037036,3.5465000000000018],[0.3415625000000001,-0.19018518518518515,3.5609000000953657],[0.34041666666666665,-0.18499999999999997,3.5770999999046325],[0.32229166666666675,-0.1794444444444444,3.594300000190735],[0.30791666666666656,-0.17462962962962966,3.611700000286099],[0.32843749999999994,-0.1766666666666666,3.6277000002860973],[0.34885416666666674,-0.1814814814814815,3.646000000000001],[0.3259375000000001,-0.18314814814814812,3.6603000001907304],[0.28968749999999993,-0.18407407407407403,3.6769999999999996],[0.2795833333333334,-0.1814814814814815,3.6937000002861],[0.27677083333333335,-0.2205555555555556,3.713000000000001],[0.28781249999999997,-0.22777777777777777,3.7294000000953673],[0.28781249999999997,-0.22777777777777777,3.743700000286104],[0.25145833333333345,-0.20925925925925926,3.760400000095366],[0.19718749999999996,-0.17796296296296302,3.7772000002861006],[0.18239583333333323,-0.20537037037037034,3.793700000286101],[0.17291666666666666,-0.2507407407407407,3.8104000000953633],[0.16354166666666667,-0.2933333333333333,3.827999999999996],[0.1631249999999999,-0.32314814814814813,3.845400000095367],[0.17239583333333333,-0.3527777777777778,3.8604000000953675],[0.15812499999999996,-0.37296296296296294,3.8770999999046296],[0.121875,-0.3690740740740741,3.893800000190737],[0.09812500000000005,-0.40499999999999997,3.9105999999046333],[0.13031249999999991,-0.45018518518518524,3.9273000001907334],[0.13635416666666675,-0.5012962962962962,3.9465999999046346],[0.11635416666666672,-0.5114814814814814,3.9617000002861005],[0.09385416666666657,-0.49907407407407406,3.977099999904631],[0.10322916666666657,-0.492037037037037,3.993700000286104],[0.12697916666666675,-0.5085185185185186,4.010400000095366],[0.14010416666666667,-0.505,4.027200000286101],[0.17718749999999991,-0.49962962962962965,4.0438000001907355],[0.16072916666666662,-0.46722222222222226,4.061099999904634],[0.14333333333333323,-0.43499999999999994,4.0770999999046325],[0.15979166666666675,-0.4572222222222222,4.093599999904633],[0.19239583333333338,-0.4868518518518518,4.1104000000953675],[0.22072916666666675,-0.492037037037037,4.13009999990463],[0.24645833333333325,-0.5218518518518519,4.146300000190735],[0.24031250000000004,-0.5462962962962963,4.162099999904633],[0.20270833333333324,-0.49740740740740746,4.181099999904632],[0.18250000000000005,-0.4801851851851852,4.1967000002861],[0.17239583333333333,-0.552962962962963,4.212900000095367],[0.21906249999999997,-0.6042592592592593,4.228200000286101],[0.2790625000000001,-0.5942592592592593,4.244200000286099],[0.29666666666666663,-0.5462962962962963,4.260400000095366],[0.29666666666666663,-0.5462962962962963,4.277099999904628],[0.3142708333333334,-0.49833333333333335,4.2938000001907355],[0.3142708333333334,-0.49833333333333335,4.3104999999999976],[0.3260416666666667,-0.48259259259259263,4.3270999999046325]]","[0.0003000001907338401,0.05100000000000193,0.060499999999997556,0.07720000028609775,0.0953000001907327,0.11299999999999955,0.127200000286102,0.14759999990462802,0.16199999999999903,0.17720000028609917,0.20490000009536402,0.21180000019073475,0.22720000028610343,0.24420000028609934,0.2605000000000004,0.2810999999046331,0.29790000009536755,0.31049999999999756,0.32720000028609775,0.34550000000000125,0.3623000001907357,0.3770999999046296,0.3938000001907369,0.410499999999999,0.42730000019073344,0.4459000000953637,0.4619999999999962,0.47709999990463103,0.4939000000953655,0.5165999999046278,0.5272000002861006,0.5438000001907355,0.5604999999999976,0.5772000002860977,0.5939000000953669,0.6105000000000018,0.6270999999046296,0.6439000000953641,0.6604000000953647,0.6770999999046339,0.6938000001907341,0.710400000095369,0.7272000002861034,0.7447000002861017,0.7605000000000004,0.7770999999046282,0.7993000001907333,0.8159000000953682,0.8272000002860977,0.8438000001907326,0.8604000000953675,0.8770999999046296,0.897900000095369,0.9133000001907305,0.9314999999999998,0.9438000001907341,0.9604999999999961,0.9798000001907354,0.9965999999046318,1.0138000001907344,1.0302000002861007,1.0475999999046337,1.0637000002861043,1.0794000000953687,1.0970000000000013,1.1119000000953676,1.1274999999999977,1.1439999999999984,1.1604000000953647,1.1770999999046339,1.1937000002860998,1.2122000002861029,1.228599999904631,1.2450999999046317,1.2604000000953661,1.2772000002861006,1.2938000001907355,1.315099999904632,1.3272000002860977,1.3440000000000012,1.3632000002860991,1.3779000000953658,1.393900000095364,1.410499999999999,1.4294999999999973,1.4439999999999955,1.4605999999046304,1.4772000002861034,1.495900000095368,1.5105999999046276,1.5274999999999963,1.5467000002861013,1.5612000002860995,1.5772000002860977,1.5959999999999965,1.610599999904629,1.6274000000953635,1.643900000095364,1.6628000001907353,1.678599999904634,1.693800000190734,1.710400000095369,1.7303000001907307,1.7445999999046293,1.7605999999046276,1.779599999904633,1.7938000001907355,1.8105999999046318,1.8278000001907344,1.8462000002861032,1.8604000000953675,1.877200000286102,1.8937000002861026,1.912700000286101,1.9272000002860992,1.943800000190734,1.960400000095369,1.977099999904631,1.995900000095368,2.0105999999046276,2.0282000002860983,2.046300000190733,2.060599999904632,2.077300000190732,2.0968000001907328,2.1108000001907357,2.1274999999999977,2.1473000001907323,2.1605999999046333,2.177200000286099,2.1943000001907365,2.2150999999046306,2.227499999999999,2.2439000000953655,2.2605999999046276,2.2805999999046307,2.294099999904631,2.315400000095366,2.332099999904628,2.343900000095367,2.3604000000953675,2.377200000286102,2.396400000095369,2.4114000000953695,2.428300000190731,2.4439000000953683,2.460400000095369,2.4795999999046288,2.4965999999046318,2.5109999999999957,2.5324000000953646,2.5438000001907355,2.560599999904632,2.577300000190732,2.5967000002860985,2.6123000001907357,2.627900000095366,2.643900000095364,2.6633000001907305,2.6787000002860992,2.6995000000000005,2.7218000001907328,2.7309000000953674,2.7438000001907312,2.7605999999046276,2.782599999904633,2.797400000095365,2.8104000000953633,2.8272000002860977,2.849099999904631,2.8607000002861014,2.8769999999999953,2.8937000002861026,2.910499999999999,2.931200000286104,2.946800000190734,2.9613000001907324,2.9795999999046288,2.995200000286104,3.0105999999046276,3.0279000000953644,3.044099999904631,3.0634999999999977,3.0799999999999983,3.0945999999046307,3.1107000002861014,3.1312000002861,3.143900000095364,3.1605999999046333,3.177900000095363,3.1937000002861,3.2129000000953667,3.237499999999997,3.244099999904634,3.260400000095366,3.2809000000953645,3.2938000001907355,3.3104999999999976,3.3312000002861026,3.3477000002861033,3.363200000286099,3.3770999999046296,3.393800000190737,3.412300000190733,3.4292000002861016,3.444599999904632,3.460400000095369,3.4790999999046335,3.493700000286104,3.5109999999999957,3.5285999999046282,3.5465000000000018,3.5609000000953657,3.5770999999046325,3.594300000190735,3.611700000286099,3.6277000002860973,3.646000000000001,3.6603000001907304,3.6769999999999996,3.6937000002861,3.713000000000001,3.7294000000953673,3.743700000286104,3.760400000095366,3.7772000002861006,3.793700000286101,3.8104000000953633,3.827999999999996,3.845400000095367,3.8604000000953675,3.8770999999046296,3.893800000190737,3.9105999999046333,3.9273000001907334,3.9465999999046346,3.9617000002861005,3.977099999904631,3.993700000286104,4.010400000095366,4.027200000286101,4.0438000001907355,4.061099999904634,4.0770999999046325,4.093599999904633,4.1104000000953675,4.13009999990463,4.146300000190735,4.162099999904633,4.181099999904632,4.1967000002861,4.212900000095367,4.228200000286101,4.244200000286099,4.260400000095366,4.277099999904628,4.2938000001907355,4.3104999999999976,4.3270999999046325]","[1731905330334,1731905330375,1731905330384,1731905330401,1731905330419,1731905330436,1731905330451,1731905330471,1731905330486,1731905330501,1731905330528,1731905330535,1731905330551,1731905330568,1731905330584,1731905330605,1731905330621,1731905330634,1731905330651,1731905330669,1731905330686,1731905330701,1731905330717,1731905330734,1731905330751,1731905330769,1731905330785,1731905330801,1731905330817,1731905330840,1731905330851,1731905330867,1731905330884,1731905330901,1731905330917,1731905330934,1731905330951,1731905330967,1731905330984,1731905331001,1731905331017,1731905331034,1731905331051,1731905331068,1731905331084,1731905331101,1731905331123,1731905331139,1731905331151,1731905331167,1731905331184,1731905331201,1731905331221,1731905331237,1731905331255,1731905331267,1731905331284,1731905331303,1731905331320,1731905331337,1731905331354,1731905331371,1731905331387,1731905331403,1731905331420,1731905331435,1731905331451,1731905331467,1731905331484,1731905331501,1731905331517,1731905331536,1731905331552,1731905331569,1731905331584,1731905331601,1731905331617,1731905331639,1731905331651,1731905331667,1731905331687,1731905331701,1731905331717,1731905331734,1731905331753,1731905331767,1731905331784,1731905331801,1731905331819,1731905331834,1731905331851,1731905331870,1731905331885,1731905331901,1731905331919,1731905331934,1731905331951,1731905331967,1731905331986,1731905332002,1731905332017,1731905332034,1731905332054,1731905332068,1731905332084,1731905332103,1731905332117,1731905332134,1731905332151,1731905332170,1731905332184,1731905332201,1731905332217,1731905332236,1731905332251,1731905332267,1731905332284,1731905332301,1731905332319,1731905332334,1731905332352,1731905332370,1731905332384,1731905332401,1731905332420,1731905332434,1731905332451,1731905332471,1731905332484,1731905332501,1731905332518,1731905332539,1731905332551,1731905332567,1731905332584,1731905332604,1731905332618,1731905332639,1731905332656,1731905332667,1731905332684,1731905332701,1731905332720,1731905332735,1731905332752,1731905332767,1731905332784,1731905332803,1731905332820,1731905332834,1731905332856,1731905332867,1731905332884,1731905332901,1731905332920,1731905332936,1731905332951,1731905332967,1731905332987,1731905333002,1731905333023,1731905333045,1731905333054,1731905333067,1731905333084,1731905333106,1731905333121,1731905333134,1731905333151,1731905333173,1731905333184,1731905333201,1731905333217,1731905333234,1731905333255,1731905333270,1731905333285,1731905333303,1731905333319,1731905333334,1731905333351,1731905333368,1731905333387,1731905333404,1731905333418,1731905333434,1731905333455,1731905333467,1731905333484,1731905333501,1731905333517,1731905333536,1731905333561,1731905333568,1731905333584,1731905333604,1731905333617,1731905333634,1731905333655,1731905333671,1731905333687,1731905333701,1731905333717,1731905333736,1731905333753,1731905333768,1731905333784,1731905333803,1731905333817,1731905333834,1731905333852,1731905333870,1731905333884,1731905333901,1731905333918,1731905333935,1731905333951,1731905333969,1731905333984,1731905334001,1731905334017,1731905334037,1731905334053,1731905334067,1731905334084,1731905334101,1731905334117,1731905334134,1731905334152,1731905334169,1731905334184,1731905334201,1731905334217,1731905334234,1731905334251,1731905334270,1731905334285,1731905334301,1731905334317,1731905334334,1731905334351,1731905334367,1731905334385,1731905334401,1731905334417,1731905334434,1731905334454,1731905334470,1731905334486,1731905334505,1731905334520,1731905334536,1731905334552,1731905334568,1731905334584,1731905334601,1731905334617,1731905334634,1731905334651]","[[809,630.1],[809,630.1],[797.2,627.9],[780.5,631.8],[809.8,623.6],[803.1,632.2],[792.4,649.6],[790.2,650.5],[784.2,642.5],[793.2,638],[778.1,635.1],[778.1,635.1],[760.1,630.6],[773.9,621.4],[773.1,620.1],[759.3,618.4],[770.4,608.8],[770.4,608.8],[766.7,603.3],[748,621.3],[753.5,624.2],[741.4,629],[723.4,613.2],[723.4,613.2],[707.3,602.1],[699.5,602.7],[686.4,594.1],[686.4,594.1],[658.7,593.4],[615.6,592],[615.6,592],[555.3,575.5],[555.3,575.5],[535.2,564.6],[535.2,564.6],[506.1,568.2],[506.1,568.2],[475,558.7],[475,558.7],[467.4,563.7],[467.4,563.7],[455.8,571.7],[455.8,571.7],[428.2,569.5],[428.2,569.5],[416.1,568.3],[392.2,568.3],[376.4,564.7],[376.4,564.7],[379.6,573.8],[379.6,573.8],[356.3,558.8],[364.6,538.3],[373.8,531.1],[384,518.5],[384,518.5],[409.3,502.6],[415.7,504.4],[426.5,506.5],[446.8,481.9],[467.1,457.3],[507.9,429.5],[550,407.7],[566.8,388.2],[576,375.5],[585.2,362.8],[579.4,365.8],[586.8,357.1],[615.4,331],[646.3,330.4],[645.3,348.1],[620.6,357.2],[619.8,381.7],[619,406.2],[656.1,428.7],[656.1,428.7],[680.1,451.9],[733,468.1],[733,468.1],[787.2,485.4],[842.5,515.4],[868.5,563],[926.4,592.3],[999.6,631],[1048.9,654.3],[1076.5,672.6],[1074.9,685.9],[1086.4,698.5],[1006.3,722.2],[995.8,716.9],[972.9,705.6],[979.3,676.7],[995.7,641],[973.6,621.2],[958.8,602],[1005.8,572.2],[1005.8,564.2],[1005.8,556.2],[1070.4,513.6],[1067.5,486.7],[1054.7,470.5],[1041.9,454.3],[1010.9,456.5],[1025.8,439.8],[1033.4,422.5],[987.7,426.7],[996.3,411.8],[992.6,400.7],[992.6,400.7],[990.9,404.7],[1010.7,429.6],[1030.5,454.5],[1003.2,491.1],[1003.2,491.1],[1018,492],[972.7,529.9],[923.1,572.1],[886.7,608.4],[874,641.2],[885.9,637.3],[908.9,631.8],[907,617.6],[903.2,611.3],[946.5,593.3],[944,608.6],[1019,571.2],[1098.3,529.5],[1179.3,503.7],[1195.2,463.8],[1210.4,492.5],[1192.5,501.8],[1192.5,501.8],[1199.4,495.7],[1195.9,471.3],[1192.4,446.9],[1192.4,446.9],[1202.8,417.5],[1165.8,421.1],[1165.8,421.1],[1143.6,429],[1101.7,428.4],[1093.9,442.7],[1075.2,419.5],[1089.9,396.7],[1076.7,388.6],[1076.7,388.6],[1075.8,390.9],[1072.3,385.3],[1037.6,378.9],[996.2,379.4],[940,375.6],[940,375.6],[908.7,363.2],[872.9,348.3],[836.4,335.2],[807.4,349.1],[781.5,363.7],[727.7,374.9],[676.5,394],[709.2,398.5],[777.1,379.7],[777.1,379.7],[824.6,367.7],[824.6,367.7],[851.8,358.2],[890.5,347.2],[890.5,347.2],[941.7,365.4],[941.7,365.4],[979.5,340.5],[979.5,340.5],[1018.2,330.2],[1018.2,330.2],[1062.6,321.9],[1127.8,327.7],[1111.9,333.5],[1068.4,344.2],[1076.4,340.4],[1102.5,348.9],[1161.5,346.9],[1226.6,327.6],[1277,339.2],[1326.5,336.2],[1335.5,333.3],[1343.7,325.2],[1352.1,335],[1407.8,346],[1407.8,346],[1398.6,350.3],[1367.4,346.3],[1309.2,359.4],[1232.4,360.6],[1191.9,363.9],[1191.9,363.9],[1127.6,373.7],[1126,384.8],[1126,384.8],[1136.1,382.1],[1158.6,380.9],[1150.9,370.3],[1177,374.1],[1194.9,381.2],[1199.9,385.7],[1248,390.3],[1269,398.6],[1269,398.6],[1277.6,401.6],[1286.2,404.6],[1282.3,416.6],[1292.2,420.4],[1290.3,427.4],[1289,434.5],[1287.9,437.3],[1286.8,440.1],[1269.4,443.1],[1255.6,445.7],[1275.3,444.6],[1294.9,442],[1272.9,441.1],[1238.1,440.6],[1228.4,442],[1225.7,420.9],[1236.3,417],[1236.3,417],[1201.4,427],[1149.3,443.9],[1135.1,429.1],[1126,404.6],[1117,381.6],[1116.6,365.5],[1125.5,349.5],[1111.8,338.6],[1077,340.7],[1054.2,321.3],[1085.1,296.9],[1090.9,269.3],[1071.7,263.8],[1050.1,270.5],[1059.1,274.3],[1081.9,265.4],[1094.5,267.3],[1130.1,270.2],[1114.3,287.7],[1097.6,305.1],[1113.4,293.1],[1144.7,277.1],[1171.9,274.3],[1196.6,258.2],[1190.7,245],[1154.6,271.4],[1135.2,280.7],[1125.5,241.4],[1170.3,213.7],[1227.9,219.1],[1244.8,245],[1244.8,245],[1261.7,270.9],[1261.7,270.9],[1273,279.4]]","[-0.142,0.42599999999999993]","[0.142,0.42599999999999993]","[0.42599999999999993,0.42599999999999993]","[-0.42599999999999993,0.142]","[-0.42599999999999993,-0.42599999999999993]","[-0.42599999999999993,-0.142]","[-0.142,0.142]","[0.142,0.142]","[0.42599999999999993,0.142]","[-0.142,-0.42599999999999993]","[0.142,-0.42599999999999993]","[0.42599999999999993,-0.42599999999999993]","[-0.142,-0.142]","[0.142,-0.142]","[0.42599999999999993,-0.142]",0,0,0,0,1,4,Laptop,25,20,8,1,60,4,1,60,3
