inst1_resp.keys,inst1_resp.rt,calibrationMouse.x,calibrationMouse.y,calibrationMouse.leftButton,calibrationMouse.midButton,calibrationMouse.rightButton,calibrationClick.x,calibrationClick.y,calibrationClick.leftButton,calibrationClick.midButton,calibrationClick.rightButton,calibrationClick.clicked_name,trialsc.thisRepN,trialsc.thisTrialN,trialsc.thisN,trialsc.thisIndex,trialsc.ran,calibration_x,calibration_y,participant,session,date,expName,psychopyVersion,OS,frameRate,ScreenRes_pixels,Camera_pixels,mouse_2.x,mouse_2.y,mouse_2.leftButton,mouse_2.midButton,mouse_2.rightButton,mouse_2.time,mouse_2.clicked_name,mouse.x,mouse.y,mouse.leftButton,mouse.midButton,mouse.rightButton,mouse.time,mouse.clicked_name,Choice,Trial,TrialDuration,MOUSE_GAZE,ET_GAZE,ET_GAZE_x_T,time,unixTime,ET_GAZE_NF,Loc_Bus_label,Loc_Metro_label,Loc_RH_label,Loc_Cost_label,Loc_Travel_label,Loc_Comfort_label,Loc_Bus_cost,Loc_Metro_cost,Loc_RH_cost,Loc_Bus_travel,Loc_Metro_travel,Loc_RH_travel,Loc_Bus_comfort,Loc_Metro_comfort,Loc_RH_comfort,trials.thisRepN,trials.thisTrialN,trials.thisN,trials.thisIndex,trials.ran,Block,Device,RH_cost,RH_travel_time,RH_Comfort,metro_cost,metro_travel_time,metro_Comfort,Bus_cost,Bus_travel_time,Bus_Comfort
space,3.097,-0.407291667,0.292592593,1,0,0,0.336458333,0.668518519,1,0,0,calibration_square,0,0,0,18,1,0.33,0.67,23,001,2024-11-18_12h37.48.031,Attention_exp_legacy,2023.1.0,Win32,60.24096386,,,,,,,,,,,,,,,,,,,,,,,,,,,,,,,,,,,,,,,,,,,,,,,,,,,,,,,,
,,,,,,,-0.33125,-0.668518519,1,0,0,calibration_square,0,1,1,4,1,-0.33,-0.67,23,001,2024-11-18_12h37.48.031,Attention_exp_legacy,2023.1.0,Win32,60.24096386,,,,,,,,,,,,,,,,,,,,,,,,,,,,,,,,,,,,,,,,,,,,,,,,,,,,,,,,
,,,,,,,0.007291667,-0.324074074,1,0,0,calibration_square,0,2,2,10,1,0,-0.33,23,001,2024-11-18_12h37.48.031,Attention_exp_legacy,2023.1.0,Win32,60.24096386,,,,,,,,,,,,,,,,,,,,,,,,,,,,,,,,,,,,,,,,,,,,,,,,,,,,,,,,
,,,,,,,-0.670833333,-0.005555556,1,0,0,calibration_square,0,3,3,2,1,-0.67,0,23,001,2024-11-18_12h37.48.031,Attention_exp_legacy,2023.1.0,Win32,60.24096386,,,,,,,,,,,,,,,,,,,,,,,,,,,,,,,,,,,,,,,,,,,,,,,,,,,,,,,,
,,,,,,,-0.328125,0.003703704,1,0,0,calibration_square,0,4,4,6,1,-0.33,0,23,001,2024-11-18_12h37.48.031,Attention_exp_legacy,2023.1.0,Win32,60.24096386,,,,,,,,,,,,,,,,,,,,,,,,,,,,,,,,,,,,,,,,,,,,,,,,,,,,,,,,
,,,,,,,0.332291667,-0.32962963,1,0,0,calibration_square,0,5,5,15,1,0.33,-0.33,23,001,2024-11-18_12h37.48.031,Attention_exp_legacy,2023.1.0,Win32,60.24096386,,,,,,,,,,,,,,,,,,,,,,,,,,,,,,,,,,,,,,,,,,,,,,,,,,,,,,,,
,,,,,,,-0.340625,0.327777778,1,0,0,,0,6,6,7,1,-0.33,0.33,23,001,2024-11-18_12h37.48.031,Attention_exp_legacy,2023.1.0,Win32,60.24096386,,,,,,,,,,,,,,,,,,,,,,,,,,,,,,,,,,,,,,,,,,,,,,,,,,,,,,,,
,,,,,,,0.323958333,0.32962963,1,0,0,calibration_square,0,7,7,17,1,0.33,0.33,23,001,2024-11-18_12h37.48.031,Attention_exp_legacy,2023.1.0,Win32,60.24096386,,,,,,,,,,,,,,,,,,,,,,,,,,,,,,,,,,,,,,,,,,,,,,,,,,,,,,,,
,,,,,,,-0.3375,-0.338888889,1,0,0,calibration_square,0,8,8,5,1,-0.33,-0.33,23,001,2024-11-18_12h37.48.031,Attention_exp_legacy,2023.1.0,Win32,60.24096386,,,,,,,,,,,,,,,,,,,,,,,,,,,,,,,,,,,,,,,,,,,,,,,,,,,,,,,,
,,,,,,,-0.002083333,0.32037037,1,0,0,calibration_square,0,9,9,12,1,0,0.33,23,001,2024-11-18_12h37.48.031,Attention_exp_legacy,2023.1.0,Win32,60.24096386,,,,,,,,,,,,,,,,,,,,,,,,,,,,,,,,,,,,,,,,,,,,,,,,,,,,,,,,
,,,,,,,0.335416667,-0.67037037,1,0,0,calibration_square,0,10,10,14,1,0.33,-0.67,23,001,2024-11-18_12h37.48.031,Attention_exp_legacy,2023.1.0,Win32,60.24096386,,,,,,,,,,,,,,,,,,,,,,,,,,,,,,,,,,,,,,,,,,,,,,,,,,,,,,,,
,,,,,,,-0.005208333,0.661111111,1,0,0,calibration_square,0,11,11,13,1,0,0.67,23,001,2024-11-18_12h37.48.031,Attention_exp_legacy,2023.1.0,Win32,60.24096386,,,,,,,,,,,,,,,,,,,,,,,,,,,,,,,,,,,,,,,,,,,,,,,,,,,,,,,,
,,,,,,,0.672916667,0.683333333,1,0,0,,0,12,12,19,1,0.67,0.67,23,001,2024-11-18_12h37.48.031,Attention_exp_legacy,2023.1.0,Win32,60.24096386,,,,,,,,,,,,,,,,,,,,,,,,,,,,,,,,,,,,,,,,,,,,,,,,,,,,,,,,
,,,,,,,0.673958333,-0.664814815,1,0,0,calibration_square,0,13,13,20,1,0.67,-0.67,23,001,2024-11-18_12h37.48.031,Attention_exp_legacy,2023.1.0,Win32,60.24096386,,,,,,,,,,,,,,,,,,,,,,,,,,,,,,,,,,,,,,,,,,,,,,,,,,,,,,,,
,,,,,,,-0.655208333,-0.337037037,1,0,0,,0,14,14,1,1,-0.67,-0.33,23,001,2024-11-18_12h37.48.031,Attention_exp_legacy,2023.1.0,Win32,60.24096386,,,,,,,,,,,,,,,,,,,,,,,,,,,,,,,,,,,,,,,,,,,,,,,,,,,,,,,,
,,,,,,,-0.664583333,-0.662962963,1,0,0,calibration_square,0,15,15,0,1,-0.67,-0.67,23,001,2024-11-18_12h37.48.031,Attention_exp_legacy,2023.1.0,Win32,60.24096386,,,,,,,,,,,,,,,,,,,,,,,,,,,,,,,,,,,,,,,,,,,,,,,,,,,,,,,,
,,,,,,,-0.330208333,0.685185185,1,0,0,,0,16,16,8,1,-0.33,0.67,23,001,2024-11-18_12h37.48.031,Attention_exp_legacy,2023.1.0,Win32,60.24096386,,,,,,,,,,,,,,,,,,,,,,,,,,,,,,,,,,,,,,,,,,,,,,,,,,,,,,,,
,,,,,,,-0.003125,0.005555556,1,0,0,calibration_square,0,17,17,11,1,0,0,23,001,2024-11-18_12h37.48.031,Attention_exp_legacy,2023.1.0,Win32,60.24096386,,,,,,,,,,,,,,,,,,,,,,,,,,,,,,,,,,,,,,,,,,,,,,,,,,,,,,,,
,,,,,,,0.31875,0.003703704,1,0,0,,0,18,18,16,1,0.33,0,23,001,2024-11-18_12h37.48.031,Attention_exp_legacy,2023.1.0,Win32,60.24096386,,,,,,,,,,,,,,,,,,,,,,,,,,,,,,,,,,,,,,,,,,,,,,,,,,,,,,,,
,,,,,,,-0.675,0.324074074,1,0,0,calibration_square,0,19,19,3,1,-0.67,0.33,23,001,2024-11-18_12h37.48.031,Attention_exp_legacy,2023.1.0,Win32,60.24096386,,,,,,,,,,,,,,,,,,,,,,,,,,,,,,,,,,,,,,,,,,,,,,,,,,,,,,,,
,,,,,,,0.007291667,-0.677777778,1,0,0,calibration_square,0,20,20,9,1,0,-0.67,23,001,2024-11-18_12h37.48.031,Attention_exp_legacy,2023.1.0,Win32,60.24096386,,,,,,,,,,,,,,,,,,,,,,,,,,,,,,,,,,,,,,,,,,,,,,,,,,,,,,,,
,,,,,,,,,,,,,,,,,,,,23,001,2024-11-18_12h37.48.031,Attention_exp_legacy,2023.1.0,Win32,60.24096386,"[1920,1080]","[640,480]",[-0.057291666666666664],[-0.5148148148148148],[1],[0],[0],[12.578900000095366],"[""StartButton""]",[0.042708333333333334],[0.18888888888888888],[1],[0],[0],[5.618099999904629],"[""Metro_label""]",Metro_label,1,6.6315,"[[-0.09375,-0.4166666666666667],[-0.09375,-0.4166666666666667],[-0.09375,-0.4166666666666667],[-0.09270833333333334,-0.412962962962963],[-0.090625,-0.40555555555555556],[-0.0875,-0.4],[-0.08645833333333333,-0.3962962962962963],[-0.08541666666666667,-0.3925925925925926],[-0.08229166666666667,-0.37777777777777777],[-0.07916666666666666,-0.3592592592592593],[-0.075,-0.3333333333333333],[-0.06979166666666667,-0.3037037037037037],[-0.06458333333333334,-0.26851851851851855],[-0.06145833333333333,-0.24814814814814815],[-0.06041666666666667,-0.23148148148148148],[-0.059375,-0.21481481481481482],[-0.059375,-0.2037037037037037],[-0.059375,-0.19444444444444445],[-0.059375,-0.18888888888888888],[-0.059375,-0.18333333333333332],[-0.059375,-0.18333333333333332],[-0.059375,-0.18333333333333332],[-0.059375,-0.18333333333333332],[-0.059375,-0.18333333333333332],[-0.059375,-0.18333333333333332],[-0.059375,-0.18333333333333332],[-0.059375,-0.18333333333333332],[-0.059375,-0.18333333333333332],[-0.059375,-0.18333333333333332],[-0.059375,-0.18333333333333332],[-0.059375,-0.18333333333333332],[-0.059375,-0.18333333333333332],[-0.059375,-0.18333333333333332],[-0.059375,-0.18333333333333332],[-0.059375,-0.18333333333333332],[-0.059375,-0.18333333333333332],[-0.059375,-0.18333333333333332],[-0.059375,-0.18333333333333332],[-0.059375,-0.18333333333333332],[-0.059375,-0.18333333333333332],[-0.059375,-0.18333333333333332],[-0.058333333333333334,-0.17962962962962964],[-0.05625,-0.17037037037037037],[-0.051041666666666666,-0.15],[-0.04583333333333333,-0.1259259259259259],[-0.042708333333333334,-0.1111111111111111],[-0.042708333333333334,-0.1037037037037037],[-0.042708333333333334,-0.0962962962962963],[-0.042708333333333334,-0.09074074074074075],[-0.041666666666666664,-0.08148148148148149],[-0.040625,-0.07037037037037037],[-0.03958333333333333,-0.06111111111111111],[-0.03854166666666667,-0.04814814814814815],[-0.036458333333333336,-0.03148148148148148],[-0.03333333333333333,-0.014814814814814815],[-0.03333333333333333,-0.011111111111111112],[-0.03125,-0.003703703703703704],[-0.03125,0.005555555555555556],[-0.030208333333333334,0.016666666666666666],[-0.030208333333333334,0.024074074074074074],[-0.030208333333333334,0.03518518518518519],[-0.030208333333333334,0.04259259259259259],[-0.030208333333333334,0.04259259259259259],[-0.030208333333333334,0.04259259259259259],[-0.030208333333333334,0.04259259259259259],[-0.030208333333333334,0.04259259259259259],[-0.030208333333333334,0.04259259259259259],[-0.030208333333333334,0.04259259259259259],[-0.030208333333333334,0.040740740740740744],[-0.035416666666666666,0.025925925925925925],[-0.0375,0.022222222222222223],[-0.03958333333333333,0.012962962962962963],[-0.04479166666666667,-0.007407407407407408],[-0.04895833333333333,-0.024074074074074074],[-0.05,-0.03333333333333333],[-0.052083333333333336,-0.044444444444444446],[-0.053125,-0.05185185185185185],[-0.05520833333333333,-0.05555555555555555],[-0.05520833333333333,-0.05925925925925926],[-0.05625,-0.06666666666666667],[-0.05625,-0.06851851851851852],[-0.05625,-0.07407407407407407],[-0.058333333333333334,-0.07962962962962963],[-0.058333333333333334,-0.08148148148148149],[-0.058333333333333334,-0.08333333333333333],[-0.058333333333333334,-0.08703703703703704],[-0.058333333333333334,-0.08888888888888889],[-0.058333333333333334,-0.09074074074074075],[-0.058333333333333334,-0.09074074074074075],[-0.058333333333333334,-0.09074074074074075],[-0.058333333333333334,-0.09259259259259259],[-0.058333333333333334,-0.09259259259259259],[-0.058333333333333334,-0.09259259259259259],[-0.058333333333333334,-0.09259259259259259],[-0.058333333333333334,-0.09259259259259259],[-0.058333333333333334,-0.09259259259259259],[-0.058333333333333334,-0.09259259259259259],[-0.058333333333333334,-0.09259259259259259],[-0.053125,-0.0962962962962963],[-0.04791666666666667,-0.0962962962962963],[-0.041666666666666664,-0.0962962962962963],[-0.034375,-0.0962962962962963],[-0.022916666666666665,-0.0962962962962963],[-0.014583333333333334,-0.0962962962962963],[-0.00625,-0.0962962962962963],[0.0020833333333333333,-0.0962962962962963],[0.011458333333333333,-0.0962962962962963],[0.01875,-0.0962962962962963],[0.030208333333333334,-0.0962962962962963],[0.035416666666666666,-0.0962962962962963],[0.03958333333333333,-0.0962962962962963],[0.04375,-0.0962962962962963],[0.04791666666666667,-0.0962962962962963],[0.052083333333333336,-0.0962962962962963],[0.05625,-0.0962962962962963],[0.06354166666666666,-0.0962962962962963],[0.065625,-0.0962962962962963],[0.06979166666666667,-0.0962962962962963],[0.071875,-0.0962962962962963],[0.07604166666666666,-0.0962962962962963],[0.078125,-0.0962962962962963],[0.07916666666666666,-0.0962962962962963],[0.08229166666666667,-0.0962962962962963],[0.08333333333333333,-0.0962962962962963],[0.08333333333333333,-0.0962962962962963],[0.084375,-0.0962962962962963],[0.084375,-0.0962962962962963],[0.084375,-0.0962962962962963],[0.084375,-0.0962962962962963],[0.084375,-0.0962962962962963],[0.084375,-0.0962962962962963],[0.084375,-0.09814814814814815],[0.084375,-0.1037037037037037],[0.084375,-0.1111111111111111],[0.084375,-0.11851851851851852],[0.084375,-0.12777777777777777],[0.084375,-0.13703703703703704],[0.08333333333333333,-0.14444444444444443],[0.08229166666666667,-0.15185185185185185],[0.08125,-0.15555555555555556],[0.08020833333333334,-0.16111111111111112],[0.07916666666666666,-0.16296296296296298],[0.07916666666666666,-0.16666666666666666],[0.07916666666666666,-0.1685185185185185],[0.07604166666666666,-0.17407407407407408],[0.07604166666666666,-0.17407407407407408],[0.075,-0.17962962962962964],[0.07395833333333333,-0.18333333333333332],[0.071875,-0.18703703703703703],[0.07083333333333333,-0.18888888888888888],[0.06875,-0.19444444444444445],[0.06875,-0.1962962962962963],[0.06666666666666667,-0.19814814814814816],[0.06458333333333334,-0.20185185185185187],[0.06458333333333334,-0.2037037037037037],[0.06354166666666666,-0.20555555555555555],[0.06145833333333333,-0.2074074074074074],[0.06041666666666667,-0.2111111111111111],[0.059375,-0.2111111111111111],[0.058333333333333334,-0.21296296296296297],[0.058333333333333334,-0.21296296296296297],[0.058333333333333334,-0.21296296296296297],[0.058333333333333334,-0.21296296296296297],[0.058333333333333334,-0.21296296296296297],[0.058333333333333334,-0.21296296296296297],[0.057291666666666664,-0.21296296296296297],[0.057291666666666664,-0.21296296296296297],[0.057291666666666664,-0.21296296296296297],[0.057291666666666664,-0.21296296296296297],[0.057291666666666664,-0.2074074074074074],[0.057291666666666664,-0.18703703703703703],[0.057291666666666664,-0.17037037037037037],[0.058333333333333334,-0.14814814814814814],[0.06041666666666667,-0.12777777777777777],[0.0625,-0.1037037037037037],[0.06354166666666666,-0.08333333333333333],[0.06666666666666667,-0.05740740740740741],[0.06666666666666667,-0.03333333333333333],[0.06770833333333333,-0.012962962962962963],[0.06770833333333333,0.009259259259259259],[0.06875,0.03518518518518519],[0.06875,0.04814814814814815],[0.06875,0.05925925925925926],[0.06875,0.07222222222222222],[0.06875,0.08518518518518518],[0.06875,0.10185185185185185],[0.06458333333333334,0.11481481481481481],[0.06041666666666667,0.12962962962962962],[0.058333333333333334,0.1388888888888889],[0.05625,0.1425925925925926],[0.05520833333333333,0.14814814814814814],[0.05416666666666667,0.15],[0.053125,0.15185185185185185],[0.051041666666666666,0.15925925925925927],[0.051041666666666666,0.15925925925925927],[0.05,0.16296296296296298],[0.05,0.16296296296296298],[0.04895833333333333,0.16666666666666666],[0.04895833333333333,0.17037037037037037],[0.04791666666666667,0.17222222222222222],[0.046875,0.17407407407407408],[0.04583333333333333,0.17777777777777778],[0.04479166666666667,0.1814814814814815],[0.04375,0.18518518518518517],[0.042708333333333334,0.18518518518518517],[0.042708333333333334,0.18703703703703703],[0.042708333333333334,0.18888888888888888],[0.042708333333333334,0.18888888888888888],[0.042708333333333334,0.18888888888888888],[0.042708333333333334,0.18888888888888888],[0.042708333333333334,0.18888888888888888],[0.042708333333333334,0.18888888888888888],[0.042708333333333334,0.18888888888888888],[0.042708333333333334,0.18888888888888888],[0.042708333333333334,0.18888888888888888],[0.042708333333333334,0.18888888888888888],[0.042708333333333334,0.18888888888888888],[0.042708333333333334,0.18888888888888888],[0.042708333333333334,0.18888888888888888],[0.042708333333333334,0.18888888888888888],[0.042708333333333334,0.18888888888888888],[0.042708333333333334,0.18888888888888888],[0.042708333333333334,0.18888888888888888],[0.042708333333333334,0.18888888888888888],[0.042708333333333334,0.18888888888888888],[0.042708333333333334,0.18888888888888888],[0.042708333333333334,0.18888888888888888],[0.042708333333333334,0.18888888888888888],[0.042708333333333334,0.18888888888888888],[0.042708333333333334,0.18888888888888888],[0.042708333333333334,0.18888888888888888],[0.042708333333333334,0.18888888888888888],[0.042708333333333334,0.18888888888888888],[0.042708333333333334,0.18888888888888888],[0.042708333333333334,0.18888888888888888],[0.042708333333333334,0.18888888888888888],[0.042708333333333334,0.18888888888888888],[0.042708333333333334,0.18888888888888888],[0.042708333333333334,0.18888888888888888],[0.042708333333333334,0.18888888888888888],[0.042708333333333334,0.18888888888888888],[0.042708333333333334,0.18888888888888888],[0.042708333333333334,0.18888888888888888],[0.042708333333333334,0.18888888888888888],[0.042708333333333334,0.18888888888888888],[0.042708333333333334,0.18888888888888888],[0.042708333333333334,0.18888888888888888],[0.042708333333333334,0.18888888888888888],[0.042708333333333334,0.18888888888888888],[0.042708333333333334,0.18888888888888888],[0.042708333333333334,0.18888888888888888],[0.042708333333333334,0.18888888888888888],[0.042708333333333334,0.18888888888888888],[0.042708333333333334,0.18888888888888888],[0.042708333333333334,0.18888888888888888],[0.042708333333333334,0.18888888888888888],[0.042708333333333334,0.18888888888888888],[0.042708333333333334,0.18888888888888888],[0.042708333333333334,0.18888888888888888],[0.042708333333333334,0.18888888888888888],[0.042708333333333334,0.18888888888888888],[0.042708333333333334,0.18888888888888888],[0.042708333333333334,0.18888888888888888],[0.042708333333333334,0.18888888888888888],[0.042708333333333334,0.18888888888888888],[0.042708333333333334,0.18888888888888888],[0.042708333333333334,0.18888888888888888],[0.042708333333333334,0.18888888888888888],[0.042708333333333334,0.18888888888888888],[0.042708333333333334,0.18888888888888888],[0.042708333333333334,0.18888888888888888],[0.042708333333333334,0.18888888888888888],[0.042708333333333334,0.18888888888888888],[0.042708333333333334,0.18888888888888888],[0.042708333333333334,0.18888888888888888],[0.042708333333333334,0.18888888888888888],[0.042708333333333334,0.18888888888888888],[0.042708333333333334,0.18888888888888888],[0.042708333333333334,0.18888888888888888],[0.042708333333333334,0.18888888888888888],[0.042708333333333334,0.18888888888888888],[0.042708333333333334,0.18888888888888888],[0.042708333333333334,0.18888888888888888],[0.042708333333333334,0.18888888888888888],[0.042708333333333334,0.18888888888888888],[0.042708333333333334,0.18888888888888888],[0.042708333333333334,0.18888888888888888],[0.042708333333333334,0.18888888888888888],[0.042708333333333334,0.18888888888888888],[0.042708333333333334,0.18888888888888888],[0.042708333333333334,0.18888888888888888],[0.042708333333333334,0.18888888888888888],[0.042708333333333334,0.18888888888888888],[0.042708333333333334,0.18888888888888888],[0.042708333333333334,0.18888888888888888],[0.042708333333333334,0.18888888888888888],[0.042708333333333334,0.18888888888888888],[0.042708333333333334,0.18888888888888888],[0.042708333333333334,0.18888888888888888],[0.042708333333333334,0.18888888888888888],[0.042708333333333334,0.18888888888888888],[0.042708333333333334,0.18888888888888888],[0.042708333333333334,0.18888888888888888],[0.042708333333333334,0.18888888888888888],[0.042708333333333334,0.18888888888888888],[0.042708333333333334,0.18888888888888888],[0.042708333333333334,0.18888888888888888],[0.042708333333333334,0.18888888888888888],[0.042708333333333334,0.18888888888888888],[0.042708333333333334,0.18888888888888888],[0.042708333333333334,0.18888888888888888],[0.042708333333333334,0.18888888888888888],[0.042708333333333334,0.18888888888888888],[0.042708333333333334,0.18888888888888888],[0.042708333333333334,0.18888888888888888],[0.042708333333333334,0.18888888888888888],[0.042708333333333334,0.18888888888888888],[0.042708333333333334,0.18888888888888888],[0.042708333333333334,0.18888888888888888],[0.042708333333333334,0.18888888888888888],[0.042708333333333334,0.18888888888888888],[0.042708333333333334,0.18888888888888888],[0.042708333333333334,0.18888888888888888],[0.042708333333333334,0.18888888888888888],[0.042708333333333334,0.18888888888888888],[0.042708333333333334,0.18888888888888888],[0.042708333333333334,0.18888888888888888],[0.042708333333333334,0.18888888888888888],[0.042708333333333334,0.18888888888888888],[0.042708333333333334,0.18888888888888888],[0.042708333333333334,0.18888888888888888],[0.042708333333333334,0.18888888888888888],[0.042708333333333334,0.18888888888888888],[0.042708333333333334,0.18888888888888888],[0.042708333333333334,0.18888888888888888],[0.042708333333333334,0.18888888888888888],[0.042708333333333334,0.18888888888888888],[0.042708333333333334,0.18888888888888888],[0.042708333333333334,0.18888888888888888],[0.042708333333333334,0.18888888888888888],[0.042708333333333334,0.18888888888888888],[0.042708333333333334,0.18888888888888888],[0.042708333333333334,0.18888888888888888],[0.042708333333333334,0.18888888888888888],[0.042708333333333334,0.18888888888888888],[0.042708333333333334,0.18888888888888888],[0.042708333333333334,0.18888888888888888],[0.042708333333333334,0.18888888888888888],[0.042708333333333334,0.18888888888888888],[0.042708333333333334,0.18888888888888888],[0.042708333333333334,0.18888888888888888],[0.042708333333333334,0.18888888888888888],[0.042708333333333334,0.18888888888888888],[0.042708333333333334,0.18888888888888888],[0.042708333333333334,0.18888888888888888],[0.042708333333333334,0.18888888888888888],[0.042708333333333334,0.18888888888888888],[0.042708333333333334,0.18888888888888888],[0.042708333333333334,0.18888888888888888],[0.042708333333333334,0.18888888888888888],[0.042708333333333334,0.18888888888888888],[0.042708333333333334,0.18888888888888888],[0.042708333333333334,0.18888888888888888],[0.042708333333333334,0.18888888888888888],[0.042708333333333334,0.18888888888888888],[0.042708333333333334,0.18888888888888888],[0.042708333333333334,0.18888888888888888],[0.042708333333333334,0.18888888888888888],[0.042708333333333334,0.18888888888888888],[0.042708333333333334,0.18888888888888888],[0.042708333333333334,0.18888888888888888],[0.042708333333333334,0.18888888888888888],[0.042708333333333334,0.18888888888888888],[0.042708333333333334,0.18888888888888888],[0.042708333333333334,0.18888888888888888],[0.042708333333333334,0.18888888888888888],[0.042708333333333334,0.18888888888888888],[0.042708333333333334,0.18703703703703703],[0.042708333333333334,0.1814814814814815],[0.042708333333333334,0.17962962962962964],[0.042708333333333334,0.17962962962962964],[0.042708333333333334,0.17777777777777778],[0.04375,0.17592592592592593],[0.04375,0.17592592592592593],[0.04479166666666667,0.17407407407407408],[0.04479166666666667,0.17037037037037037],[0.04479166666666667,0.17037037037037037],[0.04583333333333333,0.1685185185185185],[0.04583333333333333,0.1685185185185185],[0.046875,0.16666666666666666],[0.046875,0.16666666666666666],[0.046875,0.16666666666666666],[0.04791666666666667,0.1648148148148148],[0.04791666666666667,0.1648148148148148],[0.04791666666666667,0.1648148148148148],[0.04895833333333333,0.16296296296296298],[0.051041666666666666,0.16296296296296298]]","[[-0.09781249999999998,0.28166666666666673],[-0.09781249999999998,0.28166666666666673],[-0.07687499999999996,0.27240740740740743],[-0.07687499999999996,0.27240740740740743],[-0.05479166666666669,0.29611111111111105],[-0.052083333333333336,0.3103703703703704],[-0.04354166666666662,0.3118518518518518],[-0.01854166666666662,0.3248148148148148],[-0.03197916666666671,0.2992592592592593],[-0.05499999999999995,0.27925925925925915],[-0.09833333333333331,0.25500000000000006],[-0.1063541666666667,0.21814814814814806],[-0.11760416666666665,0.259074074074074],[-0.11760416666666665,0.259074074074074],[-0.15104166666666666,0.25018518518518523],[-0.1694791666666667,0.2175925925925926],[-0.1694791666666667,0.2175925925925926],[-0.16666666666666666,0.18111111111111103],[-0.16666666666666666,0.18111111111111103],[-0.16510416666666666,0.15685185185185194],[-0.20447916666666663,0.12518518518518523],[-0.22760416666666666,0.11648148148148144],[-0.22427083333333328,0.11740740740740736],[-0.2171875,0.13037037037037033],[-0.2101041666666667,0.14333333333333328],[-0.21906249999999997,0.18203703703703694],[-0.2280208333333333,0.22074074074074082],[-0.2280208333333333,0.21388888888888888],[-0.22989583333333338,0.22037037037037038],[-0.23427083333333332,0.2442592592592592],[-0.23427083333333332,0.2442592592592592],[-0.20093749999999996,0.2242592592592593],[-0.18406250000000005,0.2598148148148147],[-0.18406250000000005,0.2801851851851851],[-0.18229166666666666,0.2801851851851851],[-0.1805208333333333,0.2801851851851851],[-0.15354166666666663,0.2270370370370371],[-0.12541666666666665,0.175],[-0.14281250000000004,0.18499999999999997],[-0.16020833333333329,0.19499999999999992],[-0.1727083333333333,0.18222222222222217],[-0.1984375,0.20925925925925926],[-0.20499999999999996,0.16574074074074074],[-0.20499999999999996,0.16574074074074074],[-0.21302083333333333,0.1198148148148149],[-0.21218750000000006,0.11685185185185189],[-0.21041666666666667,0.10481481481481486],[-0.22104166666666672,0.10555555555555556],[-0.22104166666666672,0.10555555555555556],[-0.22281249999999997,0.1051851851851851],[-0.22281249999999997,0.1051851851851851],[-0.18781249999999997,0.10462962962962963],[-0.18781249999999997,0.10462962962962963],[-0.1688541666666667,0.13944444444444437],[-0.16135416666666663,0.16074074074074066],[-0.16135416666666663,0.16074074074074066],[-0.1376041666666667,0.14870370370370362],[-0.1376041666666667,0.14870370370370362],[-0.1336458333333333,0.14722222222222223],[-0.1336458333333333,0.14722222222222223],[-0.10406249999999997,0.18333333333333332],[-0.10583333333333336,0.16944444444444445],[-0.09739583333333333,0.17407407407407408],[-0.0889583333333333,0.1787037037037037],[-0.07552083333333333,0.19703703703703698],[-0.06666666666666667,0.20759259259259263],[-0.04572916666666664,0.17907407407407416],[-0.04572916666666664,0.17907407407407416],[-0.020937500000000022,0.1685185185185185],[-0.017604166666666643,0.18425925925925926],[-0.017604166666666643,0.18425925925925926],[-0.007604166666666619,0.2170370370370371],[-0.015312500000000047,0.18351851851851855],[0.00302083333333331,0.18796296296296297],[0.00302083333333331,0.18796296296296297],[0.0109375,0.18518518518518517],[0.0109375,0.18518518518518517],[0.008333333333333333,0.1698148148148149],[0.008333333333333333,0.1698148148148149],[-0.02302083333333336,0.13907407407407413],[-0.05927083333333331,0.11462962962962958],[-0.09156249999999998,0.09388888888888898],[-0.08718750000000004,0.09166666666666666],[-0.07760416666666667,0.09648148148148153],[-0.07760416666666667,0.09648148148148153],[-0.07854166666666665,0.09499999999999992],[-0.07645833333333331,0.09351851851851851],[-0.0796875,0.08148148148148149],[-0.08624999999999995,0.05481481481481486],[-0.08229166666666667,0.040740740740740744],[-0.04114583333333333,0.0712962962962963],[-0.04114583333333333,0.0712962962962963],[-0.0265625,0.06333333333333342],[-0.0265625,0.06333333333333342],[-0.004999999999999952,0.057037037037036956],[0.009062500000000048,0.034074074074074034],[0.02312500000000005,0.011111111111111112],[0.04010416666666667,-0.009074074074074031],[0.03718750000000005,-0.009629629629629714],[0.04552083333333338,-0.0235185185185186],[0.0626041666666667,0.0003703703703704546],[0.078125,0.034074074074074034],[0.07020833333333343,0.024814814814814772],[0.08708333333333323,0.03462962962962971],[0.08729166666666661,0.03481481481481473],[0.06072916666666662,0.02370370370370362],[0.06072916666666662,0.02370370370370362],[0.035625000000000046,0.01185185185185181],[0.021041666666666715,-0.01648148148148144],[0.028854166666666715,-0.003703703703703704],[0.028854166666666715,-0.003703703703703704],[0.024374999999999977,0.021481481481481525],[0.024374999999999977,0.021481481481481525],[0.002708333333333357,0.02111111111111107],[0.0078125,0.003333333333333249],[-0.011979166666666667,-0.013888888888888888],[-0.011979166666666667,-0.013888888888888888],[-0.009895833333333333,-0.007777777777777862],[-0.005624999999999976,-0.004444444444444402],[0.012395833333333309,0.014629629629629588],[0.012395833333333309,0.014629629629629588],[0.021562500000000047,0.037037037037037035],[0.044375000000000026,0.08092592592592601],[0.03427083333333331,0.06222222222222226],[0.04624999999999998,0.06055555555555564],[0.06927083333333334,0.05907407407407403],[0.06708333333333343,0.06518518518518526],[0.06572916666666669,0.0507407407407407],[0.05354166666666664,0.036666666666666584],[0.065625,0.03592592592592588],[0.065625,0.03592592592592588],[0.03729166666666662,0.002962962962963005],[0.06062500000000005,0.01185185185185181],[0.07354166666666657,0.006296296296296254],[0.09874999999999995,0.03759259259259251],[0.09333333333333324,0.04259259259259259],[0.09333333333333324,0.04259259259259259],[0.07489583333333343,0.028888888888888933],[0.07489583333333343,0.028888888888888933],[0.07260416666666672,0.0242592592592593],[0.08989583333333329,0.03092592592592601],[0.10458333333333343,0.03592592592592588],[0.08645833333333333,0.029259259259259176],[0.10760416666666663,0.07166666666666675],[0.08447916666666658,0.06962962962962967],[0.06593749999999995,0.05740740740740741],[0.05604166666666662,0.04129629629629621],[0.06656249999999998,0.04518518518518514],[0.09010416666666667,0.06777777777777783],[0.090625,0.09425925925925922],[0.09562499999999995,0.1294444444444444],[0.08458333333333339,0.12166666666666676],[0.0953125,0.15481481481481485],[0.07479166666666662,0.1359259259259259],[0.07708333333333334,0.16055555555555565],[0.07906250000000009,0.19574074074074083],[0.0626041666666667,0.19518518518518516],[0.049687500000000044,0.2],[0.034791666666666644,0.18074074074074079],[0.02677083333333338,0.1485185185185186],[0.01260416666666669,0.13259259259259262],[0.02354166666666669,0.14222222222222214],[0.04572916666666664,0.1388888888888889],[0.08416666666666663,0.16444444444444437],[0.058541666666666714,0.13555555555555565],[0.03291666666666669,0.10666666666666672],[0.04541666666666669,0.11037037037037041],[0.04354166666666662,0.09888888888888885],[0.04354166666666662,0.09888888888888885],[0.04364583333333331,0.11148148148148157],[0.04364583333333331,0.11148148148148157],[0.05677083333333333,0.14388888888888898],[0.05677083333333333,0.14388888888888898],[0.06854166666666663,0.1527777777777778],[0.06854166666666663,0.1527777777777778],[0.07625000000000005,0.16944444444444445],[0.07625000000000005,0.16944444444444445],[0.075,0.1838888888888888],[0.075,0.1838888888888888],[0.0578125,0.1766666666666666],[0.10135416666666662,0.1985185185185186],[0.14489583333333325,0.22037037037037038],[0.14489583333333325,0.22037037037037038],[0.1609375,0.23166666666666672],[0.17677083333333338,0.22888888888888892],[0.19260416666666677,0.22611111111111115],[0.19260416666666677,0.22611111111111115],[0.18229166666666666,0.19574074074074083],[0.17760416666666667,0.1675925925925926],[0.16687500000000005,0.13277777777777786],[0.1553124999999999,0.09462962962962967],[0.15968749999999995,0.07814814814814823],[0.14458333333333329,0.04351851851851852],[0.1310416666666666,0.026666666666666623],[0.1290625000000001,0.019999999999999917],[0.115625,0.01518518518518527],[0.115625,0.01518518518518527],[0.08635416666666676,-0.019999999999999917],[0.08635416666666676,-0.019999999999999917],[0.09135416666666671,-0.026111111111111154],[0.11145833333333334,0.0020370370370370794],[0.13083333333333325,0.03759259259259251],[0.13531250000000009,0.04407407407407399],[0.12687499999999996,0.026481481481481398],[0.12385416666666677,0.028518518518518478],[0.1349999999999999,0.015555555555555513],[0.12041666666666657,-0.014259259259259343],[0.12364583333333339,-0.0301851851851851],[0.14260416666666675,-0.013518518518518435],[0.1404166666666666,-0.018148148148148063],[0.12145833333333324,-0.028703703703703703],[0.10250000000000009,-0.03925925925925934],[0.10270833333333323,-0.03944444444444436],[0.12635416666666663,-0.0007407407407406986],[0.14187500000000006,0.007037037037036953],[0.14166666666666666,0.012037037037037037],[0.1634375000000001,0.03740740740740749],[0.18885416666666663,0.07296296296296292],[0.20822916666666677,0.10870370370370379],[0.2209374999999999,0.12407407407407407],[0.24541666666666656,0.11722222222222214],[0.24541666666666656,0.11722222222222214],[0.26458333333333334,0.11648148148148144],[0.2673958333333334,0.12185185185185177],[0.2633333333333333,0.10351851851851848],[0.2633333333333333,0.10351851851851848],[0.26197916666666665,0.09648148148148153],[0.2534374999999999,0.08962962962962959],[0.24864583333333337,0.08259259259259263],[0.2257291666666667,0.05462962962962963],[0.22135416666666666,0.04018518518518527],[0.20812499999999995,0.03851851851851843],[0.1859375,0.015000000000000043],[0.16906249999999995,-0.014629629629629588],[0.1554166666666667,-0.025925925925925925],[0.13812499999999991,-0.02833333333333325],[0.12177083333333343,-0.05240740740740743],[0.11260416666666657,-0.07666666666666662],[0.10447916666666662,-0.0816666666666667],[0.1046875,-0.07759259259259255],[0.09166666666666666,-0.08962962962962959],[0.10822916666666677,-0.08555555555555554],[0.12552083333333333,-0.06074074074074076],[0.12552083333333333,-0.06074074074074076],[0.14791666666666667,-0.025925925925925925],[0.1493750000000001,-0.02370370370370362],[0.16124999999999995,-0.010740740740740657],[0.1803124999999999,0.030000000000000086],[0.19052083333333342,0.0551851851851851],[0.19718749999999996,0.05944444444444449],[0.21166666666666673,0.06888888888888897],[0.21395833333333342,0.05481481481481486],[0.20437500000000006,0.05018518518518523],[0.20437500000000006,0.05018518518518523],[0.19541666666666657,0.04537037037037037],[0.1837500000000001,0.046481481481481526],[0.1837500000000001,0.046481481481481526],[0.18333333333333332,0.04796296296296292],[0.18333333333333332,0.04796296296296292],[0.16041666666666668,0.03685185185185181],[0.1271874999999999,-0.0005555555555554713],[0.10281250000000004,-0.02240740740740745],[0.0818749999999999,-0.022777777777777692],[0.04072916666666669,-0.03796296296296296],[0.01260416666666669,-0.0294444444444444],[-0.0015625,-0.018888888888888972],[-0.017708333333333333,0.0025925925925925505],[-0.04677083333333331,-0.03981481481481482],[-0.06447916666666664,-0.0690740740740741],[-0.07437499999999998,-0.09592592592592594],[-0.07583333333333328,-0.06388888888888888],[-0.07729166666666672,-0.03185185185185194],[-0.10822916666666664,-0.02296296296296292],[-0.1267708333333334,-0.004444444444444402],[-0.15437500000000004,-0.0003703703703704546],[-0.19812500000000005,-0.01629629629629621],[-0.2257291666666667,-0.029814814814814856],[-0.24281250000000001,0.004629629629629629],[-0.2530208333333333,0.03166666666666671],[-0.2534374999999999,0.05925925925925926],[-0.26510416666666664,0.07074074074074083],[-0.27677083333333335,0.08222222222222218],[-0.26197916666666665,0.08296296296296288],[-0.24895833333333334,0.07796296296296301],[-0.21927083333333333,0.09055555555555551],[-0.18958333333333333,0.10314814814814824],[-0.18958333333333333,0.10314814814814824],[-0.18104166666666663,0.09407407407407399],[-0.18104166666666663,0.09407407407407399],[-0.18333333333333332,0.08722222222222227],[-0.18333333333333332,0.08722222222222227],[-0.1935416666666666,0.08296296296296288],[-0.1935416666666666,0.08296296296296288],[-0.20114583333333336,0.08666666666666659],[-0.20114583333333336,0.08666666666666659],[-0.1788541666666667,0.06814814814814807],[-0.1788541666666667,0.06814814814814807],[-0.14395833333333338,0.04944444444444453],[-0.14395833333333338,0.04944444444444453],[-0.10718749999999998,0.05222222222222231],[-0.05458333333333331,0.08092592592592601],[-0.009583333333333381,0.10648148148148148],[0.02822916666666669,0.11462962962962958],[0.06322916666666671,0.12314814814814815],[0.10750000000000005,0.11611111111111119],[0.10750000000000005,0.11611111111111119],[0.15281250000000005,0.11388888888888889],[0.1935416666666666,0.12148148148148152],[0.2193749999999999,0.1287037037037037],[0.2326041666666666,0.1361111111111111],[0.24572916666666675,0.1359259259259259],[0.2522916666666667,0.11370370370370367],[0.25885416666666666,0.09148148148148144],[0.24541666666666656,0.08203703703703695],[0.2423958333333334,0.07037037037037037],[0.22156250000000005,0.05740740740740741],[0.22156250000000005,0.05740740740740741],[0.21770833333333334,0.03555555555555564],[0.21770833333333334,0.03555555555555564],[0.2015625,-0.004629629629629629],[0.17937500000000003,-0.03592592592592588],[0.1571875000000001,-0.06722222222222224],[0.128125,-0.10537037037037032],[0.09156250000000009,-0.14166666666666666],[0.06864583333333343,-0.16962962962962966],[0.07020833333333343,-0.20481481481481487],[0.06343749999999998,-0.22962962962962963],[0.07072916666666676,-0.2577777777777778],[0.06906249999999996,-0.25555555555555554],[0.07614583333333323,-0.25388888888888894],[0.09229166666666658,-0.23703703703703705],[0.10843749999999991,-0.22018518518518515],[0.10843749999999991,-0.22018518518518515],[0.1118750000000001,-0.22407407407407406],[0.1212500000000001,-0.21222222222222226],[0.11697916666666662,-0.20870370370370367],[0.11541666666666663,-0.1933333333333333],[0.12531249999999997,-0.19129629629629633],[0.14052083333333343,-0.1712962962962963],[0.14395833333333338,-0.16722222222222224],[0.1397916666666667,-0.1705555555555556],[0.12260416666666671,-0.19796296296296292],[0.11281249999999995,-0.2175925925925926],[0.11072916666666661,-0.207962962962963],[0.115625,-0.19611111111111107],[0.12052083333333338,-0.18425925925925926],[0.12156250000000005,-0.18462962962962962],[0.12791666666666662,-0.16074074074074077],[0.134375,-0.12296296296296293],[0.14458333333333329,-0.09074074074074075],[0.15479166666666658,-0.06425925925925924],[0.1650000000000001,-0.03777777777777774],[0.1756249999999999,-0.02111111111111107],[0.1946875000000001,-0.005740740740740783],[0.18718750000000003,-0.012037037037037037],[0.1796875,-0.018333333333333292],[0.19500000000000003,-0.009814814814814731],[0.19500000000000003,-0.009814814814814731],[0.20062499999999991,-0.012222222222222264],[0.18156249999999996,-0.03481481481481473],[0.1625,-0.05740740740740741],[0.14968750000000006,-0.07925925925925928],[0.1368750000000001,-0.10111111111111115],[0.11427083333333338,-0.1161111111111111],[0.09166666666666666,-0.13111111111111112],[0.08614583333333338,-0.15333333333333335],[0.06812500000000009,-0.19222222222222224],[0.03114583333333331,-0.2337037037037037],[-0.00635416666666669,-0.2727777777777778],[-0.019270833333333334,-0.3055555555555556],[-0.014583333333333334,-0.32018518518518513],[-0.008541666666666715,-0.3224074074074075],[-0.007604166666666619,-0.31851851851851853],[-0.0046875,-0.3194444444444444],[-0.005520833333333286,-0.32018518518518513],[-0.009791666666666643,-0.30999999999999994],[-0.007395833333333357,-0.2927777777777778],[-0.007395833333333357,-0.2927777777777778],[0.005104166666666643,-0.26537037037037037],[0.0265625,-0.2338888888888889],[0.04083333333333338,-0.22444444444444442],[0.04500000000000005,-0.21814814814814817],[0.043437500000000046,-0.20907407407407402],[0.050625000000000024,-0.20833333333333334],[0.0578125,-0.20759259259259263],[0.06708333333333343,-0.21666666666666667],[0.06708333333333343,-0.21666666666666667],[0.07510416666666657,-0.20999999999999996],[0.08895833333333343,-0.19370370370370374],[0.08552083333333324,-0.18314814814814812],[0.08552083333333324,-0.18314814814814812],[0.07833333333333338,-0.2088888888888889],[0.0818749999999999,-0.1911111111111111],[0.07374999999999995,-0.18833333333333332],[0.07374999999999995,-0.18833333333333332],[0.07687499999999996,-0.17333333333333337],[0.06239583333333331,-0.19148148148148145]]","[[-0.09781249999999998,0.28166666666666673,0.0003000001907338401],[-0.09781249999999998,0.28166666666666673,0.050300000190731],[-0.07687499999999996,0.27240740740740743,0.06499999999999773],[-0.07687499999999996,0.27240740740740743,0.08809999990462813],[-0.05479166666666669,0.29611111111111105,0.09430000019072793],[-0.052083333333333336,0.3103703703703704,0.11140000009537232],[-0.04354166666666662,0.3118518518518518,0.12840000009536823],[-0.01854166666666662,0.3248148148148148,0.14669999980925752],[-0.03197916666666671,0.2992592592592593,0.16100000000000136],[-0.05499999999999995,0.27925925925925915,0.17759999990462916],[-0.09833333333333331,0.25500000000000006,0.19430000019073645],[-0.1063541666666667,0.21814814814814806,0.21309999990462813],[-0.11760416666666665,0.259074074074074,0.2306999998092607],[-0.11760416666666665,0.259074074074074,0.2443000001907336],[-0.15104166666666666,0.25018518518518523,0.2644000000953639],[-0.1694791666666667,0.2175925925925926,0.27909999990463064],[-0.1694791666666667,0.2175925925925926,0.29440000009536504],[-0.16666666666666666,0.18111111111111103,0.31399999999999295],[-0.16666666666666666,0.18111111111111103,0.3276999998092691],[-0.16510416666666666,0.15685185185185194,0.3444999999999965],[-0.20447916666666663,0.12518518518518523,0.36080000019073566],[-0.22760416666666666,0.11648148148148144,0.3803000001907293],[-0.22427083333333328,0.11740740740740736,0.3959000000953665],[-0.2171875,0.13037037037037033,0.4106999998092675],[-0.2101041666666667,0.14333333333333328,0.4274000000953606],[-0.21906249999999997,0.18203703703703694,0.4440999999046369],[-0.2280208333333333,0.22074074074074082,0.4606999998092647],[-0.2280208333333333,0.21388888888888888,0.477400000095372],[-0.22989583333333338,0.22037037037037038,0.4944000000953679],[-0.23427083333333332,0.2442592592592592,0.5108000001907413],[-0.23427083333333332,0.2442592592592592,0.5315999999046284],[-0.20093749999999996,0.2242592592592593,0.5440999999046312],[-0.18406250000000005,0.2598148148148147,0.5634000000953705],[-0.18406250000000005,0.2801851851851851,0.5775000000000006],[-0.18229166666666666,0.2801851851851851,0.5969999999999942],[-0.1805208333333333,0.2801851851851851,0.6109000000953699],[-0.15354166666666663,0.2270370370370371,0.6274000000953635],[-0.12541666666666665,0.175,0.6444999999999936],[-0.14281250000000004,0.18499999999999997,0.661599999904638],[-0.16020833333333329,0.19499999999999992,0.6774000000953606],[-0.1727083333333333,0.18222222222222217,0.6940000000000026],[-0.1984375,0.20925925925925926,0.7129999999999939],[-0.20499999999999996,0.16574074074074074,0.7275999999046263],[-0.20499999999999996,0.16574074074074074,0.7441999998092683],[-0.21302083333333333,0.1198148148148149,0.7638000001907272],[-0.21218750000000006,0.11685185185185189,0.7794999999999987],[-0.21041666666666667,0.10481481481481486,0.7950000000000017],[-0.22104166666666672,0.10555555555555556,0.8134000000953705],[-0.22104166666666672,0.10555555555555556,0.8275999999046348],[-0.22281249999999997,0.1051851851851851,0.8444000000953622],[-0.22281249999999997,0.1051851851851851,0.8655999999046315],[-0.18781249999999997,0.10462962962962963,0.8776999998092663],[-0.18781249999999997,0.10462962962962963,0.8941999998092598],[-0.1688541666666667,0.13944444444444437,0.9109000000953671],[-0.16135416666666663,0.16074074074074066,0.9380999999046367],[-0.16135416666666663,0.16074074074074066,0.945999999999998],[-0.1376041666666667,0.14870370370370362,0.9610999999046328],[-0.1376041666666667,0.14870370370370362,0.9775999999046263],[-0.1336458333333333,0.14722222222222223,1.001099999904639],[-0.1336458333333333,0.14722222222222223,1.01109999990463],[-0.10406249999999997,0.18333333333333332,1.0275999999046377],[-0.10583333333333336,0.16944444444444445,1.0469000000953628],[-0.09739583333333333,0.17407407407407408,1.0625999999046343],[-0.0889583333333333,0.1787037037037037,1.0781999998092715],[-0.07552083333333333,0.19703703703703698,1.096099999904638],[-0.06666666666666667,0.20759259259259263,1.1121999998092633],[-0.04572916666666664,0.17907407407407416,1.132099999904625],[-0.04572916666666664,0.17907407407407416,1.1441999998092598],[-0.020937500000000022,0.1685185185185185,1.1645000000000039],[-0.017604166666666643,0.18425925925925926,1.1820000000000022],[-0.017604166666666643,0.18425925925925926,1.1944000000953707],[-0.007604166666666619,0.2170370370370371,1.2150999999046377],[-0.015312500000000047,0.18351851851851855,1.2309999999999945],[0.00302083333333331,0.18796296296296297,1.2479000000953704],[0.00302083333333331,0.18796296296296297,1.2609000000953614],[0.0109375,0.18518518518518517,1.2843000001907399],[0.0109375,0.18518518518518517,1.298099999904636],[0.008333333333333333,0.1698148148148149,1.3124000000953657],[0.008333333333333333,0.1698148148148149,1.332499999999996],[-0.02302083333333336,0.13907407407407413,1.344300000190728],[-0.05927083333333331,0.11462962962962958,1.3624999999999972],[-0.09156249999999998,0.09388888888888898,1.3811999998092688],[-0.08718750000000004,0.09166666666666666,1.3973000001907394],[-0.07760416666666667,0.09648148148148153,1.4201999998092703],[-0.07760416666666667,0.09648148148148153,1.4280999999046315],[-0.07854166666666665,0.09499999999999992,1.4480999999046276],[-0.07645833333333331,0.09351851851851851,1.4635999999046305],[-0.0796875,0.08148148148148149,1.478199999809263],[-0.08624999999999995,0.05481481481481486,1.494099999904634],[-0.08229166666666667,0.040740740740740744,1.5108000001907413],[-0.04114583333333333,0.0712962962962963,1.531099999904626],[-0.04114583333333333,0.0712962962962963,1.5440999999046312],[-0.0265625,0.06333333333333342,1.5608000001907385],[-0.0265625,0.06333333333333342,1.5774000000953663],[-0.004999999999999952,0.057037037037036956,1.5940999999046284],[0.009062500000000048,0.034074074074074034,1.6108000001907357],[0.02312500000000005,0.011111111111111112,1.6274000000953635],[0.04010416666666667,-0.009074074074074031,1.6444999999999936],[0.03718750000000005,-0.009629629629629714,1.6640000000000015],[0.04552083333333338,-0.0235185185185186,1.6799999999999926],[0.0626041666666667,0.0003703703703704546,1.696400000095366],[0.078125,0.034074074074074034,1.7109000000953642],[0.07020833333333343,0.024814814814814772,1.7309000000953603],[0.08708333333333323,0.03462962962962971,1.7450999999046388],[0.08729166666666661,0.03481481481481473,1.7641999998092643],[0.06072916666666662,0.02370370370370362,1.7825999999046331],[0.06072916666666662,0.02370370370370362,1.7941999998092655],[0.035625000000000046,0.01185185185185181,1.8109999999999928],[0.021041666666666715,-0.01648148148148144,1.8330999999046327],[0.028854166666666715,-0.003703703703703704,1.8479000000953647],[0.028854166666666715,-0.003703703703703704,1.8610000000000042],[0.024374999999999977,0.021481481481481525,1.877599999904632],[0.024374999999999977,0.021481481481481525,1.8969000000953713],[0.002708333333333357,0.02111111111111107,1.910900000095367],[0.0078125,0.003333333333333249,1.9301999998092612],[-0.011979166666666667,-0.013888888888888888,1.9550999999046326],[-0.011979166666666667,-0.013888888888888888,1.9639999999999986],[-0.009895833333333333,-0.007777777777777862,1.9775999999046263],[-0.005624999999999976,-0.004444444444444402,1.9945999999046364],[0.012395833333333309,0.014629629629629588,2.01409999990463],[0.012395833333333309,0.014629629629629588,2.0275999999046377],[0.021562500000000047,0.037037037037037035,2.044400000095365],[0.044375000000000026,0.08092592592592601,2.064400000095361],[0.03427083333333331,0.06222222222222226,2.0804000000953664],[0.04624999999999998,0.06055555555555564,2.0941999998092626],[0.06927083333333334,0.05907407407407403,2.111699999809261],[0.06708333333333343,0.06518518518518526,2.1274000000953635],[0.06572916666666669,0.0507407407407407,2.1440999999046255],[0.05354166666666664,0.036666666666666584,2.16419999980927],[0.065625,0.03592592592592588,2.1789000000953678],[0.065625,0.03592592592592588,2.1940000000000026],[0.03729166666666662,0.002962962962963005,2.213099999904628],[0.06062500000000005,0.01185185185185181,2.2275000000000063],[0.07354166666666657,0.006296296296296254,2.2441999998092683],[0.09874999999999995,0.03759259259259251,2.263300000190739],[0.09333333333333324,0.04259259259259259,2.2775999999046377],[0.09333333333333324,0.04259259259259259,2.294400000095365],[0.07489583333333343,0.028888888888888933,2.310999999999993],[0.07489583333333343,0.028888888888888933,2.330900000095369],[0.07260416666666672,0.0242592592592593,2.3441999998092626],[0.08989583333333329,0.03092592592592601,2.36090000009537],[0.10458333333333343,0.03592592592592588,2.3774999999999977],[0.08645833333333333,0.029259259259259176,2.3976999998092623],[0.10760416666666663,0.07166666666666675,2.410900000095367],[0.08447916666666658,0.06962962962962967,2.427599999904629],[0.06593749999999995,0.05740740740740741,2.444099999904637],[0.05604166666666662,0.04129629629629621,2.4646999998092696],[0.06656249999999998,0.04518518518518514,2.4791999998092678],[0.09010416666666667,0.06777777777777783,2.4943000001907336],[0.090625,0.09425925925925922,2.5108000001907413],[0.09562499999999995,0.1294444444444444,2.5298000001907326],[0.08458333333333339,0.12166666666666676,2.544400000095365],[0.0953125,0.15481481481481485,2.560999999999993],[0.07479166666666662,0.1359259259259259,2.5796999998092645],[0.07708333333333334,0.16055555555555565,2.5941999998092626],[0.07906250000000009,0.19574074074074083,2.61090000009537],[0.0626041666666667,0.19518518518518516,2.630599999904632],[0.049687500000000044,0.2,2.64530000019073],[0.034791666666666644,0.18074074074074079,2.660900000095367],[0.02677083333333338,0.1485185185185186,2.6795999999046387],[0.01260416666666669,0.13259259259259262,2.694099999904637],[0.02354166666666669,0.14222222222222214,2.7106999998092647],[0.04572916666666664,0.1388888888888889,2.72790000009536],[0.08416666666666663,0.16444444444444437,2.7439999999999998],[0.058541666666666714,0.13555555555555565,2.7626999998092714],[0.03291666666666669,0.10666666666666672,2.779900000095367],[0.04541666666666669,0.11037037037037041,2.793999999999997],[0.04354166666666662,0.09888888888888885,2.810699999809259],[0.04354166666666662,0.09888888888888885,2.8274000000953663],[0.04364583333333331,0.11148148148148157,2.8499999999999943],[0.04364583333333331,0.11148148148148157,2.86090000009537],[0.05677083333333333,0.14388888888888898,2.8774999999999977],[0.05677083333333333,0.14388888888888898,2.8978000001907276],[0.06854166666666663,0.1527777777777778,2.910900000095367],[0.06854166666666663,0.1527777777777778,2.927499999999995],[0.07625000000000005,0.16944444444444445,2.9521999998092667],[0.07625000000000005,0.16944444444444445,2.961099999904633],[0.075,0.1838888888888888,2.9775999999046263],[0.075,0.1838888888888888,2.9941999998092683],[0.0578125,0.1766666666666666,3.0145999999046325],[0.10135416666666662,0.1985185185185186,3.0294999999999987],[0.14489583333333325,0.22037037037037038,3.0481999998092704],[0.14489583333333325,0.22037037037037038,3.0634000000953705],[0.1609375,0.23166666666666672,3.077599999904635],[0.17677083333333338,0.22888888888888892,3.094999999999999],[0.19260416666666677,0.22611111111111115,3.11390000009537],[0.19260416666666677,0.22611111111111115,3.1274999999999977],[0.18229166666666666,0.19574074074074083,3.1443000001907393],[0.17760416666666667,0.1675925925925926,3.1651999998092606],[0.16687500000000005,0.13277777777777786,3.1798000001907383],[0.1553124999999999,0.09462962962962967,3.195699999809264],[0.15968749999999995,0.07814814814814823,3.2109000000953642],[0.14458333333333329,0.04351851851851852,3.230000000000004],[0.1310416666666666,0.026666666666666623,3.2475000000000023],[0.1290625000000001,0.019999999999999917,3.264400000095364],[0.115625,0.01518518518518527,3.2853000001907304],[0.115625,0.01518518518518527,3.294099999904631],[0.08635416666666676,-0.019999999999999917,3.310999999999993],[0.08635416666666676,-0.019999999999999917,3.3336999998092693],[0.09135416666666671,-0.026111111111111154,3.3441999998092626],[0.11145833333333334,0.0020370370370370794,3.36090000009537],[0.13083333333333325,0.03759259259259251,3.3788000001907363],[0.13531250000000009,0.04407407407407399,3.3976999998092623],[0.12687499999999996,0.026481481481481398,3.4125999999046286],[0.12385416666666677,0.028518518518518478,3.427499999999995],[0.1349999999999999,0.015555555555555513,3.446800000190734],[0.12041666666666657,-0.014259259259259343,3.464900000095369],[0.12364583333333339,-0.0301851851851851,3.480300000190738],[0.14260416666666675,-0.013518518518518435,3.497],[0.1404166666666666,-0.018148148148148063,3.5124000000953686],[0.12145833333333324,-0.028703703703703703,3.5286999998092625],[0.10250000000000009,-0.03925925925925934,3.544099999904631],[0.10270833333333323,-0.03944444444444436,3.5625999999046343],[0.12635416666666663,-0.0007407407407406986,3.577300000190732],[0.14187500000000006,0.007037037037036953,3.5944999999999965],[0.14166666666666666,0.012037037037037037,3.6125999999046314],[0.1634375000000001,0.03740740740740749,3.627300000190729],[0.18885416666666663,0.07296296296296292,3.6440000000000055],[0.20822916666666677,0.10870370370370379,3.663099999904631],[0.2209374999999999,0.12407407407407407,3.6795000000000044],[0.24541666666666656,0.11722222222222214,3.702699999809269],[0.24541666666666656,0.11722222222222214,3.7171999998092673],[0.26458333333333334,0.11648148148148144,3.727400000095372],[0.2673958333333334,0.12185185185185177,3.744099999904634],[0.2633333333333333,0.10351851851851848,3.762199999809269],[0.2633333333333333,0.10351851851851848,3.777400000095369],[0.26197916666666665,0.09648148148148153,3.794099999904631],[0.2534374999999999,0.08962962962962959,3.8108000001907385],[0.24864583333333337,0.08259259259259263,3.8274000000953663],[0.2257291666666667,0.05462962962962963,3.843999999999994],[0.22135416666666666,0.04018518518518527,3.8608000001907357],[0.20812499999999995,0.03851851851851843,3.8774000000953635],[0.1859375,0.015000000000000043,3.8940999999046255],[0.16906249999999995,-0.014629629629629588,3.9106999998092675],[0.1554166666666667,-0.025925925925925925,3.9274000000953606],[0.13812499999999991,-0.02833333333333325,3.944099999904637],[0.12177083333333343,-0.05240740740740743,3.9606999998092647],[0.11260416666666657,-0.07666666666666662,3.977400000095372],[0.10447916666666662,-0.0816666666666667,3.994099999904634],[0.1046875,-0.07759259259259255,4.010699999809262],[0.09166666666666666,-0.08962962962962959,4.027400000095369],[0.10822916666666677,-0.08555555555555554,4.046499999999995],[0.12552083333333333,-0.06074074074074076,4.063199999809271],[0.12552083333333333,-0.06074074074074076,4.077400000095366],[0.14791666666666667,-0.025925925925925925,4.094099999904628],[0.1493750000000001,-0.02370370370370362,4.11069999980927],[0.16124999999999995,-0.010740740740740657,4.1274000000953635],[0.1803124999999999,0.030000000000000086,4.1440999999046255],[0.19052083333333342,0.0551851851851851,4.163099999904631],[0.19718749999999996,0.05944444444444449,4.177900000095363],[0.21166666666666673,0.06888888888888897,4.194000000000003],[0.21395833333333342,0.05481481481481486,4.210699999809265],[0.20437500000000006,0.05018518518518523,4.227400000095372],[0.20437500000000006,0.05018518518518523,4.244099999904634],[0.19541666666666657,0.04537037037037037,4.260800000190741],[0.1837500000000001,0.046481481481481526,4.277400000095369],[0.1837500000000001,0.046481481481481526,4.294099999904631],[0.18333333333333332,0.04796296296296292,4.3108000001907385],[0.18333333333333332,0.04796296296296292,4.327400000095366],[0.16041666666666668,0.03685185185185181,4.344099999904628],[0.1271874999999999,-0.0005555555555554713,4.362099999904629],[0.10281250000000004,-0.02240740740740745,4.377300000190729],[0.0818749999999999,-0.022777777777777692,4.3940000000000055],[0.04072916666666669,-0.03796296296296296,4.410599999904633],[0.01260416666666669,-0.0294444444444444,4.427400000095361],[-0.0015625,-0.018888888888888972,4.444099999904637],[-0.017708333333333333,0.0025925925925925505,4.462400000095371],[-0.04677083333333331,-0.03981481481481482,4.477300000190738],[-0.06447916666666664,-0.0690740740740741,4.494],[-0.07437499999999998,-0.09592592592592594,4.510699999809262],[-0.07583333333333328,-0.06388888888888888,4.528099999904626],[-0.07729166666666672,-0.03185185185185194,4.544099999904631],[-0.10822916666666664,-0.02296296296296292,4.562199999809266],[-0.1267708333333334,-0.004444444444444402,4.577400000095366],[-0.15437500000000004,-0.0003703703703704546,4.593999999999994],[-0.19812500000000005,-0.01629629629629621,4.610800000190736],[-0.2257291666666667,-0.029814814814814856,4.6274000000953635],[-0.24281250000000001,0.004629629629629629,4.6440000000000055],[-0.2530208333333333,0.03166666666666671,4.663800000190733],[-0.2534374999999999,0.05925925925925926,4.677900000095363],[-0.26510416666666664,0.07074074074074083,4.694000000000003],[-0.27677083333333335,0.08222222222222218,4.7109999999999985],[-0.26197916666666665,0.08296296296296288,4.727400000095372],[-0.24895833333333334,0.07796296296296301,4.744],[-0.21927083333333333,0.09055555555555551,4.763099999904625],[-0.18958333333333333,0.10314814814814824,4.777300000190735],[-0.18958333333333333,0.10314814814814824,4.794099999904631],[-0.18104166666666663,0.09407407407407399,4.810699999809259],[-0.18104166666666663,0.09407407407407399,4.827400000095366],[-0.18333333333333332,0.08722222222222227,4.843999999999994],[-0.18333333333333332,0.08722222222222227,4.860800000190736],[-0.1935416666666666,0.08296296296296288,4.877499999999998],[-0.1935416666666666,0.08296296296296288,4.8940000000000055],[-0.20114583333333336,0.08666666666666659,4.9106999998092675],[-0.20114583333333336,0.08666666666666659,4.927400000095361],[-0.1788541666666667,0.06814814814814807,4.944099999904637],[-0.1788541666666667,0.06814814814814807,4.960699999809265],[-0.14395833333333338,0.04944444444444453,4.977400000095372],[-0.14395833333333338,0.04944444444444453,4.994],[-0.10718749999999998,0.05222222222222231,5.010699999809262],[-0.05458333333333331,0.08092592592592601,5.0305000000000035],[-0.009583333333333381,0.10648148148148148,5.043999999999997],[0.02822916666666669,0.11462962962962958,5.060699999809259],[0.06322916666666671,0.12314814814814815,5.077300000190732],[0.10750000000000005,0.11611111111111119,5.094099999904628],[0.10750000000000005,0.11611111111111119,5.11069999980927],[0.15281250000000005,0.11388888888888889,5.127499999999998],[0.1935416666666666,0.12148148148148152,5.1440999999046255],[0.2193749999999999,0.1287037037037037,5.162099999904626],[0.2326041666666666,0.1361111111111111,5.179199999809271],[0.24572916666666675,0.1359259259259259,5.194000000000003],[0.2522916666666667,0.11370370370370367,5.21059999990463],[0.25885416666666666,0.09148148148148144,5.228499999999997],[0.24541666666666656,0.08203703703703695,5.247099999904634],[0.2423958333333334,0.07037037037037037,5.26409999990463],[0.22156250000000005,0.05740740740740741,5.283599999904638],[0.22156250000000005,0.05740740740740741,5.295599999904638],[0.21770833333333334,0.03555555555555564,5.3108000001907385],[0.21770833333333334,0.03555555555555564,5.327599999904635],[0.2015625,-0.004629629629629629,5.344099999904628],[0.17937500000000003,-0.03592592592592588,5.363099999904634],[0.1571875000000001,-0.06722222222222224,5.379800000190741],[0.128125,-0.10537037037037032,5.395800000190732],[0.09156250000000009,-0.14166666666666666,5.4106999998092675],[0.06864583333333343,-0.16962962962962966,5.4273000001907405],[0.07020833333333343,-0.20481481481481487,5.444000000000003],[0.06343749999999998,-0.22962962962962963,5.460699999809265],[0.07072916666666676,-0.2577777777777778,5.477500000000006],[0.06906249999999996,-0.25555555555555554,5.495999999999995],[0.07614583333333323,-0.25388888888888894,5.510699999809262],[0.09229166666666658,-0.23703703703703705,5.527400000095369],[0.10843749999999991,-0.22018518518518515,5.554000000000002],[0.10843749999999991,-0.22018518518518515,5.561900000095363],[0.1118750000000001,-0.22407407407407406,5.57869999980926],[0.1212500000000001,-0.21222222222222226,5.595800000190735],[0.11697916666666662,-0.20870370370370367,5.61069999980927],[0.11541666666666663,-0.1933333333333333,5.627300000190729],[0.12531249999999997,-0.19129629629629633,5.644699999809262],[0.14052083333333343,-0.1712962962962963,5.6640000000000015],[0.14395833333333338,-0.16722222222222224,5.680199999809261],[0.1397916666666667,-0.1705555555555556,5.697500000000005],[0.12260416666666671,-0.19796296296296292,5.710699999809265],[0.11281249999999995,-0.2175925925925926,5.727300000190738],[0.11072916666666661,-0.207962962962963,5.744599999904636],[0.115625,-0.19611111111111107,5.762699999809271],[0.12052083333333338,-0.18425925925925926,5.777300000190735],[0.12156250000000005,-0.18462962962962962,5.793999999999997],[0.12791666666666662,-0.16074074074074077,5.810599999904639],[0.134375,-0.12296296296296293,5.827400000095366],[0.14458333333333329,-0.09074074074074075,5.843999999999994],[0.15479166666666658,-0.06425925925925924,5.860599999904636],[0.1650000000000001,-0.03777777777777774,5.8774000000953635],[0.1756249999999999,-0.02111111111111107,5.8940000000000055],[0.1946875000000001,-0.005740740740740783,5.9106999998092675],[0.18718750000000003,-0.012037037037037037,5.927400000095361],[0.1796875,-0.018333333333333292,5.944000000000003],[0.19500000000000003,-0.009814814814814731,5.960900000095364],[0.19500000000000003,-0.009814814814814731,5.977400000095372],[0.20062499999999991,-0.012222222222222264,5.994099999904634],[0.18156249999999996,-0.03481481481481473,6.010699999809262],[0.1625,-0.05740740740740741,6.027300000190735],[0.14968750000000006,-0.07925925925925928,6.043999999999997],[0.1368750000000001,-0.10111111111111115,6.060699999809259],[0.11427083333333338,-0.1161111111111111,6.077300000190732],[0.09166666666666666,-0.13111111111111112,6.096000000000004],[0.08614583333333338,-0.15333333333333335,6.110599999904636],[0.06812500000000009,-0.19222222222222224,6.127599999904632],[0.03114583333333331,-0.2337037037037037,6.1440999999046255],[-0.00635416666666669,-0.2727777777777778,6.162599999904629],[-0.019270833333333334,-0.3055555555555556,6.1773000001907405],[-0.014583333333333334,-0.32018518518518513,6.194000000000003],[-0.008541666666666715,-0.3224074074074075,6.210699999809265],[-0.007604166666666619,-0.31851851851851853,6.22790000009536],[-0.0046875,-0.3194444444444444,6.2439000000953655],[-0.005520833333333286,-0.32018518518518513,6.260699999809262],[-0.009791666666666643,-0.30999999999999994,6.2786999998092625],[-0.007395833333333357,-0.2927777777777778,6.298000000000002],[-0.007395833333333357,-0.2927777777777778,6.316099999904637],[0.005104166666666643,-0.26537037037037037,6.327699999809269],[0.0265625,-0.2338888888888889,6.34680000019074],[0.04083333333333338,-0.22444444444444442,6.362099999904629],[0.04500000000000005,-0.21814814814814817,6.381],[0.043437500000000046,-0.20907407407407402,6.396900000095371],[0.050625000000000024,-0.20833333333333334,6.411000000000001],[0.0578125,-0.20759259259259263,6.428199999809266],[0.06708333333333343,-0.21666666666666667,6.451999999999998],[0.06708333333333343,-0.21666666666666667,6.460699999809265],[0.07510416666666657,-0.20999999999999996,6.477500000000006],[0.08895833333333343,-0.19370370370370374,6.494],[0.08552083333333324,-0.18314814814814812,6.513699999809262],[0.08552083333333324,-0.18314814814814812,6.527400000095369],[0.07833333333333338,-0.2088888888888889,6.544099999904631],[0.0818749999999999,-0.1911111111111111,6.566199999809271],[0.07374999999999995,-0.18833333333333332,6.5834000000953665],[0.07374999999999995,-0.18833333333333332,6.594099999904628],[0.07687499999999996,-0.17333333333333337,6.610800000190736],[0.06239583333333331,-0.19148148148148145,6.631500000000003]]","[0.0003000001907338401,0.050300000190731,0.06499999999999773,0.08809999990462813,0.09430000019072793,0.11140000009537232,0.12840000009536823,0.14669999980925752,0.16100000000000136,0.17759999990462916,0.19430000019073645,0.21309999990462813,0.2306999998092607,0.2443000001907336,0.2644000000953639,0.27909999990463064,0.29440000009536504,0.31399999999999295,0.3276999998092691,0.3444999999999965,0.36080000019073566,0.3803000001907293,0.3959000000953665,0.4106999998092675,0.4274000000953606,0.4440999999046369,0.4606999998092647,0.477400000095372,0.4944000000953679,0.5108000001907413,0.5315999999046284,0.5440999999046312,0.5634000000953705,0.5775000000000006,0.5969999999999942,0.6109000000953699,0.6274000000953635,0.6444999999999936,0.661599999904638,0.6774000000953606,0.6940000000000026,0.7129999999999939,0.7275999999046263,0.7441999998092683,0.7638000001907272,0.7794999999999987,0.7950000000000017,0.8134000000953705,0.8275999999046348,0.8444000000953622,0.8655999999046315,0.8776999998092663,0.8941999998092598,0.9109000000953671,0.9380999999046367,0.945999999999998,0.9610999999046328,0.9775999999046263,1.001099999904639,1.01109999990463,1.0275999999046377,1.0469000000953628,1.0625999999046343,1.0781999998092715,1.096099999904638,1.1121999998092633,1.132099999904625,1.1441999998092598,1.1645000000000039,1.1820000000000022,1.1944000000953707,1.2150999999046377,1.2309999999999945,1.2479000000953704,1.2609000000953614,1.2843000001907399,1.298099999904636,1.3124000000953657,1.332499999999996,1.344300000190728,1.3624999999999972,1.3811999998092688,1.3973000001907394,1.4201999998092703,1.4280999999046315,1.4480999999046276,1.4635999999046305,1.478199999809263,1.494099999904634,1.5108000001907413,1.531099999904626,1.5440999999046312,1.5608000001907385,1.5774000000953663,1.5940999999046284,1.6108000001907357,1.6274000000953635,1.6444999999999936,1.6640000000000015,1.6799999999999926,1.696400000095366,1.7109000000953642,1.7309000000953603,1.7450999999046388,1.7641999998092643,1.7825999999046331,1.7941999998092655,1.8109999999999928,1.8330999999046327,1.8479000000953647,1.8610000000000042,1.877599999904632,1.8969000000953713,1.910900000095367,1.9301999998092612,1.9550999999046326,1.9639999999999986,1.9775999999046263,1.9945999999046364,2.01409999990463,2.0275999999046377,2.044400000095365,2.064400000095361,2.0804000000953664,2.0941999998092626,2.111699999809261,2.1274000000953635,2.1440999999046255,2.16419999980927,2.1789000000953678,2.1940000000000026,2.213099999904628,2.2275000000000063,2.2441999998092683,2.263300000190739,2.2775999999046377,2.294400000095365,2.310999999999993,2.330900000095369,2.3441999998092626,2.36090000009537,2.3774999999999977,2.3976999998092623,2.410900000095367,2.427599999904629,2.444099999904637,2.4646999998092696,2.4791999998092678,2.4943000001907336,2.5108000001907413,2.5298000001907326,2.544400000095365,2.560999999999993,2.5796999998092645,2.5941999998092626,2.61090000009537,2.630599999904632,2.64530000019073,2.660900000095367,2.6795999999046387,2.694099999904637,2.7106999998092647,2.72790000009536,2.7439999999999998,2.7626999998092714,2.779900000095367,2.793999999999997,2.810699999809259,2.8274000000953663,2.8499999999999943,2.86090000009537,2.8774999999999977,2.8978000001907276,2.910900000095367,2.927499999999995,2.9521999998092667,2.961099999904633,2.9775999999046263,2.9941999998092683,3.0145999999046325,3.0294999999999987,3.0481999998092704,3.0634000000953705,3.077599999904635,3.094999999999999,3.11390000009537,3.1274999999999977,3.1443000001907393,3.1651999998092606,3.1798000001907383,3.195699999809264,3.2109000000953642,3.230000000000004,3.2475000000000023,3.264400000095364,3.2853000001907304,3.294099999904631,3.310999999999993,3.3336999998092693,3.3441999998092626,3.36090000009537,3.3788000001907363,3.3976999998092623,3.4125999999046286,3.427499999999995,3.446800000190734,3.464900000095369,3.480300000190738,3.497,3.5124000000953686,3.5286999998092625,3.544099999904631,3.5625999999046343,3.577300000190732,3.5944999999999965,3.6125999999046314,3.627300000190729,3.6440000000000055,3.663099999904631,3.6795000000000044,3.702699999809269,3.7171999998092673,3.727400000095372,3.744099999904634,3.762199999809269,3.777400000095369,3.794099999904631,3.8108000001907385,3.8274000000953663,3.843999999999994,3.8608000001907357,3.8774000000953635,3.8940999999046255,3.9106999998092675,3.9274000000953606,3.944099999904637,3.9606999998092647,3.977400000095372,3.994099999904634,4.010699999809262,4.027400000095369,4.046499999999995,4.063199999809271,4.077400000095366,4.094099999904628,4.11069999980927,4.1274000000953635,4.1440999999046255,4.163099999904631,4.177900000095363,4.194000000000003,4.210699999809265,4.227400000095372,4.244099999904634,4.260800000190741,4.277400000095369,4.294099999904631,4.3108000001907385,4.327400000095366,4.344099999904628,4.362099999904629,4.377300000190729,4.3940000000000055,4.410599999904633,4.427400000095361,4.444099999904637,4.462400000095371,4.477300000190738,4.494,4.510699999809262,4.528099999904626,4.544099999904631,4.562199999809266,4.577400000095366,4.593999999999994,4.610800000190736,4.6274000000953635,4.6440000000000055,4.663800000190733,4.677900000095363,4.694000000000003,4.7109999999999985,4.727400000095372,4.744,4.763099999904625,4.777300000190735,4.794099999904631,4.810699999809259,4.827400000095366,4.843999999999994,4.860800000190736,4.877499999999998,4.8940000000000055,4.9106999998092675,4.927400000095361,4.944099999904637,4.960699999809265,4.977400000095372,4.994,5.010699999809262,5.0305000000000035,5.043999999999997,5.060699999809259,5.077300000190732,5.094099999904628,5.11069999980927,5.127499999999998,5.1440999999046255,5.162099999904626,5.179199999809271,5.194000000000003,5.21059999990463,5.228499999999997,5.247099999904634,5.26409999990463,5.283599999904638,5.295599999904638,5.3108000001907385,5.327599999904635,5.344099999904628,5.363099999904634,5.379800000190741,5.395800000190732,5.4106999998092675,5.4273000001907405,5.444000000000003,5.460699999809265,5.477500000000006,5.495999999999995,5.510699999809262,5.527400000095369,5.554000000000002,5.561900000095363,5.57869999980926,5.595800000190735,5.61069999980927,5.627300000190729,5.644699999809262,5.6640000000000015,5.680199999809261,5.697500000000005,5.710699999809265,5.727300000190738,5.744599999904636,5.762699999809271,5.777300000190735,5.793999999999997,5.810599999904639,5.827400000095366,5.843999999999994,5.860599999904636,5.8774000000953635,5.8940000000000055,5.9106999998092675,5.927400000095361,5.944000000000003,5.960900000095364,5.977400000095372,5.994099999904634,6.010699999809262,6.027300000190735,6.043999999999997,6.060699999809259,6.077300000190732,6.096000000000004,6.110599999904636,6.127599999904632,6.1440999999046255,6.162599999904629,6.1773000001907405,6.194000000000003,6.210699999809265,6.22790000009536,6.2439000000953655,6.260699999809262,6.2786999998092625,6.298000000000002,6.316099999904637,6.327699999809269,6.34680000019074,6.362099999904629,6.381,6.396900000095371,6.411000000000001,6.428199999809266,6.451999999999998,6.460699999809265,6.477500000000006,6.494,6.513699999809262,6.527400000095369,6.544099999904631,6.566199999809271,6.5834000000953665,6.594099999904628,6.610800000190736,6.631500000000003]","[1731904730396,1731904730437,1731904730451,1731904730474,1731904730481,1731904730498,1731904730515,1731904730533,1731904730547,1731904730564,1731904730580,1731904730599,1731904730617,1731904730631,1731904730651,1731904730665,1731904730681,1731904730700,1731904730714,1731904730731,1731904730747,1731904730767,1731904730782,1731904730797,1731904730814,1731904730830,1731904730847,1731904730864,1731904730881,1731904730897,1731904730918,1731904730930,1731904730950,1731904730964,1731904730983,1731904730997,1731904731014,1731904731031,1731904731048,1731904731064,1731904731080,1731904731099,1731904731114,1731904731131,1731904731150,1731904731166,1731904731181,1731904731200,1731904731214,1731904731231,1731904731252,1731904731264,1731904731280,1731904731297,1731904731324,1731904731332,1731904731347,1731904731364,1731904731387,1731904731397,1731904731414,1731904731433,1731904731449,1731904731464,1731904731482,1731904731498,1731904731518,1731904731530,1731904731551,1731904731568,1731904731581,1731904731601,1731904731617,1731904731634,1731904731647,1731904731671,1731904731684,1731904731699,1731904731719,1731904731731,1731904731749,1731904731767,1731904731784,1731904731806,1731904731814,1731904731834,1731904731850,1731904731864,1731904731880,1731904731897,1731904731917,1731904731930,1731904731947,1731904731964,1731904731980,1731904731997,1731904732014,1731904732031,1731904732050,1731904732066,1731904732083,1731904732097,1731904732117,1731904732131,1731904732150,1731904732169,1731904732180,1731904732197,1731904732219,1731904732234,1731904732247,1731904732264,1731904732283,1731904732297,1731904732316,1731904732341,1731904732350,1731904732364,1731904732381,1731904732400,1731904732414,1731904732431,1731904732451,1731904732467,1731904732480,1731904732498,1731904732514,1731904732530,1731904732550,1731904732565,1731904732580,1731904732599,1731904732614,1731904732631,1731904732650,1731904732664,1731904732681,1731904732697,1731904732717,1731904732731,1731904732747,1731904732764,1731904732784,1731904732797,1731904732814,1731904732830,1731904732851,1731904732865,1731904732880,1731904732897,1731904732916,1731904732931,1731904732947,1731904732966,1731904732980,1731904732997,1731904733017,1731904733032,1731904733047,1731904733066,1731904733080,1731904733097,1731904733114,1731904733130,1731904733149,1731904733166,1731904733180,1731904733197,1731904733214,1731904733236,1731904733247,1731904733264,1731904733284,1731904733297,1731904733314,1731904733338,1731904733347,1731904733364,1731904733380,1731904733401,1731904733416,1731904733434,1731904733450,1731904733464,1731904733481,1731904733500,1731904733514,1731904733530,1731904733551,1731904733566,1731904733582,1731904733597,1731904733616,1731904733634,1731904733651,1731904733672,1731904733680,1731904733697,1731904733720,1731904733730,1731904733747,1731904733765,1731904733784,1731904733799,1731904733814,1731904733833,1731904733851,1731904733867,1731904733883,1731904733899,1731904733915,1731904733930,1731904733949,1731904733964,1731904733981,1731904733999,1731904734014,1731904734030,1731904734049,1731904734066,1731904734089,1731904734103,1731904734114,1731904734130,1731904734148,1731904734164,1731904734180,1731904734197,1731904734214,1731904734230,1731904734247,1731904734264,1731904734280,1731904734297,1731904734314,1731904734330,1731904734347,1731904734364,1731904734380,1731904734397,1731904734414,1731904734433,1731904734449,1731904734464,1731904734480,1731904734497,1731904734514,1731904734530,1731904734549,1731904734564,1731904734580,1731904734597,1731904734614,1731904734630,1731904734647,1731904734664,1731904734680,1731904734697,1731904734714,1731904734730,1731904734748,1731904734764,1731904734780,1731904734797,1731904734814,1731904734830,1731904734849,1731904734864,1731904734880,1731904734897,1731904734914,1731904734930,1731904734948,1731904734964,1731904734980,1731904734997,1731904735014,1731904735030,1731904735050,1731904735064,1731904735080,1731904735097,1731904735114,1731904735130,1731904735149,1731904735164,1731904735180,1731904735197,1731904735214,1731904735230,1731904735247,1731904735264,1731904735280,1731904735297,1731904735314,1731904735330,1731904735347,1731904735364,1731904735380,1731904735397,1731904735417,1731904735430,1731904735447,1731904735464,1731904735480,1731904735497,1731904735514,1731904735530,1731904735548,1731904735565,1731904735580,1731904735597,1731904735615,1731904735633,1731904735650,1731904735670,1731904735682,1731904735697,1731904735714,1731904735730,1731904735749,1731904735766,1731904735782,1731904735797,1731904735814,1731904735830,1731904735847,1731904735864,1731904735882,1731904735897,1731904735914,1731904735940,1731904735948,1731904735965,1731904735982,1731904735997,1731904736014,1731904736031,1731904736050,1731904736066,1731904736084,1731904736097,1731904736114,1731904736131,1731904736149,1731904736164,1731904736180,1731904736197,1731904736214,1731904736230,1731904736247,1731904736264,1731904736280,1731904736297,1731904736314,1731904736330,1731904736347,1731904736364,1731904736380,1731904736397,1731904736414,1731904736430,1731904736447,1731904736464,1731904736482,1731904736497,1731904736514,1731904736530,1731904736549,1731904736564,1731904736580,1731904736597,1731904736614,1731904736630,1731904736647,1731904736665,1731904736684,1731904736702,1731904736714,1731904736733,1731904736748,1731904736767,1731904736783,1731904736797,1731904736814,1731904736838,1731904736847,1731904736864,1731904736880,1731904736900,1731904736914,1731904736930,1731904736952,1731904736970,1731904736980,1731904736997,1731904737018]","[[866.1,692.1],[866.1,692.1],[886.2,687.1],[886.2,687.1],[907.4,699.9],[910,707.6],[918.2,708.4],[942.2,715.4],[929.3,701.6],[907.2,690.8],[865.6,677.7],[857.9,657.8],[847.1,679.9],[847.1,679.9],[815,675.1],[797.3,657.5],[797.3,657.5],[800,637.8],[800,637.8],[801.5,624.7],[763.7,607.6],[741.5,602.9],[744.7,603.4],[751.5,610.4],[758.3,617.4],[749.7,638.3],[741.1,659.2],[741.1,655.5],[739.3,659],[735.1,671.9],[735.1,671.9],[767.1,661.1],[783.3,680.3],[783.3,691.3],[785,691.3],[786.7,691.3],[812.6,662.6],[839.6,634.5],[822.9,639.9],[806.2,645.3],[794.2,638.4],[769.5,653],[763.2,629.5],[763.2,629.5],[755.5,604.7],[756.3,603.1],[758,596.6],[747.8,597],[747.8,597],[746.1,596.8],[746.1,596.8],[779.7,596.5],[779.7,596.5],[797.9,615.3],[805.1,626.8],[805.1,626.8],[827.9,620.3],[827.9,620.3],[831.7,619.5],[831.7,619.5],[860.1,639],[858.4,631.5],[866.5,634],[874.6,636.5],[887.5,646.4],[896,652.1],[916.1,636.7],[916.1,636.7],[939.9,631],[943.1,639.5],[943.1,639.5],[952.7,657.2],[945.3,639.1],[962.9,641.5],[962.9,641.5],[970.5,640],[970.5,640],[968,631.7],[968,631.7],[937.9,615.1],[903.1,601.9],[872.1,590.7],[876.3,589.5],[885.5,592.1],[885.5,592.1],[884.6,591.3],[886.6,590.5],[883.5,584],[877.2,569.6],[881,562],[920.5,578.5],[920.5,578.5],[934.5,574.2],[934.5,574.2],[955.2,570.8],[968.7,558.4],[982.2,546],[998.5,535.1],[995.7,534.8],[1003.7,527.3],[1020.1,540.2],[1035,558.4],[1027.4,553.4],[1043.6,558.7],[1043.8,558.8],[1018.3,552.8],[1018.3,552.8],[994.2,546.4],[980.2,531.1],[987.7,538],[987.7,538],[983.4,551.6],[983.4,551.6],[962.6,551.4],[967.5,541.8],[948.5,532.5],[948.5,532.5],[950.5,535.8],[954.6,537.6],[971.9,547.9],[971.9,547.9],[980.7,560],[1002.6,583.7],[992.9,573.6],[1004.4,572.7],[1026.5,571.9],[1024.4,575.2],[1023.1,567.4],[1011.4,559.8],[1023,559.4],[1023,559.4],[995.8,541.6],[1018.2,546.4],[1030.6,543.4],[1054.8,560.3],[1049.6,563],[1049.6,563],[1031.9,555.6],[1031.9,555.6],[1029.7,553.1],[1046.3,556.7],[1060.4,559.4],[1043,555.8],[1063.3,578.7],[1041.1,577.6],[1023.3,571],[1013.8,562.3],[1023.9,564.4],[1046.5,576.6],[1047,590.9],[1051.8,609.9],[1041.2,605.7],[1051.5,623.6],[1031.8,613.4],[1034,626.7],[1035.9,645.7],[1020.1,645.4],[1007.7,648],[993.4,637.6],[985.7,620.2],[972.1,611.6],[982.6,616.8],[1003.9,615],[1040.8,628.8],[1016.2,613.2],[991.6,597.6],[1003.6,599.6],[1001.8,593.4],[1001.8,593.4],[1001.9,600.2],[1001.9,600.2],[1014.5,617.7],[1014.5,617.7],[1025.8,622.5],[1025.8,622.5],[1033.2,631.5],[1033.2,631.5],[1032,639.3],[1032,639.3],[1015.5,635.4],[1057.3,647.2],[1099.1,659],[1099.1,659],[1114.5,665.1],[1129.7,663.6],[1144.9,662.1],[1144.9,662.1],[1135,645.7],[1130.5,630.5],[1120.2,611.7],[1109.1,591.1],[1113.3,582.2],[1098.8,563.5],[1085.8,554.4],[1083.9,550.8],[1071,548.2],[1071,548.2],[1042.9,529.2],[1042.9,529.2],[1047.7,525.9],[1067,541.1],[1085.6,560.3],[1089.9,563.8],[1081.8,554.3],[1078.9,555.4],[1089.6,548.4],[1075.6,532.3],[1078.7,523.7],[1096.9,532.7],[1094.8,530.2],[1076.6,524.5],[1058.4,518.8],[1058.6,518.7],[1081.3,539.6],[1096.2,543.8],[1096,546.5],[1116.9,560.2],[1141.3,579.4],[1159.9,598.7],[1172.1,607],[1195.6,603.3],[1195.6,603.3],[1214,602.9],[1216.7,605.8],[1212.8,595.9],[1212.8,595.9],[1211.5,592.1],[1203.3,588.4],[1198.7,584.6],[1176.7,569.5],[1172.5,561.7],[1159.8,560.8],[1138.5,548.1],[1122.3,532.1],[1109.2,526],[1092.6,524.7],[1076.9,511.7],[1068.1,498.6],[1060.3,495.9],[1060.5,498.1],[1048,491.6],[1063.9,493.8],[1080.5,507.2],[1080.5,507.2],[1102,526],[1103.4,527.2],[1114.8,534.2],[1133.1,556.2],[1142.9,569.8],[1149.3,572.1],[1163.2,577.2],[1165.4,569.6],[1156.2,567.1],[1156.2,567.1],[1147.6,564.5],[1136.4,565.1],[1136.4,565.1],[1136,565.9],[1136,565.9],[1114,559.9],[1082.1,539.7],[1058.7,527.9],[1038.6,527.7],[999.1,519.5],[972.1,524.1],[958.5,529.8],[943,541.4],[915.1,518.5],[898.1,502.7],[888.6,488.2],[887.2,505.5],[885.8,522.8],[856.1,527.6],[838.3,537.6],[811.8,539.8],[769.8,531.2],[743.3,523.9],[726.9,542.5],[717.1,557.1],[716.7,572],[705.5,578.2],[694.3,584.4],[708.5,584.8],[721,582.1],[749.5,588.9],[778,595.7],[778,595.7],[786.2,590.8],[786.2,590.8],[784,587.1],[784,587.1],[774.2,584.8],[774.2,584.8],[766.9,586.8],[766.9,586.8],[788.3,576.8],[788.3,576.8],[821.8,566.7],[821.8,566.7],[857.1,568.2],[907.6,583.7],[950.8,597.5],[987.1,601.9],[1020.7,606.5],[1063.2,602.7],[1063.2,602.7],[1106.7,601.5],[1145.8,605.6],[1170.6,609.5],[1183.3,613.5],[1195.9,613.4],[1202.2,601.4],[1208.5,589.4],[1195.6,584.3],[1192.7,578],[1172.7,571],[1172.7,571],[1169,559.2],[1169,559.2],[1153.5,537.5],[1132.2,520.6],[1110.9,503.7],[1083,483.1],[1047.9,463.5],[1025.9,448.4],[1027.4,429.4],[1020.9,416],[1027.9,400.8],[1026.3,402],[1033.1,402.9],[1048.6,412],[1064.1,421.1],[1064.1,421.1],[1067.4,419],[1076.4,425.4],[1072.3,427.3],[1070.8,435.6],[1080.3,436.7],[1094.9,447.5],[1098.2,449.7],[1094.2,447.9],[1077.7,433.1],[1068.3,422.5],[1066.3,427.7],[1071,434.1],[1075.7,440.5],[1076.7,440.3],[1082.8,453.2],[1089,473.6],[1098.8,491],[1108.6,505.3],[1118.4,519.6],[1128.6,528.6],[1146.9,536.9],[1139.7,533.5],[1132.5,530.1],[1147.2,534.7],[1147.2,534.7],[1152.6,533.4],[1134.3,521.2],[1116,509],[1103.7,497.2],[1091.4,485.4],[1069.7,477.3],[1048,469.2],[1042.7,457.2],[1025.4,436.2],[989.9,413.8],[953.9,392.7],[941.5,375],[946,367.1],[951.8,365.9],[952.7,368],[955.5,367.5],[954.7,367.1],[950.6,372.6],[952.9,381.9],[952.9,381.9],[964.9,396.7],[985.5,413.7],[999.2,418.8],[1003.2,422.2],[1001.7,427.1],[1008.6,427.5],[1015.5,427.9],[1024.4,423],[1024.4,423],[1032.1,426.6],[1045.4,435.4],[1042.1,441.1],[1042.1,441.1],[1035.2,427.2],[1038.6,436.8],[1030.8,438.3],[1030.8,438.3],[1033.8,446.4],[1019.9,436.6]]","[-0.056692,0.170076]","[0.056692,0.170076]","[0.170076,0.170076]","[-0.170076,-0.170076]","[-0.170076,0.056692]","[-0.170076,-0.056692]","[-0.056692,-0.170076]","[0.056692,-0.170076]","[0.170076,-0.170076]","[-0.056692,0.056692]","[0.056692,0.056692]","[0.170076,0.056692]","[-0.056692,-0.056692]","[0.056692,-0.056692]","[0.170076,-0.056692]",0,0,0,0,1,3,Smartphone,25,40,9,1,50,4,1,60,5
