inst1_resp.keys,inst1_resp.rt,calibrationMouse.x,calibrationMouse.y,calibrationMouse.leftButton,calibrationMouse.midButton,calibrationMouse.rightButton,calibrationClick.x,calibrationClick.y,calibrationClick.leftButton,calibrationClick.midButton,calibrationClick.rightButton,trialsc.thisRepN,trialsc.thisTrialN,trialsc.thisN,trialsc.thisIndex,trialsc.ran,calibration_x,calibration_y,participant,session,date,expName,psychopyVersion,OS,frameRate,calibrationClick.clicked_name,ScreenRes_pixels,Camera_pixels,mouse_2.x,mouse_2.y,mouse_2.leftButton,mouse_2.midButton,mouse_2.rightButton,mouse_2.time,mouse_2.clicked_name,mouse.x,mouse.y,mouse.leftButton,mouse.midButton,mouse.rightButton,mouse.time,mouse.clicked_name,Choice,Trial,TrialDuration,MOUSE_GAZE,ET_GAZE,ET_GAZE_x_T,time,unixTime,ET_GAZE_NF,Loc_Bus_label,Loc_Metro_label,Loc_RH_label,Loc_Cost_label,Loc_Travel_label,Loc_Comfort_label,Loc_Bus_cost,Loc_Metro_cost,Loc_RH_cost,Loc_Bus_travel,Loc_Metro_travel,Loc_RH_travel,Loc_Bus_comfort,Loc_Metro_comfort,Loc_RH_comfort,trials.thisRepN,trials.thisTrialN,trials.thisN,trials.thisIndex,trials.ran,Block,Device,RH_cost,RH_travel_time,RH_Comfort,metro_cost,metro_travel_time,metro_Comfort,Bus_cost,Bus_travel_time,Bus_Comfort
space,3.1446,-0.245833333,0.131481481,1,0,0,0.001041667,0.02037037,1,0,0,0,0,0,11,1,0,0,07,001,2024-11-18_14h19.59.361,Attention_exp_legacy,2023.1.0,Win32,60.24096386,,,,,,,,,,,,,,,,,,,,,,,,,,,,,,,,,,,,,,,,,,,,,,,,,,,,,,,,,
,,,,,,,0.0125,-0.662962963,1,0,0,0,1,1,9,1,0,-0.67,07,001,2024-11-18_14h19.59.361,Attention_exp_legacy,2023.1.0,Win32,60.24096386,,,,,,,,,,,,,,,,,,,,,,,,,,,,,,,,,,,,,,,,,,,,,,,,,,,,,,,,,
,,,,,,,-0.670833333,0.337037037,1,0,0,0,2,2,3,1,-0.67,0.33,07,001,2024-11-18_14h19.59.361,Attention_exp_legacy,2023.1.0,Win32,60.24096386,calibration_square,,,,,,,,,,,,,,,,,,,,,,,,,,,,,,,,,,,,,,,,,,,,,,,,,,,,,,,,
,,,,,,,0.347916667,-0.666666667,1,0,0,0,3,3,14,1,0.33,-0.67,07,001,2024-11-18_14h19.59.361,Attention_exp_legacy,2023.1.0,Win32,60.24096386,,,,,,,,,,,,,,,,,,,,,,,,,,,,,,,,,,,,,,,,,,,,,,,,,,,,,,,,,
,,,,,,,-0.340625,-0.668518519,1,0,0,0,4,4,4,1,-0.33,-0.67,07,001,2024-11-18_14h19.59.361,Attention_exp_legacy,2023.1.0,Win32,60.24096386,,,,,,,,,,,,,,,,,,,,,,,,,,,,,,,,,,,,,,,,,,,,,,,,,,,,,,,,,
,,,,,,,0.329166667,-0.001851852,1,0,0,0,5,5,16,1,0.33,0,07,001,2024-11-18_14h19.59.361,Attention_exp_legacy,2023.1.0,Win32,60.24096386,calibration_square,,,,,,,,,,,,,,,,,,,,,,,,,,,,,,,,,,,,,,,,,,,,,,,,,,,,,,,,
,,,,,,,-0.334375,0.674074074,1,0,0,0,6,6,8,1,-0.33,0.67,07,001,2024-11-18_14h19.59.361,Attention_exp_legacy,2023.1.0,Win32,60.24096386,calibration_square,,,,,,,,,,,,,,,,,,,,,,,,,,,,,,,,,,,,,,,,,,,,,,,,,,,,,,,,
,,,,,,,-0.676041667,-0.325925926,1,0,0,0,7,7,1,1,-0.67,-0.33,07,001,2024-11-18_14h19.59.361,Attention_exp_legacy,2023.1.0,Win32,60.24096386,calibration_square,,,,,,,,,,,,,,,,,,,,,,,,,,,,,,,,,,,,,,,,,,,,,,,,,,,,,,,,
,,,,,,,-0.3375,-0.001851852,1,0,0,0,8,8,6,1,-0.33,0,07,001,2024-11-18_14h19.59.361,Attention_exp_legacy,2023.1.0,Win32,60.24096386,calibration_square,,,,,,,,,,,,,,,,,,,,,,,,,,,,,,,,,,,,,,,,,,,,,,,,,,,,,,,,
,,,,,,,-0.679166667,0.003703704,1,0,0,0,9,9,2,1,-0.67,0,07,001,2024-11-18_14h19.59.361,Attention_exp_legacy,2023.1.0,Win32,60.24096386,calibration_square,,,,,,,,,,,,,,,,,,,,,,,,,,,,,,,,,,,,,,,,,,,,,,,,,,,,,,,,
,,,,,,,-0.005208333,0.335185185,1,0,0,0,10,10,12,1,0,0.33,07,001,2024-11-18_14h19.59.361,Attention_exp_legacy,2023.1.0,Win32,60.24096386,calibration_square,,,,,,,,,,,,,,,,,,,,,,,,,,,,,,,,,,,,,,,,,,,,,,,,,,,,,,,,
,,,,,,,0.328125,0.324074074,1,0,0,0,11,11,17,1,0.33,0.33,07,001,2024-11-18_14h19.59.361,Attention_exp_legacy,2023.1.0,Win32,60.24096386,calibration_square,,,,,,,,,,,,,,,,,,,,,,,,,,,,,,,,,,,,,,,,,,,,,,,,,,,,,,,,
,,,,,,,0.665625,0.687037037,1,0,0,0,12,12,19,1,0.67,0.67,07,001,2024-11-18_14h19.59.361,Attention_exp_legacy,2023.1.0,Win32,60.24096386,,,,,,,,,,,,,,,,,,,,,,,,,,,,,,,,,,,,,,,,,,,,,,,,,,,,,,,,,
,,,,,,,-0.002083333,0.674074074,1,0,0,0,13,13,13,1,0,0.67,07,001,2024-11-18_14h19.59.361,Attention_exp_legacy,2023.1.0,Win32,60.24096386,calibration_square,,,,,,,,,,,,,,,,,,,,,,,,,,,,,,,,,,,,,,,,,,,,,,,,,,,,,,,,
,,,,,,,0.669791667,-0.674074074,1,0,0,0,14,14,20,1,0.67,-0.67,07,001,2024-11-18_14h19.59.361,Attention_exp_legacy,2023.1.0,Win32,60.24096386,calibration_square,,,,,,,,,,,,,,,,,,,,,,,,,,,,,,,,,,,,,,,,,,,,,,,,,,,,,,,,
,,,,,,,0.328125,0.674074074,1,0,0,0,15,15,18,1,0.33,0.67,07,001,2024-11-18_14h19.59.361,Attention_exp_legacy,2023.1.0,Win32,60.24096386,calibration_square,,,,,,,,,,,,,,,,,,,,,,,,,,,,,,,,,,,,,,,,,,,,,,,,,,,,,,,,
,,,,,,,0.3375,-0.344444444,1,0,0,0,16,16,15,1,0.33,-0.33,07,001,2024-11-18_14h19.59.361,Attention_exp_legacy,2023.1.0,Win32,60.24096386,,,,,,,,,,,,,,,,,,,,,,,,,,,,,,,,,,,,,,,,,,,,,,,,,,,,,,,,,
,,,,,,,-0.673958333,-0.67037037,1,0,0,0,17,17,0,1,-0.67,-0.67,07,001,2024-11-18_14h19.59.361,Attention_exp_legacy,2023.1.0,Win32,60.24096386,calibration_square,,,,,,,,,,,,,,,,,,,,,,,,,,,,,,,,,,,,,,,,,,,,,,,,,,,,,,,,
,,,,,,,-0.005208333,-0.32962963,1,0,0,0,18,18,10,1,0,-0.33,07,001,2024-11-18_14h19.59.361,Attention_exp_legacy,2023.1.0,Win32,60.24096386,calibration_square,,,,,,,,,,,,,,,,,,,,,,,,,,,,,,,,,,,,,,,,,,,,,,,,,,,,,,,,
,,,,,,,-0.340625,-0.325925926,1,0,0,0,19,19,5,1,-0.33,-0.33,07,001,2024-11-18_14h19.59.361,Attention_exp_legacy,2023.1.0,Win32,60.24096386,,,,,,,,,,,,,,,,,,,,,,,,,,,,,,,,,,,,,,,,,,,,,,,,,,,,,,,,,
,,,,,,,-0.323958333,0.344444444,1,0,0,0,20,20,7,1,-0.33,0.33,07,001,2024-11-18_14h19.59.361,Attention_exp_legacy,2023.1.0,Win32,60.24096386,,,,,,,,,,,,,,,,,,,,,,,,,,,,,,,,,,,,,,,,,,,,,,,,,,,,,,,,,
,,,,,,,,,,,,,,,,,,,07,001,2024-11-18_14h19.59.361,Attention_exp_legacy,2023.1.0,Win32,60.24096386,,"[1920,1080]","[640,480]",[0.019791666666666666],[-0.5],[1],[0],[0],[4.216000000000001],"[""StartButton""]",[0.1125],[0.4148148148148148],[1],[0],[0],[5.035299999713899],"[""Metro_label""]",Metro_label,1,6.0604,"[[0.019791666666666666,-0.5],[0.019791666666666666,-0.5],[0.019791666666666666,-0.5],[0.019791666666666666,-0.5],[0.019791666666666666,-0.5],[0.019791666666666666,-0.5],[0.019791666666666666,-0.5],[0.019791666666666666,-0.5],[0.019791666666666666,-0.5],[0.019791666666666666,-0.5],[0.019791666666666666,-0.5],[0.019791666666666666,-0.5],[0.019791666666666666,-0.5],[0.019791666666666666,-0.5],[0.019791666666666666,-0.5],[0.019791666666666666,-0.5],[0.019791666666666666,-0.5],[0.019791666666666666,-0.5],[0.019791666666666666,-0.5],[0.019791666666666666,-0.5],[0.019791666666666666,-0.5],[0.019791666666666666,-0.5],[0.019791666666666666,-0.5],[0.019791666666666666,-0.5],[0.019791666666666666,-0.5],[0.019791666666666666,-0.5],[0.019791666666666666,-0.5],[0.019791666666666666,-0.5],[0.019791666666666666,-0.5],[0.019791666666666666,-0.5],[0.019791666666666666,-0.5],[0.019791666666666666,-0.5],[0.019791666666666666,-0.5],[0.019791666666666666,-0.5],[0.019791666666666666,-0.5],[0.019791666666666666,-0.5],[0.019791666666666666,-0.5],[0.019791666666666666,-0.5],[0.019791666666666666,-0.5],[0.019791666666666666,-0.5],[0.019791666666666666,-0.5],[0.019791666666666666,-0.5],[0.019791666666666666,-0.5],[0.019791666666666666,-0.5],[0.019791666666666666,-0.5],[0.019791666666666666,-0.5],[0.019791666666666666,-0.5],[0.019791666666666666,-0.5],[0.019791666666666666,-0.5],[0.019791666666666666,-0.5],[0.019791666666666666,-0.5],[0.019791666666666666,-0.5],[0.019791666666666666,-0.5],[0.019791666666666666,-0.5],[0.019791666666666666,-0.5],[0.019791666666666666,-0.5],[0.019791666666666666,-0.5],[0.019791666666666666,-0.5],[0.019791666666666666,-0.5],[0.019791666666666666,-0.5],[0.019791666666666666,-0.5],[0.019791666666666666,-0.5],[0.019791666666666666,-0.5],[0.019791666666666666,-0.5],[0.019791666666666666,-0.5],[0.019791666666666666,-0.5],[0.019791666666666666,-0.5],[0.019791666666666666,-0.5],[0.019791666666666666,-0.5],[0.019791666666666666,-0.5],[0.019791666666666666,-0.5],[0.019791666666666666,-0.5],[0.019791666666666666,-0.5],[0.019791666666666666,-0.5],[0.019791666666666666,-0.5],[0.019791666666666666,-0.5],[0.019791666666666666,-0.5],[0.019791666666666666,-0.5],[0.019791666666666666,-0.5],[0.019791666666666666,-0.5],[0.019791666666666666,-0.5],[0.019791666666666666,-0.5],[0.019791666666666666,-0.5],[0.019791666666666666,-0.5],[0.019791666666666666,-0.5],[0.019791666666666666,-0.5],[0.019791666666666666,-0.5],[0.019791666666666666,-0.5],[0.019791666666666666,-0.5],[0.019791666666666666,-0.5],[0.019791666666666666,-0.5],[0.019791666666666666,-0.5],[0.019791666666666666,-0.5],[0.019791666666666666,-0.5],[0.019791666666666666,-0.5],[0.019791666666666666,-0.5],[0.019791666666666666,-0.5],[0.019791666666666666,-0.5],[0.019791666666666666,-0.5],[0.019791666666666666,-0.5],[0.019791666666666666,-0.5],[0.019791666666666666,-0.5],[0.019791666666666666,-0.5],[0.019791666666666666,-0.5],[0.019791666666666666,-0.5],[0.019791666666666666,-0.5],[0.019791666666666666,-0.5],[0.019791666666666666,-0.5],[0.019791666666666666,-0.5],[0.019791666666666666,-0.5],[0.019791666666666666,-0.5],[0.019791666666666666,-0.5],[0.019791666666666666,-0.5],[0.019791666666666666,-0.5],[0.019791666666666666,-0.5],[0.019791666666666666,-0.5],[0.019791666666666666,-0.5],[0.019791666666666666,-0.5],[0.019791666666666666,-0.5],[0.019791666666666666,-0.5],[0.019791666666666666,-0.5],[0.019791666666666666,-0.5],[0.019791666666666666,-0.5],[0.019791666666666666,-0.5],[0.019791666666666666,-0.5],[0.019791666666666666,-0.5],[0.019791666666666666,-0.5],[0.019791666666666666,-0.5],[0.019791666666666666,-0.5],[0.019791666666666666,-0.5],[0.019791666666666666,-0.5],[0.019791666666666666,-0.5],[0.019791666666666666,-0.5],[0.019791666666666666,-0.5],[0.019791666666666666,-0.5],[0.019791666666666666,-0.5],[0.019791666666666666,-0.5],[0.019791666666666666,-0.5],[0.019791666666666666,-0.5],[0.019791666666666666,-0.5],[0.019791666666666666,-0.5],[0.019791666666666666,-0.5],[0.019791666666666666,-0.5],[0.019791666666666666,-0.5],[0.019791666666666666,-0.5],[0.019791666666666666,-0.5],[0.019791666666666666,-0.5],[0.019791666666666666,-0.5],[0.019791666666666666,-0.5],[0.019791666666666666,-0.5],[0.019791666666666666,-0.5],[0.019791666666666666,-0.5],[0.019791666666666666,-0.5],[0.019791666666666666,-0.5],[0.019791666666666666,-0.5],[0.019791666666666666,-0.5],[0.019791666666666666,-0.5],[0.019791666666666666,-0.5],[0.019791666666666666,-0.5],[0.019791666666666666,-0.5],[0.019791666666666666,-0.5],[0.019791666666666666,-0.5],[0.019791666666666666,-0.5],[0.019791666666666666,-0.5],[0.019791666666666666,-0.5],[0.019791666666666666,-0.5],[0.019791666666666666,-0.5],[0.019791666666666666,-0.5],[0.019791666666666666,-0.5],[0.019791666666666666,-0.5],[0.019791666666666666,-0.5],[0.019791666666666666,-0.5],[0.019791666666666666,-0.5],[0.019791666666666666,-0.5],[0.019791666666666666,-0.5],[0.019791666666666666,-0.5],[0.019791666666666666,-0.5],[0.019791666666666666,-0.5],[0.019791666666666666,-0.5],[0.019791666666666666,-0.5],[0.019791666666666666,-0.5],[0.019791666666666666,-0.5],[0.019791666666666666,-0.5],[0.019791666666666666,-0.5],[0.019791666666666666,-0.5],[0.019791666666666666,-0.5],[0.019791666666666666,-0.5],[0.019791666666666666,-0.5],[0.019791666666666666,-0.5],[0.019791666666666666,-0.5],[0.019791666666666666,-0.5],[0.019791666666666666,-0.5],[0.019791666666666666,-0.5],[0.019791666666666666,-0.5],[0.019791666666666666,-0.5],[0.019791666666666666,-0.5],[0.019791666666666666,-0.5],[0.019791666666666666,-0.5],[0.019791666666666666,-0.5],[0.019791666666666666,-0.5],[0.019791666666666666,-0.5],[0.019791666666666666,-0.5],[0.019791666666666666,-0.5],[0.019791666666666666,-0.5],[0.019791666666666666,-0.5],[0.019791666666666666,-0.5],[0.019791666666666666,-0.5],[0.019791666666666666,-0.5],[0.019791666666666666,-0.5],[0.019791666666666666,-0.5],[0.019791666666666666,-0.5],[0.019791666666666666,-0.5],[0.019791666666666666,-0.5],[0.019791666666666666,-0.5],[0.019791666666666666,-0.5],[0.019791666666666666,-0.5],[0.019791666666666666,-0.5],[0.019791666666666666,-0.5],[0.019791666666666666,-0.5],[0.019791666666666666,-0.5],[0.019791666666666666,-0.5],[0.019791666666666666,-0.5],[0.019791666666666666,-0.5],[0.019791666666666666,-0.5],[0.019791666666666666,-0.5],[0.019791666666666666,-0.5],[0.019791666666666666,-0.5],[0.019791666666666666,-0.5],[0.019791666666666666,-0.5],[0.019791666666666666,-0.5],[0.019791666666666666,-0.5],[0.019791666666666666,-0.5],[0.019791666666666666,-0.5],[0.019791666666666666,-0.5],[0.019791666666666666,-0.5],[0.019791666666666666,-0.5],[0.019791666666666666,-0.5],[0.019791666666666666,-0.5],[0.019791666666666666,-0.5],[0.019791666666666666,-0.5],[0.019791666666666666,-0.5],[0.019791666666666666,-0.5],[0.019791666666666666,-0.5],[0.019791666666666666,-0.5],[0.019791666666666666,-0.5],[0.019791666666666666,-0.5],[0.019791666666666666,-0.5],[0.019791666666666666,-0.5],[0.019791666666666666,-0.5],[0.019791666666666666,-0.5],[0.019791666666666666,-0.5],[0.019791666666666666,-0.5],[0.019791666666666666,-0.5],[0.019791666666666666,-0.5],[0.019791666666666666,-0.5],[0.019791666666666666,-0.5],[0.019791666666666666,-0.5],[0.019791666666666666,-0.5],[0.019791666666666666,-0.5],[0.019791666666666666,-0.5],[0.019791666666666666,-0.5],[0.019791666666666666,-0.5],[0.019791666666666666,-0.5],[0.017708333333333333,-0.49444444444444446],[0.025,-0.45925925925925926],[0.036458333333333336,-0.40555555555555556],[0.04583333333333333,-0.31296296296296294],[0.053125,-0.2222222222222222],[0.05520833333333333,-0.1037037037037037],[0.05520833333333333,-0.04259259259259259],[0.05520833333333333,0.04814814814814815],[0.057291666666666664,0.08888888888888889],[0.057291666666666664,0.12777777777777777],[0.057291666666666664,0.15925925925925927],[0.06041666666666667,0.1925925925925926],[0.06458333333333334,0.22037037037037038],[0.06770833333333333,0.25555555555555554],[0.06770833333333333,0.2611111111111111],[0.06770833333333333,0.26481481481481484],[0.06875,0.2796296296296296],[0.071875,0.2962962962962963],[0.078125,0.32037037037037036],[0.08854166666666667,0.35555555555555557],[0.09375,0.37407407407407406],[0.09583333333333334,0.3814814814814815],[0.09791666666666667,0.38333333333333336],[0.09895833333333333,0.3888888888888889],[0.103125,0.3962962962962963],[0.11041666666666666,0.4111111111111111],[0.1125,0.4148148148148148],[0.1125,0.4148148148148148],[0.1125,0.4148148148148148],[0.1125,0.4148148148148148],[0.1125,0.4148148148148148],[0.1125,0.4148148148148148],[0.1125,0.4148148148148148],[0.1125,0.4148148148148148],[0.1125,0.4148148148148148],[0.1125,0.4148148148148148],[0.1125,0.4148148148148148],[0.1125,0.4148148148148148],[0.1125,0.4148148148148148],[0.1125,0.4148148148148148],[0.11354166666666667,0.4148148148148148],[0.11770833333333333,0.4185185185185185],[0.11770833333333333,0.4185185185185185],[0.11770833333333333,0.4185185185185185],[0.11770833333333333,0.4185185185185185],[0.11770833333333333,0.4185185185185185],[0.11770833333333333,0.4185185185185185],[0.11770833333333333,0.4185185185185185],[0.11770833333333333,0.4185185185185185],[0.11770833333333333,0.4185185185185185],[0.11770833333333333,0.4185185185185185],[0.11770833333333333,0.4185185185185185],[0.11770833333333333,0.4185185185185185],[0.11770833333333333,0.4166666666666667],[0.11770833333333333,0.4166666666666667],[0.11770833333333333,0.4148148148148148],[0.11666666666666667,0.4111111111111111],[0.11666666666666667,0.40555555555555556],[0.11666666666666667,0.39814814814814814],[0.115625,0.387037037037037],[0.11354166666666667,0.37407407407407406],[0.1125,0.3574074074074074],[0.11145833333333334,0.3351851851851852],[0.10833333333333334,0.30925925925925923],[0.10625,0.2759259259259259],[0.103125,0.2462962962962963],[0.10104166666666667,0.22777777777777777],[0.09375,0.17962962962962964],[0.08958333333333333,0.1537037037037037],[0.08541666666666667,0.12962962962962962],[0.08125,0.1037037037037037],[0.07916666666666666,0.08518518518518518],[0.07708333333333334,0.06296296296296296],[0.075,0.044444444444444446],[0.071875,0.025925925925925925],[0.07083333333333333,0.005555555555555556],[0.07083333333333333,-0.005555555555555556],[0.06979166666666667,-0.009259259259259259],[0.06875,-0.014814814814814815],[0.06770833333333333,-0.022222222222222223],[0.06770833333333333,-0.025925925925925925],[0.06666666666666667,-0.02962962962962963],[0.06666666666666667,-0.03518518518518519],[0.06666666666666667,-0.03888888888888889],[0.06458333333333334,-0.040740740740740744],[0.06458333333333334,-0.046296296296296294],[0.06354166666666666,-0.05185185185185185],[0.06145833333333333,-0.06481481481481481],[0.059375,-0.07407407407407407],[0.057291666666666664,-0.08333333333333333],[0.05625,-0.09259259259259259],[0.05416666666666667,-0.1],[0.053125,-0.10185185185185185],[0.053125,-0.10185185185185185],[0.053125,-0.1037037037037037],[0.053125,-0.1037037037037037],[0.052083333333333336,-0.10555555555555556],[0.052083333333333336,-0.10555555555555556],[0.052083333333333336,-0.10555555555555556]]","[[0.03677083333333329,0.12185185185185177],[0.03677083333333329,0.12185185185185177],[0.049479166666666664,0.12685185185185185],[0.049479166666666664,0.12685185185185185],[0.0515625,0.1449999999999999],[0.0515625,0.1449999999999999],[0.043437500000000046,0.13055555555555556],[0.043437500000000046,0.13055555555555556],[0.026979166666666644,0.11518518518518527],[0.026979166666666644,0.11518518518518527],[0.02020833333333331,0.10111111111111115],[0.02020833333333331,0.10111111111111115],[-0.0014583333333333095,0.08833333333333342],[-0.0014583333333333095,0.08833333333333342],[-0.013750000000000047,0.07814814814814823],[-0.003958333333333286,0.12907407407407415],[-0.005104166666666643,0.13185185185185194],[-0.042499999999999954,0.12185185185185177],[-0.09156249999999998,0.12537037037037047],[-0.12999999999999995,0.11574074074074074],[-0.15885416666666666,0.13203703703703695],[-0.15885416666666666,0.13203703703703695],[-0.17937500000000003,0.1492592592592593],[-0.23885416666666662,0.1646296296296296],[-0.23885416666666662,0.1646296296296296],[-0.27364583333333337,0.172037037037037],[-0.303125,0.14574074074074084],[-0.34187500000000004,0.10574074074074079],[-0.3676041666666666,0.10037037037037046],[-0.3676041666666666,0.10037037037037046],[-0.3455208333333334,0.07685185185185185],[-0.31927083333333334,0.02092592592592584],[-0.2930208333333333,-0.034999999999999955],[-0.2829166666666667,-0.0809259259259259],[-0.27281249999999996,-0.12685185185185185],[-0.25375000000000003,-0.18518518518518517],[-0.24447916666666672,-0.2368518518518518],[-0.23406250000000003,-0.2581481481481481],[-0.23999999999999996,-0.3146296296296296],[-0.2513541666666666,-0.39296296296296296],[-0.2783333333333334,-0.3792592592592593],[-0.2978125,-0.3466666666666666],[-0.33656250000000004,-0.32388888888888884],[-0.37072916666666667,-0.30907407407407406],[-0.41291666666666665,-0.3031481481481481],[-0.43510416666666674,-0.27462962962962967],[-0.45364583333333336,-0.2462962962962963],[-0.4810416666666667,-0.22185185185185188],[-0.4810416666666667,-0.22185185185185188],[-0.4746875,-0.16814814814814816],[-0.49895833333333334,-0.10666666666666672],[-0.5248958333333333,-0.11037037037037041],[-0.5520833333333334,-0.13648148148148145],[-0.5625,-0.13111111111111112],[-0.5729166666666666,-0.1257407407407407],[-0.5701041666666666,-0.11037037037037041],[-0.5672916666666666,-0.09500000000000001],[-0.5422916666666667,-0.062037037037037036],[-0.5172916666666667,-0.02907407407407416],[-0.5260416666666666,-0.06574074074074074],[-0.48239583333333336,-0.06259259259259262],[-0.4359375,-0.05814814814814811],[-0.38822916666666674,-0.03129629629629625],[-0.36354166666666665,-0.04148148148148144],[-0.3388541666666666,-0.051666666666666625],[-0.3188541666666667,-0.06555555555555552],[-0.2751041666666667,-0.05944444444444449],[-0.25718749999999996,-0.07074074074074072],[-0.22135416666666666,-0.07148148148148152],[-0.18552083333333336,-0.03185185185185194],[-0.1625,-0.03166666666666671],[-0.14229166666666668,-0.032777777777777864],[-0.11625000000000002,-0.03759259259259251],[-0.06468750000000002,-0.027037037037037078],[-0.011562500000000024,-0.008148148148148106],[0.042604166666666644,0.014629629629629588],[0.07302083333333324,0.017407407407407365],[0.09572916666666677,0.007037037037036953],[0.10052083333333334,-0.013888888888888888],[0.10052083333333334,-0.013888888888888888],[0.09666666666666662,-0.05851851851851856],[0.09666666666666662,-0.05851851851851856],[0.07708333333333334,-0.08981481481481482],[0.07708333333333334,-0.08981481481481482],[0.08208333333333329,-0.11259259259259262],[0.06822916666666666,-0.13129629629629624],[0.05437500000000005,-0.15],[0.05437500000000005,-0.15],[0.049479166666666664,-0.1661111111111111],[0.036666666666666715,-0.19611111111111107],[0.0328125,-0.21962962962962967],[0.022083333333333382,-0.2037037037037037],[0.022395833333333334,-0.17370370370370372],[0.022395833333333334,-0.17370370370370372],[0.03718750000000005,-0.11500000000000005],[0.06645833333333329,-0.059999999999999956],[0.06291666666666665,-0.012222222222222264],[0.07239583333333334,0.03518518518518519],[0.08791666666666677,0.07037037037037037],[0.09020833333333324,0.08666666666666659],[0.09885416666666676,0.11555555555555551],[0.09822916666666662,0.14907407407407408],[0.11218750000000005,0.15629629629629627],[0.1109375,0.14759259259259266],[0.10385416666666672,0.1338888888888888],[0.09489583333333323,0.1359259259259259],[0.09072916666666657,0.1300000000000001],[0.09052083333333343,0.12777777777777777],[0.07864583333333333,0.14740740740740746],[0.07864583333333333,0.14740740740740746],[0.07843749999999995,0.1646296296296296],[0.07218749999999995,0.19074074074074074],[0.06604166666666664,0.1992592592592593],[0.06895833333333339,0.2140740740740741],[0.07479166666666662,0.21648148148148144],[0.07635416666666663,0.23722222222222225],[0.08708333333333323,0.24740740740740744],[0.09239583333333339,0.2601851851851852],[0.08125,0.2766666666666666],[0.07729166666666672,0.28351851851851856],[0.0740624999999999,0.35611111111111104],[0.07458333333333324,0.42018518518518516],[0.07458333333333324,0.42018518518518516],[0.0626041666666667,0.4727777777777777],[0.0626041666666667,0.4727777777777777],[0.041562499999999974,0.519074074074074],[0.041562499999999974,0.519074074074074],[0.0009374999999999763,0.5581481481481481],[0.0009374999999999763,0.5581481481481481],[-0.03895833333333331,0.5885185185185184],[-0.09781249999999998,0.5979629629629629],[-0.09781249999999998,0.5979629629629629],[-0.1482291666666666,0.6038888888888889],[-0.1482291666666666,0.6038888888888889],[-0.1921875,0.6070370370370369],[-0.1921875,0.6070370370370369],[-0.22989583333333338,0.6088888888888888],[-0.22989583333333338,0.6088888888888888],[-0.2760416666666667,0.5477777777777777],[-0.2760416666666667,0.5477777777777777],[-0.32687499999999997,0.4727777777777777],[-0.32687499999999997,0.4727777777777777],[-0.3686458333333333,0.4050000000000001],[-0.3686458333333333,0.4050000000000001],[-0.4126041666666667,0.365925925925926],[-0.4126041666666667,0.365925925925926],[-0.4348958333333333,0.34148148148148144],[-0.44947916666666665,0.30111111111111116],[-0.4546875,0.28055555555555556],[-0.46604166666666663,0.24722222222222223],[-0.4713541666666667,0.20925925925925926],[-0.4736458333333333,0.1875925925925925],[-0.46208333333333335,0.19462962962962968],[-0.4365625,0.17166666666666675],[-0.40739583333333335,0.1594444444444445],[-0.3266666666666667,0.18796296296296297],[-0.2467708333333333,0.22333333333333338],[-0.16541666666666663,0.2564814814814815],[-0.08406250000000005,0.28962962962962957],[0.0010416666666666667,0.31870370370370377],[0.08427083333333343,0.3442592592592592],[0.1388541666666666,0.3253703703703705],[0.190625,0.30685185185185193],[0.24010416666666667,0.3296296296296296],[0.24010416666666667,0.3296296296296296],[0.28020833333333334,0.34],[0.28020833333333334,0.34],[0.29677083333333343,0.29370370370370374],[0.30354166666666677,0.24759259259259267],[0.30135416666666665,0.17759259259259255],[0.29812500000000003,0.11388888888888889],[0.2977083333333333,0.07462962962962955],[0.2991666666666667,0.03888888888888889],[0.3099999999999999,0.028888888888888933],[0.3085416666666667,-0.0025925925925925505],[0.2861458333333334,-0.0477777777777777],[0.27312500000000006,-0.08055555555555556],[0.2625,-0.10055555555555558],[0.2616666666666667,-0.12074074074074072],[0.2491666666666667,-0.11592592592592597],[0.23770833333333338,-0.11740740740740736],[0.23645833333333333,-0.1022222222222222],[0.2352083333333333,-0.08703703703703704],[0.24145833333333327,-0.08462962962962961],[0.24770833333333328,-0.08222222222222218],[0.2673958333333334,-0.06166666666666669],[0.29229166666666656,-0.026666666666666623],[0.28895833333333343,-0.01722222222222214],[0.2664583333333333,-0.015000000000000043],[0.25895833333333323,-0.005370370370370328],[0.2439583333333334,-0.004259259259259175],[0.21583333333333338,0.003888888888888931],[0.21583333333333338,0.003888888888888931],[0.17822916666666658,-0.01592592592592597],[0.14697916666666658,-0.004074074074074159],[0.11572916666666658,0.007777777777777862],[0.08729166666666661,0.017407407407407365],[0.06177083333333329,0.024814814814814772],[0.03739583333333331,0.01722222222222214],[0.007500000000000047,0.018148148148148063],[-0.022395833333333334,0.01907407407407399],[-0.07864583333333333,0.026851851851851852],[-0.07864583333333333,0.026851851851851852],[-0.13083333333333336,0.015000000000000043],[-0.13083333333333336,0.015000000000000043],[-0.17218749999999997,0.044444444444444446],[-0.2311458333333333,0.043703703703703745],[-0.28479166666666667,0.06333333333333342],[-0.3384375,0.08296296296296288],[-0.40375,0.0742592592592593],[-0.4702083333333333,0.08055555555555556],[-0.4840625,0.11129629629629634],[-0.5040625,0.12851851851851848],[-0.49020833333333336,0.14740740740740746],[-0.4630208333333333,0.1625925925925925],[-0.43718750000000006,0.16444444444444437],[-0.4109375,0.18481481481481474],[-0.38999999999999996,0.18481481481481474],[-0.37229166666666663,0.1838888888888888],[-0.35104166666666664,0.19907407407407407],[-0.3297916666666667,0.21425925925925934],[-0.3408333333333334,0.19000000000000003],[-0.34395833333333337,0.19759259259259268],[-0.3376041666666667,0.1794444444444444],[-0.34572916666666664,0.1609259259259259],[-0.36656249999999996,0.15314814814814823],[-0.37562500000000004,0.1418518518518519],[-0.3733333333333333,0.12111111111111107],[-0.36354166666666665,0.10018518518518522],[-0.3016666666666667,0.06722222222222214],[-0.2397916666666667,0.03425925925925926],[-0.1453125,0.01648148148148144],[-0.05260416666666667,-0.01962962962962967],[0.021145833333333287,-0.034074074074074034],[0.09489583333333323,-0.0485185185185186],[0.1742708333333333,-0.0742592592592593],[0.2671875,-0.09240740740740737],[0.34874999999999995,-0.10111111111111115],[0.4101041666666667,-0.13388888888888892],[0.4193749999999999,-0.15462962962962962],[0.42916666666666664,-0.16814814814814816],[0.41072916666666665,-0.18314814814814812],[0.39395833333333335,-0.19981481481481478],[0.3866666666666667,-0.21240740740740738],[0.3793750000000001,-0.225],[0.3859375,-0.23796296296296296],[0.3789583333333333,-0.25851851851851854],[0.3789583333333333,-0.25851851851851854],[0.36593749999999997,-0.27518518518518525],[0.3586458333333333,-0.2535185185185185],[0.35135416666666663,-0.23185185185185184],[0.32697916666666677,-0.24222222222222226],[0.3026041666666667,-0.25259259259259254],[0.29093749999999996,-0.2561111111111111],[0.29093749999999996,-0.2561111111111111],[0.27927083333333325,-0.2596296296296296],[0.27927083333333325,-0.2596296296296296],[0.25729166666666664,-0.26481481481481484],[0.25729166666666664,-0.26481481481481484],[0.23166666666666677,-0.26055555555555554],[0.20385416666666673,-0.29314814814814816],[0.20385416666666673,-0.29314814814814816],[0.16458333333333333,-0.2890740740740741],[0.16458333333333333,-0.2890740740740741],[0.1586458333333333,-0.28166666666666673],[0.1586458333333333,-0.28166666666666673],[0.13572916666666662,-0.2911111111111111],[0.12625000000000006,-0.2609259259259259],[0.12156250000000005,-0.20333333333333337],[0.11083333333333342,-0.15092592592592594],[0.10010416666666658,-0.09851851851851849],[0.10010416666666658,-0.09851851851851849],[0.09552083333333337,-0.049074074074074076],[0.09177083333333323,-0.012407407407407492],[0.09020833333333324,0.06111111111111111],[0.10645833333333338,0.07148148148148152],[0.09958333333333323,0.06537037037037029],[0.09958333333333323,0.06537037037037029],[0.09770833333333329,0.07777777777777778],[0.10104166666666667,0.057962962962962876],[0.10104166666666667,0.057962962962962876],[0.09958333333333323,0.010740740740740657],[0.09958333333333323,0.010740740740740657],[0.10802083333333339,-0.03925925925925934],[0.11072916666666661,-0.09351851851851851],[0.1109375,-0.14907407407407408],[0.10843749999999991,-0.21055555555555552],[0.10593750000000005,-0.272037037037037],[0.0990624999999999,-0.2985185185185185],[0.0990624999999999,-0.2985185185185185],[0.09635416666666667,-0.3301851851851852],[0.10427083333333324,-0.357962962962963],[0.1078125,-0.3757407407407407],[0.10822916666666677,-0.35537037037037034],[0.09041666666666662,-0.3322222222222222],[0.08708333333333323,-0.3344444444444445],[0.08854166666666667,-0.3292592592592593],[0.09229166666666658,-0.28425925925925927],[0.09604166666666672,-0.23925925925925923],[0.1256249999999999,-0.2324074074074074],[0.12114583333333329,-0.22000000000000003],[0.14135416666666673,-0.18425925925925926],[0.1638541666666666,-0.1411111111111111],[0.16375000000000003,-0.15999999999999995],[0.16364583333333324,-0.17888888888888893],[0.17385416666666675,-0.18703703703703703],[0.17312500000000006,-0.17388888888888884],[0.15458333333333343,-0.17518518518518522],[0.15072916666666672,-0.20833333333333334],[0.12510416666666657,-0.21574074074074073],[0.14187500000000006,-0.21203703703703702],[0.13531250000000009,-0.23722222222222225],[0.11239583333333343,-0.2718518518518519],[0.11520833333333323,-0.2825925925925926],[0.11520833333333323,-0.2825925925925926],[0.11583333333333339,-0.31444444444444447],[0.10385416666666672,-0.3025925925925925],[0.10374999999999991,-0.2512962962962963],[0.11270833333333338,-0.21592592592592597],[0.11833333333333323,-0.16222222222222227],[0.12395833333333334,-0.10851851851851856],[0.12395833333333334,-0.10851851851851856],[0.12708333333333333,-0.12907407407407406],[0.1078125,-0.15092592592592594],[0.1078125,-0.15092592592592594],[0.11218750000000005,-0.15407407407407406],[0.13666666666666671,-0.16277777777777774],[0.15875000000000009,-0.14203703703703702],[0.17697916666666677,-0.14944444444444444],[0.18166666666666675,-0.2264814814814815],[0.1915625000000001,-0.30277777777777776],[0.19114583333333332,-0.36925925925925923],[0.19114583333333332,-0.36925925925925923],[0.17156250000000003,-0.432962962962963],[0.13895833333333343,-0.43277777777777776],[0.15166666666666656,-0.38425925925925924],[0.15614583333333343,-0.36370370370370364],[0.14052083333333343,-0.3375925925925926],[0.12510416666666657,-0.3320370370370371],[0.10281250000000004,-0.2946296296296297],[0.09500000000000004,-0.24981481481481477],[0.060104166666666715,-0.18833333333333332],[0.050937499999999976,-0.13759259259259263],[0.06187499999999998,-0.07185185185185188],[0.07583333333333328,-0.00722222222222218],[0.05354166666666664,-0.0242592592592593],[0.03218749999999997,-0.022592592592592678],[0.022812499999999975,-0.02962962962962963],[0.022812499999999975,-0.02962962962962963],[0.00791666666666669,0.018518518518518517],[-0.002708333333333357,0.03814814814814819],[-0.002708333333333357,0.03814814814814819],[0.0007291666666667141,0.04407407407407399],[0.0007291666666667141,0.04407407407407399],[0.02677083333333338,0.026666666666666623],[0.034791666666666644,0.020370370370370372],[0.04072916666666669,0.0492592592592593],[0.04666666666666662,0.07814814814814823],[0.06958333333333329,0.22111111111111106],[0.08687500000000009,0.35462962962962963],[0.0884375000000001,0.4148148148148148],[0.0884375000000001,0.4148148148148148]]","[[0.03677083333333329,0.12185185185185177,0.0003000001907338401],[0.03677083333333329,0.12185185185185177,0.059499999999999886],[0.049479166666666664,0.12685185185185185,0.08320000028610508],[0.049479166666666664,0.12685185185185185,0.09009999990463058],[0.0515625,0.1449999999999999,0.1163000001907335],[0.0515625,0.1449999999999999,0.12440000009537044],[0.043437500000000046,0.13055555555555556,0.14980000019073714],[0.043437500000000046,0.13055555555555556,0.16359999990463336],[0.026979166666666644,0.11518518518518527,0.17720000028610627],[0.026979166666666644,0.11518518518518527,0.19390000009536834],[0.02020833333333331,0.10111111111111115,0.21050000000000324],[0.02020833333333331,0.10111111111111115,0.22720000028610343],[-0.0014583333333333095,0.08833333333333342,0.24380000019073833],[-0.0014583333333333095,0.08833333333333342,0.26059999990463467],[-0.013750000000000047,0.07814814814814823,0.27730000019073486],[-0.003958333333333286,0.12907407407407415,0.29390000009536976],[-0.005104166666666643,0.13185185185185194,0.31049999999999756],[-0.042499999999999954,0.12185185185185177,0.32980000019073685],[-0.09156249999999998,0.12537037037037047,0.3455999999046355],[-0.12999999999999995,0.11574074074074074,0.36130000019073805],[-0.15885416666666666,0.13203703703703695,0.37970000028610684],[-0.15885416666666666,0.13203703703703695,0.394200000286105],[-0.17937500000000003,0.1492592592592593,0.41059999990463325],[-0.23885416666666662,0.1646296296296296,0.43170000028610644],[-0.23885416666666662,0.1646296296296296,0.44390000009536834],[-0.27364583333333337,0.172037037037037,0.4605999999046304],[-0.303125,0.14574074074074084,0.47970000028610116],[-0.34187500000000004,0.10574074074074079,0.4969000000953656],[-0.3676041666666666,0.10037037037037046,0.5200000000000031],[-0.3676041666666666,0.10037037037037046,0.5275999999046306],[-0.3455208333333334,0.07685185185185185,0.5439000000953698],[-0.31927083333333334,0.02092592592592584,0.5619999999999976],[-0.2930208333333333,-0.034999999999999955,0.5797000002861026],[-0.2829166666666667,-0.0809259259259259,0.594300000190735],[-0.27281249999999996,-0.12685185185185185,0.6132000002861062],[-0.25375000000000003,-0.18518518518518517,0.6297000002861068],[-0.24447916666666672,-0.2368518518518518,0.6452000002861027],[-0.23406250000000003,-0.2581481481481481,0.6634000000953719],[-0.23999999999999996,-0.3146296296296296,0.681599999904634],[-0.2513541666666666,-0.39296296296296296,0.6984000000953685],[-0.2783333333333334,-0.3792592592592593,0.7142000002861053],[-0.2978125,-0.3466666666666666,0.7310999999046359],[-0.33656250000000004,-0.32388888888888884,0.7477000002861018],[-0.37072916666666667,-0.30907407407407406,0.7632000002861048],[-0.41291666666666665,-0.3031481481481481,0.7789000000953692],[-0.43510416666666674,-0.27462962962962967,0.7970999999046313],[-0.45364583333333336,-0.2462962962962963,0.8140000000000001],[-0.4810416666666667,-0.22185185185185188,0.8337000002861004],[-0.4810416666666667,-0.22185185185185188,0.8438000001907326],[-0.4746875,-0.16814814814814816,0.8605000000000018],[-0.49895833333333334,-0.10666666666666672,0.8793000001907387],[-0.5248958333333333,-0.11037037037037041,0.8965999999046304],[-0.5520833333333334,-0.13648148148148145,0.9132000002861034],[-0.5625,-0.13111111111111112,0.9278000001907358],[-0.5729166666666666,-0.1257407407407407,0.9439000000953683],[-0.5701041666666666,-0.11037037037037041,0.9643000001907325],[-0.5672916666666666,-0.09500000000000001,0.980400000095365],[-0.5422916666666667,-0.062037037037037036,0.994099999904634],[-0.5172916666666667,-0.02907407407407416,1.0110000000000028],[-0.5260416666666666,-0.06574074074074074,1.0270999999046353],[-0.48239583333333336,-0.06259259259259262,1.0463000001907332],[-0.4359375,-0.05814814814814811,1.063599999904632],[-0.38822916666666674,-0.03129629629629625,1.078700000286105],[-0.36354166666666665,-0.04148148148148144,1.095800000190735],[-0.3388541666666666,-0.051666666666666625,1.1105000000000018],[-0.3188541666666667,-0.06555555555555552,1.1270999999046367],[-0.2751041666666667,-0.05944444444444449,1.1443000001907393],[-0.25718749999999996,-0.07074074074074072,1.1632000002861034],[-0.22135416666666666,-0.07148148148148152,1.1798000001907383],[-0.18552083333333336,-0.03185185185185194,1.1980999999046347],[-0.1625,-0.03166666666666671,1.2133000001907348],[-0.14229166666666668,-0.032777777777777864,1.2274999999999991],[-0.11625000000000002,-0.03759259259259251,1.2452000002861041],[-0.06468750000000002,-0.027037037037037078,1.2610000000000028],[-0.011562500000000024,-0.008148148148148106,1.2790999999046306],[0.042604166666666644,0.014629629629629588,1.2952000002861013],[0.07302083333333324,0.017407407407407365,1.3104999999999976],[0.09572916666666677,0.007037037037036953,1.3272000002861049],[0.10052083333333334,-0.013888888888888888,1.3444000000953693],[0.10052083333333334,-0.013888888888888888,1.3605000000000018],[0.09666666666666662,-0.05851851851851856,1.377200000286102],[0.09666666666666662,-0.05851851851851856,1.3940999999046326],[0.07708333333333334,-0.08981481481481482,1.4105999999046333],[0.07708333333333334,-0.08981481481481482,1.4272000002861063],[0.08208333333333329,-0.11259259259259262,1.4440000000000026],[0.06822916666666666,-0.13129629629629624,1.460800000190737],[0.05437500000000005,-0.15,1.4779000000953673],[0.05437500000000005,-0.15,1.495599999904634],[0.049479166666666664,-0.1661111111111111,1.5108000001907342],[0.036666666666666715,-0.19611111111111107,1.5285999999046354],[0.0328125,-0.21962962962962967,1.5438000001907355],[0.022083333333333382,-0.2037037037037037,1.5604000000953704],[0.022395833333333334,-0.17370370370370372,1.5772000002861049],[0.022395833333333334,-0.17370370370370372,1.593900000095367],[0.03718750000000005,-0.11500000000000005,1.610599999904636],[0.06645833333333329,-0.059999999999999956,1.627200000286102],[0.06291666666666665,-0.012222222222222264,1.6454999999999984],[0.07239583333333334,0.03518518518518519,1.6610999999046356],[0.08791666666666677,0.07037037037037037,1.6788000001907335],[0.09020833333333324,0.08666666666666659,1.6940999999046369],[0.09885416666666676,0.11555555555555551,1.711500000000001],[0.09822916666666662,0.14907407407407408,1.7303000001907378],[0.11218750000000005,0.15629629629629627,1.7454000000953656],[0.1109375,0.14759259259259266,1.7634000000953662],[0.10385416666666672,0.1338888888888888,1.7789000000953692],[0.09489583333333323,0.1359259259259259,1.7938000001907355],[0.09072916666666657,0.1300000000000001,1.8104999999999976],[0.09052083333333343,0.12777777777777777,1.8270999999046325],[0.07864583333333333,0.14740740740740746,1.8438000001907326],[0.07864583333333333,0.14740740740740746,1.860599999904636],[0.07843749999999995,0.1646296296296296,1.877200000286102],[0.07218749999999995,0.19074074074074074,1.893800000190737],[0.06604166666666664,0.1992592592592593,1.910499999999999],[0.06895833333333339,0.2140740740740741,1.9272000002861063],[0.07479166666666662,0.21648148148148144,1.9454000000953684],[0.07635416666666663,0.23722222222222225,1.9605000000000032],[0.08708333333333323,0.24740740740740744,1.9772000002861034],[0.09239583333333339,0.2601851851851852,1.9938000001907383],[0.08125,0.2766666666666666,2.011800000190739],[0.07729166666666672,0.28351851851851856,2.0270999999046353],[0.0740624999999999,0.35611111111111104,2.047700000286106],[0.07458333333333324,0.42018518518518516,2.0619000000953704],[0.07458333333333324,0.42018518518518516,2.077200000286105],[0.0626041666666667,0.4727777777777777,2.0938000001907326],[0.0626041666666667,0.4727777777777777,2.110599999904636],[0.041562499999999974,0.519074074074074,2.127200000286102],[0.041562499999999974,0.519074074074074,2.143900000095371],[0.0009374999999999763,0.5581481481481481,2.160499999999999],[0.0009374999999999763,0.5581481481481481,2.177099999904634],[-0.03895833333333331,0.5885185185185184,2.1939000000953683],[-0.09781249999999998,0.5979629629629629,2.215900000095367],[-0.09781249999999998,0.5979629629629629,2.2272000002861034],[-0.1482291666666666,0.6038888888888889,2.2439000000953655],[-0.1482291666666666,0.6038888888888889,2.261000000000003],[-0.1921875,0.6070370370370369,2.2772000002861006],[-0.1921875,0.6070370370370369,2.2938000001907355],[-0.22989583333333338,0.6088888888888888,2.3104999999999976],[-0.22989583333333338,0.6088888888888888,2.3270999999046325],[-0.2760416666666667,0.5477777777777777,2.3480999999046333],[-0.2760416666666667,0.5477777777777777,2.360599999904636],[-0.32687499999999997,0.4727777777777777,2.3770999999046367],[-0.32687499999999997,0.4727777777777777,2.394200000286105],[-0.3686458333333333,0.4050000000000001,2.4105999999046333],[-0.3686458333333333,0.4050000000000001,2.4272000002861063],[-0.4126041666666667,0.365925925925926,2.4439000000953683],[-0.4126041666666667,0.365925925925926,2.4605000000000032],[-0.4348958333333333,0.34148148148148144,2.4772000002861034],[-0.44947916666666665,0.30111111111111116,2.4938000001907383],[-0.4546875,0.28055555555555556,2.5105000000000004],[-0.46604166666666663,0.24722222222222223,2.5272000002861006],[-0.4713541666666667,0.20925925925925926,2.5438000001907355],[-0.4736458333333333,0.1875925925925925,2.5604999999999976],[-0.46208333333333335,0.19462962962962968,2.577200000286105],[-0.4365625,0.17166666666666675,2.5938000001907326],[-0.40739583333333335,0.1594444444444445,2.610500000000002],[-0.3266666666666667,0.18796296296296297,2.6270999999046367],[-0.2467708333333333,0.22333333333333338,2.643800000190737],[-0.16541666666666663,0.2564814814814815,2.660499999999999],[-0.08406250000000005,0.28962962962962957,2.677099999904634],[0.0010416666666666667,0.31870370370370377,2.693800000190734],[0.08427083333333343,0.3442592592592592,2.7105000000000032],[0.1388541666666666,0.3253703703703705,2.727400000095372],[0.190625,0.30685185185185193,2.7439000000953655],[0.24010416666666667,0.3296296296296296,2.761900000095366],[0.24010416666666667,0.3296296296296296,2.7772000002861006],[0.28020833333333334,0.34,2.7939000000953698],[0.28020833333333334,0.34,2.8104999999999976],[0.29677083333333343,0.29370370370370374,2.8270999999046325],[0.30354166666666677,0.24759259259259267,2.8438000001907326],[0.30135416666666665,0.17759259259259255,2.860599999904636],[0.29812500000000003,0.11388888888888889,2.8770999999046367],[0.2977083333333333,0.07462962962962955,2.893800000190737],[0.2991666666666667,0.03888888888888889,2.9105999999046333],[0.3099999999999999,0.028888888888888933,2.9272000002861063],[0.3085416666666667,-0.0025925925925925505,2.943800000190734],[0.2861458333333334,-0.0477777777777777,2.961200000286105],[0.27312500000000006,-0.08055555555555556,2.977099999904631],[0.2625,-0.10055555555555558,2.9938000001907383],[0.2616666666666667,-0.12074074074074072,3.0105000000000004],[0.2491666666666667,-0.11592592592592597,3.0270999999046353],[0.23770833333333338,-0.11740740740740736,3.0438000001907355],[0.23645833333333333,-0.1022222222222222,3.0604999999999976],[0.2352083333333333,-0.08703703703703704,3.078400000095371],[0.24145833333333327,-0.08462962962962961,3.0938000001907326],[0.24770833333333328,-0.08222222222222218,3.110599999904636],[0.2673958333333334,-0.06166666666666669,3.1270999999046367],[0.29229166666666656,-0.026666666666666623,3.1477000002861004],[0.28895833333333343,-0.01722222222222214,3.165200000286106],[0.2664583333333333,-0.015000000000000043,3.1817000002861064],[0.25895833333333323,-0.005370370370370328,3.1980999999046347],[0.2439583333333334,-0.004259259259259175,3.214099999904633],[0.21583333333333338,0.003888888888888931,3.2305999999046335],[0.21583333333333338,0.003888888888888931,3.2438000001907383],[0.17822916666666658,-0.01592592592592597,3.2605000000000004],[0.14697916666666658,-0.004074074074074159,3.2770999999046353],[0.11572916666666658,0.007777777777777862,3.2944999999999993],[0.08729166666666661,0.017407407407407365,3.3104999999999976],[0.06177083333333329,0.024814814814814772,3.327200000286105],[0.03739583333333331,0.01722222222222214,3.3438000001907326],[0.007500000000000047,0.018148148148148063,3.360500000000002],[-0.022395833333333334,0.01907407407407399,3.3770999999046367],[-0.07864583333333333,0.026851851851851852,3.396500000000003],[-0.07864583333333333,0.026851851851851852,3.410499999999999],[-0.13083333333333336,0.015000000000000043,3.4272000002861063],[-0.13083333333333336,0.015000000000000043,3.443800000190734],[-0.17218749999999997,0.044444444444444446,3.4605999999046304],[-0.2311458333333333,0.043703703703703745,3.4772000002861034],[-0.28479166666666667,0.06333333333333342,3.4938000001907383],[-0.3384375,0.08296296296296288,3.5105000000000004],[-0.40375,0.0742592592592593,3.5270999999046353],[-0.4702083333333333,0.08055555555555556,3.5438000001907355],[-0.4840625,0.11129629629629634,3.563599999904632],[-0.5040625,0.12851851851851848,3.579500000000003],[-0.49020833333333336,0.14740740740740746,3.593900000095367],[-0.4630208333333333,0.1625925925925925,3.6112000002861038],[-0.43718750000000006,0.16444444444444437,3.627599999904632],[-0.4109375,0.18481481481481474,3.643900000095371],[-0.38999999999999996,0.18481481481481474,3.661900000095372],[-0.37229166666666663,0.1838888888888888,3.6805999999046364],[-0.35104166666666664,0.19907407407407407,3.6950999999046346],[-0.3297916666666667,0.21425925925925934,3.7118000001907347],[-0.3408333333333334,0.19000000000000003,3.727099999904631],[-0.34395833333333337,0.19759259259259268,3.7438000001907383],[-0.3376041666666667,0.1794444444444444,3.7612000002861024],[-0.34572916666666664,0.1609259259259259,3.7785999999046354],[-0.36656249999999996,0.15314814814814823,3.793700000286101],[-0.37562500000000004,0.1418518518518519,3.8104000000953704],[-0.3733333333333333,0.12111111111111107,3.827200000286105],[-0.36354166666666665,0.10018518518518522,3.8437000002861055],[-0.3016666666666667,0.06722222222222214,3.8608000001907357],[-0.2397916666666667,0.03425925925925926,3.877200000286102],[-0.1453125,0.01648148148148144,3.8937000002861026],[-0.05260416666666667,-0.01962962962962967,3.910499999999999],[0.021145833333333287,-0.034074074074074034,3.9275999999046363],[0.09489583333333323,-0.0485185185185186,3.943800000190734],[0.1742708333333333,-0.0742592592592593,3.962300000190737],[0.2671875,-0.09240740740740737,3.9790999999046335],[0.34874999999999995,-0.10111111111111115,3.9939999999999998],[0.4101041666666667,-0.13388888888888892,4.0109000000953685],[0.4193749999999999,-0.15462962962962962,4.027400000095369],[0.42916666666666664,-0.16814814814814816,4.0438000001907355],[0.41072916666666665,-0.18314814814814812,4.061700000286102],[0.39395833333333335,-0.19981481481481478,4.0770999999046325],[0.3866666666666667,-0.21240740740740738,4.093800000190733],[0.3793750000000001,-0.225,4.110700000286101],[0.3859375,-0.23796296296296296,4.127099999904637],[0.3789583333333333,-0.25851851851851854,4.143700000286103],[0.3789583333333333,-0.25851851851851854,4.160599999904633],[0.36593749999999997,-0.27518518518518525,4.177300000190733],[0.3586458333333333,-0.2535185185185185,4.1937000002861],[0.35135416666666663,-0.23185185185185184,4.211900000095369],[0.32697916666666677,-0.24222222222222226,4.227099999904631],[0.3026041666666667,-0.25259259259259254,4.244099999904634],[0.29093749999999996,-0.2561111111111111,4.261900000095366],[0.29093749999999996,-0.2561111111111111,4.277099999904635],[0.27927083333333325,-0.2596296296296296,4.2938000001907355],[0.27927083333333325,-0.2596296296296296,4.3104999999999976],[0.25729166666666664,-0.26481481481481484,4.3270999999046325],[0.25729166666666664,-0.26481481481481484,4.343900000095367],[0.23166666666666677,-0.26055555555555554,4.360500000000002],[0.20385416666666673,-0.29314814814814816,4.384800000190737],[0.20385416666666673,-0.29314814814814816,4.394599999904628],[0.16458333333333333,-0.2890740740740741,4.410499999999999],[0.16458333333333333,-0.2890740740740741,4.438200000286102],[0.1586458333333333,-0.28166666666666673,4.445499999999996],[0.1586458333333333,-0.28166666666666673,4.46070000028611],[0.13572916666666662,-0.2911111111111111,4.477400000095372],[0.12625000000000006,-0.2609259259259259,4.4972000002860995],[0.12156250000000005,-0.20333333333333337,4.513700000286107],[0.11083333333333342,-0.15092592592592594,4.52809999990464],[0.10010416666666658,-0.09851851851851849,4.549800000190743],[0.10010416666666658,-0.09851851851851849,4.5608000001907385],[0.09552083333333337,-0.049074074074074076,4.577599999904635],[0.09177083333333323,-0.012407407407407492,4.593900000095374],[0.09020833333333324,0.06111111111111111,4.6137000002861015],[0.10645833333333338,0.07148148148148152,4.629800000190741],[0.09958333333333323,0.06537037037037029,4.656900000095362],[0.09958333333333323,0.06537037037037029,4.670099999904636],[0.09770833333333329,0.07777777777777778,4.677200000286106],[0.10104166666666667,0.057962962962962876,4.693900000095368],[0.10104166666666667,0.057962962962962876,4.71070000028611],[0.09958333333333323,0.010740740740740657,4.731400000095363],[0.09958333333333323,0.010740740740740657,4.744],[0.10802083333333339,-0.03925925925925934,4.760900000095361],[0.11072916666666661,-0.09351851851851851,4.782900000095367],[0.1109375,-0.14907407407407408,4.797700000286099],[0.10843749999999991,-0.21055555555555552,4.814300000190741],[0.10593750000000005,-0.272037037037037,4.82970000028611],[0.0990624999999999,-0.2985185185185185,4.8482000002860985],[0.0990624999999999,-0.2985185185185185,4.8610999999046385],[0.09635416666666667,-0.3301851851851852,4.877300000190729],[0.10427083333333324,-0.357962962962963,4.893800000190737],[0.1078125,-0.3757407407407407,4.910400000095365],[0.10822916666666677,-0.35537037037037034,4.927099999904627],[0.09041666666666662,-0.3322222222222222,4.943800000190734],[0.08708333333333323,-0.3344444444444445,4.965200000286103],[0.08854166666666667,-0.3292592592592593,4.980700000286106],[0.09229166666666658,-0.28425925925925927,4.995099999904639],[0.09604166666666672,-0.23925925925925923,5.010400000095373],[0.1256249999999999,-0.2324074074074074,5.027099999904635],[0.12114583333333329,-0.22000000000000003,5.045099999904636],[0.14135416666666673,-0.18425925925925926,5.060900000095373],[0.1638541666666666,-0.1411111111111111,5.079400000095362],[0.16375000000000003,-0.15999999999999995,5.094999999999999],[0.16364583333333324,-0.17888888888888893,5.112400000095363],[0.17385416666666675,-0.18703703703703703,5.132000000000005],[0.17312500000000006,-0.17388888888888884,5.147500000000008],[0.15458333333333343,-0.17518518518518522,5.162999999999997],[0.15072916666666672,-0.20833333333333334,5.178400000095365],[0.12510416666666657,-0.21574074074074073,5.193800000190734],[0.14187500000000006,-0.21203703703703702,5.211800000190735],[0.13531250000000009,-0.23722222222222225,5.227200000286103],[0.11239583333333343,-0.2718518518518519,5.243800000190731],[0.11520833333333323,-0.2825925925925926,5.2645999999046325],[0.11520833333333323,-0.2825925925925926,5.282499999999999],[0.11583333333333339,-0.31444444444444447,5.298200000286101],[0.10385416666666672,-0.3025925925925925,5.314300000190741],[0.10374999999999991,-0.2512962962962963,5.328400000095371],[0.11270833333333338,-0.21592592592592597,5.343900000095374],[0.11833333333333323,-0.16222222222222227,5.360700000286101],[0.12395833333333334,-0.10851851851851856,5.379599999904627],[0.12395833333333334,-0.10851851851851856,5.39409999990464],[0.12708333333333333,-0.12907407407407406,5.4107000002860985],[0.1078125,-0.15092592592592594,5.433099999904627],[0.1078125,-0.15092592592592594,5.444700000286105],[0.11218750000000005,-0.15407407407407406,5.46070000028611],[0.13666666666666671,-0.16277777777777774,5.477300000190738],[0.15875000000000009,-0.14203703703703702,5.4983000001907385],[0.17697916666666677,-0.14944444444444444,5.513400000095373],[0.18166666666666675,-0.2264814814814815,5.527400000095369],[0.1915625000000001,-0.30277777777777776,5.548000000000002],[0.19114583333333332,-0.36925925925925923,5.564099999904627],[0.19114583333333332,-0.36925925925925923,5.578099999904637],[0.17156250000000003,-0.432962962962963,5.594300000190742],[0.13895833333333343,-0.43277777777777776,5.614000000000004],[0.15166666666666656,-0.38425925925925924,5.6282000002861],[0.15614583333333343,-0.36370370370370364,5.644599999904628],[0.14052083333333343,-0.3375925925925926,5.660800000190733],[0.12510416666666657,-0.3320370370370371,5.6799000000953725],[0.10281250000000004,-0.2946296296296297,5.694200000286102],[0.09500000000000004,-0.24981481481481477,5.71070000028611],[0.060104166666666715,-0.18833333333333332,5.729200000286099],[0.050937499999999976,-0.13759259259259263,5.744200000286099],[0.06187499999999998,-0.07185185185185188,5.761700000286098],[0.07583333333333328,-0.00722222222222218,5.779900000095367],[0.05354166666666664,-0.0242592592592593,5.794800000190733],[0.03218749999999997,-0.022592592592592678,5.811300000190741],[0.022812499999999975,-0.02962962962962963,5.8334000000953665],[0.022812499999999975,-0.02962962962962963,5.843999999999994],[0.00791666666666669,0.018518518518518517,5.860800000190736],[-0.002708333333333357,0.03814814814814819,5.8774000000953635],[-0.002708333333333357,0.03814814814814819,5.896900000095371],[0.0007291666666667141,0.04407407407407399,5.9107000002860985],[0.0007291666666667141,0.04407407407407399,5.9273000001907405],[0.02677083333333338,0.026666666666666623,5.944000000000003],[0.034791666666666644,0.020370370370370372,5.964099999904633],[0.04072916666666669,0.0492592592592593,5.97780000019074],[0.04666666666666662,0.07814814814814823,5.994099999904634],[0.06958333333333329,0.22111111111111106,6.0105000000000075],[0.08687500000000009,0.35462962962962963,6.02920000028611],[0.0884375000000001,0.4148148148148148,6.043800000190743],[0.0884375000000001,0.4148148148148148,6.06040000009537]]","[0.0003000001907338401,0.059499999999999886,0.08320000028610508,0.09009999990463058,0.1163000001907335,0.12440000009537044,0.14980000019073714,0.16359999990463336,0.17720000028610627,0.19390000009536834,0.21050000000000324,0.22720000028610343,0.24380000019073833,0.26059999990463467,0.27730000019073486,0.29390000009536976,0.31049999999999756,0.32980000019073685,0.3455999999046355,0.36130000019073805,0.37970000028610684,0.394200000286105,0.41059999990463325,0.43170000028610644,0.44390000009536834,0.4605999999046304,0.47970000028610116,0.4969000000953656,0.5200000000000031,0.5275999999046306,0.5439000000953698,0.5619999999999976,0.5797000002861026,0.594300000190735,0.6132000002861062,0.6297000002861068,0.6452000002861027,0.6634000000953719,0.681599999904634,0.6984000000953685,0.7142000002861053,0.7310999999046359,0.7477000002861018,0.7632000002861048,0.7789000000953692,0.7970999999046313,0.8140000000000001,0.8337000002861004,0.8438000001907326,0.8605000000000018,0.8793000001907387,0.8965999999046304,0.9132000002861034,0.9278000001907358,0.9439000000953683,0.9643000001907325,0.980400000095365,0.994099999904634,1.0110000000000028,1.0270999999046353,1.0463000001907332,1.063599999904632,1.078700000286105,1.095800000190735,1.1105000000000018,1.1270999999046367,1.1443000001907393,1.1632000002861034,1.1798000001907383,1.1980999999046347,1.2133000001907348,1.2274999999999991,1.2452000002861041,1.2610000000000028,1.2790999999046306,1.2952000002861013,1.3104999999999976,1.3272000002861049,1.3444000000953693,1.3605000000000018,1.377200000286102,1.3940999999046326,1.4105999999046333,1.4272000002861063,1.4440000000000026,1.460800000190737,1.4779000000953673,1.495599999904634,1.5108000001907342,1.5285999999046354,1.5438000001907355,1.5604000000953704,1.5772000002861049,1.593900000095367,1.610599999904636,1.627200000286102,1.6454999999999984,1.6610999999046356,1.6788000001907335,1.6940999999046369,1.711500000000001,1.7303000001907378,1.7454000000953656,1.7634000000953662,1.7789000000953692,1.7938000001907355,1.8104999999999976,1.8270999999046325,1.8438000001907326,1.860599999904636,1.877200000286102,1.893800000190737,1.910499999999999,1.9272000002861063,1.9454000000953684,1.9605000000000032,1.9772000002861034,1.9938000001907383,2.011800000190739,2.0270999999046353,2.047700000286106,2.0619000000953704,2.077200000286105,2.0938000001907326,2.110599999904636,2.127200000286102,2.143900000095371,2.160499999999999,2.177099999904634,2.1939000000953683,2.215900000095367,2.2272000002861034,2.2439000000953655,2.261000000000003,2.2772000002861006,2.2938000001907355,2.3104999999999976,2.3270999999046325,2.3480999999046333,2.360599999904636,2.3770999999046367,2.394200000286105,2.4105999999046333,2.4272000002861063,2.4439000000953683,2.4605000000000032,2.4772000002861034,2.4938000001907383,2.5105000000000004,2.5272000002861006,2.5438000001907355,2.5604999999999976,2.577200000286105,2.5938000001907326,2.610500000000002,2.6270999999046367,2.643800000190737,2.660499999999999,2.677099999904634,2.693800000190734,2.7105000000000032,2.727400000095372,2.7439000000953655,2.761900000095366,2.7772000002861006,2.7939000000953698,2.8104999999999976,2.8270999999046325,2.8438000001907326,2.860599999904636,2.8770999999046367,2.893800000190737,2.9105999999046333,2.9272000002861063,2.943800000190734,2.961200000286105,2.977099999904631,2.9938000001907383,3.0105000000000004,3.0270999999046353,3.0438000001907355,3.0604999999999976,3.078400000095371,3.0938000001907326,3.110599999904636,3.1270999999046367,3.1477000002861004,3.165200000286106,3.1817000002861064,3.1980999999046347,3.214099999904633,3.2305999999046335,3.2438000001907383,3.2605000000000004,3.2770999999046353,3.2944999999999993,3.3104999999999976,3.327200000286105,3.3438000001907326,3.360500000000002,3.3770999999046367,3.396500000000003,3.410499999999999,3.4272000002861063,3.443800000190734,3.4605999999046304,3.4772000002861034,3.4938000001907383,3.5105000000000004,3.5270999999046353,3.5438000001907355,3.563599999904632,3.579500000000003,3.593900000095367,3.6112000002861038,3.627599999904632,3.643900000095371,3.661900000095372,3.6805999999046364,3.6950999999046346,3.7118000001907347,3.727099999904631,3.7438000001907383,3.7612000002861024,3.7785999999046354,3.793700000286101,3.8104000000953704,3.827200000286105,3.8437000002861055,3.8608000001907357,3.877200000286102,3.8937000002861026,3.910499999999999,3.9275999999046363,3.943800000190734,3.962300000190737,3.9790999999046335,3.9939999999999998,4.0109000000953685,4.027400000095369,4.0438000001907355,4.061700000286102,4.0770999999046325,4.093800000190733,4.110700000286101,4.127099999904637,4.143700000286103,4.160599999904633,4.177300000190733,4.1937000002861,4.211900000095369,4.227099999904631,4.244099999904634,4.261900000095366,4.277099999904635,4.2938000001907355,4.3104999999999976,4.3270999999046325,4.343900000095367,4.360500000000002,4.384800000190737,4.394599999904628,4.410499999999999,4.438200000286102,4.445499999999996,4.46070000028611,4.477400000095372,4.4972000002860995,4.513700000286107,4.52809999990464,4.549800000190743,4.5608000001907385,4.577599999904635,4.593900000095374,4.6137000002861015,4.629800000190741,4.656900000095362,4.670099999904636,4.677200000286106,4.693900000095368,4.71070000028611,4.731400000095363,4.744,4.760900000095361,4.782900000095367,4.797700000286099,4.814300000190741,4.82970000028611,4.8482000002860985,4.8610999999046385,4.877300000190729,4.893800000190737,4.910400000095365,4.927099999904627,4.943800000190734,4.965200000286103,4.980700000286106,4.995099999904639,5.010400000095373,5.027099999904635,5.045099999904636,5.060900000095373,5.079400000095362,5.094999999999999,5.112400000095363,5.132000000000005,5.147500000000008,5.162999999999997,5.178400000095365,5.193800000190734,5.211800000190735,5.227200000286103,5.243800000190731,5.2645999999046325,5.282499999999999,5.298200000286101,5.314300000190741,5.328400000095371,5.343900000095374,5.360700000286101,5.379599999904627,5.39409999990464,5.4107000002860985,5.433099999904627,5.444700000286105,5.46070000028611,5.477300000190738,5.4983000001907385,5.513400000095373,5.527400000095369,5.548000000000002,5.564099999904627,5.578099999904637,5.594300000190742,5.614000000000004,5.6282000002861,5.644599999904628,5.660800000190733,5.6799000000953725,5.694200000286102,5.71070000028611,5.729200000286099,5.744200000286099,5.761700000286098,5.779900000095367,5.794800000190733,5.811300000190741,5.8334000000953665,5.843999999999994,5.860800000190736,5.8774000000953635,5.896900000095371,5.9107000002860985,5.9273000001907405,5.944000000000003,5.964099999904633,5.97780000019074,5.994099999904634,6.0105000000000075,6.02920000028611,6.043800000190743,6.06040000009537]","[1731910847193,1731910847243,1731910847267,1731910847274,1731910847300,1731910847308,1731910847333,1731910847347,1731910847361,1731910847377,1731910847394,1731910847411,1731910847427,1731910847444,1731910847461,1731910847477,1731910847494,1731910847513,1731910847529,1731910847545,1731910847563,1731910847578,1731910847594,1731910847615,1731910847627,1731910847644,1731910847663,1731910847680,1731910847703,1731910847711,1731910847727,1731910847745,1731910847763,1731910847778,1731910847797,1731910847813,1731910847829,1731910847847,1731910847865,1731910847882,1731910847898,1731910847915,1731910847931,1731910847947,1731910847962,1731910847981,1731910847997,1731910848017,1731910848027,1731910848044,1731910848063,1731910848080,1731910848097,1731910848111,1731910848127,1731910848148,1731910848164,1731910848178,1731910848194,1731910848211,1731910848230,1731910848247,1731910848262,1731910848279,1731910848294,1731910848311,1731910848328,1731910848347,1731910848363,1731910848382,1731910848397,1731910848411,1731910848429,1731910848444,1731910848463,1731910848479,1731910848494,1731910848511,1731910848528,1731910848544,1731910848561,1731910848578,1731910848594,1731910848611,1731910848627,1731910848644,1731910848661,1731910848679,1731910848694,1731910848712,1731910848727,1731910848744,1731910848761,1731910848777,1731910848794,1731910848811,1731910848829,1731910848845,1731910848862,1731910848878,1731910848895,1731910848914,1731910848929,1731910848947,1731910848962,1731910848977,1731910848994,1731910849011,1731910849027,1731910849044,1731910849061,1731910849077,1731910849094,1731910849111,1731910849129,1731910849144,1731910849161,1731910849177,1731910849195,1731910849211,1731910849231,1731910849245,1731910849261,1731910849277,1731910849294,1731910849311,1731910849327,1731910849344,1731910849361,1731910849377,1731910849399,1731910849411,1731910849427,1731910849444,1731910849461,1731910849477,1731910849494,1731910849511,1731910849532,1731910849544,1731910849561,1731910849578,1731910849594,1731910849611,1731910849627,1731910849644,1731910849661,1731910849677,1731910849694,1731910849711,1731910849727,1731910849744,1731910849761,1731910849777,1731910849794,1731910849811,1731910849827,1731910849844,1731910849861,1731910849877,1731910849894,1731910849911,1731910849927,1731910849945,1731910849961,1731910849977,1731910849994,1731910850011,1731910850027,1731910850044,1731910850061,1731910850077,1731910850094,1731910850111,1731910850127,1731910850145,1731910850161,1731910850177,1731910850194,1731910850211,1731910850227,1731910850244,1731910850262,1731910850277,1731910850294,1731910850311,1731910850331,1731910850349,1731910850365,1731910850382,1731910850397,1731910850414,1731910850427,1731910850444,1731910850461,1731910850478,1731910850494,1731910850511,1731910850527,1731910850544,1731910850561,1731910850580,1731910850594,1731910850611,1731910850627,1731910850644,1731910850661,1731910850677,1731910850694,1731910850711,1731910850727,1731910850747,1731910850763,1731910850777,1731910850795,1731910850811,1731910850827,1731910850845,1731910850864,1731910850879,1731910850895,1731910850911,1731910850927,1731910850945,1731910850962,1731910850977,1731910850994,1731910851011,1731910851027,1731910851044,1731910851061,1731910851077,1731910851094,1731910851111,1731910851127,1731910851146,1731910851163,1731910851177,1731910851194,1731910851211,1731910851227,1731910851245,1731910851261,1731910851277,1731910851294,1731910851311,1731910851327,1731910851344,1731910851361,1731910851377,1731910851395,1731910851411,1731910851427,1731910851445,1731910851461,1731910851477,1731910851494,1731910851511,1731910851527,1731910851544,1731910851568,1731910851578,1731910851594,1731910851622,1731910851629,1731910851644,1731910851661,1731910851681,1731910851697,1731910851711,1731910851733,1731910851744,1731910851761,1731910851777,1731910851797,1731910851813,1731910851840,1731910851854,1731910851861,1731910851877,1731910851894,1731910851915,1731910851928,1731910851944,1731910851966,1731910851981,1731910851998,1731910852013,1731910852032,1731910852045,1731910852061,1731910852077,1731910852094,1731910852111,1731910852127,1731910852149,1731910852164,1731910852179,1731910852194,1731910852211,1731910852229,1731910852244,1731910852263,1731910852278,1731910852296,1731910852315,1731910852331,1731910852346,1731910852362,1731910852377,1731910852395,1731910852411,1731910852427,1731910852448,1731910852466,1731910852482,1731910852498,1731910852512,1731910852527,1731910852544,1731910852563,1731910852578,1731910852594,1731910852617,1731910852628,1731910852644,1731910852661,1731910852682,1731910852697,1731910852711,1731910852731,1731910852747,1731910852762,1731910852778,1731910852797,1731910852812,1731910852828,1731910852844,1731910852863,1731910852878,1731910852894,1731910852913,1731910852928,1731910852945,1731910852963,1731910852978,1731910852995,1731910853017,1731910853027,1731910853044,1731910853061,1731910853080,1731910853094,1731910853111,1731910853127,1731910853148,1731910853161,1731910853178,1731910853194,1731910853213,1731910853227,1731910853244]","[[995.3,605.8],[995.3,605.8],[1007.5,608.5],[1007.5,608.5],[1009.5,618.3],[1009.5,618.3],[1001.7,610.5],[1001.7,610.5],[985.9,602.2],[985.9,602.2],[979.4,594.6],[979.4,594.6],[958.6,587.7],[958.6,587.7],[946.8,582.2],[956.2,609.7],[955.1,611.2],[919.2,605.8],[872.1,607.7],[835.2,602.5],[807.5,611.3],[807.5,611.3],[787.8,620.6],[730.7,628.9],[730.7,628.9],[697.3,632.9],[669,618.7],[631.8,597.1],[607.1,594.2],[607.1,594.2],[628.3,581.5],[653.5,551.3],[678.7,521.1],[688.4,496.3],[698.1,471.5],[716.4,440],[725.3,412.1],[735.3,400.6],[729.6,370.1],[718.7,327.8],[692.8,335.2],[674.1,352.8],[636.9,365.1],[604.1,373.1],[563.6,376.3],[542.3,391.7],[524.5,407],[498.2,420.2],[498.2,420.2],[504.3,449.2],[481,482.4],[456.1,480.4],[430,466.3],[420,469.2],[410,472.1],[412.7,480.4],[415.4,488.7],[439.4,506.5],[463.4,524.3],[455,504.5],[496.9,506.2],[541.5,508.6],[587.3,523.1],[611,517.6],[634.7,512.1],[653.9,504.6],[695.9,507.9],[713.1,501.8],[747.5,501.4],[781.9,522.8],[804,522.9],[823.4,522.3],[848.4,519.7],[897.9,525.4],[948.9,535.6],[1000.9,547.9],[1030.1,549.4],[1051.9,543.8],[1056.5,532.5],[1056.5,532.5],[1052.8,508.4],[1052.8,508.4],[1034,491.5],[1034,491.5],[1038.8,479.2],[1025.5,469.1],[1012.2,459],[1012.2,459],[1007.5,450.3],[995.2,434.1],[991.5,421.4],[981.2,430],[981.5,446.2],[981.5,446.2],[995.7,477.9],[1023.8,507.6],[1020.4,533.4],[1029.5,559],[1044.4,578],[1046.6,586.8],[1054.9,602.4],[1054.3,620.5],[1067.7,624.4],[1066.5,619.7],[1059.7,612.3],[1051.1,613.4],[1047.1,610.2],[1046.9,609],[1035.5,619.6],[1035.5,619.6],[1035.3,628.9],[1029.3,643],[1023.4,647.6],[1026.2,655.6],[1031.8,656.9],[1033.3,668.1],[1043.6,673.6],[1048.7,680.5],[1038,689.4],[1034.2,693.1],[1031.1,732.3],[1031.6,766.9],[1031.6,766.9],[1020.1,795.3],[1020.1,795.3],[999.9,820.3],[999.9,820.3],[960.9,841.4],[960.9,841.4],[922.6,857.8],[866.1,862.9],[866.1,862.9],[817.7,866.1],[817.7,866.1],[775.5,867.8],[775.5,867.8],[739.3,868.8],[739.3,868.8],[695,835.8],[695,835.8],[646.2,795.3],[646.2,795.3],[606.1,758.7],[606.1,758.7],[563.9,737.6],[563.9,737.6],[542.5,724.4],[528.5,702.6],[523.5,691.5],[512.6,673.5],[507.5,653],[505.3,641.3],[516.4,645.1],[540.9,632.7],[568.9,626.1],[646.4,641.5],[723.1,660.6],[801.2,678.5],[879.3,696.4],[961,712.1],[1040.9,725.9],[1093.3,715.7],[1143,705.7],[1190.5,718],[1190.5,718],[1229,723.6],[1229,723.6],[1244.9,698.6],[1251.4,673.7],[1249.3,635.9],[1246.2,601.5],[1245.8,580.3],[1247.2,561],[1257.6,555.6],[1256.2,538.6],[1234.7,514.2],[1222.2,496.5],[1212,485.7],[1211.2,474.8],[1199.2,477.4],[1188.2,476.6],[1187,484.8],[1185.8,493],[1191.8,494.3],[1197.8,495.6],[1216.7,506.7],[1240.6,525.6],[1237.4,530.7],[1215.8,531.9],[1208.6,537.1],[1194.2,537.7],[1167.2,542.1],[1167.2,542.1],[1131.1,531.4],[1101.1,537.8],[1071.1,544.2],[1043.8,549.4],[1019.3,553.4],[995.9,549.3],[967.2,549.8],[938.5,550.3],[884.5,554.5],[884.5,554.5],[834.4,548.1],[834.4,548.1],[794.7,564],[738.1,563.6],[686.6,574.2],[635.1,584.8],[572.4,580.1],[508.6,583.5],[495.3,600.1],[476.1,609.4],[489.4,619.6],[515.5,627.8],[540.3,628.8],[565.5,639.8],[585.6,639.8],[602.6,639.3],[623,647.5],[643.4,655.7],[632.8,642.6],[629.8,646.7],[635.9,636.9],[628.1,626.9],[608.1,622.7],[599.4,616.6],[601.6,605.4],[611,594.1],[670.4,576.3],[729.8,558.5],[820.5,548.9],[909.5,529.4],[980.3,521.6],[1051.1,513.8],[1127.3,499.9],[1216.5,490.1],[1294.8,485.4],[1353.7,467.7],[1362.6,456.5],[1372,449.2],[1354.3,441.1],[1338.2,432.1],[1331.2,425.3],[1324.2,418.5],[1330.5,411.5],[1323.8,400.4],[1323.8,400.4],[1311.3,391.4],[1304.3,403.1],[1297.3,414.8],[1273.9,409.2],[1250.5,403.6],[1239.3,401.7],[1239.3,401.7],[1228.1,399.8],[1228.1,399.8],[1207,397],[1207,397],[1182.4,399.3],[1155.7,381.7],[1155.7,381.7],[1118,383.9],[1118,383.9],[1112.3,387.9],[1112.3,387.9],[1090.3,382.8],[1081.2,399.1],[1076.7,430.2],[1066.4,458.5],[1056.1,486.8],[1056.1,486.8],[1051.7,513.5],[1048.1,533.3],[1046.6,573],[1062.2,578.6],[1055.6,575.3],[1055.6,575.3],[1053.8,582],[1057,571.3],[1057,571.3],[1055.6,545.8],[1055.6,545.8],[1063.7,518.8],[1066.3,489.5],[1066.5,459.5],[1064.1,426.3],[1061.7,393.1],[1055.1,378.8],[1055.1,378.8],[1052.5,361.7],[1060.1,346.7],[1063.5,337.1],[1063.9,348.1],[1046.8,360.6],[1043.6,359.4],[1045,362.2],[1048.6,386.5],[1052.2,410.8],[1080.6,414.5],[1076.3,421.2],[1095.7,440.5],[1117.3,463.8],[1117.2,453.6],[1117.1,443.4],[1126.9,439],[1126.2,446.1],[1108.4,445.4],[1104.7,427.5],[1080.1,423.5],[1096.2,425.5],[1089.9,411.9],[1067.9,393.2],[1070.6,387.4],[1070.6,387.4],[1071.2,370.2],[1059.7,376.6],[1059.6,404.3],[1068.2,423.4],[1073.6,452.4],[1079,481.4],[1079,481.4],[1082,470.3],[1063.5,458.5],[1063.5,458.5],[1067.7,456.8],[1091.2,452.1],[1112.4,463.3],[1129.9,459.3],[1134.4,417.7],[1143.9,376.5],[1143.5,340.6],[1143.5,340.6],[1124.7,306.2],[1093.4,306.3],[1105.6,332.5],[1109.9,343.6],[1094.9,357.7],[1080.1,360.7],[1058.7,380.9],[1051.2,405.1],[1017.7,438.3],[1008.9,465.7],[1019.4,501.2],[1032.8,536.1],[1011.4,526.9],[990.9,527.8],[981.9,524],[981.9,524],[967.6,550],[957.4,560.6],[957.4,560.6],[960.7,563.8],[960.7,563.8],[985.7,554.4],[993.4,551],[999.1,566.6],[1004.8,582.2],[1026.8,659.4],[1043.4,731.5],[1044.9,764],[1044.9,764]]","[-0.132282,0.39684600000000003]","[0.132282,0.39684600000000003]","[0.39684600000000003,0.39684600000000003]","[-0.39684600000000003,-0.132282]","[-0.39684600000000003,0.132282]","[-0.39684600000000003,-0.39684600000000003]","[-0.132282,-0.132282]","[0.132282,-0.132282]","[0.39684600000000003,-0.132282]","[-0.132282,0.132282]","[0.132282,0.132282]","[0.39684600000000003,0.132282]","[-0.132282,-0.39684600000000003]","[0.132282,-0.39684600000000003]","[0.39684600000000003,-0.39684600000000003]",0,0,0,0,1,3,Tablet,25,40,9,1,50,4,1,60,5
