inst1_resp.keys,inst1_resp.rt,calibrationMouse.x,calibrationMouse.y,calibrationMouse.leftButton,calibrationMouse.midButton,calibrationMouse.rightButton,calibrationClick.x,calibrationClick.y,calibrationClick.leftButton,calibrationClick.midButton,calibrationClick.rightButton,trialsc.thisRepN,trialsc.thisTrialN,trialsc.thisN,trialsc.thisIndex,trialsc.ran,calibration_x,calibration_y,participant,session,date,expName,psychopyVersion,OS,frameRate,calibrationClick.clicked_name,ScreenRes_pixels,Camera_pixels,mouse_2.x,mouse_2.y,mouse_2.leftButton,mouse_2.midButton,mouse_2.rightButton,mouse_2.time,mouse_2.clicked_name,mouse.x,mouse.y,mouse.leftButton,mouse.midButton,mouse.rightButton,mouse.time,mouse.clicked_name,Choice,Trial,TrialDuration,MOUSE_GAZE,ET_GAZE,ET_GAZE_x_T,time,unixTime,ET_GAZE_NF,Loc_Bus_label,Loc_Metro_label,Loc_RH_label,Loc_Cost_label,Loc_Travel_label,Loc_Comfort_label,Loc_Bus_cost,Loc_Metro_cost,Loc_RH_cost,Loc_Bus_travel,Loc_Metro_travel,Loc_RH_travel,Loc_Bus_comfort,Loc_Metro_comfort,Loc_RH_comfort,trials.thisRepN,trials.thisTrialN,trials.thisN,trials.thisIndex,trials.ran,Block,Device,RH_cost,RH_travel_time,RH_Comfort,metro_cost,metro_travel_time,metro_Comfort,Bus_cost,Bus_travel_time,Bus_Comfort
space,3.0829,0.082291667,-0.035185185,1,0,0,-0.316666667,0.651851852,0,0,0,0,0,0,8,1,-0.33,0.67,35,001,2024-11-18_16h14.08.019,Attention_exp_legacy,2023.1.0,Win32,60.24096386,,,,,,,,,,,,,,,,,,,,,,,,,,,,,,,,,,,,,,,,,,,,,,,,,,,,,,,,,
,,,,,,,0.03125,-0.718518519,0,0,0,0,1,1,9,1,0,-0.67,35,001,2024-11-18_16h14.08.019,Attention_exp_legacy,2023.1.0,Win32,60.24096386,,,,,,,,,,,,,,,,,,,,,,,,,,,,,,,,,,,,,,,,,,,,,,,,,,,,,,,,,
,,,,,,,-0.325,0.003703704,0,0,0,0,2,2,6,1,-0.33,0,35,001,2024-11-18_16h14.08.019,Attention_exp_legacy,2023.1.0,Win32,60.24096386,,,,,,,,,,,,,,,,,,,,,,,,,,,,,,,,,,,,,,,,,,,,,,,,,,,,,,,,,
,,,,,,,0.009375,0.668518519,0,0,0,0,3,3,13,1,0,0.67,35,001,2024-11-18_16h14.08.019,Attention_exp_legacy,2023.1.0,Win32,60.24096386,,,,,,,,,,,,,,,,,,,,,,,,,,,,,,,,,,,,,,,,,,,,,,,,,,,,,,,,,
,,,,,,,0.003125,0.009259259,0,0,0,0,4,4,11,1,0,0,35,001,2024-11-18_16h14.08.019,Attention_exp_legacy,2023.1.0,Win32,60.24096386,,,,,,,,,,,,,,,,,,,,,,,,,,,,,,,,,,,,,,,,,,,,,,,,,,,,,,,,,
,,,,,,,0.338541667,-0.32962963,0,0,0,0,5,5,15,1,0.33,-0.33,35,001,2024-11-18_16h14.08.019,Attention_exp_legacy,2023.1.0,Win32,60.24096386,,,,,,,,,,,,,,,,,,,,,,,,,,,,,,,,,,,,,,,,,,,,,,,,,,,,,,,,,
,,,,,,,0.003125,0.335185185,0,0,0,0,6,6,12,1,0,0.33,35,001,2024-11-18_16h14.08.019,Attention_exp_legacy,2023.1.0,Win32,60.24096386,,,,,,,,,,,,,,,,,,,,,,,,,,,,,,,,,,,,,,,,,,,,,,,,,,,,,,,,,
,,,,,,,-0.665625,0.003703704,0,0,0,0,7,7,2,1,-0.67,0,35,001,2024-11-18_16h14.08.019,Attention_exp_legacy,2023.1.0,Win32,60.24096386,,,,,,,,,,,,,,,,,,,,,,,,,,,,,,,,,,,,,,,,,,,,,,,,,,,,,,,,,
,,,,,,,-0.6625,-0.322222222,1,0,0,0,8,8,1,1,-0.67,-0.33,35,001,2024-11-18_16h14.08.019,Attention_exp_legacy,2023.1.0,Win32,60.24096386,calibration_square,,,,,,,,,,,,,,,,,,,,,,,,,,,,,,,,,,,,,,,,,,,,,,,,,,,,,,,,
,,,,,,,0.339583333,0.67037037,1,0,0,0,9,9,18,1,0.33,0.67,35,001,2024-11-18_16h14.08.019,Attention_exp_legacy,2023.1.0,Win32,60.24096386,calibration_square,,,,,,,,,,,,,,,,,,,,,,,,,,,,,,,,,,,,,,,,,,,,,,,,,,,,,,,,
,,,,,,,-0.3375,-0.675925926,1,0,0,0,10,10,4,1,-0.33,-0.67,35,001,2024-11-18_16h14.08.019,Attention_exp_legacy,2023.1.0,Win32,60.24096386,calibration_square,,,,,,,,,,,,,,,,,,,,,,,,,,,,,,,,,,,,,,,,,,,,,,,,,,,,,,,,
,,,,,,,0.327083333,-0.666666667,1,0,0,0,11,11,14,1,0.33,-0.67,35,001,2024-11-18_16h14.08.019,Attention_exp_legacy,2023.1.0,Win32,60.24096386,calibration_square,,,,,,,,,,,,,,,,,,,,,,,,,,,,,,,,,,,,,,,,,,,,,,,,,,,,,,,,
,,,,,,,-0.332291667,0.342592593,1,0,0,0,12,12,7,1,-0.33,0.33,35,001,2024-11-18_16h14.08.019,Attention_exp_legacy,2023.1.0,Win32,60.24096386,,,,,,,,,,,,,,,,,,,,,,,,,,,,,,,,,,,,,,,,,,,,,,,,,,,,,,,,,
,,,,,,,-0.330208333,-0.322222222,1,0,0,0,13,13,5,1,-0.33,-0.33,35,001,2024-11-18_16h14.08.019,Attention_exp_legacy,2023.1.0,Win32,60.24096386,calibration_square,,,,,,,,,,,,,,,,,,,,,,,,,,,,,,,,,,,,,,,,,,,,,,,,,,,,,,,,
,,,,,,,0.676041667,0.666666667,1,0,0,0,14,14,19,1,0.67,0.67,35,001,2024-11-18_16h14.08.019,Attention_exp_legacy,2023.1.0,Win32,60.24096386,calibration_square,,,,,,,,,,,,,,,,,,,,,,,,,,,,,,,,,,,,,,,,,,,,,,,,,,,,,,,,
,,,,,,,-0.667708333,-0.67037037,1,0,0,0,15,15,0,1,-0.67,-0.67,35,001,2024-11-18_16h14.08.019,Attention_exp_legacy,2023.1.0,Win32,60.24096386,calibration_square,,,,,,,,,,,,,,,,,,,,,,,,,,,,,,,,,,,,,,,,,,,,,,,,,,,,,,,,
,,,,,,,-0.6625,0.327777778,1,0,0,0,16,16,3,1,-0.67,0.33,35,001,2024-11-18_16h14.08.019,Attention_exp_legacy,2023.1.0,Win32,60.24096386,calibration_square,,,,,,,,,,,,,,,,,,,,,,,,,,,,,,,,,,,,,,,,,,,,,,,,,,,,,,,,
,,,,,,,0.003125,-0.322222222,1,0,0,0,17,17,10,1,0,-0.33,35,001,2024-11-18_16h14.08.019,Attention_exp_legacy,2023.1.0,Win32,60.24096386,calibration_square,,,,,,,,,,,,,,,,,,,,,,,,,,,,,,,,,,,,,,,,,,,,,,,,,,,,,,,,
,,,,,,,0.336458333,0.331481481,1,0,0,0,18,18,17,1,0.33,0.33,35,001,2024-11-18_16h14.08.019,Attention_exp_legacy,2023.1.0,Win32,60.24096386,calibration_square,,,,,,,,,,,,,,,,,,,,,,,,,,,,,,,,,,,,,,,,,,,,,,,,,,,,,,,,
,,,,,,,0.3375,-0.003703704,1,0,0,0,19,19,16,1,0.33,0,35,001,2024-11-18_16h14.08.019,Attention_exp_legacy,2023.1.0,Win32,60.24096386,calibration_square,,,,,,,,,,,,,,,,,,,,,,,,,,,,,,,,,,,,,,,,,,,,,,,,,,,,,,,,
,,,,,,,0.673958333,-0.675925926,1,0,0,0,20,20,20,1,0.67,-0.67,35,001,2024-11-18_16h14.08.019,Attention_exp_legacy,2023.1.0,Win32,60.24096386,calibration_square,,,,,,,,,,,,,,,,,,,,,,,,,,,,,,,,,,,,,,,,,,,,,,,,,,,,,,,,
,,,,,,,,,,,,,,,,,,,35,001,2024-11-18_16h14.08.019,Attention_exp_legacy,2023.1.0,Win32,60.24096386,,"[1920,1080]","[640,480]",[0.06354166666666666],[-0.5092592592592593],[1],[0],[0],[4.480000000000004],"[""StartButton""]",[0.08541666666666667],[0.18333333333333332],[1],[0],[0],[14.119899999618525],"[""Metro_label""]",Metro_label,1,15.1437,"[[0.04375,-0.42777777777777776],[0.04375,-0.42777777777777776],[0.04375,-0.42777777777777776],[0.04375,-0.42777777777777776],[0.04375,-0.42777777777777776],[0.04375,-0.42777777777777776],[0.04375,-0.42777777777777776],[0.04375,-0.42777777777777776],[0.04375,-0.42777777777777776],[0.04375,-0.42777777777777776],[0.04375,-0.42777777777777776],[0.04375,-0.42777777777777776],[0.04375,-0.42777777777777776],[0.04375,-0.42777777777777776],[0.04375,-0.42777777777777776],[0.04375,-0.42777777777777776],[0.04375,-0.42777777777777776],[0.04375,-0.42777777777777776],[0.04375,-0.42777777777777776],[0.04375,-0.42777777777777776],[0.04375,-0.42777777777777776],[0.04375,-0.42777777777777776],[0.04375,-0.42777777777777776],[0.04375,-0.42777777777777776],[0.04375,-0.42777777777777776],[0.04375,-0.42777777777777776],[0.04375,-0.42777777777777776],[0.04375,-0.42777777777777776],[0.04375,-0.42777777777777776],[0.04375,-0.42777777777777776],[0.04375,-0.42777777777777776],[0.04375,-0.42777777777777776],[0.04375,-0.42777777777777776],[0.04375,-0.42777777777777776],[0.04375,-0.42777777777777776],[0.04375,-0.42777777777777776],[0.04375,-0.42777777777777776],[0.04375,-0.42777777777777776],[0.04375,-0.42777777777777776],[0.04375,-0.42777777777777776],[0.04375,-0.42777777777777776],[0.04375,-0.42777777777777776],[0.04375,-0.42777777777777776],[0.04375,-0.42777777777777776],[0.04375,-0.42777777777777776],[0.04375,-0.42777777777777776],[0.04479166666666667,-0.42777777777777776],[0.04583333333333333,-0.42592592592592593],[0.04583333333333333,-0.42407407407407405],[0.04583333333333333,-0.42407407407407405],[0.04583333333333333,-0.42407407407407405],[0.04583333333333333,-0.42407407407407405],[0.04583333333333333,-0.42407407407407405],[0.04583333333333333,-0.42407407407407405],[0.04583333333333333,-0.42407407407407405],[0.04583333333333333,-0.42407407407407405],[0.04583333333333333,-0.42407407407407405],[0.04583333333333333,-0.42407407407407405],[0.04583333333333333,-0.42407407407407405],[0.04583333333333333,-0.42407407407407405],[0.04583333333333333,-0.42407407407407405],[0.04583333333333333,-0.42407407407407405],[0.04583333333333333,-0.42407407407407405],[0.04583333333333333,-0.42407407407407405],[0.04583333333333333,-0.42407407407407405],[0.04583333333333333,-0.42407407407407405],[0.04583333333333333,-0.42407407407407405],[0.04583333333333333,-0.42407407407407405],[0.04583333333333333,-0.42407407407407405],[0.04583333333333333,-0.42407407407407405],[0.04583333333333333,-0.42407407407407405],[0.04583333333333333,-0.42407407407407405],[0.04583333333333333,-0.42407407407407405],[0.04583333333333333,-0.42407407407407405],[0.04583333333333333,-0.42407407407407405],[0.04583333333333333,-0.42407407407407405],[0.04583333333333333,-0.42407407407407405],[0.04583333333333333,-0.42407407407407405],[0.04583333333333333,-0.42407407407407405],[0.04583333333333333,-0.42407407407407405],[0.04583333333333333,-0.42407407407407405],[0.04583333333333333,-0.42407407407407405],[0.04583333333333333,-0.42407407407407405],[0.04583333333333333,-0.42407407407407405],[0.04583333333333333,-0.42407407407407405],[0.04583333333333333,-0.42407407407407405],[0.04583333333333333,-0.42407407407407405],[0.04583333333333333,-0.42407407407407405],[0.04583333333333333,-0.42407407407407405],[0.04583333333333333,-0.42407407407407405],[0.04583333333333333,-0.42407407407407405],[0.04583333333333333,-0.42407407407407405],[0.04583333333333333,-0.42407407407407405],[0.04583333333333333,-0.42407407407407405],[0.04583333333333333,-0.42407407407407405],[0.04583333333333333,-0.42407407407407405],[0.04583333333333333,-0.42407407407407405],[0.04583333333333333,-0.42407407407407405],[0.04583333333333333,-0.42407407407407405],[0.04583333333333333,-0.42407407407407405],[0.04583333333333333,-0.42407407407407405],[0.04583333333333333,-0.42407407407407405],[0.04583333333333333,-0.42407407407407405],[0.04583333333333333,-0.42407407407407405],[0.04583333333333333,-0.42407407407407405],[0.04583333333333333,-0.42407407407407405],[0.04583333333333333,-0.42407407407407405],[0.04583333333333333,-0.42407407407407405],[0.04583333333333333,-0.42407407407407405],[0.04583333333333333,-0.42407407407407405],[0.04583333333333333,-0.42407407407407405],[0.04583333333333333,-0.42407407407407405],[0.04583333333333333,-0.42407407407407405],[0.04583333333333333,-0.42407407407407405],[0.04583333333333333,-0.42407407407407405],[0.04583333333333333,-0.42407407407407405],[0.04583333333333333,-0.42407407407407405],[0.04583333333333333,-0.42407407407407405],[0.04583333333333333,-0.42407407407407405],[0.04583333333333333,-0.42407407407407405],[0.04583333333333333,-0.4222222222222222],[0.046875,-0.4185185185185185],[0.046875,-0.4166666666666667],[0.046875,-0.4166666666666667],[0.046875,-0.4166666666666667],[0.046875,-0.4166666666666667],[0.046875,-0.4166666666666667],[0.046875,-0.4166666666666667],[0.046875,-0.4166666666666667],[0.046875,-0.4166666666666667],[0.046875,-0.4166666666666667],[0.046875,-0.4166666666666667],[0.046875,-0.4166666666666667],[0.046875,-0.4166666666666667],[0.046875,-0.4166666666666667],[0.046875,-0.4166666666666667],[0.046875,-0.4166666666666667],[0.046875,-0.4166666666666667],[0.046875,-0.4166666666666667],[0.046875,-0.4166666666666667],[0.046875,-0.4166666666666667],[0.046875,-0.4166666666666667],[0.046875,-0.4166666666666667],[0.046875,-0.4166666666666667],[0.046875,-0.4166666666666667],[0.046875,-0.4148148148148148],[0.046875,-0.4148148148148148],[0.046875,-0.4148148148148148],[0.046875,-0.4148148148148148],[0.046875,-0.4148148148148148],[0.046875,-0.4148148148148148],[0.046875,-0.4148148148148148],[0.046875,-0.4148148148148148],[0.046875,-0.4148148148148148],[0.046875,-0.4148148148148148],[0.046875,-0.412962962962963],[0.046875,-0.40370370370370373],[0.046875,-0.3907407407407407],[0.046875,-0.37592592592592594],[0.046875,-0.35555555555555557],[0.046875,-0.3111111111111111],[0.046875,-0.2962962962962963],[0.046875,-0.26851851851851855],[0.046875,-0.2388888888888889],[0.046875,-0.19444444444444445],[0.046875,-0.17222222222222222],[0.046875,-0.14444444444444443],[0.046875,-0.11666666666666667],[0.046875,-0.08333333333333333],[0.046875,-0.053703703703703705],[0.046875,-0.027777777777777776],[0.046875,-0.011111111111111112],[0.046875,0.003703703703703704],[0.04583333333333333,0.007407407407407408],[0.04583333333333333,0.007407407407407408],[0.04583333333333333,0.007407407407407408],[0.04583333333333333,0.007407407407407408],[0.04583333333333333,0.007407407407407408],[0.04583333333333333,0.009259259259259259],[0.04375,0.009259259259259259],[0.03958333333333333,0.009259259259259259],[0.034375,0.009259259259259259],[0.027083333333333334,0.009259259259259259],[0.019791666666666666,0.009259259259259259],[0.010416666666666666,0.009259259259259259],[-0.0010416666666666667,0.009259259259259259],[-0.016666666666666666,0.009259259259259259],[-0.020833333333333332,0.009259259259259259],[-0.027083333333333334,0.009259259259259259],[-0.0375,0.009259259259259259],[-0.041666666666666664,0.009259259259259259],[-0.04583333333333333,0.005555555555555556],[-0.051041666666666666,0],[-0.059375,-0.009259259259259259],[-0.06770833333333333,-0.020370370370370372],[-0.07708333333333334,-0.037037037037037035],[-0.08125,-0.046296296296296294],[-0.08645833333333333,-0.05925925925925926],[-0.09166666666666666,-0.07592592592592592],[-0.09166666666666666,-0.08148148148148149],[-0.09166666666666666,-0.1],[-0.09166666666666666,-0.11481481481481481],[-0.09166666666666666,-0.12962962962962962],[-0.08958333333333333,-0.14814814814814814],[-0.08333333333333333,-0.17037037037037037],[-0.07916666666666666,-0.17592592592592593],[-0.07291666666666667,-0.18703703703703703],[-0.06770833333333333,-0.1925925925925926],[-0.06458333333333334,-0.1962962962962963],[-0.06354166666666666,-0.1962962962962963],[-0.0625,-0.1962962962962963],[-0.06145833333333333,-0.1962962962962963],[-0.05520833333333333,-0.19444444444444445],[-0.052083333333333336,-0.18888888888888888],[-0.04791666666666667,-0.17962962962962964],[-0.046875,-0.17407407407407408],[-0.042708333333333334,-0.1685185185185185],[-0.040625,-0.1648148148148148],[-0.03854166666666667,-0.15925925925925927],[-0.0375,-0.15555555555555556],[-0.0375,-0.15555555555555556],[-0.0375,-0.15555555555555556],[-0.0375,-0.15555555555555556],[-0.0375,-0.15555555555555556],[-0.0375,-0.15555555555555556],[-0.0375,-0.15555555555555556],[-0.0375,-0.15555555555555556],[-0.0375,-0.15555555555555556],[-0.0375,-0.15555555555555556],[-0.0375,-0.15555555555555556],[-0.0375,-0.15555555555555556],[-0.0375,-0.15555555555555556],[-0.0375,-0.15555555555555556],[-0.0375,-0.15555555555555556],[-0.0375,-0.15555555555555556],[-0.0375,-0.15555555555555556],[-0.0375,-0.15555555555555556],[-0.0375,-0.15555555555555556],[-0.0375,-0.15555555555555556],[-0.0375,-0.15555555555555556],[-0.0375,-0.15555555555555556],[-0.0375,-0.15555555555555556],[-0.0375,-0.15555555555555556],[-0.0375,-0.15555555555555556],[-0.0375,-0.15555555555555556],[-0.0375,-0.15925925925925927],[-0.0375,-0.16111111111111112],[-0.036458333333333336,-0.1685185185185185],[-0.036458333333333336,-0.1685185185185185],[-0.036458333333333336,-0.17407407407407408],[-0.036458333333333336,-0.17592592592592593],[-0.036458333333333336,-0.17777777777777778],[-0.036458333333333336,-0.18333333333333332],[-0.036458333333333336,-0.18518518518518517],[-0.036458333333333336,-0.18888888888888888],[-0.036458333333333336,-0.1925925925925926],[-0.036458333333333336,-0.19814814814814816],[-0.036458333333333336,-0.2],[-0.036458333333333336,-0.20185185185185187],[-0.036458333333333336,-0.2037037037037037],[-0.036458333333333336,-0.20555555555555555],[-0.036458333333333336,-0.21296296296296297],[-0.0375,-0.21851851851851853],[-0.03854166666666667,-0.2222222222222222],[-0.03854166666666667,-0.2222222222222222],[-0.03854166666666667,-0.22407407407407406],[-0.03854166666666667,-0.22777777777777777],[-0.03958333333333333,-0.22962962962962963],[-0.040625,-0.22962962962962963],[-0.040625,-0.23333333333333334],[-0.041666666666666664,-0.2351851851851852],[-0.041666666666666664,-0.2351851851851852],[-0.041666666666666664,-0.2388888888888889],[-0.042708333333333334,-0.2388888888888889],[-0.04375,-0.24074074074074073],[-0.04479166666666667,-0.24074074074074073],[-0.04479166666666667,-0.24074074074074073],[-0.04479166666666667,-0.24074074074074073],[-0.04479166666666667,-0.24074074074074073],[-0.04479166666666667,-0.24074074074074073],[-0.04583333333333333,-0.24074074074074073],[-0.046875,-0.24259259259259258],[-0.046875,-0.24259259259259258],[-0.046875,-0.24259259259259258],[-0.046875,-0.24259259259259258],[-0.046875,-0.24259259259259258],[-0.04895833333333333,-0.24444444444444444],[-0.04895833333333333,-0.24444444444444444],[-0.05,-0.24444444444444444],[-0.052083333333333336,-0.2462962962962963],[-0.05416666666666667,-0.24814814814814815],[-0.05520833333333333,-0.24814814814814815],[-0.057291666666666664,-0.2518518518518518],[-0.059375,-0.2518518518518518],[-0.0625,-0.2537037037037037],[-0.06354166666666666,-0.25555555555555554],[-0.065625,-0.25555555555555554],[-0.065625,-0.25555555555555554],[-0.065625,-0.25555555555555554],[-0.065625,-0.25555555555555554],[-0.065625,-0.25555555555555554],[-0.065625,-0.25555555555555554],[-0.065625,-0.25555555555555554],[-0.065625,-0.25555555555555554],[-0.065625,-0.25555555555555554],[-0.065625,-0.25555555555555554],[-0.065625,-0.25555555555555554],[-0.065625,-0.25555555555555554],[-0.065625,-0.25555555555555554],[-0.065625,-0.24814814814814815],[-0.0625,-0.2037037037037037],[-0.058333333333333334,-0.15925925925925927],[-0.05625,-0.11296296296296296],[-0.052083333333333336,-0.07037037037037037],[-0.05,-0.03888888888888889],[-0.05,-0.024074074074074074],[-0.05,-0.016666666666666666],[-0.05,-0.009259259259259259],[-0.04895833333333333,-0.007407407407407408],[-0.04895833333333333,-0.005555555555555556],[-0.04895833333333333,-0.005555555555555556],[-0.04479166666666667,0.011111111111111112],[-0.040625,0.027777777777777776],[-0.03854166666666667,0.05],[-0.0375,0.06666666666666667],[-0.0375,0.07222222222222222],[-0.0375,0.07407407407407407],[-0.0375,0.07407407407407407],[-0.0375,0.07407407407407407],[-0.0375,0.07407407407407407],[-0.0375,0.07592592592592592],[-0.0375,0.08148148148148149],[-0.0375,0.08333333333333333],[-0.0375,0.08518518518518518],[-0.0375,0.08518518518518518],[-0.0375,0.08518518518518518],[-0.0375,0.08518518518518518],[-0.0375,0.08518518518518518],[-0.0375,0.08703703703703704],[-0.03958333333333333,0.08333333333333333],[-0.03958333333333333,0.08148148148148149],[-0.040625,0.07777777777777778],[-0.040625,0.07592592592592592],[-0.041666666666666664,0.07222222222222222],[-0.041666666666666664,0.07222222222222222],[-0.041666666666666664,0.07222222222222222],[-0.041666666666666664,0.07222222222222222],[-0.041666666666666664,0.07222222222222222],[-0.041666666666666664,0.07222222222222222],[-0.041666666666666664,0.07222222222222222],[-0.041666666666666664,0.07222222222222222],[-0.041666666666666664,0.07222222222222222],[-0.041666666666666664,0.07222222222222222],[-0.041666666666666664,0.07222222222222222],[-0.041666666666666664,0.07222222222222222],[-0.041666666666666664,0.07222222222222222],[-0.041666666666666664,0.07222222222222222],[-0.041666666666666664,0.07222222222222222],[-0.041666666666666664,0.07222222222222222],[-0.041666666666666664,0.07222222222222222],[-0.041666666666666664,0.07222222222222222],[-0.041666666666666664,0.07222222222222222],[-0.041666666666666664,0.07222222222222222],[-0.041666666666666664,0.07222222222222222],[-0.041666666666666664,0.07222222222222222],[-0.041666666666666664,0.07222222222222222],[-0.041666666666666664,0.07222222222222222],[-0.041666666666666664,0.07222222222222222],[-0.041666666666666664,0.07222222222222222],[-0.041666666666666664,0.07222222222222222],[-0.041666666666666664,0.07222222222222222],[-0.041666666666666664,0.07222222222222222],[-0.042708333333333334,0.06851851851851852],[-0.042708333333333334,0.06666666666666667],[-0.042708333333333334,0.06666666666666667],[-0.042708333333333334,0.06666666666666667],[-0.042708333333333334,0.06666666666666667],[-0.042708333333333334,0.06666666666666667],[-0.042708333333333334,0.06666666666666667],[-0.042708333333333334,0.06666666666666667],[-0.042708333333333334,0.06666666666666667],[-0.042708333333333334,0.06666666666666667],[-0.042708333333333334,0.06666666666666667],[-0.042708333333333334,0.06666666666666667],[-0.042708333333333334,0.06666666666666667],[-0.042708333333333334,0.06666666666666667],[-0.042708333333333334,0.06666666666666667],[-0.042708333333333334,0.06666666666666667],[-0.042708333333333334,0.06666666666666667],[-0.042708333333333334,0.06666666666666667],[-0.042708333333333334,0.06666666666666667],[-0.042708333333333334,0.06666666666666667],[-0.042708333333333334,0.06666666666666667],[-0.042708333333333334,0.06666666666666667],[-0.042708333333333334,0.06666666666666667],[-0.042708333333333334,0.06666666666666667],[-0.042708333333333334,0.06666666666666667],[-0.042708333333333334,0.06666666666666667],[-0.042708333333333334,0.06666666666666667],[-0.042708333333333334,0.06666666666666667],[-0.042708333333333334,0.06666666666666667],[-0.042708333333333334,0.06666666666666667],[-0.042708333333333334,0.06666666666666667],[-0.042708333333333334,0.06666666666666667],[-0.042708333333333334,0.06666666666666667],[-0.042708333333333334,0.06666666666666667],[-0.042708333333333334,0.06666666666666667],[-0.042708333333333334,0.06666666666666667],[-0.042708333333333334,0.06666666666666667],[-0.042708333333333334,0.06666666666666667],[-0.042708333333333334,0.06666666666666667],[-0.042708333333333334,0.06666666666666667],[-0.042708333333333334,0.06666666666666667],[-0.042708333333333334,0.06666666666666667],[-0.042708333333333334,0.06666666666666667],[-0.042708333333333334,0.06666666666666667],[-0.042708333333333334,0.06666666666666667],[-0.042708333333333334,0.06666666666666667],[-0.042708333333333334,0.06666666666666667],[-0.042708333333333334,0.06666666666666667],[-0.041666666666666664,0.06666666666666667],[-0.041666666666666664,0.06666666666666667],[-0.041666666666666664,0.06666666666666667],[-0.041666666666666664,0.06666666666666667],[-0.041666666666666664,0.06666666666666667],[-0.041666666666666664,0.06666666666666667],[-0.041666666666666664,0.06666666666666667],[-0.041666666666666664,0.06666666666666667],[-0.041666666666666664,0.06666666666666667],[-0.041666666666666664,0.06666666666666667],[-0.041666666666666664,0.06666666666666667],[-0.041666666666666664,0.06666666666666667],[-0.041666666666666664,0.06666666666666667],[-0.041666666666666664,0.06666666666666667],[-0.041666666666666664,0.06666666666666667],[-0.041666666666666664,0.06666666666666667],[-0.041666666666666664,0.06666666666666667],[-0.041666666666666664,0.06666666666666667],[-0.041666666666666664,0.06666666666666667],[-0.041666666666666664,0.06666666666666667],[-0.041666666666666664,0.06666666666666667],[-0.041666666666666664,0.06666666666666667],[-0.041666666666666664,0.06666666666666667],[-0.041666666666666664,0.06666666666666667],[-0.041666666666666664,0.06666666666666667],[-0.041666666666666664,0.06666666666666667],[-0.041666666666666664,0.06666666666666667],[-0.041666666666666664,0.06666666666666667],[-0.041666666666666664,0.06666666666666667],[-0.041666666666666664,0.06666666666666667],[-0.041666666666666664,0.06666666666666667],[-0.040625,0.06666666666666667],[-0.03854166666666667,0.07222222222222222],[-0.036458333333333336,0.07962962962962963],[-0.035416666666666666,0.08148148148148149],[-0.035416666666666666,0.08333333333333333],[-0.034375,0.08518518518518518],[-0.03229166666666667,0.09259259259259259],[-0.030208333333333334,0.0962962962962963],[-0.028125,0.1],[-0.028125,0.10185185185185185],[-0.027083333333333334,0.10740740740740741],[-0.026041666666666668,0.1111111111111111],[-0.025,0.11481481481481481],[-0.023958333333333335,0.12222222222222222],[-0.021875,0.12962962962962962],[-0.020833333333333332,0.13703703703703704],[-0.020833333333333332,0.1388888888888889],[-0.019791666666666666,0.14814814814814814],[-0.01875,0.1537037037037037],[-0.017708333333333333,0.1648148148148148],[-0.016666666666666666,0.1685185185185185],[-0.0125,0.17777777777777778],[-0.010416666666666666,0.1814814814814815],[-0.007291666666666667,0.18333333333333332],[-0.005208333333333333,0.18518518518518517],[0,0.18518518518518517],[0.008333333333333333,0.18888888888888888],[0.014583333333333334,0.18888888888888888],[0.021875,0.1925925925925926],[0.027083333333333334,0.19444444444444445],[0.03333333333333333,0.19444444444444445],[0.03958333333333333,0.1962962962962963],[0.042708333333333334,0.1962962962962963],[0.04375,0.1962962962962963],[0.04375,0.1962962962962963],[0.04375,0.1962962962962963],[0.04375,0.1962962962962963],[0.04375,0.1962962962962963],[0.04375,0.1962962962962963],[0.04375,0.1962962962962963],[0.04375,0.1962962962962963],[0.04375,0.1962962962962963],[0.04375,0.1962962962962963],[0.04375,0.1962962962962963],[0.04375,0.1962962962962963],[0.04375,0.1962962962962963],[0.04375,0.1962962962962963],[0.04375,0.1962962962962963],[0.04375,0.1962962962962963],[0.04375,0.1962962962962963],[0.04375,0.1962962962962963],[0.04375,0.1962962962962963],[0.04375,0.1962962962962963],[0.04375,0.1962962962962963],[0.04375,0.1962962962962963],[0.04375,0.1962962962962963],[0.04375,0.1962962962962963],[0.04375,0.1962962962962963],[0.04375,0.1962962962962963],[0.04375,0.1962962962962963],[0.04583333333333333,0.1962962962962963],[0.04583333333333333,0.1962962962962963],[0.046875,0.1962962962962963],[0.04895833333333333,0.1962962962962963],[0.04895833333333333,0.19444444444444445],[0.05,0.1925925925925926],[0.051041666666666666,0.1925925925925926],[0.051041666666666666,0.19074074074074074],[0.052083333333333336,0.18888888888888888],[0.052083333333333336,0.18888888888888888],[0.053125,0.18703703703703703],[0.053125,0.18703703703703703],[0.053125,0.18703703703703703],[0.053125,0.18703703703703703],[0.053125,0.18703703703703703],[0.05416666666666667,0.18518518518518517],[0.05520833333333333,0.18333333333333332],[0.05625,0.1814814814814815],[0.05625,0.1814814814814815],[0.05625,0.1814814814814815],[0.057291666666666664,0.17962962962962964],[0.057291666666666664,0.17962962962962964],[0.057291666666666664,0.17962962962962964],[0.059375,0.17777777777777778],[0.059375,0.17777777777777778],[0.0625,0.17592592592592593],[0.06458333333333334,0.17407407407407408],[0.07395833333333333,0.17037037037037037],[0.07708333333333334,0.17037037037037037],[0.08333333333333333,0.15],[0.09270833333333334,0.10555555555555556],[0.11770833333333333,0.05740740740740741],[0.11979166666666667,0.05740740740740741],[0.12291666666666666,0.053703703703703705],[0.12291666666666666,0.05185185185185185],[0.12395833333333334,0.05185185185185185],[0.12395833333333334,0.05185185185185185],[0.12395833333333334,0.05185185185185185],[0.12395833333333334,0.05185185185185185],[0.12395833333333334,0.05185185185185185],[0.12395833333333334,0.05185185185185185],[0.12395833333333334,0.05185185185185185],[0.12395833333333334,0.05185185185185185],[0.12395833333333334,0.05185185185185185],[0.12395833333333334,0.05185185185185185],[0.12395833333333334,0.05185185185185185],[0.12395833333333334,0.05185185185185185],[0.12395833333333334,0.05185185185185185],[0.12395833333333334,0.05185185185185185],[0.12395833333333334,0.05185185185185185],[0.12395833333333334,0.05185185185185185],[0.12395833333333334,0.05185185185185185],[0.12395833333333334,0.05185185185185185],[0.12395833333333334,0.05185185185185185],[0.12395833333333334,0.05185185185185185],[0.12395833333333334,0.05185185185185185],[0.12395833333333334,0.05185185185185185],[0.12395833333333334,0.05185185185185185],[0.12395833333333334,0.05185185185185185],[0.12395833333333334,0.05185185185185185],[0.12395833333333334,0.05185185185185185],[0.12395833333333334,0.05185185185185185],[0.12395833333333334,0.05185185185185185],[0.12395833333333334,0.05185185185185185],[0.12395833333333334,0.05185185185185185],[0.12395833333333334,0.05185185185185185],[0.12395833333333334,0.05185185185185185],[0.12395833333333334,0.05185185185185185],[0.12395833333333334,0.05185185185185185],[0.12395833333333334,0.05185185185185185],[0.12395833333333334,0.05185185185185185],[0.12395833333333334,0.05185185185185185],[0.12395833333333334,0.05185185185185185],[0.12395833333333334,0.05185185185185185],[0.12395833333333334,0.05185185185185185],[0.12395833333333334,0.05185185185185185],[0.12395833333333334,0.05185185185185185],[0.12395833333333334,0.05185185185185185],[0.12395833333333334,0.05185185185185185],[0.12395833333333334,0.05185185185185185],[0.12395833333333334,0.05185185185185185],[0.12395833333333334,0.05185185185185185],[0.12395833333333334,0.05185185185185185],[0.12395833333333334,0.05185185185185185],[0.12395833333333334,0.05185185185185185],[0.12395833333333334,0.05185185185185185],[0.12395833333333334,0.05185185185185185],[0.12395833333333334,0.05185185185185185],[0.12395833333333334,0.05185185185185185],[0.12395833333333334,0.05185185185185185],[0.12395833333333334,0.05185185185185185],[0.12395833333333334,0.05185185185185185],[0.12395833333333334,0.05185185185185185],[0.12395833333333334,0.05185185185185185],[0.12395833333333334,0.05185185185185185],[0.12395833333333334,0.05185185185185185],[0.12395833333333334,0.05185185185185185],[0.12395833333333334,0.05185185185185185],[0.12395833333333334,0.05185185185185185],[0.12395833333333334,0.05185185185185185],[0.12395833333333334,0.05185185185185185],[0.12395833333333334,0.05185185185185185],[0.12395833333333334,0.05185185185185185],[0.12395833333333334,0.05185185185185185],[0.12395833333333334,0.05185185185185185],[0.12395833333333334,0.05185185185185185],[0.12395833333333334,0.05185185185185185],[0.12395833333333334,0.05185185185185185],[0.12395833333333334,0.05185185185185185],[0.12395833333333334,0.05740740740740741],[0.12395833333333334,0.06296296296296296],[0.12395833333333334,0.06296296296296296],[0.12291666666666666,0.06666666666666667],[0.121875,0.07037037037037037],[0.121875,0.07037037037037037],[0.121875,0.07037037037037037],[0.12083333333333333,0.07037037037037037],[0.12083333333333333,0.07037037037037037],[0.12083333333333333,0.07037037037037037],[0.12083333333333333,0.07037037037037037],[0.11979166666666667,0.07037037037037037],[0.11875,0.07037037037037037],[0.11770833333333333,0.07037037037037037],[0.11770833333333333,0.07037037037037037],[0.11666666666666667,0.07037037037037037],[0.11666666666666667,0.07037037037037037],[0.11666666666666667,0.07037037037037037],[0.115625,0.07037037037037037],[0.115625,0.07037037037037037],[0.115625,0.07037037037037037],[0.115625,0.07037037037037037],[0.115625,0.07037037037037037],[0.115625,0.07037037037037037],[0.115625,0.07037037037037037],[0.115625,0.07037037037037037],[0.115625,0.07037037037037037],[0.115625,0.07037037037037037],[0.11354166666666667,0.07037037037037037],[0.1125,0.07037037037037037],[0.11041666666666666,0.06851851851851852],[0.10833333333333334,0.06666666666666667],[0.10729166666666666,0.06296296296296296],[0.10520833333333333,0.06111111111111111],[0.10416666666666667,0.05925925925925926],[0.103125,0.05740740740740741],[0.10208333333333333,0.05555555555555555],[0.10104166666666667,0.053703703703703705],[0.1,0.05185185185185185],[0.1,0.05185185185185185],[0.09895833333333333,0.05],[0.09895833333333333,0.05],[0.09895833333333333,0.05],[0.09895833333333333,0.05],[0.09895833333333333,0.05],[0.09791666666666667,0.046296296296296294],[0.096875,0.044444444444444446],[0.09583333333333334,0.04259259259259259],[0.09583333333333334,0.03888888888888889],[0.09479166666666666,0.03148148148148148],[0.09270833333333334,0.024074074074074074],[0.09270833333333334,0.020370370370370372],[0.09270833333333334,0.016666666666666666],[0.09270833333333334,0.016666666666666666],[0.09270833333333334,0.014814814814814815],[0.09270833333333334,0.011111111111111112],[0.09166666666666666,0.011111111111111112],[0.09166666666666666,0.009259259259259259],[0.09166666666666666,0.007407407407407408],[0.09166666666666666,0.005555555555555556],[0.09166666666666666,0.005555555555555556],[0.09166666666666666,0.003703703703703704],[0.09166666666666666,0.001851851851851852],[0.09166666666666666,0],[0.09166666666666666,0],[0.09166666666666666,-0.001851851851851852],[0.09166666666666666,-0.001851851851851852],[0.090625,-0.003703703703703704],[0.08958333333333333,-0.005555555555555556],[0.08854166666666667,-0.007407407407407408],[0.08645833333333333,-0.011111111111111112],[0.084375,-0.012962962962962963],[0.08125,-0.018518518518518517],[0.07916666666666666,-0.020370370370370372],[0.07708333333333334,-0.020370370370370372],[0.075,-0.024074074074074074],[0.071875,-0.027777777777777776],[0.07083333333333333,-0.02962962962962963],[0.06875,-0.03333333333333333],[0.06666666666666667,-0.037037037037037035],[0.065625,-0.04259259259259259],[0.06354166666666666,-0.04814814814814815],[0.0625,-0.05740740740740741],[0.06145833333333333,-0.06851851851851852],[0.06041666666666667,-0.07962962962962963],[0.06041666666666667,-0.08888888888888889],[0.06041666666666667,-0.0962962962962963],[0.06041666666666667,-0.10740740740740741],[0.06041666666666667,-0.11296296296296296],[0.06041666666666667,-0.11296296296296296],[0.06041666666666667,-0.11296296296296296],[0.0625,-0.11481481481481481],[0.06979166666666667,-0.10925925925925926],[0.07916666666666666,-0.08333333333333333],[0.0875,-0.046296296296296294],[0.09479166666666666,-0.011111111111111112],[0.10104166666666667,0.022222222222222223],[0.10625,0.05925925925925926],[0.109375,0.08148148148148149],[0.11041666666666666,0.1],[0.11041666666666666,0.11666666666666667],[0.11041666666666666,0.13333333333333333],[0.11041666666666666,0.14074074074074075],[0.11041666666666666,0.14629629629629629],[0.11041666666666666,0.14629629629629629],[0.11041666666666666,0.14629629629629629],[0.11041666666666666,0.14814814814814814],[0.11041666666666666,0.15],[0.109375,0.15185185185185185],[0.10833333333333334,0.15185185185185185],[0.10729166666666666,0.15185185185185185],[0.10729166666666666,0.15185185185185185],[0.10729166666666666,0.15185185185185185],[0.10625,0.15185185185185185],[0.10625,0.15185185185185185],[0.10520833333333333,0.15185185185185185],[0.10416666666666667,0.15185185185185185],[0.103125,0.15185185185185185],[0.103125,0.15185185185185185],[0.103125,0.15185185185185185],[0.103125,0.15185185185185185],[0.103125,0.15185185185185185],[0.103125,0.15185185185185185],[0.103125,0.15185185185185185],[0.10208333333333333,0.15185185185185185],[0.1,0.15185185185185185],[0.09583333333333334,0.1574074074074074],[0.09166666666666666,0.16111111111111112],[0.08958333333333333,0.1648148148148148],[0.0875,0.17037037037037037],[0.08645833333333333,0.17222222222222222],[0.08645833333333333,0.17407407407407408],[0.08645833333333333,0.17407407407407408],[0.08645833333333333,0.17407407407407408],[0.08645833333333333,0.17407407407407408],[0.08645833333333333,0.17407407407407408],[0.08645833333333333,0.17407407407407408],[0.08645833333333333,0.17407407407407408],[0.08645833333333333,0.17407407407407408],[0.08645833333333333,0.17407407407407408],[0.08645833333333333,0.17407407407407408],[0.08645833333333333,0.17407407407407408],[0.08645833333333333,0.17407407407407408],[0.08645833333333333,0.17407407407407408],[0.08645833333333333,0.17407407407407408],[0.08645833333333333,0.17407407407407408],[0.08645833333333333,0.17407407407407408],[0.08645833333333333,0.17407407407407408],[0.08645833333333333,0.17407407407407408],[0.08645833333333333,0.17407407407407408],[0.08645833333333333,0.17407407407407408],[0.08645833333333333,0.17407407407407408],[0.08645833333333333,0.17407407407407408],[0.08645833333333333,0.17407407407407408],[0.08645833333333333,0.17407407407407408],[0.08645833333333333,0.17407407407407408],[0.08645833333333333,0.17407407407407408],[0.08645833333333333,0.17407407407407408],[0.08645833333333333,0.17407407407407408],[0.08645833333333333,0.17407407407407408],[0.08645833333333333,0.17407407407407408],[0.08645833333333333,0.17407407407407408],[0.08645833333333333,0.17407407407407408],[0.08645833333333333,0.17407407407407408],[0.08645833333333333,0.17407407407407408],[0.08645833333333333,0.17592592592592593],[0.08645833333333333,0.17962962962962964],[0.08645833333333333,0.1814814814814815],[0.08541666666666667,0.1814814814814815],[0.08541666666666667,0.1814814814814815],[0.08541666666666667,0.1814814814814815],[0.08541666666666667,0.18333333333333332],[0.08541666666666667,0.18333333333333332],[0.08541666666666667,0.18333333333333332],[0.08541666666666667,0.18333333333333332],[0.08541666666666667,0.18333333333333332],[0.08541666666666667,0.18333333333333332],[0.08541666666666667,0.18333333333333332],[0.08541666666666667,0.18333333333333332],[0.08541666666666667,0.18333333333333332],[0.08541666666666667,0.18333333333333332],[0.08541666666666667,0.18333333333333332],[0.08541666666666667,0.18333333333333332],[0.08541666666666667,0.18333333333333332],[0.08541666666666667,0.18333333333333332],[0.08541666666666667,0.18333333333333332],[0.08541666666666667,0.18333333333333332],[0.08541666666666667,0.18333333333333332],[0.08541666666666667,0.18333333333333332],[0.08541666666666667,0.18333333333333332],[0.08541666666666667,0.18333333333333332],[0.08541666666666667,0.18333333333333332],[0.08541666666666667,0.18333333333333332],[0.08541666666666667,0.18333333333333332],[0.08541666666666667,0.18333333333333332],[0.08541666666666667,0.18333333333333332],[0.08541666666666667,0.18333333333333332],[0.08541666666666667,0.18333333333333332],[0.08541666666666667,0.18333333333333332],[0.08541666666666667,0.18333333333333332],[0.08541666666666667,0.18333333333333332],[0.08541666666666667,0.18333333333333332],[0.08541666666666667,0.18333333333333332],[0.08541666666666667,0.18333333333333332],[0.08541666666666667,0.18333333333333332],[0.08541666666666667,0.18333333333333332],[0.08541666666666667,0.18333333333333332],[0.08541666666666667,0.18333333333333332],[0.08541666666666667,0.18333333333333332],[0.08541666666666667,0.18333333333333332],[0.08541666666666667,0.18333333333333332],[0.08541666666666667,0.18333333333333332],[0.08541666666666667,0.18333333333333332],[0.08541666666666667,0.18333333333333332],[0.08541666666666667,0.18333333333333332],[0.08541666666666667,0.18333333333333332],[0.08541666666666667,0.18333333333333332],[0.08541666666666667,0.18333333333333332],[0.08541666666666667,0.18333333333333332],[0.08541666666666667,0.18333333333333332],[0.08541666666666667,0.18333333333333332],[0.08541666666666667,0.18333333333333332],[0.08541666666666667,0.18333333333333332],[0.08541666666666667,0.18333333333333332],[0.08541666666666667,0.18333333333333332],[0.08541666666666667,0.18333333333333332],[0.08541666666666667,0.18333333333333332],[0.08541666666666667,0.18333333333333332],[0.08541666666666667,0.18333333333333332],[0.08541666666666667,0.18333333333333332],[0.08541666666666667,0.18333333333333332],[0.08541666666666667,0.18333333333333332],[0.08541666666666667,0.18333333333333332],[0.08541666666666667,0.18333333333333332],[0.08541666666666667,0.18333333333333332],[0.08541666666666667,0.18333333333333332],[0.08541666666666667,0.18333333333333332],[0.08541666666666667,0.18333333333333332],[0.08541666666666667,0.18333333333333332],[0.08541666666666667,0.18333333333333332],[0.08541666666666667,0.18333333333333332],[0.08541666666666667,0.18333333333333332],[0.08541666666666667,0.18333333333333332],[0.08541666666666667,0.18333333333333332],[0.08541666666666667,0.18333333333333332],[0.08541666666666667,0.18333333333333332],[0.08541666666666667,0.18333333333333332],[0.08541666666666667,0.18333333333333332],[0.08541666666666667,0.18333333333333332],[0.08541666666666667,0.18333333333333332],[0.08541666666666667,0.18333333333333332],[0.08541666666666667,0.18333333333333332],[0.08541666666666667,0.18333333333333332],[0.08333333333333333,0.18333333333333332],[0.08229166666666667,0.17962962962962964],[0.08020833333333334,0.17407407407407408],[0.08020833333333334,0.17407407407407408],[0.08020833333333334,0.17222222222222222],[0.08020833333333334,0.17037037037037037],[0.08020833333333334,0.17037037037037037],[0.08020833333333334,0.17037037037037037],[0.08020833333333334,0.17037037037037037],[0.08020833333333334,0.17037037037037037],[0.08020833333333334,0.17037037037037037],[0.08020833333333334,0.17037037037037037],[0.07916666666666666,0.1685185185185185],[0.07916666666666666,0.16666666666666666],[0.07708333333333334,0.16296296296296298],[0.07604166666666666,0.16111111111111112],[0.071875,0.1574074074074074],[0.06979166666666667,0.1574074074074074],[0.065625,0.1574074074074074],[0.0625,0.1574074074074074],[0.058333333333333334,0.1574074074074074],[0.05625,0.15925925925925927],[0.05625,0.15925925925925927],[0.05625,0.16111111111111112],[0.05625,0.16296296296296298],[0.05625,0.16296296296296298],[0.05625,0.16666666666666666],[0.05625,0.1685185185185185],[0.05625,0.1685185185185185],[0.05625,0.17222222222222222],[0.05625,0.17222222222222222],[0.05625,0.17407407407407408],[0.05625,0.17407407407407408],[0.05625,0.17407407407407408],[0.05625,0.17407407407407408]]","[[0.0328125,0.37185185185185177],[0.0328125,0.37185185185185177],[0.036666666666666715,0.37962962962962965],[0.03145833333333338,0.3762962962962964],[0.03145833333333338,0.3762962962962964],[0.03104166666666662,0.32944444444444443],[0.05291666666666662,0.31962962962962965],[0.09104166666666676,0.30925925925925923],[0.13114583333333343,0.28962962962962957],[0.12614583333333323,0.2716666666666668],[0.1345833333333334,0.29222222222222216],[0.11333333333333329,0.302962962962963],[0.09885416666666676,0.29222222222222216],[0.07010416666666662,0.26666666666666666],[0.07010416666666662,0.26666666666666666],[0.0640625,0.2796296296296296],[0.0640625,0.2796296296296296],[0.06312500000000003,0.2757407407407407],[0.034687499999999954,0.2675925925925926],[0.008229166666666643,0.23203703703703696],[-0.015104166666666667,0.2212962962962963],[-0.025,0.22462962962962954],[-0.021041666666666715,0.20092592592592592],[-0.015416666666666618,0.17759259259259255],[-0.01583333333333338,0.15925925925925927],[-0.017916666666666713,0.16111111111111112],[-0.024791666666666618,0.14462962962962966],[-0.0453125,0.11203703703703703],[-0.04083333333333338,0.12259259259259268],[-0.044375000000000026,0.1287037037037037],[-0.04791666666666667,0.13481481481481472],[-0.04364583333333331,0.11796296296296305],[-0.06177083333333329,0.12074074074074083],[-0.08093750000000005,0.11592592592592597],[-0.08833333333333329,0.11370370370370367],[-0.09708333333333338,0.09666666666666675],[-0.10760416666666663,0.12166666666666676],[-0.11781250000000003,0.14759259259259266],[-0.13468749999999996,0.1448148148148149],[-0.14322916666666666,0.125],[-0.16375000000000003,0.09888888888888885],[-0.1671875,0.10333333333333325],[-0.1608333333333333,0.09574074074074082],[-0.15572916666666667,0.11833333333333329],[-0.15635416666666668,0.13333333333333333],[-0.15750000000000006,0.1527777777777778],[-0.13875000000000004,0.14444444444444443],[-0.09093749999999995,0.15018518518518523],[-0.07312500000000005,0.17111111111111107],[-0.04781249999999997,0.21722222222222215],[-0.030416666666666713,0.2264814814814814],[-0.019375000000000024,0.23129629629629625],[-0.011354166666666643,0.25277777777777777],[-0.00604166666666662,0.275],[-0.0007291666666667141,0.2972222222222222],[0.014999999999999977,0.2801851851851851],[0.027708333333333356,0.2614814814814816],[0.014479166666666644,0.27462962962962956],[0.02302083333333336,0.2844444444444445],[0.02635416666666662,0.23666666666666658],[0.03989583333333328,0.24870370370370362],[0.036458333333333336,0.24166666666666667],[0.03604166666666669,0.21796296296296305],[0.03156249999999995,0.19370370370370374],[0.03802083333333333,0.1603703703703704],[0.036458333333333336,0.17037037037037037],[0.05489583333333338,0.1772222222222223],[0.042499999999999954,0.16814814814814807],[0.042499999999999954,0.16814814814814807],[0.0655208333333333,0.13148148148148148],[0.03145833333333338,0.15685185185185194],[0.004270833333333357,0.18351851851851855],[0,0.1794444444444444],[-0.014479166666666644,0.1764814814814814],[-0.02333333333333331,0.17388888888888884],[-0.050625000000000024,0.19870370370370363],[-0.05447916666666662,0.18648148148148155],[-0.09583333333333334,0.2007407407407407],[-0.09583333333333334,0.1905555555555555],[-0.12354166666666669,0.19148148148148145],[-0.10479166666666669,0.17981481481481484],[-0.10489583333333338,0.14222222222222214],[-0.09833333333333331,0.13777777777777775],[-0.09270833333333334,0.13851851851851843],[-0.075,0.12129629629629629],[-0.06781250000000003,0.10944444444444448],[-0.08999999999999998,0.12611111111111115],[-0.09656250000000005,0.16796296296296304],[-0.11333333333333329,0.1883333333333334],[-0.14468749999999997,0.22851851851851848],[-0.1622916666666666,0.22277777777777769],[-0.16447916666666665,0.2485185185185186],[-0.18020833333333333,0.2698148148148149],[-0.2001041666666667,0.30407407407407416],[-0.23364583333333327,0.35648148148148145],[-0.24020833333333336,0.4111111111111111],[-0.23093750000000005,0.4381481481481482],[-0.21645833333333328,0.3931481481481481],[-0.21645833333333328,0.3931481481481481],[-0.2033333333333334,0.39000000000000007],[-0.18760416666666668,0.3803703703703703],[-0.18218749999999997,0.42018518518518516],[-0.17395833333333333,0.4329629629629629],[-0.16468750000000001,0.4696296296296297],[-0.13875000000000004,0.47759259259259257],[-0.1234375,0.47092592592592586],[-0.1234375,0.47092592592592586],[-0.11802083333333328,0.43574074074074065],[-0.11802083333333328,0.43574074074074065],[-0.10864583333333329,0.4281481481481482],[-0.10864583333333329,0.4281481481481482],[-0.10979166666666665,0.4364814814814816],[-0.10979166666666665,0.4364814814814816],[-0.11260416666666669,0.45],[-0.11989583333333335,0.4485185185185186],[-0.11989583333333335,0.4485185185185186],[-0.12364583333333339,0.40981481481481474],[-0.13354166666666673,0.3998148148148148],[-0.1391666666666667,0.3801851851851851],[-0.1577083333333333,0.35648148148148145],[-0.15583333333333335,0.3412962962962962],[-0.13510416666666672,0.3368518518518518],[-0.13510416666666672,0.3368518518518518],[-0.13125,0.3448148148148149],[-0.1345833333333334,0.35648148148148145],[-0.13541666666666666,0.352962962962963],[-0.12749999999999997,0.3516666666666666],[-0.12635416666666663,0.3677777777777778],[-0.12093750000000002,0.3568518518518519],[-0.12281249999999998,0.37462962962962953],[-0.11187499999999997,0.3955555555555556],[-0.10520833333333333,0.4225925925925927],[-0.11645833333333329,0.4414814814814814],[-0.12010416666666662,0.3925925925925926],[-0.11749999999999995,0.37481481481481477],[-0.11697916666666662,0.3651851851851853],[-0.12041666666666669,0.36740740740740735],[-0.12687499999999996,0.3768518518518518],[-0.1280208333333333,0.3881481481481482],[-0.1203125,0.35537037037037034],[-0.11322916666666671,0.34092592592592597],[-0.10677083333333333,0.3218518518518518],[-0.10031249999999996,0.30277777777777776],[-0.08927083333333338,0.34],[-0.08041666666666672,0.3557407407407408],[-0.06479166666666672,0.37481481481481477],[-0.06479166666666672,0.37481481481481477],[-0.04760416666666671,0.36314814814814816],[-0.0140625,0.35703703703703693],[0.011562500000000024,0.3562962962962963],[0.035416666666666666,0.3501851851851852],[0.05697916666666671,0.33907407407407414],[0.07364583333333338,0.33259259259259266],[0.09187500000000005,0.3290740740740742],[0.10510416666666676,0.3031481481481482],[0.09802083333333324,0.287962962962963],[0.10499999999999995,0.2640740740740741],[0.09614583333333329,0.2772222222222223],[0.09614583333333329,0.2772222222222223],[0.07604166666666666,0.2818518518518519],[0.057187499999999974,0.31129629629629635],[0.02687499999999995,0.31666666666666665],[-0.0017708333333333807,0.319074074074074],[-0.027291666666666714,0.35462962962962963],[-0.025625000000000023,0.3368518518518518],[-0.05343749999999995,0.35722222222222216],[-0.04760416666666671,0.3640740740740741],[-0.07197916666666669,0.3877777777777777],[-0.078125,0.3933333333333333],[-0.08531249999999997,0.4353703703703704],[-0.08531249999999997,0.4353703703703704],[-0.09197916666666663,0.41351851851851845],[-0.08510416666666672,0.40333333333333327],[-0.06447916666666664,0.37185185185185177],[-0.05354166666666664,0.3170370370370371],[-0.08489583333333334,0.33722222222222226],[-0.08052083333333329,0.32944444444444443],[-0.07718750000000002,0.3344444444444445],[-0.06437499999999995,0.32037037037037036],[-0.0609375,0.26481481481481484],[-0.06354166666666666,0.22314814814814815],[-0.05281250000000005,0.16629629629629622],[-0.05281250000000005,0.16629629629629622],[-0.04031250000000005,0.14425925925925923],[-0.06208333333333336,0.13944444444444437],[-0.06583333333333338,0.12722222222222232],[-0.05604166666666662,0.09037037037037028],[-0.05604166666666662,0.09037037037037028],[-0.051874999999999956,0.05055555555555547],[-0.05416666666666667,0.025],[-0.05447916666666662,-0.0011111111111111532],[-0.049583333333333354,0.03314814814814811],[-0.03833333333333329,-0.009629629629629714],[-0.04010416666666667,0.0005555555555554713],[-0.04010416666666667,0.0005555555555554713],[-0.05656249999999995,0.004259259259259175],[-0.033749999999999974,-0.008333333333333333],[-0.024583333333333356,-0.002777777777777778],[-0.026979166666666644,0.004444444444444402],[-0.036458333333333336,0.04314814814814806],[-0.0484375,0.04611111111111107],[-0.041562499999999974,0.04351851851851852],[-0.044270833333333336,0.027962962962963005],[-0.030729166666666665,0.058703703703703786],[-0.030729166666666665,0.058703703703703786],[-0.03229166666666667,0.08037037037037033],[-0.03229166666666667,0.08037037037037033],[-0.018333333333333358,0.09944444444444453],[-0.013020833333333334,0.14759259259259266],[-0.010416666666666666,0.1757407407407407],[-0.010416666666666666,0.1757407407407407],[-0.008541666666666715,0.19092592592592597],[0.008854166666666666,0.17703703703703708],[0.012916666666666642,0.19018518518518526],[-0.0003124999999999526,0.20277777777777778],[0.0048958333333333805,0.17629629629629637],[-0.007708333333333309,0.14222222222222214],[-0.007708333333333309,0.14222222222222214],[0.0002083333333333807,0.13055555555555556],[0.003958333333333286,0.10999999999999996],[-0.008749999999999977,0.09314814814814806],[-0.016562499999999977,0.07574074074074069],[-0.016562499999999977,0.07574074074074069],[-0.012083333333333357,0.06962962962962967],[-0.012083333333333357,0.06962962962962967],[-0.01114583333333338,0.07370370370370362],[-0.01114583333333338,0.07370370370370362],[-0.006458333333333381,0.05981481481481473],[-0.006458333333333381,0.05981481481481473],[0.005624999999999976,0.062037037037037036],[0.005624999999999976,0.062037037037037036],[0.0010416666666666667,0.0985185185185186],[0.0010416666666666667,0.0985185185185186],[0.013125000000000024,0.11870370370370374],[0.011249999999999953,0.13203703703703695],[0.011249999999999953,0.13203703703703695],[-0.004166666666666667,0.16129629629629633],[-0.004166666666666667,0.16129629629629633],[-0.016979166666666618,0.15148148148148138],[-0.016979166666666618,0.15148148148148138],[-0.01593749999999995,0.1448148148148149],[-0.01593749999999995,0.1448148148148149],[-0.00791666666666669,0.12962962962962962],[-0.00791666666666669,0.12962962962962962],[-0.012812499999999952,0.10333333333333325],[-0.01604166666666664,0.10203703703703708],[-0.01604166666666664,0.10203703703703708],[-0.024374999999999977,0.0962962962962963],[-0.024374999999999977,0.0962962962962963],[-0.033958333333333354,0.10351851851851848],[-0.05270833333333336,0.122037037037037],[-0.05343749999999995,0.12370370370370362],[-0.05343749999999995,0.12370370370370362],[-0.04854166666666669,0.11999999999999991],[-0.044479166666666715,0.13055555555555556],[-0.051979166666666646,0.1603703703703704],[-0.04583333333333333,0.15481481481481485],[-0.050625000000000024,0.1648148148148148],[-0.05791666666666669,0.16129629629629633],[-0.05791666666666669,0.16129629629629633],[-0.06322916666666671,0.1544444444444444],[-0.051770833333333384,0.14759259259259266],[-0.043333333333333356,0.1337037037037038],[-0.043333333333333356,0.1337037037037038],[-0.046875,0.15351851851851847],[-0.04895833333333333,0.14314814814814805],[-0.04239583333333338,0.12222222222222222],[-0.041458333333333285,0.12666666666666662],[-0.06916666666666664,0.15],[-0.08312499999999995,0.1766666666666666],[-0.08999999999999998,0.19425925925925921],[-0.08447916666666669,0.22962962962962963],[-0.08250000000000005,0.25092592592592594],[-0.09958333333333336,0.2837037037037038],[-0.12062499999999995,0.28425925925925927],[-0.13572916666666662,0.2611111111111111],[-0.14885416666666665,0.26370370370370366],[-0.1482291666666666,0.24870370370370362],[-0.13239583333333335,0.2614814814814816],[-0.1282291666666667,0.2844444444444445],[-0.13125,0.30833333333333335],[-0.1404166666666666,0.29222222222222216],[-0.1404166666666666,0.29222222222222216],[-0.1498958333333333,0.2831481481481481],[-0.14052083333333332,0.2722222222222222],[-0.1390625,0.28888888888888886],[-0.11916666666666664,0.3114814814814816],[-0.12062499999999995,0.3672222222222221],[-0.13833333333333328,0.3888888888888889],[-0.146875,0.39444444444444443],[-0.14260416666666664,0.38499999999999995],[-0.13114583333333332,0.37462962962962953],[-0.12322916666666663,0.387037037037037],[-0.11854166666666661,0.4125925925925925],[-0.11802083333333328,0.4053703703703703],[-0.09322916666666667,0.4046296296296296],[-0.08479166666666664,0.4057407407407408],[-0.06229166666666662,0.38351851851851854],[-0.033958333333333354,0.3651851851851853],[-0.03895833333333331,0.3442592592592592],[-0.04083333333333338,0.32037037037037036],[-0.04083333333333338,0.32037037037037036],[-0.0265625,0.2796296296296296],[-0.02677083333333338,0.2614814814814816],[-0.015104166666666667,0.19666666666666674],[-0.017916666666666713,0.1948148148148149],[-0.020624999999999952,0.13740740740740748],[-0.03833333333333329,0.13722222222222227],[-0.05479166666666669,0.12444444444444452],[-0.07177083333333331,0.10462962962962963],[-0.06697916666666662,0.10203703703703708],[-0.053125,0.10129629629629638],[-0.05541666666666671,0.11740740740740736],[-0.06145833333333333,0.11999999999999991],[-0.07916666666666666,0.1411111111111112],[-0.08250000000000005,0.13444444444444448],[-0.08250000000000005,0.13444444444444448],[-0.08020833333333334,0.1618518518518518],[-0.06875,0.1507407407407407],[-0.05270833333333336,0.13203703703703695],[-0.05270833333333336,0.13203703703703695],[-0.036145833333333384,0.12037037037037036],[-0.022708333333333285,0.1316666666666667],[-0.03239583333333336,0.1300000000000001],[-0.04552083333333338,0.12777777777777777],[-0.04812500000000005,0.12759259259259256],[-0.04739583333333333,0.13537037037037042],[-0.04750000000000002,0.11962962962962967],[-0.046875,0.07462962962962955],[-0.05635416666666669,0.0787037037037037],[-0.0704166666666667,0.09037037037037028],[-0.0704166666666667,0.09037037037037028],[-0.08364583333333328,0.1],[-0.07552083333333333,0.10018518518518522],[-0.057291666666666664,0.1259259259259259],[-0.05458333333333331,0.11425925925925934],[-0.05479166666666669,0.10277777777777777],[-0.04750000000000002,0.10685185185185193],[-0.03937499999999995,0.13444444444444448],[-0.0484375,0.17981481481481484],[-0.0484375,0.17981481481481484],[-0.05666666666666664,0.21296296296296297],[-0.06489583333333329,0.24611111111111106],[-0.058124999999999954,0.2361111111111111],[-0.07437499999999998,0.21129629629629634],[-0.08572916666666662,0.1757407407407407],[-0.078125,0.17814814814814822],[-0.0703125,0.20925925925925926],[-0.07000000000000005,0.22481481481481477],[-0.06114583333333338,0.24259259259259258],[-0.06114583333333338,0.24259259259259258],[-0.05291666666666662,0.2564814814814815],[-0.025729166666666713,0.26703703703703713],[0.011770833333333286,0.2301851851851851],[0.03447916666666669,0.2627777777777777],[0.041562499999999974,0.28592592592592586],[0.04770833333333328,0.30537037037037035],[0.07062499999999995,0.325],[0.07062499999999995,0.325],[0.08197916666666671,0.325],[0.08197916666666671,0.325],[0.08604166666666657,0.33555555555555566],[0.08604166666666657,0.33555555555555566],[0.09093749999999995,0.30351851851851847],[0.09093749999999995,0.30351851851851847],[0.09958333333333323,0.2837037037037038],[0.09958333333333323,0.2837037037037038],[0.08666666666666671,0.26796296296296307],[0.08666666666666671,0.26796296296296307],[0.04135416666666671,0.35777777777777786],[0.04135416666666671,0.35777777777777786],[0.016666666666666666,0.39388888888888896],[0.016666666666666666,0.39388888888888896],[0.007083333333333286,0.40370370370370373],[0.007083333333333286,0.40370370370370373],[-0.01572916666666669,0.4153703703703703],[-0.01572916666666669,0.4153703703703703],[-0.057187499999999974,0.37814814814814823],[-0.057187499999999974,0.37814814814814823],[-0.08406250000000005,0.3512962962962964],[-0.08406250000000005,0.3512962962962964],[-0.071875,0.2727777777777777],[-0.06489583333333329,0.2162962962962962],[-0.04052083333333331,0.16370370370370366],[-0.013333333333333286,0.09425925925925922],[0.019166666666666644,-0.03796296296296296],[0.028645833333333332,-0.1425925925925926],[0.02802083333333331,-0.21092592592592588],[0.02802083333333331,-0.21092592592592588],[0.051250000000000046,-0.3168518518518519],[0.07229166666666677,-0.35907407407407405],[0.09895833333333333,-0.4703703703703704],[0.0853125000000001,-0.5253703703703704],[0.07083333333333333,-0.5724074074074075],[0.042499999999999954,-0.6279629629629631],[0.022708333333333285,-0.659074074074074],[0.02645833333333331,-0.7344444444444445],[0.02666666666666669,-0.7748148148148147],[0.04093749999999995,-0.8612962962962963],[0.04802083333333336,-0.9072222222222222],[0.06645833333333329,-0.9311111111111111],[0.07489583333333343,-0.915],[0.12041666666666657,-0.9046296296296297],[0.15072916666666672,-0.8468518518518519],[0.16927083333333334,-0.777962962962963],[0.21302083333333333,-0.7944444444444444],[0.2556250000000001,-0.7331481481481481],[0.2556250000000001,-0.7331481481481481],[0.29020833333333323,-0.6816666666666668],[0.29020833333333323,-0.6816666666666668],[0.32541666666666674,-0.6403703703703704],[0.35270833333333323,-0.5998148148148148],[0.3654166666666666,-0.5790740740740741],[0.3837500000000001,-0.5438888888888889],[0.3655208333333334,-0.4781481481481481],[0.359375,-0.432962962962963],[0.3702083333333334,-0.3933333333333333],[0.34500000000000003,-0.3061111111111111],[0.3315624999999999,-0.27981481481481485],[0.3477083333333333,-0.3001851851851852],[0.3477083333333333,-0.3001851851851852],[0.29739583333333336,-0.21666666666666667],[0.29739583333333336,-0.21666666666666667],[0.2263541666666666,-0.12240740740740745],[0.16437499999999997,-0.05740740740740741],[0.06677083333333324,-0.013888888888888888],[-0.02645833333333331,-0.02814814814814823],[-0.13312499999999997,-0.03685185185185181],[-0.24500000000000005,-0.05481481481481486],[-0.33927083333333335,-0.05759259259259263],[-0.4487499999999999,-0.02907407407407416],[-0.5713541666666667,0.051111111111111156],[-0.6316666666666666,0.07907407407407416],[-0.66625,0.07981481481481485],[-0.7026041666666667,0.09259259259259259],[-0.6958333333333333,0.06648148148148143],[-0.6853125,0.07185185185185176],[-0.655625,0.06666666666666667],[-0.6259374999999999,0.06518518518518526],[-0.6045833333333334,0.011111111111111112],[-0.5854166666666667,-0.04222222222222214],[-0.5391666666666667,-0.11037037037037041],[-0.49281250000000004,-0.17444444444444443],[-0.4432291666666667,-0.2264814814814815],[-0.399375,-0.275],[-0.37177083333333333,-0.2748148148148148],[-0.34427083333333336,-0.28833333333333333],[-0.32229166666666664,-0.27981481481481485],[-0.3003124999999999,-0.2712962962962963],[-0.29031250000000003,-0.20388888888888893],[-0.2720833333333334,-0.16148148148148145],[-0.2789583333333333,-0.13277777777777774],[-0.26677083333333335,-0.11592592592592597],[-0.2543750000000001,-0.09592592592592594],[-0.23624999999999996,-0.0794444444444444],[-0.21104166666666668,-0.06870370370370374],[-0.18583333333333332,-0.05796296296296299],[-0.1655208333333333,-0.06222222222222226],[-0.13010416666666663,-0.11092592592592589],[-0.08197916666666671,-0.16962962962962966],[-0.07052083333333338,-0.18666666666666668],[-0.04572916666666664,-0.19018518518518515],[-0.02802083333333331,-0.17777777777777778],[-0.02000000000000005,-0.175],[-0.02302083333333336,-0.1648148148148148],[-0.018333333333333358,-0.15555555555555556],[-0.005520833333333286,-0.17259259259259258],[0.022708333333333285,-0.20555555555555555],[0.03583333333333331,-0.1940740740740741],[0.04583333333333333,-0.2051851851851852],[0.07468750000000005,-0.2059259259259259],[0.08208333333333329,-0.20259259259259255],[0.07135416666666666,-0.2131481481481482],[0.06354166666666666,-0.1764814814814815],[0.06677083333333324,-0.14722222222222223],[0.06677083333333324,-0.14722222222222223],[0.08499999999999991,-0.11037037037037041],[0.09010416666666667,-0.04148148148148144],[0.08427083333333343,0.024814814814814772],[0.0626041666666667,0.10388888888888893],[0.050416666666666644,0.19462962962962968],[0.051979166666666646,0.22814814814814824],[0.04604166666666672,0.22185185185185177],[0.04624999999999998,0.22537037037037044],[0.04510416666666662,0.2257407407407407],[0.043124999999999976,0.19814814814814816],[0.017708333333333333,0.1624074074074075],[0.009583333333333381,0.09000000000000004],[-0.003541666666666643,0.02240740740740745],[-0.04375,-0.015370370370370286],[-0.04375,-0.015370370370370286],[-0.059895833333333336,-0.01629629629629621],[-0.059895833333333336,-0.01629629629629621],[-0.09833333333333331,0.008888888888888804],[-0.09833333333333331,0.008888888888888804],[-0.11197916666666667,0.019259259259259216],[-0.12427083333333329,0.04222222222222214],[-0.12427083333333329,0.04222222222222214],[-0.12416666666666672,0.027037037037037078],[-0.12416666666666672,0.027037037037037078],[-0.14010416666666667,0.0492592592592593],[-0.14010416666666667,0.0492592592592593],[-0.1544791666666666,-0.01574074074074074],[-0.1544791666666666,-0.01574074074074074],[-0.18583333333333332,-0.0035185185185184764],[-0.18583333333333332,-0.0035185185185184764],[-0.20364583333333333,-0.03333333333333333],[-0.20364583333333333,-0.03333333333333333],[-0.18677083333333327,-0.0742592592592593],[-0.18677083333333327,-0.0742592592592593],[-0.17749999999999996,-0.1383333333333333],[-0.17749999999999996,-0.1383333333333333],[-0.16052083333333336,-0.18981481481481483],[-0.16052083333333336,-0.18981481481481483],[-0.15406249999999996,-0.2257407407407407],[-0.1345833333333334,-0.21666666666666667],[-0.13229166666666667,-0.26666666666666666],[-0.11197916666666667,-0.2564814814814815],[-0.07854166666666665,-0.18055555555555555],[-0.035104166666666714,-0.14518518518518514],[-0.0002083333333333807,-0.07259259259259257],[0.01583333333333338,-0.03351851851851856],[0.02385416666666664,-0.027777777777777776],[0.049270833333333285,-0.004814814814814857],[0.07385416666666676,0.037037037037037035],[0.08854166666666667,0.015555555555555513],[0.11218750000000005,0.054074074074074156],[0.14802083333333324,-0.009999999999999959],[0.16520833333333323,-0.041111111111111195],[0.16708333333333342,-0.11796296296296294],[0.17062499999999994,-0.18055555555555555],[0.1866666666666667,-0.22925925925925927],[0.1866666666666667,-0.22925925925925927],[0.18708333333333324,-0.24833333333333338],[0.18708333333333324,-0.24833333333333338],[0.18041666666666673,-0.272037037037037],[0.17583333333333329,-0.30333333333333334],[0.17395833333333333,-0.3416666666666667],[0.1540625000000001,-0.3522222222222222],[0.14229166666666657,-0.3562962962962963],[0.13447916666666657,-0.3718518518518519],[0.13447916666666657,-0.3718518518518519],[0.12885416666666671,-0.3309259259259259],[0.09708333333333338,-0.337037037037037],[0.08302083333333338,-0.33259259259259266],[0.08718750000000004,-0.307962962962963],[0.07864583333333333,-0.29814814814814816],[0.07427083333333329,-0.3303703703703703],[0.07270833333333329,-0.3248148148148148],[0.07416666666666671,-0.37907407407407406],[0.049583333333333354,-0.39518518518518514],[0.029062499999999977,-0.36814814814814817],[0.03145833333333338,-0.387037037037037],[0.03822916666666672,-0.3992592592592593],[0.0328125,-0.4233333333333334],[0.02354166666666669,-0.46055555555555555],[0.028750000000000022,-0.5188888888888888],[0.034791666666666644,-0.5374074074074073],[0.012395833333333309,-0.58],[0.017604166666666643,-0.5788888888888889],[0.002395833333333286,-0.5901851851851851],[-0.016562499999999977,-0.6246296296296296],[-0.013333333333333286,-0.6527777777777778],[-0.004375000000000047,-0.665],[0.003854166666666714,-0.6835185185185185],[0.0002083333333333807,-0.705],[0.005520833333333286,-0.7031481481481481],[0.008229166666666643,-0.7103703703703704],[0.008229166666666643,-0.7103703703703704],[0.029375000000000047,-0.7185185185185186],[0.029375000000000047,-0.7185185185185186],[0.03239583333333336,-0.742037037037037],[0.06541666666666662,-0.7568518518518518],[0.078125,-0.7844444444444445],[0.0484375,-0.7862962962962964],[0.051979166666666646,-0.7761111111111112],[0.04604166666666672,-0.7733333333333334],[0.05770833333333331,-0.7809259259259259],[0.030520833333333285,-0.7961111111111111],[0.004166666666666667,-0.8001851851851852],[-0.028958333333333287,-0.7953703703703704],[-0.044270833333333336,-0.7877777777777777],[-0.07458333333333336,-0.7946296296296297],[-0.08104166666666662,-0.7759259259259259],[-0.08250000000000005,-0.7762962962962963],[-0.12718750000000004,-0.7133333333333333],[-0.15499999999999994,-0.6390740740740741],[-0.14906250000000001,-0.5455555555555556],[-0.11843750000000004,-0.4444444444444444],[-0.09197916666666663,-0.3424074074074074],[-0.04354166666666662,-0.27444444444444444],[-0.022916666666666665,-0.19703703703703698],[0.013020833333333334,-0.0977777777777778],[0.04208333333333331,-0.04944444444444453],[0.07395833333333333,0.020185185185185143],[0.1423958333333334,0.021481481481481525],[0.21489583333333329,0.01314814814814819],[0.23791666666666675,-0.005185185185185101],[0.253125,-0.019259259259259216],[0.2633333333333333,-0.019999999999999917],[0.2712500000000001,-0.006111111111111027],[0.2945833333333333,0.0022222222222223064],[0.32052083333333337,-0.0035185185185184764],[0.3467708333333334,0.02296296296296292],[0.35791666666666655,0.010740740740740657],[0.3720833333333334,0.01518518518518527],[0.3845833333333334,0.02111111111111107],[0.37260416666666674,0.02962962962962963],[0.3601041666666667,0.015000000000000043],[0.3507291666666667,0.028703703703703703],[0.32572916666666674,0.05962962962962971],[0.2634375000000001,0.031111111111111027],[0.19322916666666667,0.0012962962962963806],[0.12020833333333343,-0.06407407407407412],[0.05239583333333329,-0.09796296296296292],[0.010520833333333358,-0.14444444444444443],[-0.005729166666666666,-0.1307407407407408],[-0.0046875,-0.15092592592592594],[0.017499999999999953,-0.1653703703703704],[0.03854166666666667,-0.1962962962962963],[0.06229166666666662,-0.2338888888888889],[0.06229166666666662,-0.2338888888888889],[0.10229166666666671,-0.19296296296296295],[0.10229166666666671,-0.19296296296296295],[0.13406250000000006,-0.2101851851851852],[0.13406250000000006,-0.2101851851851852],[0.16354166666666667,-0.17999999999999997],[0.16354166666666667,-0.17999999999999997],[0.22125000000000009,-0.1264814814814815],[0.22125000000000009,-0.1264814814814815],[0.2303124999999999,-0.06925925925925921],[0.2303124999999999,-0.06925925925925921],[0.2228125000000001,-0.07740740740740742],[0.22364583333333338,-0.0485185185185186],[0.22364583333333338,-0.0485185185185186],[0.21583333333333338,-0.010740740740740657],[0.21583333333333338,-0.010740740740740657],[0.2021874999999999,-0.007037037037036953],[0.2021874999999999,-0.007037037037036953],[0.18875000000000006,0.003888888888888931],[0.18875000000000006,0.003888888888888931],[0.20604166666666662,-0.009074074074074031],[0.20604166666666662,-0.009074074074074031],[0.2117708333333333,0.01629629629629621],[0.2117708333333333,0.01629629629629621],[0.24208333333333343,0.043703703703703745],[0.23447916666666657,0.028703703703703703],[0.2517708333333334,0.02833333333333325],[0.26281249999999995,0.022037037037036994],[0.2453125,0.001851851851851852],[0.2289583333333333,-0.01574074074074074],[0.2133333333333333,-0.014814814814814815],[0.21687500000000004,-0.015370370370370286],[0.19343750000000004,-0.01777777777777782],[0.18979166666666672,-0.0003703703703704546],[0.18562500000000004,-0.012407407407407492],[0.19833333333333342,-0.002962962962963005],[0.18177083333333333,-0.019999999999999917],[0.15968749999999995,-0.020370370370370372],[0.1634375000000001,-0.0242592592592593],[0.17197916666666657,-0.03592592592592588],[0.15895833333333323,-0.023333333333333376],[0.14208333333333342,-0.02166666666666675],[0.12999999999999995,-0.005185185185185101],[0.11791666666666671,0.011296296296296339],[0.11166666666666672,0.014629629629629588],[0.09677083333333343,0.009814814814814731],[0.10947916666666657,0.00592592592592601],[0.12489583333333343,-0.0035185185185184764],[0.11843750000000004,0.020185185185185143],[0.10718750000000009,0.03037037037037033],[0.12291666666666666,0.008148148148148106],[0.12312500000000005,-0.008888888888888804],[0.1460416666666667,-0.01314814814814819],[0.1586458333333333,-0.026111111111111154],[0.1556250000000001,-0.030740740740740784],[0.15187499999999995,-0.03555555555555564],[0.13239583333333324,-0.034074074074074034],[0.11291666666666676,-0.03259259259259263],[0.10364583333333334,-0.04407407407407399],[0.09718749999999995,-0.03629629629629634],[0.08947916666666676,-0.03740740740740749],[0.08177083333333333,-0.03851851851851843],[0.05552083333333328,-0.05259259259259255],[0.03229166666666667,-0.049074074074074076],[0.0006250000000000236,-0.03796296296296296],[0.0006250000000000236,-0.03796296296296296],[-0.026041666666666668,-0.005370370370370328],[-0.026041666666666668,-0.005370370370370328],[-0.03687499999999998,-0.011111111111111112],[-0.030312500000000023,-0.017407407407407365],[-0.025520833333333333,-0.00592592592592601],[-0.02791666666666662,-0.02092592592592584],[-0.029166666666666667,-0.01962962962962967],[-0.030416666666666713,-0.018333333333333292],[-0.021562500000000047,-0.01574074074074074],[-0.005416666666666714,-0.022037037037036994],[0.02000000000000005,-0.047037037037036995],[0.02000000000000005,-0.047037037037036995],[0.04031250000000005,-0.0787037037037037],[0.05302083333333331,-0.08537037037037042],[0.04500000000000005,-0.06425925925925924],[0.044166666666666646,-0.08314814814814811],[0.05145833333333331,-0.05907407407407403],[0.05145833333333331,-0.05907407407407403],[0.044270833333333336,-0.07240740740740745],[0.05416666666666667,-0.048333333333333374],[0.042499999999999954,-0.04537037037037037],[0.03083333333333336,-0.042407407407407366],[0.03197916666666671,-0.014074074074074116],[0.042604166666666644,0.007777777777777862],[0.03729166666666662,0.030555555555555555],[0.03687499999999998,0.03777777777777774],[0.04791666666666667,0.05722222222222218],[0.049791666666666616,0.03370370370370379],[0.058333333333333334,0.07333333333333338],[0.058333333333333334,0.07333333333333338],[0.05166666666666669,0.06481481481481481],[0.05166666666666669,0.06481481481481481],[0.07666666666666658,0.07351851851851861],[0.08937499999999995,0.09055555555555551],[0.08489583333333334,0.08703703703703704],[0.08489583333333334,0.08703703703703704],[0.09885416666666676,0.0625925925925925],[0.1134375000000001,0.075],[0.12645833333333342,0.07574074074074069],[0.13229166666666667,0.07592592592592592],[0.1196875000000001,0.0712962962962963],[0.11322916666666671,0.041666666666666664],[0.11322916666666671,0.041666666666666664],[0.1134375000000001,0.028703703703703703],[0.09656250000000005,0.006111111111111027],[0.09739583333333333,-0.014814814814814815],[0.08562500000000005,-0.03037037037037033],[0.08562500000000005,-0.03037037037037033],[0.06499999999999997,-0.056296296296296254],[0.057187499999999974,-0.10037037037037035],[0.030729166666666665,-0.147037037037037],[0.02177083333333331,-0.17444444444444443],[0.035208333333333286,-0.17888888888888893],[0.04864583333333338,-0.18333333333333332],[0.05562499999999997,-0.20611111111111113],[0.078125,-0.2131481481481482],[0.07593750000000009,-0.21185185185185182],[0.10177083333333338,-0.22185185185185188],[0.09802083333333324,-0.19574074074074072],[0.08145833333333338,-0.1766666666666666],[0.09697916666666657,-0.1653703703703704],[0.08583333333333343,-0.1648148148148148],[0.08416666666666663,-0.1624074074074074],[0.08250000000000005,-0.15999999999999995],[0.08177083333333333,-0.14592592592592596],[0.08177083333333333,-0.14592592592592596],[0.06760416666666676,-0.14648148148148152],[0.06760416666666676,-0.14648148148148152],[0.06052083333333336,-0.14444444444444443],[0.06052083333333336,-0.14444444444444443],[0.04562499999999995,-0.12240740740740745],[0.06520833333333335,-0.13351851851851856],[0.06520833333333335,-0.13351851851851856],[0.1078125,-0.13499999999999995],[0.1078125,-0.13499999999999995],[0.1234375,-0.13203703703703706],[0.1234375,-0.13203703703703706],[0.1493750000000001,-0.12833333333333335],[0.1632291666666667,-0.12537037037037035],[0.1632291666666667,-0.12537037037037035],[0.1759375000000001,-0.12185185185185188],[0.1759375000000001,-0.12185185185185188],[0.1828125,-0.12462962962962965],[0.1828125,-0.12462962962962965],[0.20177083333333337,-0.11851851851851852],[0.20177083333333337,-0.11851851851851852],[0.22145833333333323,-0.14314814814814816],[0.22145833333333323,-0.14314814814814816],[0.2540625000000001,-0.17851851851851847],[0.2540625000000001,-0.17851851851851847],[0.24770833333333328,-0.14981481481481476],[0.24510416666666662,-0.14444444444444443],[0.26666666666666666,-0.1544444444444444],[0.28708333333333325,-0.17370370370370372],[0.27854166666666674,-0.19129629629629633],[0.27854166666666674,-0.19129629629629633],[0.25656249999999997,-0.2131481481481482],[0.23739583333333342,-0.227962962962963],[0.20697916666666671,-0.24000000000000005],[0.1883333333333333,-0.23740740740740737],[0.15489583333333337,-0.22870370370370371],[0.14593749999999991,-0.25574074074074077],[0.1400000000000001,-0.2833333333333333],[0.1099999999999999,-0.2675925925925926],[0.09937500000000009,-0.24444444444444444],[0.1056250000000001,-0.2088888888888889],[0.1345833333333334,-0.20240740740740742],[0.1681250000000001,-0.19574074074074072],[0.18708333333333324,-0.16407407407407412],[0.20979166666666677,-0.1398148148148148],[0.2169791666666666,-0.11240740740740739],[0.23177083333333334,-0.06814814814814817],[0.21687500000000004,-0.01518518518518527],[0.22395833333333334,0.01574074074074074],[0.19260416666666677,0.015370370370370286],[0.19135416666666671,0.022222222222222223],[0.19020833333333323,0.06314814814814819],[0.1834374999999999,0.08277777777777787],[0.17760416666666667,0.08574074074074066],[0.16770833333333332,0.09129629629629621],[0.17291666666666666,0.07370370370370362],[0.16739583333333338,0.07351851851851861],[0.18489583333333334,0.09092592592592597],[0.1853125000000001,0.11277777777777774],[0.1853125000000001,0.11277777777777774],[0.20385416666666673,0.12333333333333338],[0.2415625000000001,0.14462962962962966],[0.26979166666666665,0.1648148148148148],[0.26927083333333335,0.2170370370370371],[0.2830208333333334,0.24092592592592596],[0.29708333333333337,0.26666666666666666],[0.3186458333333334,0.277962962962963],[0.3433333333333332,0.25500000000000006],[0.3490624999999999,0.2301851851851851],[0.3633333333333333,0.20092592592592592],[0.3785416666666668,0.20685185185185193],[0.3546875,0.20185185185185187],[0.3546875,0.20185185185185187],[0.3320833333333333,0.19666666666666674],[0.34406249999999994,0.1705555555555556],[0.3602083333333333,0.12814814814814823],[0.37604166666666666,0.0838888888888888],[0.37614583333333323,0.07592592592592592],[0.3758333333333333,0.0668518518518519],[0.37687499999999996,0.07277777777777769],[0.37687499999999996,0.07277777777777769],[0.3779166666666666,0.0787037037037037],[0.36749999999999994,0.08537037037037042],[0.3766666666666666,0.04259259259259259],[0.3858333333333334,-0.0001851851851852273],[0.37385416666666677,-0.016666666666666666],[0.3836458333333333,-0.0014814814814813973],[0.3836458333333333,0.014814814814814815],[0.3836458333333333,0.032407407407407406],[0.3862499999999999,0.03833333333333342],[0.4069791666666667,0.024629629629629547],[0.42770833333333325,0.010925925925925884],[0.42999999999999994,-0.002962962962963005],[0.41687500000000005,0.013888888888888888],[0.4033333333333334,0.03185185185185194],[0.4125,0.025925925925925925],[0.3974999999999999,0.01314814814814819],[0.38312499999999994,-0.011111111111111112],[0.3541666666666667,-0.014814814814814815],[0.3120833333333332,-0.029259259259259176],[0.27312500000000006,-0.01962962962962967],[0.24406249999999996,-0.0005555555555554713],[0.25718750000000007,0.018148148148148063],[0.2821875000000001,0.03370370370370379],[0.3076041666666666,0.04814814814814815],[0.2985416666666666,0.07333333333333338],[0.29968750000000005,0.07222222222222222],[0.3020833333333333,0.08925925925925934],[0.31906249999999997,0.08574074074074066],[0.37552083333333336,0.12092592592592584],[0.40864583333333326,0.13962962962962958],[0.41302083333333334,0.13407407407407404],[0.41041666666666665,0.12222222222222222],[0.4181250000000001,0.10907407407407403],[0.4301041666666668,0.10462962962962963],[0.44020833333333326,0.10333333333333325],[0.4292708333333332,0.11351851851851844],[0.4262500000000001,0.11592592592592597],[0.4232291666666666,0.11833333333333329],[0.41416666666666657,0.10166666666666663],[0.4087500000000001,0.07259259259259268],[0.4071875000000001,0.08296296296296288],[0.37770833333333326,0.04796296296296292],[0.34427083333333336,0.0507407407407407],[0.3021874999999999,0.008333333333333333],[0.28718750000000004,0.00592592592592601],[0.29010416666666666,-0.028888888888888933],[0.28968749999999993,-0.05648148148148148],[0.2849999999999999,-0.09388888888888887],[0.26572916666666657,-0.09111111111111109],[0.24468750000000009,-0.0962962962962963],[0.22958333333333342,-0.125],[0.22906250000000009,-0.0955555555555556],[0.22906250000000009,-0.0955555555555556],[0.2179166666666667,-0.12518518518518523],[0.22937500000000005,-0.1227777777777778],[0.22937500000000005,-0.1227777777777778],[0.228125,-0.15685185185185183],[0.228125,-0.15685185185185183],[0.20166666666666658,-0.15055555555555558],[0.20166666666666658,-0.15055555555555558],[0.1788541666666667,-0.1566666666666667],[0.1788541666666667,-0.1566666666666667],[0.16510416666666666,-0.12518518518518523],[0.16510416666666666,-0.12518518518518523],[0.16864583333333344,-0.12129629629629629],[0.16864583333333344,-0.12129629629629629],[0.15177083333333338,-0.062407407407407384],[0.15177083333333338,-0.062407407407407384],[0.1443749999999999,-0.00592592592592601],[0.1443749999999999,-0.00592592592592601],[0.10791666666666658,-0.045740740740740825],[0.10791666666666658,-0.045740740740740825],[0.09166666666666666,-0.04814814814814815],[0.09166666666666666,-0.04814814814814815],[0.07062499999999995,0.03314814814814811]]","[[0.0328125,0.37185185185185177,0.00019999980926854732],[0.0328125,0.37185185185185177,0.05209999990462677],[0.036666666666666715,0.37962962962962965,0.06050000000000466],[0.03145833333333338,0.3762962962962964,0.08150000000000546],[0.03145833333333338,0.3762962962962964,0.09909999990463803],[0.03104166666666662,0.32944444444444443,0.1135999999046362],[0.05291666666666662,0.31962962962962965,0.12819999980926866],[0.09104166666666676,0.30925925925925923,0.14390000009537118],[0.13114583333333343,0.28962962962962957,0.16049999999999898],[0.12614583333333323,0.2716666666666668,0.17719999980926104],[0.1345833333333334,0.29222222222222216,0.19380000019073407],[0.11333333333333329,0.302962962962963,0.21049999999999613],[0.09885416666666676,0.29222222222222216,0.2271999998092724],[0.07010416666666662,0.26666666666666666,0.2464999999999975],[0.07010416666666662,0.26666666666666666,0.26059999990462757],[0.0640625,0.2796296296296296,0.27730000019073486],[0.0640625,0.2796296296296296,0.29390000009536266],[0.06312500000000003,0.2757407407407407,0.31059999990463893],[0.034687499999999954,0.2675925925925926,0.32709999990463245],[0.008229166666666643,0.23203703703703696,0.34380000019073975],[-0.015104166666666667,0.2212962962962963,0.36090000009536993],[-0.025,0.22462962962962954,0.3771999998092639],[-0.021041666666666715,0.20092592592592592,0.3938000001907369],[-0.015416666666666618,0.17759259259259255,0.410499999999999],[-0.01583333333333338,0.15925925925925927,0.42719999980926104],[-0.017916666666666713,0.16111111111111112,0.44390000009536834],[-0.024791666666666618,0.14462962962962966,0.4631999998092624],[-0.0453125,0.11203703703703703,0.4773000001907377],[-0.04083333333333338,0.12259259259259268,0.4939999999999998],[-0.044375000000000026,0.1287037037037037,0.5105000000000075],[-0.04791666666666667,0.13481481481481472,0.5273000001907349],[-0.04364583333333331,0.11796296296296305,0.5439000000953627],[-0.06177083333333329,0.12074074074074083,0.5619999999999976],[-0.08093750000000005,0.11592592592592597,0.5771999998092667],[-0.08833333333333329,0.11370370370370367,0.5938000001907398],[-0.09708333333333338,0.09666666666666675,0.6105000000000018],[-0.10760416666666663,0.12166666666666676,0.6274000000953635],[-0.11781250000000003,0.14759259259259266,0.6439000000953712],[-0.13468749999999996,0.1448148148148149,0.6614000000953695],[-0.14322916666666666,0.125,0.677900000095363],[-0.16375000000000003,0.09888888888888885,0.6939000000953683],[-0.1671875,0.10333333333333325,0.7104999999999961],[-0.1608333333333333,0.09574074074074082,0.7273000001907377],[-0.15572916666666667,0.11833333333333329,0.7439000000953655],[-0.15635416666666668,0.13333333333333333,0.7605000000000075],[-0.15750000000000006,0.1527777777777778,0.7771999998092696],[-0.13875000000000004,0.14444444444444443,0.7970999999046313],[-0.09093749999999995,0.15018518518518523,0.8115999999046295],[-0.07312500000000005,0.17111111111111107,0.8274000000953663],[-0.04781249999999997,0.21722222222222215,0.8438000001907398],[-0.030416666666666713,0.2264814814814814,0.8605000000000018],[-0.019375000000000024,0.23129629629629625,0.8773000001907292],[-0.011354166666666643,0.25277777777777777,0.8940000000000055],[-0.00604166666666662,0.275,0.910499999999999],[-0.0007291666666667141,0.2972222222222222,0.927199999809261],[0.014999999999999977,0.2801851851851851,0.9439000000953683],[0.027708333333333356,0.2614814814814816,0.9644000000953667],[0.014479166666666644,0.27462962962962956,0.9770999999046381],[0.02302083333333336,0.2844444444444445,0.9939000000953655],[0.02635416666666662,0.23666666666666658,1.0105000000000075],[0.03989583333333328,0.24870370370370362,1.0271999998092696],[0.036458333333333336,0.24166666666666667,1.0438000001907426],[0.03604166666666669,0.21796296296296305,1.0606999998092732],[0.03156249999999995,0.19370370370370374,1.0771999998092667],[0.03802083333333333,0.1603703703703704,1.0938000001907398],[0.036458333333333336,0.17037037037037037,1.1105000000000018],[0.05489583333333338,0.1772222222222223,1.1271999998092639],[0.042499999999999954,0.16814814814814807,1.1439000000953712],[0.042499999999999954,0.16814814814814807,1.1605999999046333],[0.0655208333333333,0.13148148148148148,1.177199999809261],[0.03145833333333338,0.15685185185185194,1.193800000190734],[0.004270833333333357,0.18351851851851855,1.2105999999046304],[0,0.1794444444444444,1.2271999998092724],[-0.014479166666666644,0.1764814814814814,1.2439000000953655],[-0.02333333333333331,0.17388888888888884,1.2605999999046276],[-0.050625000000000024,0.19870370370370363,1.2771999998092696],[-0.05447916666666662,0.18648148148148155,1.2938000001907426],[-0.09583333333333334,0.2007407407407407,1.310599999904639],[-0.09583333333333334,0.1905555555555555,1.3271999998092667],[-0.12354166666666669,0.19148148148148145,1.343999999999994],[-0.10479166666666669,0.17981481481481484,1.3629000000953653],[-0.10489583333333338,0.14222222222222214,1.3795000000000073],[-0.09833333333333331,0.13777777777777775,1.3965000000000032],[-0.09270833333333334,0.13851851851851843,1.410499999999999],[-0.075,0.12129629629629629,1.427199999809261],[-0.06781250000000003,0.10944444444444448,1.4439000000953683],[-0.08999999999999998,0.12611111111111115,1.4604999999999961],[-0.09656250000000005,0.16796296296296304,1.4771999998092724],[-0.11333333333333329,0.1883333333333334,1.4939999999999998],[-0.14468749999999997,0.22851851851851848,1.5105999999046276],[-0.1622916666666666,0.22277777777777769,1.5271999998092696],[-0.16447916666666665,0.2485185185185186,1.5438000001907426],[-0.18020833333333333,0.2698148148148149,1.5630000000000024],[-0.2001041666666667,0.30407407407407416,1.577300000190732],[-0.23364583333333327,0.35648148148148145,1.595800000190735],[-0.24020833333333336,0.4111111111111111,1.6129000000953653],[-0.23093750000000005,0.4381481481481482,1.6274999999999977],[-0.21645833333333328,0.3931481481481481,1.6514999999999986],[-0.21645833333333328,0.3931481481481481,1.6605999999046333],[-0.2033333333333334,0.39000000000000007,1.677199999809261],[-0.18760416666666668,0.3803703703703703,1.6940000000000026],[-0.18218749999999997,0.42018518518518516,1.7105999999046304],[-0.17395833333333333,0.4329629629629629,1.728900000095365],[-0.16468750000000001,0.4696296296296297,1.7439999999999998],[-0.13875000000000004,0.47759259259259257,1.7625999999046371],[-0.1234375,0.47092592592592586,1.7809000000953716],[-0.1234375,0.47092592592592586,1.7939000000953627],[-0.11802083333333328,0.43574074074074065,1.8105000000000047],[-0.11802083333333328,0.43574074074074065,1.8271999998092667],[-0.10864583333333329,0.4281481481481482,1.843900000095374],[-0.10864583333333329,0.4281481481481482,1.860599999904636],[-0.10979166666666665,0.4364814814814816,1.8771999998092639],[-0.10979166666666665,0.4364814814814816,1.893800000190737],[-0.11260416666666669,0.45,1.9105999999046333],[-0.11989583333333335,0.4485185185185186,1.9318000001907336],[-0.11989583333333335,0.4485185185185186,1.9439000000953683],[-0.12364583333333339,0.40981481481481474,1.9606999998092647],[-0.13354166666666673,0.3998148148148148,1.9796999998092701],[-0.1391666666666667,0.3801851851851851,1.9938000001907312],[-0.1577083333333333,0.35648148148148145,2.0105999999046276],[-0.15583333333333335,0.3412962962962962,2.030599999904638],[-0.13510416666666672,0.3368518518518518,2.0456999998092726],[-0.13510416666666672,0.3368518518518518,2.0608000001907385],[-0.13125,0.3448148148148149,2.0770999999046325],[-0.1345833333333334,0.35648148148148145,2.0953000001907327],[-0.13541666666666666,0.352962962962963,2.110500000000002],[-0.12749999999999997,0.3516666666666666,2.1296999998092616],[-0.12635416666666663,0.3677777777777778,2.143800000190737],[-0.12093750000000002,0.3568518518518519,2.1631999998092653],[-0.12281249999999998,0.37462962962962953,2.1795000000000044],[-0.11187499999999997,0.3955555555555556,2.1943000001907365],[-0.10520833333333333,0.4225925925925927,2.210499999999996],[-0.11645833333333329,0.4414814814814814,2.2291999998092678],[-0.12010416666666662,0.3925925925925926,2.2438000001907312],[-0.11749999999999995,0.37481481481481477,2.2631999998092596],[-0.11697916666666662,0.3651851851851853,2.2789999999999964],[-0.12041666666666669,0.36740740740740735,2.2943000001907308],[-0.12687499999999996,0.3768518518518518,2.3119000000953633],[-0.1280208333333333,0.3881481481481482,2.329199999809262],[-0.1203125,0.35537037037037034,2.346900000095374],[-0.11322916666666671,0.34092592592592597,2.3640000000000043],[-0.10677083333333333,0.3218518518518518,2.3795999999046273],[-0.10031249999999996,0.30277777777777776,2.3944000000953736],[-0.08927083333333338,0.34,2.412699999809263],[-0.08041666666666672,0.3557407407407408,2.430199999809261],[-0.06479166666666672,0.37481481481481477,2.4488000001907295],[-0.06479166666666672,0.37481481481481477,2.460499999999996],[-0.04760416666666671,0.36314814814814816,2.477099999904638],[-0.0140625,0.35703703703703693,2.495999999999995],[0.011562500000000024,0.3562962962962963,2.5105000000000075],[0.035416666666666666,0.3501851851851852,2.529599999904633],[0.05697916666666671,0.33907407407407414,2.544099999904631],[0.07364583333333338,0.33259259259259266,2.5619999999999976],[0.09187500000000005,0.3290740740740742,2.577300000190732],[0.10510416666666676,0.3031481481481482,2.5955999999046355],[0.09802083333333324,0.287962962962963,2.6145999999046268],[0.10499999999999995,0.2640740740740741,2.6304000000953636],[0.09614583333333329,0.2772222222222223,2.6493000001907347],[0.09614583333333329,0.2772222222222223,2.6606999998092675],[0.07604166666666666,0.2818518518518519,2.680000000000007],[0.057187499999999974,0.31129629629629635,2.6973000001907366],[0.02687499999999995,0.31666666666666665,2.713000000000008],[-0.0017708333333333807,0.319074074074074,2.7273000001907377],[-0.027291666666666714,0.35462962962962963,2.7468000001907313],[-0.025625000000000023,0.3368518518518518,2.7639000000953615],[-0.05343749999999995,0.35722222222222216,2.7778000001907373],[-0.04760416666666671,0.3640740740740741,2.7979000000953675],[-0.07197916666666669,0.3877777777777777,2.8133000001907362],[-0.078125,0.3933333333333333,2.8300999999046326],[-0.08531249999999997,0.4353703703703704,2.849400000095372],[-0.08531249999999997,0.4353703703703704,2.861000000000004],[-0.09197916666666663,0.41351851851851845,2.8774999999999977],[-0.08510416666666672,0.40333333333333327,2.899699999809272],[-0.06447916666666664,0.37185185185185177,2.9144000000953696],[-0.05354166666666664,0.3170370370370371,2.930000000000007],[-0.08489583333333334,0.33722222222222226,2.9465000000000003],[-0.08052083333333329,0.32944444444444443,2.96380000019073],[-0.07718750000000002,0.3344444444444445,2.97969999980927],[-0.06437499999999995,0.32037037037037036,2.998599999904627],[-0.0609375,0.26481481481481484,3.0146999998092667],[-0.06354166666666666,0.22314814814814815,3.0304000000953693],[-0.05281250000000005,0.16629629629629622,3.049900000095363],[-0.05281250000000005,0.16629629629629622,3.0608000001907385],[-0.04031250000000005,0.14425925925925923,3.0774000000953663],[-0.06208333333333336,0.13944444444444437,3.0974000000953623],[-0.06583333333333338,0.12722222222222232,3.1110999999046385],[-0.05604166666666662,0.09037037037037028,3.1370999999046347],[-0.05604166666666662,0.09037037037037028,3.1444000000953736],[-0.051874999999999956,0.05055555555555547,3.163800000190733],[-0.05416666666666667,0.025,3.177499999999995],[-0.05447916666666662,-0.0011111111111111532,3.194199999809271],[-0.049583333333333354,0.03314814814814811,3.2106999998092647],[-0.03833333333333329,-0.009629629629629714,3.23080000019074],[-0.04010416666666667,0.0005555555555554713,3.2460999999046294],[-0.04010416666666667,0.0005555555555554713,3.2608000001907413],[-0.05656249999999995,0.004259259259259175,3.277300000190735],[-0.033749999999999974,-0.008333333333333333,3.2969000000953628],[-0.024583333333333356,-0.002777777777777778,3.3123000001907315],[-0.026979166666666644,0.004444444444444402,3.32959999990463],[-0.036458333333333336,0.04314814814814806,3.343999999999994],[-0.0484375,0.04611111111111107,3.365300000190743],[-0.041562499999999974,0.04351851851851852,3.3810999999046345],[-0.044270833333333336,0.027962962962963005,3.3969000000953713],[-0.030729166666666665,0.058703703703703786,3.416800000190733],[-0.030729166666666665,0.058703703703703786,3.433499999999995],[-0.03229166666666667,0.08037037037037033,3.4490999999046323],[-0.03229166666666667,0.08037037037037033,3.4606999998092647],[-0.018333333333333358,0.09944444444444453,3.4799000000953697],[-0.013020833333333334,0.14759259259259266,3.494099999904634],[-0.010416666666666666,0.1757407407407407,3.5105999999046276],[-0.010416666666666666,0.1757407407407407,3.5294999999999987],[-0.008541666666666715,0.19092592592592597,3.543999999999997],[0.008854166666666666,0.17703703703703708,3.563599999904639],[0.012916666666666642,0.19018518518518526,3.581400000095371],[-0.0003124999999999526,0.20277777777777778,3.595800000190735],[0.0048958333333333805,0.17629629629629637,3.612099999904629],[-0.007708333333333309,0.14222222222222214,3.6276999998092663],[-0.007708333333333309,0.14222222222222214,3.6473000001907394],[0.0002083333333333807,0.13055555555555556,3.660800000190733],[0.003958333333333286,0.10999999999999996,3.681199999809266],[-0.008749999999999977,0.09314814814814806,3.6950000000000074],[-0.016562499999999977,0.07574074074074069,3.710499999999996],[-0.016562499999999977,0.07574074074074069,3.7271999998092724],[-0.012083333333333357,0.06962962962962967,3.7439000000953655],[-0.012083333333333357,0.06962962962962967,3.7605999999046276],[-0.01114583333333338,0.07370370370370362,3.7771999998092696],[-0.01114583333333338,0.07370370370370362,3.7939000000953627],[-0.006458333333333381,0.05981481481481473,3.810599999904639],[-0.006458333333333381,0.05981481481481473,3.8271999998092667],[0.005624999999999976,0.062037037037037036,3.843900000095374],[0.005624999999999976,0.062037037037037036,3.860500000000002],[0.0010416666666666667,0.0985185185185186,3.877199999809264],[0.0010416666666666667,0.0985185185185186,3.893900000095371],[0.013125000000000024,0.11870370370370374,3.910499999999999],[0.011249999999999953,0.13203703703703695,3.931599999904634],[0.011249999999999953,0.13203703703703695,3.9439000000953683],[-0.004166666666666667,0.16129629629629633,3.9606999998092647],[-0.004166666666666667,0.16129629629629633,3.9771999998092724],[-0.016979166666666618,0.15148148148148138,3.9939000000953655],[-0.016979166666666618,0.15148148148148138,4.0105000000000075],[-0.01593749999999995,0.1448148148148149,4.02719999980927],[-0.01593749999999995,0.1448148148148149,4.043800000190743],[-0.00791666666666669,0.12962962962962962,4.060500000000005],[-0.00791666666666669,0.12962962962962962,4.0770999999046325],[-0.012812499999999952,0.10333333333333325,4.09380000019074],[-0.01604166666666664,0.10203703703703708,4.1174000000953725],[-0.01604166666666664,0.10203703703703708,4.1274000000953635],[-0.024374999999999977,0.0962962962962963,4.1440000000000055],[-0.024374999999999977,0.0962962962962963,4.160499999999999],[-0.033958333333333354,0.10351851851851848,4.180499999999995],[-0.05270833333333336,0.122037037037037,4.194400000095371],[-0.05343749999999995,0.12370370370370362,4.2109999999999985],[-0.05343749999999995,0.12370370370370362,4.230300000190738],[-0.04854166666666669,0.11999999999999991,4.244],[-0.044479166666666715,0.13055555555555556,4.264400000095364],[-0.051979166666666646,0.1603703703703704,4.28230000019073],[-0.04583333333333333,0.15481481481481485,4.297400000095365],[-0.050625000000000024,0.1648148148148148,4.313699999809273],[-0.05791666666666669,0.16129629629629633,4.334400000095371],[-0.05791666666666669,0.16129629629629633,4.343999999999994],[-0.06322916666666671,0.1544444444444444,4.360800000190736],[-0.051770833333333384,0.14759259259259266,4.377800000190732],[-0.043333333333333356,0.1337037037037038,4.40009999990464],[-0.043333333333333356,0.1337037037037038,4.410800000190733],[-0.046875,0.15351851851851847,4.4273000001907405],[-0.04895833333333333,0.14314814814814805,4.444099999904637],[-0.04239583333333338,0.12222222222222222,4.465900000095374],[-0.041458333333333285,0.12666666666666662,4.481400000095363],[-0.06916666666666664,0.15,4.497],[-0.08312499999999995,0.1766666666666666,4.5130999999046395],[-0.08999999999999998,0.19425925925925921,4.531000000000006],[-0.08447916666666669,0.22962962962962963,4.544800000190733],[-0.08250000000000005,0.25092592592592594,4.562800000190734],[-0.09958333333333336,0.2837037037037038,4.577400000095366],[-0.12062499999999995,0.28425925925925927,4.596900000095374],[-0.13572916666666662,0.2611111111111111,4.611699999809261],[-0.14885416666666665,0.26370370370370366,4.628199999809269],[-0.1482291666666666,0.24870370370370362,4.643800000190737],[-0.13239583333333335,0.2614814814814816,4.663599999904633],[-0.1282291666666667,0.2844444444444445,4.679800000190738],[-0.13125,0.30833333333333335,4.697300000190737],[-0.1404166666666666,0.29222222222222216,4.71259999990464],[-0.1404166666666666,0.29222222222222216,4.727199999809272],[-0.1498958333333333,0.2831481481481481,4.743800000190731],[-0.14052083333333332,0.2722222222222222,4.761199999809264],[-0.1390625,0.28888888888888886,4.77719999980927],[-0.11916666666666664,0.3114814814814816,4.796599999904629],[-0.12062499999999995,0.3672222222222221,4.81040000009537],[-0.13833333333333328,0.3888888888888889,4.827400000095366],[-0.146875,0.39444444444444443,4.8470999999046285],[-0.14260416666666664,0.38499999999999995,4.86390000009537],[-0.13114583333333332,0.37462962962962953,4.880599999904632],[-0.12322916666666663,0.387037037037037,4.8940000000000055],[-0.11854166666666661,0.4125925925925925,4.913800000190733],[-0.11802083333333328,0.4053703703703703,4.931199999809266],[-0.09322916666666667,0.4046296296296296,4.944699999809259],[-0.08479166666666664,0.4057407407407408,4.9643000001907325],[-0.06229166666666662,0.38351851851851854,4.982199999809268],[-0.033958333333333354,0.3651851851851853,4.997400000095368],[-0.03895833333333331,0.3442592592592592,5.013500000000008],[-0.04083333333333338,0.32037037037037036,5.029699999809267],[-0.04083333333333338,0.32037037037037036,5.043800000190743],[-0.0265625,0.2796296296296296,5.060500000000005],[-0.02677083333333338,0.2614814814814816,5.0770999999046325],[-0.015104166666666667,0.19666666666666674,5.093900000095374],[-0.017916666666666713,0.1948148148148149,5.110800000190736],[-0.020624999999999952,0.13740740740740748,5.127199999809264],[-0.03833333333333329,0.13722222222222227,5.143800000190737],[-0.05479166666666669,0.12444444444444452,5.162499999999994],[-0.07177083333333331,0.10462962962962963,5.180199999809261],[-0.06697916666666662,0.10203703703703708,5.194500000000005],[-0.053125,0.10129629629629638,5.21080000019073],[-0.05541666666666671,0.11740740740740736,5.227199999809272],[-0.06145833333333333,0.11999999999999991,5.247099999904634],[-0.07916666666666666,0.1411111111111112,5.265199999809269],[-0.08250000000000005,0.13444444444444448,5.28109999990464],[-0.08250000000000005,0.13444444444444448,5.293900000095363],[-0.08020833333333334,0.1618518518518518,5.313900000095373],[-0.06875,0.1507407407407407,5.33159999990464],[-0.05270833333333336,0.13203703703703695,5.348599999904636],[-0.05270833333333336,0.13203703703703695,5.3604000000953675],[-0.036145833333333384,0.12037037037037036,5.380699999809266],[-0.022708333333333285,0.1316666666666667,5.397999999999996],[-0.03239583333333336,0.1300000000000001,5.412900000095362],[-0.04552083333333338,0.12777777777777777,5.431599999904634],[-0.04812500000000005,0.12759259259259256,5.4480000000000075],[-0.04739583333333333,0.13537037037037042,5.464199999809267],[-0.04750000000000002,0.11962962962962967,5.479199999809268],[-0.046875,0.07462962962962955,5.493800000190731],[-0.05635416666666669,0.0787037037037037,5.510400000095373],[-0.0704166666666667,0.09037037037037028,5.530599999904638],[-0.0704166666666667,0.09037037037037028,5.545099999904636],[-0.08364583333333328,0.1,5.560699999809273],[-0.07552083333333333,0.10018518518518522,5.577199999809267],[-0.057291666666666664,0.1259259259259259,5.594099999904628],[-0.05458333333333331,0.11425925925925934,5.6104000000953675],[-0.05479166666666669,0.10277777777777777,5.629199999809259],[-0.04750000000000002,0.10685185185185193,5.643699999809272],[-0.03937499999999995,0.13444444444444448,5.665599999904629],[-0.0484375,0.17981481481481484,5.6825000000000045],[-0.0484375,0.17981481481481484,5.694099999904637],[-0.05666666666666664,0.21296296296296297,5.710699999809265],[-0.06489583333333329,0.24611111111111106,5.730300000190738],[-0.058124999999999954,0.2361111111111111,5.745599999904627],[-0.07437499999999998,0.21129629629629634,5.763500000000008],[-0.08572916666666662,0.1757407407407407,5.777699999809272],[-0.078125,0.17814814814814822,5.793900000095363],[-0.0703125,0.20925925925925926,5.8108000001907385],[-0.07000000000000005,0.22481481481481477,5.8270999999046325],[-0.06114583333333338,0.24259259259259258,5.84369999980926],[-0.06114583333333338,0.24259259259259258,5.8