inst1_resp.keys,inst1_resp.rt,calibrationMouse.x,calibrationMouse.y,calibrationMouse.leftButton,calibrationMouse.midButton,calibrationMouse.rightButton,calibrationClick.x,calibrationClick.y,calibrationClick.leftButton,calibrationClick.midButton,calibrationClick.rightButton,trialsc.thisRepN,trialsc.thisTrialN,trialsc.thisN,trialsc.thisIndex,trialsc.ran,calibration_x,calibration_y,participant,session,date,expName,psychopyVersion,OS,frameRate,calibrationClick.clicked_name,ScreenRes_pixels,Camera_pixels,mouse_2.x,mouse_2.y,mouse_2.leftButton,mouse_2.midButton,mouse_2.rightButton,mouse_2.time,mouse_2.clicked_name,mouse.x,mouse.y,mouse.leftButton,mouse.midButton,mouse.rightButton,mouse.time,mouse.clicked_name,Choice,Trial,TrialDuration,MOUSE_GAZE,ET_GAZE,ET_GAZE_x_T,time,unixTime,ET_GAZE_NF,Loc_Bus_label,Loc_Metro_label,Loc_RH_label,Loc_Cost_label,Loc_Travel_label,Loc_Comfort_label,Loc_Bus_cost,Loc_Metro_cost,Loc_RH_cost,Loc_Bus_travel,Loc_Metro_travel,Loc_RH_travel,Loc_Bus_comfort,Loc_Metro_comfort,Loc_RH_comfort,trials.thisRepN,trials.thisTrialN,trials.thisN,trials.thisIndex,trials.ran,Block,Device,RH_cost,RH_travel_time,RH_Comfort,metro_cost,metro_travel_time,metro_Comfort,Bus_cost,Bus_travel_time,Bus_Comfort
space,4.0946,-0.702083333,-0.642592593,1,0,0,0.346875,0.005555556,1,0,0,0,0,0,16,1,0.33,0,36,001,2024-11-18_17h26.51.573,Attention_exp_legacy,2023.1.0,Win32,59.88023952,,,,,,,,,,,,,,,,,,,,,,,,,,,,,,,,,,,,,,,,,,,,,,,,,,,,,,,,,
,,,,,,,-0.333333333,-0.009259259,1,0,0,0,1,1,6,1,-0.33,0,36,001,2024-11-18_17h26.51.573,Attention_exp_legacy,2023.1.0,Win32,59.88023952,calibration_square,,,,,,,,,,,,,,,,,,,,,,,,,,,,,,,,,,,,,,,,,,,,,,,,,,,,,,,,
,,,,,,,-0.009375,0.338888889,1,0,0,0,2,2,12,1,0,0.33,36,001,2024-11-18_17h26.51.573,Attention_exp_legacy,2023.1.0,Win32,59.88023952,calibration_square,,,,,,,,,,,,,,,,,,,,,,,,,,,,,,,,,,,,,,,,,,,,,,,,,,,,,,,,
,,,,,,,0.334375,0.338888889,1,0,0,0,3,3,17,1,0.33,0.33,36,001,2024-11-18_17h26.51.573,Attention_exp_legacy,2023.1.0,Win32,59.88023952,calibration_square,,,,,,,,,,,,,,,,,,,,,,,,,,,,,,,,,,,,,,,,,,,,,,,,,,,,,,,,
,,,,,,,-0.328125,-0.653703704,1,0,0,0,4,4,4,1,-0.33,-0.67,36,001,2024-11-18_17h26.51.573,Attention_exp_legacy,2023.1.0,Win32,59.88023952,,,,,,,,,,,,,,,,,,,,,,,,,,,,,,,,,,,,,,,,,,,,,,,,,,,,,,,,,
,,,,,,,-0.678125,-0.325925926,1,0,0,0,5,5,1,1,-0.67,-0.33,36,001,2024-11-18_17h26.51.573,Attention_exp_legacy,2023.1.0,Win32,59.88023952,calibration_square,,,,,,,,,,,,,,,,,,,,,,,,,,,,,,,,,,,,,,,,,,,,,,,,,,,,,,,,
,,,,,,,-0.0125,-0.314814815,1,0,0,0,6,6,10,1,0,-0.33,36,001,2024-11-18_17h26.51.573,Attention_exp_legacy,2023.1.0,Win32,59.88023952,,,,,,,,,,,,,,,,,,,,,,,,,,,,,,,,,,,,,,,,,,,,,,,,,,,,,,,,,
,,,,,,,-0.666666667,-0.007407407,1,0,0,0,7,7,2,1,-0.67,0,36,001,2024-11-18_17h26.51.573,Attention_exp_legacy,2023.1.0,Win32,59.88023952,calibration_square,,,,,,,,,,,,,,,,,,,,,,,,,,,,,,,,,,,,,,,,,,,,,,,,,,,,,,,,
,,,,,,,-0.667708333,0.335185185,1,0,0,0,8,8,3,1,-0.67,0.33,36,001,2024-11-18_17h26.51.573,Attention_exp_legacy,2023.1.0,Win32,59.88023952,calibration_square,,,,,,,,,,,,,,,,,,,,,,,,,,,,,,,,,,,,,,,,,,,,,,,,,,,,,,,,
,,,,,,,-0.332291667,0.685185185,1,0,0,0,9,9,8,1,-0.33,0.67,36,001,2024-11-18_17h26.51.573,Attention_exp_legacy,2023.1.0,Win32,59.88023952,,,,,,,,,,,,,,,,,,,,,,,,,,,,,,,,,,,,,,,,,,,,,,,,,,,,,,,,,
,,,,,,,0.334375,0.668518519,1,0,0,0,10,10,18,1,0.33,0.67,36,001,2024-11-18_17h26.51.573,Attention_exp_legacy,2023.1.0,Win32,59.88023952,calibration_square,,,,,,,,,,,,,,,,,,,,,,,,,,,,,,,,,,,,,,,,,,,,,,,,,,,,,,,,
,,,,,,,0.665625,-0.668518519,1,0,0,0,11,11,20,1,0.67,-0.67,36,001,2024-11-18_17h26.51.573,Attention_exp_legacy,2023.1.0,Win32,59.88023952,calibration_square,,,,,,,,,,,,,,,,,,,,,,,,,,,,,,,,,,,,,,,,,,,,,,,,,,,,,,,,
,,,,,,,-0.328125,-0.318518519,1,0,0,0,12,12,5,1,-0.33,-0.33,36,001,2024-11-18_17h26.51.573,Attention_exp_legacy,2023.1.0,Win32,59.88023952,,,,,,,,,,,,,,,,,,,,,,,,,,,,,,,,,,,,,,,,,,,,,,,,,,,,,,,,,
,,,,,,,0.676041667,0.666666667,1,0,0,0,13,13,19,1,0.67,0.67,36,001,2024-11-18_17h26.51.573,Attention_exp_legacy,2023.1.0,Win32,59.88023952,calibration_square,,,,,,,,,,,,,,,,,,,,,,,,,,,,,,,,,,,,,,,,,,,,,,,,,,,,,,,,
,,,,,,,-0.665625,-0.666666667,1,0,0,0,14,14,0,1,-0.67,-0.67,36,001,2024-11-18_17h26.51.573,Attention_exp_legacy,2023.1.0,Win32,59.88023952,calibration_square,,,,,,,,,,,,,,,,,,,,,,,,,,,,,,,,,,,,,,,,,,,,,,,,,,,,,,,,
,,,,,,,0.326041667,-0.685185185,1,0,0,0,15,15,14,1,0.33,-0.67,36,001,2024-11-18_17h26.51.573,Attention_exp_legacy,2023.1.0,Win32,59.88023952,,,,,,,,,,,,,,,,,,,,,,,,,,,,,,,,,,,,,,,,,,,,,,,,,,,,,,,,,
,,,,,,,-0.005208333,-0.662962963,1,0,0,0,16,16,9,1,0,-0.67,36,001,2024-11-18_17h26.51.573,Attention_exp_legacy,2023.1.0,Win32,59.88023952,calibration_square,,,,,,,,,,,,,,,,,,,,,,,,,,,,,,,,,,,,,,,,,,,,,,,,,,,,,,,,
,,,,,,,0.327083333,-0.324074074,1,0,0,0,17,17,15,1,0.33,-0.33,36,001,2024-11-18_17h26.51.573,Attention_exp_legacy,2023.1.0,Win32,59.88023952,calibration_square,,,,,,,,,,,,,,,,,,,,,,,,,,,,,,,,,,,,,,,,,,,,,,,,,,,,,,,,
,,,,,,,0.00625,-0.001851852,1,0,0,0,18,18,11,1,0,0,36,001,2024-11-18_17h26.51.573,Attention_exp_legacy,2023.1.0,Win32,59.88023952,calibration_square,,,,,,,,,,,,,,,,,,,,,,,,,,,,,,,,,,,,,,,,,,,,,,,,,,,,,,,,
,,,,,,,0.003125,0.681481481,1,0,0,0,19,19,13,1,0,0.67,36,001,2024-11-18_17h26.51.573,Attention_exp_legacy,2023.1.0,Win32,59.88023952,,,,,,,,,,,,,,,,,,,,,,,,,,,,,,,,,,,,,,,,,,,,,,,,,,,,,,,,,
,,,,,,,-0.332291667,0.325925926,1,0,0,0,20,20,7,1,-0.33,0.33,36,001,2024-11-18_17h26.51.573,Attention_exp_legacy,2023.1.0,Win32,59.88023952,calibration_square,,,,,,,,,,,,,,,,,,,,,,,,,,,,,,,,,,,,,,,,,,,,,,,,,,,,,,,,
,,,,,,,,,,,,,,,,,,,36,001,2024-11-18_17h26.51.573,Attention_exp_legacy,2023.1.0,Win32,59.88023952,,"[1920,1080]","[640,480]",[-0.008333333333333333],[-0.5055555555555555],[1],[0],[0],[22.329299999713896],"[""StartButton""]","[0.09583333333333334,0.134375]","[-0.05185185185185185,0.45555555555555555]","[1,1]","[0,0]","[0,0]","[6.099799999713909,6.866099999904634]","[""Metro_label""]",Metro_label,1,7.8798,"[[0.21458333333333332,-0.022222222222222223],[0.21458333333333332,-0.022222222222222223],[0.21458333333333332,-0.022222222222222223],[0.21458333333333332,-0.022222222222222223],[0.21458333333333332,-0.022222222222222223],[0.21458333333333332,-0.022222222222222223],[0.21458333333333332,-0.022222222222222223],[0.21458333333333332,-0.022222222222222223],[0.21458333333333332,-0.022222222222222223],[0.21458333333333332,-0.022222222222222223],[0.21458333333333332,-0.022222222222222223],[0.21458333333333332,-0.022222222222222223],[0.21458333333333332,-0.022222222222222223],[0.21458333333333332,-0.022222222222222223],[0.21458333333333332,-0.022222222222222223],[0.21458333333333332,-0.022222222222222223],[0.21458333333333332,-0.022222222222222223],[0.21458333333333332,-0.022222222222222223],[0.21458333333333332,-0.022222222222222223],[0.21458333333333332,-0.022222222222222223],[0.21458333333333332,-0.022222222222222223],[0.21458333333333332,-0.022222222222222223],[0.21458333333333332,-0.022222222222222223],[0.21458333333333332,-0.022222222222222223],[0.21458333333333332,-0.022222222222222223],[0.21458333333333332,-0.022222222222222223],[0.21458333333333332,-0.022222222222222223],[0.21458333333333332,-0.022222222222222223],[0.21458333333333332,-0.022222222222222223],[0.2125,-0.022222222222222223],[0.2125,-0.022222222222222223],[0.2125,-0.024074074074074074],[0.21145833333333333,-0.024074074074074074],[0.21145833333333333,-0.024074074074074074],[0.21145833333333333,-0.024074074074074074],[0.21145833333333333,-0.024074074074074074],[0.21145833333333333,-0.024074074074074074],[0.21145833333333333,-0.024074074074074074],[0.21145833333333333,-0.024074074074074074],[0.21145833333333333,-0.024074074074074074],[0.21145833333333333,-0.024074074074074074],[0.21145833333333333,-0.024074074074074074],[0.21145833333333333,-0.024074074074074074],[0.21145833333333333,-0.024074074074074074],[0.21145833333333333,-0.024074074074074074],[0.21145833333333333,-0.024074074074074074],[0.21145833333333333,-0.024074074074074074],[0.21145833333333333,-0.024074074074074074],[0.21145833333333333,-0.024074074074074074],[0.21145833333333333,-0.024074074074074074],[0.21145833333333333,-0.024074074074074074],[0.21145833333333333,-0.024074074074074074],[0.21145833333333333,-0.024074074074074074],[0.21145833333333333,-0.024074074074074074],[0.21145833333333333,-0.024074074074074074],[0.21145833333333333,-0.024074074074074074],[0.21145833333333333,-0.024074074074074074],[0.21145833333333333,-0.024074074074074074],[0.21145833333333333,-0.024074074074074074],[0.21145833333333333,-0.024074074074074074],[0.21145833333333333,-0.024074074074074074],[0.21145833333333333,-0.024074074074074074],[0.21145833333333333,-0.024074074074074074],[0.21145833333333333,-0.024074074074074074],[0.21145833333333333,-0.024074074074074074],[0.21145833333333333,-0.024074074074074074],[0.21145833333333333,-0.024074074074074074],[0.21145833333333333,-0.024074074074074074],[0.21145833333333333,-0.024074074074074074],[0.21145833333333333,-0.024074074074074074],[0.21145833333333333,-0.024074074074074074],[0.21145833333333333,-0.024074074074074074],[0.21145833333333333,-0.024074074074074074],[0.21145833333333333,-0.024074074074074074],[0.21145833333333333,-0.024074074074074074],[0.21145833333333333,-0.024074074074074074],[0.21145833333333333,-0.024074074074074074],[0.21145833333333333,-0.024074074074074074],[0.21145833333333333,-0.024074074074074074],[0.21145833333333333,-0.024074074074074074],[0.21041666666666667,-0.025925925925925925],[0.20833333333333334,-0.027777777777777776],[0.20625,-0.02962962962962963],[0.20416666666666666,-0.03333333333333333],[0.19166666666666668,-0.040740740740740744],[0.18541666666666667,-0.046296296296296294],[0.171875,-0.05185185185185185],[0.15833333333333333,-0.06111111111111111],[0.153125,-0.06481481481481481],[0.14791666666666667,-0.06666666666666667],[0.14166666666666666,-0.07222222222222222],[0.13541666666666666,-0.08148148148148149],[0.12604166666666666,-0.1],[0.1125,-0.11666666666666667],[0.09895833333333333,-0.13333333333333333],[0.08854166666666667,-0.14629629629629629],[0.08020833333333334,-0.15925925925925927],[0.07291666666666667,-0.17037037037037037],[0.06354166666666666,-0.18703703703703703],[0.04375,-0.21481481481481482],[0.029166666666666667,-0.23333333333333334],[0.013541666666666667,-0.2518518518518518],[0.0020833333333333333,-0.26666666666666666],[-0.011458333333333333,-0.2814814814814815],[-0.023958333333333335,-0.29444444444444445],[-0.03333333333333333,-0.3037037037037037],[-0.041666666666666664,-0.3111111111111111],[-0.05,-0.32222222222222224],[-0.05520833333333333,-0.3277777777777778],[-0.0625,-0.3333333333333333],[-0.06770833333333333,-0.3388888888888889],[-0.07708333333333334,-0.34629629629629627],[-0.08020833333333334,-0.34814814814814815],[-0.08125,-0.35],[-0.08125,-0.35],[-0.08125,-0.35],[-0.08125,-0.35],[-0.08125,-0.35],[-0.08125,-0.35],[-0.08125,-0.35],[-0.08229166666666667,-0.35],[-0.08333333333333333,-0.34444444444444444],[-0.08333333333333333,-0.337037037037037],[-0.08958333333333333,-0.2962962962962963],[-0.09583333333333334,-0.2574074074074074],[-0.10625,-0.19814814814814816],[-0.11458333333333333,-0.11481481481481481],[-0.12604166666666666,-0.04814814814814815],[-0.13229166666666667,-0.009259259259259259],[-0.13333333333333333,0.012962962962962963],[-0.134375,0.02962962962962963],[-0.13645833333333332,0.04814814814814815],[-0.13854166666666667,0.06296296296296296],[-0.13854166666666667,0.07222222222222222],[-0.13854166666666667,0.08148148148148149],[-0.13854166666666667,0.09074074074074075],[-0.13854166666666667,0.09814814814814815],[-0.13854166666666667,0.1037037037037037],[-0.13854166666666667,0.1111111111111111],[-0.13854166666666667,0.11666666666666667],[-0.13854166666666667,0.12222222222222222],[-0.13854166666666667,0.1259259259259259],[-0.13854166666666667,0.1259259259259259],[-0.13854166666666667,0.1259259259259259],[-0.13854166666666667,0.1259259259259259],[-0.13854166666666667,0.1259259259259259],[-0.13854166666666667,0.1259259259259259],[-0.13854166666666667,0.1259259259259259],[-0.13854166666666667,0.1259259259259259],[-0.13854166666666667,0.1259259259259259],[-0.13854166666666667,0.1259259259259259],[-0.13854166666666667,0.1259259259259259],[-0.13854166666666667,0.1259259259259259],[-0.13854166666666667,0.1259259259259259],[-0.13854166666666667,0.1259259259259259],[-0.13854166666666667,0.1259259259259259],[-0.13854166666666667,0.1259259259259259],[-0.13854166666666667,0.1259259259259259],[-0.13854166666666667,0.1259259259259259],[-0.13125,0.12962962962962962],[-0.11770833333333333,0.13518518518518519],[-0.08645833333333333,0.13518518518518519],[-0.020833333333333332,0.13518518518518519],[0.06354166666666666,0.11666666666666667],[0.15104166666666666,0.0962962962962963],[0.22708333333333333,0.07592592592592592],[0.2875,0.06111111111111111],[0.31666666666666665,0.05185185185185185],[0.32708333333333334,0.05],[0.32708333333333334,0.05],[0.32708333333333334,0.05],[0.32708333333333334,0.05],[0.32708333333333334,0.05],[0.32708333333333334,0.05],[0.32708333333333334,0.05],[0.32708333333333334,0.05],[0.32708333333333334,0.05],[0.32708333333333334,0.05],[0.32708333333333334,0.05],[0.32708333333333334,0.05],[0.32708333333333334,0.05],[0.32708333333333334,0.05],[0.32708333333333334,0.05],[0.32708333333333334,0.05],[0.32708333333333334,0.05],[0.32708333333333334,0.05],[0.32708333333333334,0.05],[0.32708333333333334,0.05],[0.32708333333333334,0.05],[0.32708333333333334,0.05],[0.32708333333333334,0.05],[0.32708333333333334,0.05],[0.32708333333333334,0.05],[0.32708333333333334,0.05],[0.32708333333333334,0.05],[0.32708333333333334,0.05],[0.32708333333333334,0.05],[0.32708333333333334,0.05],[0.32708333333333334,0.05],[0.32708333333333334,0.05],[0.32708333333333334,0.05],[0.32708333333333334,0.05],[0.32708333333333334,0.05],[0.32708333333333334,0.05],[0.32708333333333334,0.05],[0.32708333333333334,0.05],[0.3260416666666667,0.046296296296296294],[0.325,0.044444444444444446],[0.325,0.04259259259259259],[0.32395833333333335,0.03888888888888889],[0.32395833333333335,0.03518518518518519],[0.3229166666666667,0.02962962962962963],[0.32083333333333336,0.020370370370370372],[0.31875,0.009259259259259259],[0.3177083333333333,-0.005555555555555556],[0.315625,-0.016666666666666666],[0.3145833333333333,-0.027777777777777776],[0.31354166666666666,-0.03888888888888889],[0.3125,-0.05185185185185185],[0.31145833333333334,-0.07222222222222222],[0.3104166666666667,-0.08518518518518518],[0.30833333333333335,-0.1],[0.3072916666666667,-0.11296296296296296],[0.30520833333333336,-0.12777777777777777],[0.30416666666666664,-0.14629629629629629],[0.30104166666666665,-0.17222222222222222],[0.3,-0.17777777777777778],[0.3,-0.19074074074074074],[0.29791666666666666,-0.20185185185185187],[0.296875,-0.21666666666666667],[0.296875,-0.2351851851851852],[0.29583333333333334,-0.25],[0.29270833333333335,-0.26296296296296295],[0.29270833333333335,-0.2759259259259259],[0.29270833333333335,-0.28703703703703703],[0.290625,-0.30185185185185187],[0.28958333333333336,-0.3148148148148148],[0.28854166666666664,-0.32407407407407407],[0.28854166666666664,-0.3333333333333333],[0.2864583333333333,-0.337037037037037],[0.2864583333333333,-0.3425925925925926],[0.28541666666666665,-0.35],[0.28541666666666665,-0.35185185185185186],[0.284375,-0.35555555555555557],[0.284375,-0.3574074074074074],[0.284375,-0.3574074074074074],[0.284375,-0.3592592592592593],[0.2833333333333333,-0.3592592592592593],[0.28229166666666666,-0.3611111111111111],[0.28229166666666666,-0.3611111111111111],[0.28229166666666666,-0.3611111111111111],[0.28229166666666666,-0.3611111111111111],[0.28229166666666666,-0.3611111111111111],[0.28229166666666666,-0.3611111111111111],[0.28229166666666666,-0.3611111111111111],[0.28125,-0.3611111111111111],[0.28125,-0.3611111111111111],[0.28020833333333334,-0.3611111111111111],[0.28020833333333334,-0.3611111111111111],[0.2791666666666667,-0.3611111111111111],[0.2791666666666667,-0.3611111111111111],[0.278125,-0.3611111111111111],[0.27708333333333335,-0.3611111111111111],[0.27708333333333335,-0.3611111111111111],[0.2760416666666667,-0.3611111111111111],[0.275,-0.3611111111111111],[0.27395833333333336,-0.3611111111111111],[0.27291666666666664,-0.3611111111111111],[0.27291666666666664,-0.3611111111111111],[0.2708333333333333,-0.3611111111111111],[0.2708333333333333,-0.3611111111111111],[0.26979166666666665,-0.3611111111111111],[0.2677083333333333,-0.3611111111111111],[0.26666666666666666,-0.3611111111111111],[0.26145833333333335,-0.3592592592592593],[0.2552083333333333,-0.3592592592592593],[0.23333333333333334,-0.3537037037037037],[0.19791666666666666,-0.34074074074074073],[0.13020833333333334,-0.3055555555555556],[0.03333333333333333,-0.25555555555555554],[-0.011458333333333333,-0.23703703703703705],[-0.04583333333333333,-0.21851851851851853],[-0.06666666666666667,-0.20555555555555555],[-0.07708333333333334,-0.2],[-0.08020833333333334,-0.2],[-0.08020833333333334,-0.2],[-0.08020833333333334,-0.2],[-0.08020833333333334,-0.2],[-0.08020833333333334,-0.2],[-0.08020833333333334,-0.2],[-0.08020833333333334,-0.2],[-0.08020833333333334,-0.2],[-0.08020833333333334,-0.2],[-0.08020833333333334,-0.2],[-0.08020833333333334,-0.2],[-0.08020833333333334,-0.2],[-0.08020833333333334,-0.2],[-0.08020833333333334,-0.2],[-0.08020833333333334,-0.2],[-0.08020833333333334,-0.2],[-0.08020833333333334,-0.2],[-0.08020833333333334,-0.2],[-0.08020833333333334,-0.2],[-0.08020833333333334,-0.2],[-0.08020833333333334,-0.2],[-0.08020833333333334,-0.2],[-0.08020833333333334,-0.2],[-0.08020833333333334,-0.2],[-0.08020833333333334,-0.2],[-0.08020833333333334,-0.2],[-0.08020833333333334,-0.2],[-0.08020833333333334,-0.2],[-0.08020833333333334,-0.2],[-0.08020833333333334,-0.2],[-0.08125,-0.19814814814814816],[-0.06770833333333333,-0.18888888888888888],[-0.04895833333333333,-0.17592592592592593],[-0.03229166666666667,-0.1685185185185185],[-0.010416666666666666,-0.15],[0.009375,-0.13333333333333333],[0.028125,-0.12037037037037036],[0.0375,-0.11296296296296296],[0.04479166666666667,-0.10185185185185185],[0.046875,-0.09814814814814815],[0.046875,-0.09814814814814815],[0.04791666666666667,-0.09444444444444444],[0.04895833333333333,-0.09444444444444444],[0.05,-0.09444444444444444],[0.052083333333333336,-0.09259259259259259],[0.05416666666666667,-0.09074074074074075],[0.05625,-0.08888888888888889],[0.058333333333333334,-0.08703703703703704],[0.059375,-0.08518518518518518],[0.06041666666666667,-0.08518518518518518],[0.06145833333333333,-0.08518518518518518],[0.0625,-0.08333333333333333],[0.0625,-0.08333333333333333],[0.065625,-0.08333333333333333],[0.065625,-0.08333333333333333],[0.06666666666666667,-0.08148148148148149],[0.06875,-0.07962962962962963],[0.06979166666666667,-0.07962962962962963],[0.07083333333333333,-0.07962962962962963],[0.07291666666666667,-0.07777777777777778],[0.07291666666666667,-0.07777777777777778],[0.075,-0.07777777777777778],[0.07708333333333334,-0.07777777777777778],[0.07916666666666666,-0.07777777777777778],[0.08020833333333334,-0.07592592592592592],[0.08541666666666667,-0.07222222222222222],[0.0875,-0.06851851851851852],[0.090625,-0.06296296296296296],[0.09375,-0.05740740740740741],[0.09583333333333334,-0.053703703703703705],[0.09583333333333334,-0.053703703703703705],[0.09583333333333334,-0.05185185185185185],[0.09583333333333334,-0.05185185185185185],[0.09583333333333334,-0.05185185185185185],[0.09583333333333334,-0.05185185185185185],[0.09583333333333334,-0.05185185185185185],[0.09583333333333334,-0.05185185185185185],[0.09583333333333334,-0.05185185185185185],[0.09583333333333334,-0.05185185185185185],[0.09583333333333334,-0.05185185185185185],[0.09583333333333334,-0.05185185185185185],[0.09583333333333334,-0.05185185185185185],[0.09583333333333334,-0.05185185185185185],[0.09583333333333334,-0.05185185185185185],[0.09583333333333334,-0.05185185185185185],[0.09583333333333334,-0.05185185185185185],[0.09583333333333334,-0.05185185185185185],[0.09583333333333334,-0.05185185185185185],[0.09583333333333334,-0.05185185185185185],[0.09583333333333334,-0.05185185185185185],[0.09583333333333334,-0.05185185185185185],[0.09583333333333334,-0.05185185185185185],[0.09583333333333334,-0.05185185185185185],[0.09583333333333334,-0.05185185185185185],[0.09583333333333334,-0.05185185185185185],[0.09583333333333334,-0.05185185185185185],[0.09583333333333334,-0.05185185185185185],[0.09583333333333334,-0.04814814814814815],[0.09583333333333334,-0.03888888888888889],[0.096875,-0.027777777777777776],[0.09791666666666667,-0.022222222222222223],[0.09791666666666667,-0.011111111111111112],[0.1,0.012962962962962963],[0.10104166666666667,0.025925925925925925],[0.10208333333333333,0.03888888888888889],[0.10625,0.05555555555555555],[0.10729166666666666,0.08148148148148149],[0.11041666666666666,0.11296296296296296],[0.11145833333333334,0.1388888888888889],[0.115625,0.17777777777777778],[0.115625,0.2037037037037037],[0.11770833333333333,0.23148148148148148],[0.11979166666666667,0.25555555555555554],[0.11979166666666667,0.26851851851851855],[0.12083333333333333,0.29259259259259257],[0.121875,0.32037037037037036],[0.12395833333333334,0.34074074074074073],[0.12604166666666666,0.3611111111111111],[0.12708333333333333,0.37777777777777777],[0.12916666666666668,0.3907407407407407],[0.12916666666666668,0.4],[0.13125,0.4166666666666667],[0.13125,0.4351851851851852],[0.13333333333333333,0.45185185185185184],[0.134375,0.45555555555555555],[0.134375,0.45555555555555555],[0.134375,0.45555555555555555],[0.134375,0.45555555555555555],[0.134375,0.45555555555555555],[0.134375,0.45555555555555555],[0.134375,0.45555555555555555],[0.134375,0.45555555555555555],[0.134375,0.45555555555555555],[0.134375,0.45555555555555555],[0.134375,0.45555555555555555],[0.134375,0.45555555555555555],[0.134375,0.45555555555555555],[0.134375,0.45555555555555555],[0.134375,0.45555555555555555],[0.134375,0.45555555555555555],[0.134375,0.45555555555555555],[0.134375,0.45555555555555555],[0.134375,0.45555555555555555],[0.134375,0.45555555555555555],[0.134375,0.45555555555555555],[0.134375,0.45555555555555555],[0.134375,0.45555555555555555],[0.134375,0.45555555555555555],[0.134375,0.45555555555555555],[0.134375,0.45555555555555555],[0.134375,0.45555555555555555],[0.134375,0.45555555555555555],[0.134375,0.45555555555555555],[0.134375,0.45555555555555555],[0.134375,0.45555555555555555],[0.134375,0.45555555555555555],[0.134375,0.45555555555555555],[0.134375,0.45555555555555555],[0.134375,0.45555555555555555],[0.134375,0.45555555555555555],[0.134375,0.45555555555555555],[0.134375,0.4537037037037037],[0.134375,0.45185185185185184],[0.134375,0.45185185185185184],[0.134375,0.45],[0.134375,0.45],[0.134375,0.45],[0.134375,0.44814814814814813],[0.134375,0.44814814814814813],[0.134375,0.4462962962962963],[0.134375,0.4462962962962963],[0.134375,0.4462962962962963],[0.134375,0.4462962962962963],[0.134375,0.4462962962962963],[0.134375,0.4444444444444444],[0.134375,0.4444444444444444],[0.134375,0.4444444444444444],[0.134375,0.4444444444444444],[0.134375,0.4444444444444444],[0.134375,0.4444444444444444],[0.134375,0.4444444444444444],[0.134375,0.4444444444444444],[0.134375,0.4444444444444444],[0.134375,0.4444444444444444],[0.134375,0.4425925925925926],[0.134375,0.44074074074074077],[0.134375,0.44074074074074077],[0.134375,0.43703703703703706]]","[[0.17291666666666666,-0.013333333333333417],[0.17291666666666666,-0.013333333333333417],[0.1584374999999999,0.009814814814814731],[0.1584374999999999,0.009814814814814731],[0.15437500000000004,-0.01055555555555564],[0.15052083333333333,-0.017407407407407365],[0.12885416666666671,0.005555555555555556],[0.10718750000000009,0.028518518518518478],[0.09229166666666658,-0.03629629629629634],[0.07197916666666657,-0.05407407407407405],[0.04500000000000005,-0.08629629629629634],[0.04885416666666664,-0.1492592592592593],[0.03250000000000005,-0.18981481481481483],[0.036354166666666646,-0.2227777777777778],[0.060104166666666715,-0.27462962962962967],[0.0765625,-0.3368518518518518],[0.06625000000000002,-0.36648148148148146],[0.05593750000000005,-0.3961111111111111],[0.06958333333333329,-0.3911111111111111],[0.08322916666666676,-0.3861111111111111],[0.08250000000000005,-0.3838888888888889],[0.06489583333333329,-0.325],[0.0703125,-0.2807407407407408],[0.03427083333333331,-0.23777777777777773],[-0.01906249999999995,-0.17703703703703708],[-0.01906249999999995,-0.17703703703703708],[-0.06145833333333333,-0.16277777777777774],[-0.06145833333333333,-0.16277777777777774],[-0.08322916666666665,-0.13092592592592592],[-0.08322916666666665,-0.13092592592592592],[-0.06937500000000002,-0.13499999999999995],[-0.06937500000000002,-0.13499999999999995],[-0.09156249999999998,-0.09814814814814815],[-0.09156249999999998,-0.09814814814814815],[-0.10833333333333334,-0.15555555555555556],[-0.10833333333333334,-0.15555555555555556],[-0.10708333333333328,-0.1574074074074074],[-0.08072916666666667,-0.2433333333333333],[-0.06083333333333331,-0.31870370370370377],[-0.06083333333333331,-0.31870370370370377],[-0.023958333333333335,-0.392037037037037],[-0.023958333333333335,-0.392037037037037],[-0.002812500000000047,-0.4890740740740741],[0.024270833333333287,-0.5138888888888888],[0.035520833333333356,-0.5092592592592593],[0.035520833333333356,-0.5092592592592593],[0.021354166666666667,-0.5374074074074073],[0.021354166666666667,-0.5374074074074073],[0.022291666666666644,-0.5601851851851852],[0.022291666666666644,-0.5601851851851852],[0.022395833333333334,-0.4938888888888889],[0.05239583333333329,-0.4892592592592592],[0.010104166666666714,-0.3816666666666667],[-0.041458333333333285,-0.2962962962962963],[-0.06968749999999997,-0.26370370370370366],[-0.08218749999999998,-0.2074074074074074],[-0.10302083333333331,-0.14388888888888887],[-0.10187499999999995,-0.15999999999999995],[-0.11541666666666663,-0.10499999999999998],[-0.08479166666666664,-0.11148148148148146],[-0.08479166666666664,-0.11148148148148146],[-0.09427083333333333,-0.12462962962962965],[-0.13083333333333336,-0.0824074074074074],[-0.11322916666666671,-0.1270370370370371],[-0.11322916666666671,-0.1270370370370371],[-0.07291666666666667,-0.15],[-0.050729166666666714,-0.12166666666666665],[-0.028541666666666642,-0.0933333333333333],[-0.02010416666666662,-0.07037037037037037],[-0.011666666666666714,-0.04740740740740745],[-0.02958333333333331,0.011481481481481566],[-0.07374999999999995,0.09092592592592597],[-0.08218749999999998,0.1646296296296296],[-0.09020833333333336,0.2],[-0.1092708333333333,0.27759259259259256],[-0.13947916666666665,0.3042592592592592],[-0.1748958333333333,0.33240740740740743],[-0.2079166666666667,0.35796296296296287],[-0.24187500000000003,0.3651851851851853],[-0.27583333333333326,0.37240740740740746],[-0.2751041666666667,0.32685185185185184],[-0.23510416666666673,0.30240740740740735],[-0.20447916666666663,0.26592592592592595],[-0.17302083333333335,0.2103703703703704],[-0.13927083333333337,0.14648148148148152],[-0.10135416666666662,0.1235185185185186],[-0.08041666666666672,0.1551851851851851],[-0.03812500000000003,0.14055555555555552],[0.02781250000000005,0.12222222222222222],[0.09375,0.10388888888888893],[0.12604166666666666,0.10722222222222218],[0.10958333333333338,0.07333333333333338],[0.10760416666666663,0.07185185185185176],[0.1056250000000001,0.07037037037037037],[0.1056250000000001,0.07037037037037037],[0.10239583333333328,0.10777777777777786],[0.11156249999999991,0.12370370370370362],[0.12177083333333343,0.10833333333333334],[0.1118750000000001,0.12018518518518514],[0.10354166666666677,0.1270370370370371],[0.09520833333333342,0.1338888888888888],[0.0943749999999999,0.15481481481481485],[0.09354166666666662,0.1757407407407407],[0.08739583333333342,0.19388888888888897],[0.06927083333333334,0.175],[0.03843749999999998,0.2035185185185185],[0.03843749999999998,0.2035185185185185],[-0.012187500000000047,0.2388888888888889],[-0.003125,0.24259259259259258],[0.002291666666666714,0.26796296296296307],[-0.03333333333333333,0.30759259259259264],[-0.06895833333333339,0.3472222222222222],[-0.07281249999999997,0.34592592592592586],[-0.07666666666666669,0.3446296296296297],[-0.09729166666666664,0.3744444444444445],[-0.11302083333333333,0.42685185185185187],[-0.11427083333333338,0.3890740740740741],[-0.10812499999999996,0.365925925925926],[-0.1140625,0.3175925925925926],[-0.13635416666666664,0.30944444444444447],[-0.1326041666666666,0.30092592592592593],[-0.1326041666666666,0.30092592592592593],[-0.14010416666666667,0.27870370370370373],[-0.14395833333333338,0.277962962962963],[-0.14781249999999999,0.2772222222222223],[-0.1616666666666667,0.2514814814814814],[-0.16843750000000005,0.24018518518518528],[-0.1564583333333334,0.26722222222222214],[-0.12999999999999995,0.30055555555555546],[-0.1498958333333333,0.3074074074074074],[-0.17177083333333332,0.29296296296296304],[-0.19364583333333332,0.2785185185185185],[-0.1859375,0.25759259259259265],[-0.17864583333333334,0.2633333333333334],[-0.18333333333333332,0.23666666666666658],[-0.16124999999999995,0.20388888888888893],[-0.1390625,0.18277777777777787],[-0.1123958333333333,0.14388888888888898],[-0.11822916666666666,0.1037037037037037],[-0.109375,0.1235185185185186],[-0.07416666666666671,0.07925925925925917],[-0.04708333333333338,0.08703703703703704],[-0.021354166666666667,0.053703703703703705],[-0.027187500000000024,0.04277777777777782],[0.006979166666666714,0.04259259259259259],[0.04083333333333338,0.04018518518518527],[0.07458333333333324,0.026111111111111154],[0.07791666666666662,0.00722222222222218],[0.09927083333333328,-0.016666666666666666],[0.14343750000000005,-0.03851851851851843],[0.14343750000000005,-0.03851851851851843],[0.17958333333333343,-0.01518518518518527],[0.21614583333333334,-0.027962962962963005],[0.23572916666666663,0.020555555555555598],[0.24958333333333324,-0.008148148148148106],[0.23541666666666666,-0.01518518518518527],[0.24375,0.030555555555555555],[0.24375,0.030555555555555555],[0.2520833333333333,0.07629629629629638],[0.2520833333333333,0.07629629629629638],[0.27145833333333325,0.05981481481481473],[0.27145833333333325,0.05981481481481473],[0.27447916666666666,0.03629629629629634],[0.27447916666666666,0.03629629629629634],[0.2171875,-0.024629629629629547],[0.2171875,-0.024629629629629547],[0.15989583333333332,-0.08555555555555554],[0.15989583333333332,-0.08555555555555554],[0.14229166666666657,-0.1411111111111111],[0.16958333333333328,-0.1727777777777778],[0.22145833333333323,-0.17814814814814814],[0.23770833333333338,-0.16648148148148145],[0.2352083333333333,-0.20055555555555557],[0.2015625,-0.3068518518518518],[0.16124999999999995,-0.3544444444444444],[0.15010416666666657,-0.3446296296296297],[0.18802083333333333,-0.3229629629629629],[0.2259375000000001,-0.3012962962962963],[0.27020833333333344,-0.27870370370370373],[0.27020833333333344,-0.27870370370370373],[0.27218749999999997,-0.2935185185185185],[0.26375000000000004,-0.3235185185185185],[0.29656250000000006,-0.3844444444444445],[0.29656250000000006,-0.3844444444444445],[0.3259375000000001,-0.45018518518518524],[0.38229166666666664,-0.4527777777777778],[0.4270833333333333,-0.4427777777777778],[0.46458333333333335,-0.4714814814814815],[0.47156250000000005,-0.4888888888888889],[0.4779166666666666,-0.5038888888888889],[0.47541666666666677,-0.504074074074074],[0.4657291666666666,-0.5077777777777778],[0.4664583333333333,-0.4962962962962963],[0.4209374999999999,-0.46425925925925926],[0.3754166666666668,-0.4322222222222222],[0.36572916666666655,-0.41888888888888887],[0.3607291666666666,-0.42962962962962964],[0.3321875000000001,-0.42111111111111105],[0.3240624999999999,-0.392037037037037],[0.3151041666666667,-0.3737037037037037],[0.2635416666666667,-0.3653703703703704],[0.21739583333333337,-0.3611111111111111],[0.17291666666666666,-0.337037037037037],[0.16906249999999995,-0.31962962962962965],[0.1564583333333334,-0.28833333333333333],[0.13156249999999994,-0.26240740740740737],[0.10270833333333323,-0.19759259259259257],[0.10270833333333323,-0.19759259259259257],[0.10635416666666657,-0.16740740740740737],[0.10854166666666672,-0.1455555555555556],[0.09270833333333334,-0.0962962962962963],[0.1203125,-0.08981481481481482],[0.12822916666666656,-0.06444444444444447],[0.13447916666666657,-0.05888888888888891],[0.1554166666666667,-0.03166666666666671],[0.18468749999999995,-0.04981481481481477],[0.17468750000000005,-0.005185185185185101],[0.17468750000000005,-0.005185185185185101],[0.16677083333333323,-0.042407407407407366],[0.1388541666666666,0.0001851851851852273],[0.1388541666666666,0.0001851851851852273],[0.1337500000000001,0.052037037037037076],[0.13572916666666662,0.07018518518518514],[0.08989583333333329,0.09962962962962954],[0.0978125000000001,0.09648148148148153],[0.10572916666666667,0.0933333333333333],[0.10572916666666667,0.0933333333333333],[0.10916666666666662,0.07555555555555547],[0.09239583333333339,0.10314814814814824],[0.10010416666666658,0.12537037037037047],[0.11645833333333329,0.17888888888888893],[0.11645833333333329,0.17888888888888893],[0.1631249999999999,0.16703703703703712],[0.17552083333333332,0.152962962962963],[0.17781250000000004,0.14629629629629629],[0.17781250000000004,0.14629629629629629],[0.20562500000000009,0.1411111111111112],[0.21239583333333342,0.16370370370370366],[0.1694791666666667,0.21648148148148144],[0.1694791666666667,0.21648148148148144],[0.13479166666666675,0.23425925925925925],[0.1540625000000001,0.21666666666666667],[0.1540625000000001,0.21666666666666667],[0.16708333333333342,0.2153703703703703],[0.13333333333333333,0.27759259259259256],[0.09552083333333337,0.2614814814814816],[0.06916666666666677,0.23833333333333342],[0.0912499999999999,0.25037037037037047],[0.0912499999999999,0.25037037037037047],[0.08250000000000005,0.23499999999999996],[0.08604166666666657,0.24370370370370376],[0.11500000000000009,0.22925925925925916],[0.09958333333333323,0.2524074074074073],[0.05166666666666669,0.2994444444444445],[0.024270833333333287,0.28666666666666657],[0.04375,0.23351851851851857],[0.03458333333333338,0.25259259259259254],[0.025416666666666643,0.2716666666666668],[-0.01270833333333338,0.3088888888888888],[-0.013854166666666619,0.3381481481481482],[-0.058229166666666644,0.3020370370370371],[-0.07833333333333338,0.2588888888888888],[-0.050520833333333334,0.2485185185185186],[-0.02354166666666669,0.23574074074074067],[-0.020833333333333332,0.23833333333333342],[-0.05416666666666667,0.272037037037037],[-0.07958333333333331,0.30111111111111116],[-0.08489583333333334,0.35351851851851845],[-0.03458333333333338,0.31074074074074065],[-0.03458333333333338,0.31074074074074065],[0.009062500000000048,0.2814814814814815],[0.05343749999999995,0.3212962962962963],[0.09458333333333328,0.3790740740740742],[0.1040625000000001,0.4196296296296297],[0.09135416666666671,0.4418518518518519],[0.08406250000000005,0.467962962962963],[0.125,0.4535185185185185],[0.125,0.4535185185185185],[0.16593749999999996,0.4390740740740741],[0.16593749999999996,0.4390740740740741],[0.2205208333333334,0.35981481481481475],[0.2205208333333334,0.35981481481481475],[0.1430208333333333,0.38425925925925924],[0.1430208333333333,0.38425925925925924],[0.11812500000000009,0.4046296296296296],[0.11812500000000009,0.4046296296296296],[0.07739583333333329,0.37833333333333324],[0.06822916666666666,0.3461111111111111],[0.06822916666666666,0.3461111111111111],[0.08229166666666667,0.2566666666666667],[0.08229166666666667,0.2566666666666667],[0.06135416666666664,0.21648148148148144],[0.03177083333333333,0.16203703703703703],[0.010104166666666714,0.13537037037037042],[-0.011562500000000024,0.10870370370370379],[-0.06697916666666662,0.1235185185185186],[-0.022604166666666713,0.09000000000000004],[-0.03833333333333329,0.08537037037037042],[-0.02666666666666669,0.15111111111111114],[-0.043333333333333356,0.20481481481481487],[-0.07177083333333331,0.2766666666666666],[-0.06468750000000002,0.36148148148148157],[-0.034062500000000044,0.4514814814814814],[-0.023958333333333335,0.5227777777777777],[-0.005208333333333333,0.5683333333333332],[0.018124999999999978,0.5951851851851852],[0.012083333333333357,0.6512962962962964],[-0.014791666666666713,0.7055555555555556],[-0.050833333333333286,0.6766666666666666],[-0.050833333333333286,0.6766666666666666],[-0.09458333333333328,0.6594444444444445],[-0.12041666666666669,0.6903703703703703],[-0.12458333333333335,0.6774074074074073],[-0.14958333333333335,0.665],[-0.17416666666666672,0.652962962962963],[-0.17625000000000005,0.6351851851851852],[-0.18322916666666664,0.635],[-0.18552083333333336,0.5996296296296295],[-0.16927083333333334,0.5411111111111112],[-0.1390625,0.5212962962962963],[-0.11812499999999998,0.43740740740740747],[-0.10562499999999998,0.35055555555555545],[-0.06656249999999998,0.2683333333333333],[0.007187499999999976,0.1814814814814815],[0.06427083333333337,0.10981481481481473],[0.08552083333333324,0.06462962962962959],[0.10343749999999995,0.04092592592592597],[0.10343749999999995,0.04092592592592597],[0.13291666666666657,0.01185185185185181],[0.17041666666666658,0.009629629629629714],[0.17614583333333325,0.018518518518518517],[0.19885416666666675,0.07981481481481485],[0.2319791666666667,0.0933333333333333],[0.23854166666666668,0.10222222222222231],[0.1993750000000001,0.07888888888888893],[0.17687499999999995,0.040370370370370286],[0.17395833333333333,0.04796296296296292],[0.16854166666666662,0.03148148148148148],[0.15593750000000003,0.019999999999999917],[0.15593750000000003,0.019999999999999917],[0.16927083333333334,0.015370370370370286],[0.18041666666666673,-0.021481481481481525],[0.1915625000000001,-0.058333333333333334],[0.17447916666666666,-0.059814814814814835],[0.15656249999999997,-0.07037037037037037],[0.15322916666666658,-0.030000000000000086],[0.1727083333333333,0.023333333333333376],[0.1772916666666667,0.03555555555555564],[0.16375000000000003,0.013888888888888888],[0.1502083333333334,-0.007777777777777862],[0.12052083333333338,-0.06703703703703702],[0.11510416666666666,-0.07037037037037037],[0.10062499999999991,-0.08814814814814818],[0.10062499999999991,-0.08814814814814818],[0.115625,-0.10277777777777777],[0.1310416666666666,-0.11074074074074076],[0.1490624999999999,-0.13222222222222219],[0.15979166666666675,-0.15092592592592594],[0.10822916666666677,-0.17962962962962964],[0.14645833333333325,-0.18574074074074076],[0.17802083333333343,-0.1814814814814815],[0.1631249999999999,-0.14074074074074075],[0.15791666666666657,-0.13481481481481483],[0.16291666666666677,-0.1264814814814815],[0.13562500000000005,-0.15351851851851847],[0.11812500000000009,-0.15037037037037035],[0.10041666666666677,-0.13925925925925925],[0.0671875,-0.14388888888888887],[0.09177083333333323,-0.127962962962963],[0.050833333333333286,-0.09703703703703699],[0.017083333333333308,-0.07611111111111116],[0.01427083333333338,-0.06277777777777774],[0.007708333333333309,-0.0801851851851852],[0.007708333333333309,-0.0801851851851852],[0.027708333333333356,-0.09574074074074072],[0.0203125,-0.059999999999999956],[0.034791666666666644,-0.06351851851851854],[0.049270833333333285,-0.06703703703703702],[0.05770833333333331,-0.05796296296296299],[0.07062499999999995,-0.05944444444444449],[0.08125,-0.09222222222222225],[0.09135416666666671,-0.12537037037037035],[0.11166666666666672,-0.11666666666666667],[0.12791666666666662,-0.06351851851851854],[0.10979166666666676,0.0003703703703704546],[0.13833333333333328,0.0035185185185184764],[0.12947916666666662,0.014259259259259343],[0.12687499999999996,0.013518518518518435],[0.1304166666666667,0.022037037037036994],[0.1304166666666667,0.022037037037036994],[0.12614583333333323,0.012407407407407492],[0.12000000000000005,0.045740740740740825],[0.12510416666666657,0.03759259259259251],[0.11916666666666677,0.07018518518518514],[0.12385416666666677,0.015555555555555513],[0.11333333333333329,-0.03314814814814811],[0.12197916666666657,-0.04462962962962967],[0.12197916666666657,-0.04462962962962967],[0.11333333333333329,-0.06481481481481481],[0.11333333333333329,-0.06481481481481481],[0.1267708333333334,-0.08462962962962961],[0.1267708333333334,-0.08462962962962961],[0.11072916666666661,-0.09277777777777782],[0.11072916666666661,-0.09277777777777782],[0.11937499999999991,-0.09981481481481477],[0.11937499999999991,-0.09981481481481477],[0.11156249999999991,-0.12407407407407407],[0.11156249999999991,-0.12407407407407407],[0.08989583333333329,-0.08555555555555554],[0.08989583333333329,-0.08555555555555554],[0.06270833333333338,-0.15462962962962962],[0.06270833333333338,-0.15462962962962962],[0.04770833333333328,-0.15981481481481483],[0.04770833333333328,-0.15981481481481483],[0.06489583333333329,-0.18740740740740738],[0.06489583333333329,-0.18740740740740738],[0.05302083333333331,-0.2294444444444444],[0.05302083333333331,-0.2294444444444444],[0.06416666666666669,-0.22185185185185188],[0.06416666666666669,-0.22185185185185188],[0.04874999999999995,-0.22537037037037036],[0.04874999999999995,-0.22537037037037036],[0.0853125000000001,-0.2740740740740741],[0.07354166666666657,-0.30537037037037035],[0.075,-0.3031481481481481],[0.07906250000000009,-0.32222222222222224],[0.14406249999999995,-0.3566666666666667],[0.2007291666666667,-0.382962962962963],[0.20510416666666675,-0.3381481481481482],[0.19416666666666677,-0.2838888888888889],[0.20750000000000005,-0.31370370370370365],[0.20750000000000005,-0.31370370370370365],[0.21364583333333323,-0.3014814814814815],[0.1883333333333333,-0.2764814814814815],[0.1883333333333333,-0.2764814814814815],[0.1944791666666667,-0.2518518518518518],[0.20666666666666675,-0.27814814814814814],[0.19968750000000005,-0.3031481481481481],[0.13812499999999991,-0.28777777777777774],[0.06989583333333324,-0.27092592592592596],[0.08229166666666667,-0.290925925925926],[0.1099999999999999,-0.32037037037037036],[0.10510416666666676,-0.3405555555555555],[0.12697916666666675,-0.36944444444444446],[0.14010416666666667,-0.4111111111111111],[0.15322916666666658,-0.4527777777777778],[0.1568749999999999,-0.442037037037037],[0.1568749999999999,-0.442037037037037],[0.1796875,-0.43259259259259264],[0.1796875,-0.43259259259259264],[0.20989583333333334,-0.4477777777777778],[0.20989583333333334,-0.4477777777777778],[0.24208333333333343,-0.3933333333333333],[0.22791666666666663,-0.34870370370370374],[0.21375000000000005,-0.30407407407407405],[0.20947916666666658,-0.23574074074074075],[0.1837500000000001,-0.18185185185185182],[0.17458333333333323,-0.08055555555555556],[0.17458333333333323,-0.08055555555555556],[0.15010416666666657,-0.03796296296296296],[0.1423958333333334,-0.036481481481481566],[0.15374999999999991,-0.022777777777777692],[0.14343750000000005,0.03351851851851856],[0.13468749999999996,0.01314814814814819],[0.12625000000000006,-0.017407407407407365],[0.1178124999999999,-0.04796296296296292],[0.10906250000000005,-0.06222222222222226],[0.10041666666666677,-0.07314814814814814],[0.09114583333333333,-0.12037037037037036],[0.10447916666666662,-0.14518518518518514],[0.10927083333333343,-0.15759259259259265],[0.09500000000000004,-0.18222222222222217]]","[[0.17291666666666666,-0.013333333333333417,0.00020000028609956644],[0.17291666666666666,-0.013333333333333417,0.0494000000953605],[0.1584374999999999,0.009814814814814731,0.05999999999998806],[0.1584374999999999,0.009814814814814731,0.0796000003814612],[0.15437500000000004,-0.01055555555555564,0.09310000038146882],[0.15052083333333333,-0.017407407407407365,0.11180000019072622],[0.12885416666666671,0.005555555555555556,0.12640000009535868],[0.10718750000000009,0.028518518518518478,0.14310000038146597],[0.09229166666666658,-0.03629629629629634,0.16010000038146188],[0.07197916666666657,-0.05407407407407405,0.17820000028609684],[0.04500000000000005,-0.08629629629629634,0.1932000002860974],[0.04885416666666664,-0.1492592592592593,0.2116000003814662],[0.03250000000000005,-0.18981481481481483,0.22680000019073532],[0.036354166666666646,-0.2227777777777778,0.2431000003814603],[0.060104166666666715,-0.27462962962962967,0.26030000019072475],[0.0765625,-0.3368518518518518,0.2783000001907254],[0.06625000000000002,-0.36648148148148146,0.2956000003814694],[0.05593750000000005,-0.3961111111111111,0.3131000003814677],[0.06958333333333329,-0.3911111111111111,0.32890000009535925],[0.08322916666666676,-0.3861111111111111,0.3432000002861031],[0.08250000000000005,-0.3838888888888889,0.3638000001907358],[0.06489583333333329,-0.325,0.38130000019073407],[0.0703125,-0.2807407407407408,0.3968000001907228],[0.03427083333333331,-0.23777777777777773,0.41490000009535777],[-0.01906249999999995,-0.17703703703703708,0.4301000003814579],[-0.01906249999999995,-0.17703703703703708,0.44299999999999784],[-0.06145833333333333,-0.16277777777777774,0.4597000002860909],[-0.06145833333333333,-0.16277777777777774,0.4764000000953672],[-0.08322916666666665,-0.13092592592592592,0.492999999999995],[-0.08322916666666665,-0.13092592592592592,0.513700000286093],[-0.06937500000000002,-0.13499999999999995,0.5264000000953644],[-0.06937500000000002,-0.13499999999999995,0.5432000002860917],[-0.09156249999999998,-0.09814814814814815,0.559900000095368],[-0.09156249999999998,-0.09814814814814815,0.5764999999999958],[-0.10833333333333334,-0.15555555555555556,0.5931000003814688],[-0.10833333333333334,-0.15555555555555556,0.6097000002860966],[-0.10708333333333328,-0.1574074074074074,0.6264000000953587],[-0.08072916666666667,-0.2433333333333333,0.6479000000953619],[-0.06083333333333331,-0.31870370370370377,0.6646000003814692],[-0.06083333333333331,-0.31870370370370377,0.6764000000953558],[-0.023958333333333335,-0.392037037037037,0.6929999999999978],[-0.023958333333333335,-0.392037037037037,0.7096000003814709],[-0.002812500000000047,-0.4890740740740741,0.7266000003814668],[0.024270833333333287,-0.5138888888888888,0.7486000003814581],[0.035520833333333356,-0.5092592592592593,0.7657000002861025],[0.035520833333333356,-0.5092592592592593,0.7763000001907301],[0.021354166666666667,-0.5374074074074073,0.7931000003814717],[0.021354166666666667,-0.5374074074074073,0.8097000002860995],[0.022291666666666644,-0.5601851851851852,0.8264000000953615],[0.022291666666666644,-0.5601851851851852,0.8429999999999893],[0.022395833333333334,-0.4938888888888889,0.8596000003814623],[0.05239583333333329,-0.4892592592592592,0.8768000001907268],[0.010104166666666714,-0.3816666666666667,0.8963000001907346],[-0.041458333333333285,-0.2962962962962963,0.9110000000000014],[-0.06968749999999997,-0.26370370370370366,0.9264000000953558],[-0.08218749999999998,-0.2074074074074074,0.9431000003814631],[-0.10302083333333331,-0.14388888888888887,0.9596000003814709],[-0.10187499999999995,-0.15999999999999995,0.9771000003814692],[-0.11541666666666663,-0.10499999999999998,0.9947000002861017],[-0.08479166666666664,-0.11148148148148146,1.0097000002861023],[-0.08479166666666664,-0.11148148148148146,1.0323000001907303],[-0.09427083333333333,-0.12462962962962965,1.045900000095358],[-0.13083333333333336,-0.0824074074074074,1.0597000002860995],[-0.11322916666666671,-0.1270370370370371,1.0764000000953615],[-0.11322916666666671,-0.1270370370370371,1.0931000003814688],[-0.07291666666666667,-0.15,1.1097000002860966],[-0.050729166666666714,-0.12166666666666665,1.1264000000953587],[-0.028541666666666642,-0.0933333333333333,1.1430000000000007],[-0.02010416666666662,-0.07037037037037037,1.1597000002860938],[-0.011666666666666714,-0.04740740740740745,1.1764000000953558],[-0.02958333333333331,0.011481481481481566,1.1929999999999978],[-0.07374999999999995,0.09092592592592597,1.2096000003814709],[-0.08218749999999998,0.1646296296296296,1.2264000000953672],[-0.09020833333333336,0.2,1.2443000001907336],[-0.1092708333333333,0.27759259259259256,1.2597000002861023],[-0.13947916666666665,0.3042592592592592,1.277800000190723],[-0.1748958333333333,0.33240740740740743,1.2934999999999945],[-0.2079166666666667,0.35796296296296287,1.3097000002860995],[-0.24187500000000003,0.3651851851851853,1.3263000001907272],[-0.27583333333333326,0.37240740740740746,1.3429999999999893],[-0.2751041666666667,0.32685185185185184,1.3618000001907262],[-0.23510416666666673,0.30240740740740735,1.377200000286095],[-0.20447916666666663,0.26592592592592595,1.393100000381466],[-0.17302083333333335,0.2103703703703704,1.4124999999999943],[-0.13927083333333337,0.14648148148148152,1.4281000003814626],[-0.10135416666666662,0.1235185185185186,1.4433000001907317],[-0.08041666666666672,0.1551851851851851,1.4616000003814662],[-0.03812500000000003,0.14055555555555552,1.4771000003814692],[0.02781250000000005,0.12222222222222222,1.4962000002860947],[0.09375,0.10388888888888893,1.5133000001907249],[0.12604166666666666,0.10722222222222218,1.5276000003814687],[0.10958333333333338,0.07333333333333338,1.5432000002860917],[0.10760416666666663,0.07185185185185176,1.559999999999988],[0.1056250000000001,0.07037037037037037,1.5846000003814709],[0.1056250000000001,0.07037037037037037,1.5933000001907232],[0.10239583333333328,0.10777777777777786,1.6098000001907309],[0.11156249999999991,0.12370370370370362,1.627200000286095],[0.12177083333333343,0.10833333333333334,1.645700000286098],[0.1118750000000001,0.12018518518518514,1.6599000000953623],[0.10354166666666677,0.1270370370370371,1.6771000003814578],[0.09520833333333342,0.1338888888888888,1.6951000003814585],[0.0943749999999999,0.15481481481481485,1.7109000000953642],[0.09354166666666662,0.1757407407407407,1.7264000000953672],[0.08739583333333342,0.19388888888888897,1.7458000001907266],[0.06927083333333334,0.175,1.7613000001907295],[0.03843749999999998,0.2035185185185185,1.7772000002861006],[0.03843749999999998,0.2035185185185185,1.7932000002860917],[-0.012187500000000047,0.2388888888888889,1.813200000286102],[-0.003125,0.24259259259259258,1.8279000000953687],[0.002291666666666714,0.26796296296296307,1.843200000286103],[-0.03333333333333333,0.30759259259259264,1.8598000001907309],[-0.06895833333333339,0.3472222222222222,1.8794000000953588],[-0.07281249999999997,0.34592592592592586,1.8958000001907322],[-0.07666666666666669,0.3446296296296297,1.9107000002860985],[-0.09729166666666664,0.3744444444444445,1.9263000001907358],[-0.11302083333333333,0.42685185185185187,1.9439000000953683],[-0.11427083333333338,0.3890740740740741,1.959700000286091],[-0.10812499999999996,0.365925925925926,1.978600000381462],[-0.1140625,0.3175925925925926,1.9933000001907288],[-0.13635416666666664,0.30944444444444447,2.0097000002861023],[-0.1326041666666666,0.30092592592592593,2.0294999999999987],[-0.1326041666666666,0.30092592592592593,2.0471000003814623],[-0.14010416666666667,0.27870370370370373,2.0598000001907337],[-0.14395833333333338,0.277962962962963,2.076600000381461],[-0.14781249999999999,0.2772222222222223,2.0959000000953694],[-0.1616666666666667,0.2514814814814814,2.112800000190731],[-0.16843750000000005,0.24018518518518528,2.1281000003814654],[-0.1564583333333334,0.26722222222222214,2.1433000001907345],[-0.12999999999999995,0.30055555555555546,2.16240000009536],[-0.1498958333333333,0.3074074074074074,2.177100000381458],[-0.17177083333333332,0.29296296296296304,2.1936000003814655],[-0.19364583333333332,0.2785185185185185,2.2099999999999937],[-0.1859375,0.25759259259259265,2.2288000001907307],[-0.17864583333333334,0.2633333333333334,2.2432000002860946],[-0.18333333333333332,0.23666666666666658,2.2598000001907366],[-0.16124999999999995,0.20388888888888893,2.2804000000953693],[-0.1390625,0.18277777777777787,2.2956000003814694],[-0.1123958333333333,0.14388888888888898,2.310300000190736],[-0.11822916666666666,0.1037037037037037,2.326499999999996],[-0.109375,0.1235185185185186,2.3464000000953575],[-0.07416666666666671,0.07925925925925917,2.360600000381467],[-0.04708333333333338,0.08703703703703704,2.376499999999993],[-0.021354166666666667,0.053703703703703705,2.3930000000000007],[-0.027187500000000024,0.04277777777777782,2.411300000190735],[0.006979166666666714,0.04259259259259259,2.426400000095356],[0.04083333333333338,0.04018518518518527,2.4448000001907246],[0.07458333333333324,0.026111111111111154,2.4599000000953595],[0.07791666666666662,0.00722222222222218,2.4777000002860916],[0.09927083333333328,-0.016666666666666666,2.492999999999995],[0.14343750000000005,-0.03851851851851843,2.5098000001907366],[0.14343750000000005,-0.03851851851851843,2.52630000019073],[0.17958333333333343,-0.01518518518518527,2.542999999999992],[0.21614583333333334,-0.027962962962963005,2.5597000002860995],[0.23572916666666663,0.020555555555555598,2.579900000095364],[0.24958333333333324,-0.008148148148148106,2.5942000002860937],[0.23541666666666666,-0.01518518518518527,2.6097000002860966],[0.24375,0.030555555555555555,2.6266000003814582],[0.24375,0.030555555555555555,2.643100000381466],[0.2520833333333333,0.07629629629629638,2.6599000000953623],[0.2520833333333333,0.07629629629629638,2.6866000003814605],[0.27145833333333325,0.05981481481481473,2.6933000001907317],[0.27145833333333325,0.05981481481481473,2.7099000000953595],[0.27447916666666666,0.03629629629629634,2.730499999999992],[0.27447916666666666,0.03629629629629634,2.743400000095363],[0.2171875,-0.024629629629629547,2.7599000000953566],[0.2171875,-0.024629629629629547,2.7764999999999986],[0.15989583333333332,-0.08555555555555554,2.798100000381467],[0.15989583333333332,-0.08555555555555554,2.8098000001907337],[0.14229166666666657,-0.1411111111111111,2.826499999999996],[0.16958333333333328,-0.1727777777777778,2.8459999999999894],[0.22145833333333323,-0.17814814814814814,2.8622000002860943],[0.23770833333333338,-0.16648148148148145,2.882800000190727],[0.2352083333333333,-0.20055555555555557,2.8966000003814685],[0.2015625,-0.3068518518518518,2.912700000286094],[0.16124999999999995,-0.3544444444444444,2.9299999999999926],[0.15010416666666657,-0.3446296296296297,2.945700000286095],[0.18802083333333333,-0.3229629629629629,2.959800000190725],[0.2259375000000001,-0.3012962962962963,2.9792000002860988],[0.27020833333333344,-0.27870370370370373,2.9976000003814676],[0.27020833333333344,-0.27870370370370373,3.0123000001907343],[0.27218749999999997,-0.2935185185185185,3.0264000000953644],[0.26375000000000004,-0.3235185185185185,3.044800000190733],[0.29656250000000006,-0.3844444444444445,3.060400000095356],[0.29656250000000006,-0.3844444444444445,3.0763000001907272],[0.3259375000000001,-0.45018518518518524,3.0929000000953693],[0.38229166666666664,-0.4527777777777778,3.1129000000953653],[0.4270833333333333,-0.4427777777777778,3.129400000095359],[0.46458333333333335,-0.4714814814814815,3.146900000095357],[0.47156250000000005,-0.4888888888888889,3.1619000000953577],[0.4779166666666666,-0.5038888888888889,3.1794999999999902],[0.47541666666666677,-0.504074074074074,3.195600000381461],[0.4657291666666666,-0.5077777777777778,3.2134999999999962],[0.4664583333333333,-0.4962962962962963,3.2292000002860988],[0.4209374999999999,-0.46425925925925926,3.247],[0.3754166666666668,-0.4322222222222222,3.261499999999998],[0.36572916666666655,-0.41888888888888887,3.2784000000953597],[0.3607291666666666,-0.42962962962962964,3.2949000000953674],[0.3321875000000001,-0.42111111111111105,3.310999999999993],[0.3240624999999999,-0.392037037037037,3.326200000286093],[0.3151041666666667,-0.3737037037037037,3.3453000001907327],[0.2635416666666667,-0.3653703703703704,3.3597000002860966],[0.21739583333333337,-0.3611111111111111,3.3778000001907316],[0.17291666666666666,-0.337037037037037,3.3954999999999984],[0.16906249999999995,-0.31962962962962965,3.413900000095367],[0.1564583333333334,-0.28833333333333333,3.4306000003814603],[0.13156249999999994,-0.26240740740740737,3.4472000002861023],[0.10270833333333323,-0.19759259259259257,3.4669000000953645],[0.10270833333333323,-0.19759259259259257,3.476700000286101],[0.10635416666666657,-0.16740740740740737,3.4931000003814603],[0.10854166666666672,-0.1455555555555556,3.5098000001907366],[0.09270833333333334,-0.0962962962962963,3.5287000002860935],[0.1203125,-0.08981481481481482,3.5431000003814717],[0.12822916666666656,-0.06444444444444447,3.559900000095368],[0.13447916666666657,-0.05888888888888891,3.5814999999999912],[0.1554166666666667,-0.03166666666666671,3.596200000286103],[0.18468749999999995,-0.04981481481481477,3.6126000003814625],[0.17468750000000005,-0.005185185185185101,3.6304000000953636],[0.17468750000000005,-0.005185185185185101,3.643100000381466],[0.16677083333333323,-0.042407407407407366,3.6599000000953623],[0.1388541666666666,0.0001851851851852273,3.6829000000953585],[0.1388541666666666,0.0001851851851852273,3.6932000002860974],[0.1337500000000001,0.052037037037037076,3.7099000000953595],[0.13572916666666662,0.07018518518518514,3.7266000003814668],[0.08989583333333329,0.09962962962962954,3.7464999999999975],[0.0978125000000001,0.09648148148148153,3.7624999999999886],[0.10572916666666667,0.0933333333333333,3.782200000286096],[0.10572916666666667,0.0933333333333333,3.7957000002861037],[0.10916666666666662,0.07555555555555547,3.8098000001907337],[0.09239583333333339,0.10314814814814824,3.8264000000953615],[0.10010416666666658,0.12537037037037047,3.843100000381469],[0.11645833333333329,0.17888888888888893,3.8662000002860992],[0.11645833333333329,0.17888888888888893,3.876900000095361],[0.1631249999999999,0.16703703703703712,3.8932000002861002],[0.17552083333333332,0.152962962962963,3.9137000002860987],[0.17781250000000004,0.14629629629629629,3.935200000286102],[0.17781250000000004,0.14629629629629629,3.9433000001907317],[0.20562500000000009,0.1411111111111112,3.9599000000953595],[0.21239583333333342,0.16370370370370366,3.9784000000953625],[0.1694791666666667,0.21648148148148144,3.9983000001907243],[0.1694791666666667,0.21648148148148144,4.009800000190737],[0.13479166666666675,0.23425925925925925,4.026499999999999],[0.1540625000000001,0.21666666666666667,4.044800000190733],[0.1540625000000001,0.21666666666666667,4.062400000095366],[0.16708333333333342,0.2153703703703703,4.076700000286095],[0.13333333333333333,0.27759259259259256,4.093600000381471],[0.09552083333333337,0.2614814814814816,4.109600000381462],[0.06916666666666677,0.23833333333333342,4.129900000095361],[0.0912499999999999,0.25037037037037047,4.1459000000953665],[0.0912499999999999,0.25037037037037047,4.160400000095365],[0.08250000000000005,0.23499999999999996,4.179000000000002],[0.08604166666666657,0.24370370370370376,4.19760000038147],[0.11500000000000009,0.22925925925925916,4.212200000286103],[0.09958333333333323,0.2524074074074073,4.226300000190733],[0.05166666666666669,0.2994444444444445,4.242999999999995],[0.024270833333333287,0.28666666666666657,4.259600000381468],[0.04375,0.23351851851851857,4.2813000001907255],[0.03458333333333338,0.25259259259259254,4.295700000286104],[0.025416666666666643,0.2716666666666668,4.311499999999995],[-0.01270833333333338,0.3088888888888888,4.326300000190727],[-0.013854166666666619,0.3381481481481482,4.345200000286098],[-0.058229166666666644,0.3020370370370371,4.359600000381462],[-0.07833333333333338,0.2588888888888888,4.376999999999995],[-0.050520833333333334,0.2485185185185186,4.3932000002861],[-0.02354166666666669,0.23574074074074067,4.409700000286094],[-0.020833333333333332,0.23833333333333342,4.429700000286104],[-0.05416666666666667,0.272037037037037,4.443400000095366],[-0.07958333333333331,0.30111111111111116,4.459800000190725],[-0.08489583333333334,0.35351851851851845,4.4799000000953555],[-0.03458333333333338,0.31074074074074065,4.494200000286099],[-0.03458333333333338,0.31074074074074065,4.509800000190737],[0.009062500000000048,0.2814814814814815,4.52630000019073],[0.05343749999999995,0.3212962962962963,4.544900000095367],[0.09458333333333328,0.3790740740740742,4.559999999999988],[0.1040625000000001,0.4196296296296297,4.578600000381471],[0.09135416666666671,0.4418518518518519,4.593100000381469],[0.08406250000000005,0.467962962962963,4.6119000000953605],[0.125,0.4535185185185185,4.626499999999993],[0.125,0.4535185185185185,4.6432000002861],[0.16593749999999996,0.4390740740740741,4.659800000190728],[0.16593749999999996,0.4390740740740741,4.680900000095363],[0.2205208333333334,0.35981481481481475,4.693100000381463],[0.2205208333333334,0.35981481481481475,4.709700000286091],[0.1430208333333333,0.38425925925925924,4.732500000000002],[0.1430208333333333,0.38425925925925924,4.74310000038146],[0.11812500000000009,0.4046296296296296,4.759900000095357],[0.11812500000000009,0.4046296296296296,4.77630000019073],[0.07739583333333329,0.37833333333333324,4.792999999999992],[0.06822916666666666,0.3461111111111111,4.814300000190727],[0.06822916666666666,0.3461111111111111,4.826300000190727],[0.08229166666666667,0.2566666666666667,4.842900000095369],[0.08229166666666667,0.2566666666666667,4.859700000286097],[0.06135416666666664,0.21648148148148144,4.876600000381458],[0.03177083333333333,0.16203703703703703,4.892900000095366],[0.010104166666666714,0.13537037037037042,4.911300000190735],[-0.011562500000000024,0.10870370370370379,4.926300000190736],[-0.06697916666666662,0.1235185185185186,4.942900000095364],[-0.022604166666666713,0.09000000000000004,4.959600000381471],[-0.03833333333333329,0.08537037037037042,4.976400000095367],[-0.02666666666666669,0.15111111111111114,4.992900000095361],[-0.043333333333333356,0.20481481481481487,5.011600000381463],[-0.07177083333333331,0.2766666666666666,5.02630000019073],[-0.06468750000000002,0.36148148148148157,5.042900000095358],[-0.034062500000000044,0.4514814814814814,5.059600000381465],[-0.023958333333333335,0.5227777777777777,5.077200000286098],[-0.005208333333333333,0.5683333333333332,5.092999999999989],[0.018124999999999978,0.5951851851851852,5.109600000381462],[0.012083333333333357,0.6512962962962964,5.126300000190724],[-0.014791666666666713,0.7055555555555556,5.142900000095366],[-0.050833333333333286,0.6766666666666666,5.159499999999994],[-0.050833333333333286,0.6766666666666666,5.176300000190736],[-0.09458333333333328,0.6594444444444445,5.192999999999998],[-0.12041666666666669,0.6903703703703703,5.210400000095362],[-0.12458333333333335,0.6774074074074073,5.226200000286099],[-0.14958333333333335,0.665,5.243300000190729],[-0.17416666666666672,0.652962962962963,5.261800000190732],[-0.17625000000000005,0.6351851851851852,5.277700000286103],[-0.18322916666666664,0.635,5.293100000381472],[-0.18552083333333336,0.5996296296296295,5.3125],[-0.16927083333333334,0.5411111111111112,5.326499999999996],[-0.1390625,0.5212962962962963,5.343100000381469],[-0.11812499999999998,0.43740740740740747,5.359700000286097],[-0.10562499999999998,0.35055555555555545,5.379700000286093],[-0.06656249999999998,0.2683333333333333,5.396300000190735],[0.007187499999999976,0.1814814814814815,5.411600000381469],[0.06427083333333337,0.10981481481481473,5.426300000190736],[0.08552083333333324,0.06462962962962959,5.4451000003814585],[0.10343749999999995,0.04092592592592597,5.459700000286091],[0.10343749999999995,0.04092592592592597,5.477400000095358],[0.13291666666666657,0.01185185185185181,5.495900000095361],[0.17041666666666658,0.009629629629629714,5.511400000095364],[0.17614583333333325,0.018518518518518517,5.526600000381464],[0.19885416666666675,0.07981481481481485,5.545000000000002],[0.2319791666666667,0.0933333333333333,5.5597000002860995],[0.23854166666666668,0.10222222222222231,5.5771000003814635],[0.1993750000000001,0.07888888888888893,5.592999999999989],[0.17687499999999995,0.040370370370370286,5.612400000095363],[0.17395833333333333,0.04796296296296292,5.626600000381458],[0.16854166666666662,0.03148148148148148,5.644900000095362],[0.15593750000000003,0.019999999999999917,5.659900000095362],[0.15593750000000003,0.019999999999999917,5.679999999999993],[0.16927083333333334,0.015370370370370286,5.693200000286097],[0.18041666666666673,-0.021481481481481525,5.710400000095362],[0.1915625000000001,-0.058333333333333334,5.729400000095367],[0.17447916666666666,-0.059814814814814835,5.74499999999999],[0.15656249999999997,-0.07037037037037037,5.759600000381468],[0.15322916666666658,-0.030000000000000086,5.780999999999992],[0.1727083333333333,0.023333333333333376,5.797200000286097],[0.1772916666666667,0.03555555555555564,5.813200000286102],[0.16375000000000003,0.013888888888888888,5.8271000003814635],[0.1502083333333334,-0.007777777777777862,5.848100000381464],[0.12052083333333338,-0.06703703703703702,5.863500000000002],[0.11510416666666666,-0.07037037037037037,5.880100000381461],[0.10062499999999991,-0.08814814814814818,5.899400000095369],[0.10062499999999991,-0.08814814814814818,5.909700000286094],[0.115625,-0.10277777777777777,5.926300000190736],[0.1310416666666666,-0.11074074074074076,5.944100000381468],[0.1490624999999999,-0.13222222222222219,5.960900000095364],[0.15979166666666675,-0.15092592592592594,5.979200000286099],[0.10822916666666677,-0.17962962962962964,5.993499999999997],[0.14645833333333325,-0.18574074074074076,6.012300000190734],[0.17802083333333343,-0.1814814814814815,6.027600000381469],[0.1631249999999999,-0.14074074074074075,6.045600000381469],[0.15791666666666657,-0.13481481481481483,6.059999999999988],[0.16291666666666677,-0.1264814814814815,6.0777000002861],[0.13562500000000005,-0.15351851851851847,6.092999999999989],[0.11812500000000009,-0.15037037037037035,6.109800000190731],[0.10041666666666677,-0.13925925925925925,6.126200000286104],[0.0671875,-0.14388888888888887,6.143000000000001],[0.09177083333333323,-0.127962962962963,6.1596000003814595],[0.050833333333333286,-0.09703703703703699,6.179700000286104],[0.017083333333333308,-0.07611111111111116,6.195400000095361],[0.01427083333333338,-0.06277777777777774,6.209600000381471],[0.007708333333333309,-0.0801851851851852,6.231900000095365],[0.007708333333333309,-0.0801851851851852,6.242900000095361],[0.027708333333333356,-0.09574074074074072,6.2594999999999885],[0.0203125,-0.059999999999999956,6.280800000190723],[0.034791666666666644,-0.06351851851851854,6.2968000001907285],[0.049270833333333285,-0.06703703703703702,6.313100000381468],[0.05770833333333331,-0.05796296296296299,6.328300000190737],[0.07062499999999995,-0.05944444444444449,6.343200000286103],[0.08125,-0.09222222222222225,6.359600000381462],[0.09135416666666671,-0.12537037037037035,6.3819000000953565],[0.11166666666666672,-0.11666666666666667,6.397800000190728],[0.12791666666666662,-0.06351851851851854,6.412999999999997],[0.10979166666666676,0.0003703703703704546,6.426400000095356],[0.13833333333333328,0.0035185185185184764,6.445900000095364],[0.12947916666666662,0.014259259259259343,6.4599000000953595],[0.12687499999999996,0.013518518518518435,6.476900000095355],[0.1304166666666667,0.022037037037036994,6.498700000286092],[0.1304166666666667,0.022037037037036994,6.509700000286102],[0.12614583333333323,0.012407407407407492,6.526400000095364],[0.12000000000000005,0.045740740740740825,6.54360000038146],[0.12510416666666657,0.03759259259259251,6.5625],[0.11916666666666677,0.07018518518518514,6.581300000190737],[0.12385416666666677,0.015555555555555513,6.597300000190728],[0.11333333333333329,-0.03314814814814811,6.614600000381458],[0.12197916666666657,-0.04462962962962967,6.630700000286097],[0.12197916666666657,-0.04462962962962967,6.643100000381466],[0.11333333333333329,-0.06481481481481481,6.659800000190728],[0.11333333333333329,-0.06481481481481481,6.683200000286092],[0.1267708333333334,-0.08462962962962961,6.693100000381463],[0.1267708333333334,-0.08462962962962961,6.709800000190725],[0.11072916666666661,-0.09277777777777782,6.734800000190731],[0.11072916666666661,-0.09277777777777782,6.742999999999995],[0.11937499999999991,-0.09981481481481477,6.759800000190737],[0.11937499999999991,-0.09981481481481477,6.784800000190728],[0.11156249999999991,-0.12407407407407407,6.792999999999992],[0.11156249999999991,-0.12407407407407407,6.8097000002860995],[0.08989583333333329,-0.08555555555555554,6.8264000000953615],[0.08989583333333329,-0.08555555555555554,6.842999999999989],[0.06270833333333338,-0.15462962962962962,6.859600000381462],[0.06270833333333338,-0.15462962962962962,6.876300000190724],[0.04770833333333328,-0.15981481481481483,6.893000000000001],[0.04770833333333328,-0.15981481481481483,6.9096000003814595],[0.06489583333333329,-0.18740740740740738,6.926300000190736],[0.06489583333333329,-0.18740740740740738,6.942900000095364],[0.05302083333333331,-0.2294444444444444,6.959600000381471],[0.05302083333333331,-0.2294444444444444,6.976300000190733],[0.06416666666666669,-0.22185185185185188,6.992999999999995],[0.06416666666666669,-0.22185185185185188,7.009600000381468],[0.04874999999999995,-0.22537037037037036,7.030200000286101],[0.04874999999999995,-0.22537037037037036,7.042900000095358],[0.0853125000000001,-0.2740740740740741,7.059600000381465],[0.07354166666666657,-0.30537037037037035,7.078400000095357],[0.075,-0.3031481481481481,7.094999999999999],[0.07906250000000009,-0.32222222222222224,7.111200000286104],[0.14406249999999995,-0.3566666666666667,7.128],[0.2007291666666667,-0.382962962962963,7.143800000190737],[0.20510416666666675,-0.3381481481481482,7.160600000381464],[0.19416666666666677,-0.2838888888888889,7.177800000190729],[0.20750000000000005,-0.31370370370370365,7.192900000095364],[0.20750000000000005,-0.31370370370370365,7.209600000381471],[0.21364583333333323,-0.3014814814814815,7.226300000190733],[0.1883333333333333,-0.2764814814814815,7.245600000381458],[0.1883333333333333,-0.2764814814814815,7.259600000381468],[0.1944791666666667,-0.2518518518518518,7.276400000095364],[0.20666666666666675,-0.27814814814814814,7.295100000381467],[0.19968750000000005,-0.3031481481481481,7.3095],[0.13812499999999991,-0.28777777777777774,7.326300000190727],[0.06989583333333324,-0.27092592592592596,7.342999999999989],[0.08229166666666667,-0.290925925925926,7.361600000381458],[0.1099999999999999,-0.32037037037037036,7.3774000000953635],[0.10510416666666676,-0.3405555555555555,7.393800000190737],[0.12697916666666675,-0.36944444444444446,7.409499999999994],[0.14010416666666667,-0.4111111111111111,7.4285],[0.15322916666666658,-0.4527777777777778,7.4462000002860975],[0.1568749999999999,-0.442037037037037,7.462200000286103],[0.1568749999999999,-0.442037037037037,7.4765000000000015],[0.1796875,-0.43259259259259264,7.49310000038146],[0.1796875,-0.43259259259259264,7.510999999999996],[0.20989583333333334,-0.4477777777777778,7.526900000095367],[0.20989583333333334,-0.4477777777777778,7.55749999999999],[0.24208333333333343,-0.3933333333333333,7.56360000038147],[0.22791666666666663,-0.34870370370370374,7.581100000381468],[0.21375000000000005,-0.30407407407407405,7.5956000003814665],[0.20947916666666658,-0.23574074074074075,7.610900000095356],[0.1837500000000001,-0.18185185185185182,7.626400000095359],[0.17458333333333323,-0.08055555555555556,7.643000000000001],[0.17458333333333323,-0.08055555555555556,7.661900000095358],[0.15010416666666657,-0.03796296296296296,7.676400000095356],[0.1423958333333334,-0.036481481481481566,7.692999999999998],[0.15374999999999991,-0.022777777777777692,7.709499999999991],[0.14343750000000005,0.03351851851851856,7.726300000190733],[0.13468749999999996,0.01314814814814819,7.742900000095361],[0.12625000000000006,-0.017407407407407365,7.7594999999999885],[0.1178124999999999,-0.04796296296296292,7.77630000019073],[0.10906250000000005,-0.06222222222222226,7.792900000095358],[0.10041666666666677,-0.07314814814814814,7.809600000381465],[0.09114583333333333,-0.12037037037037036,7.828400000095357],[0.10447916666666662,-0.14518518518518514,7.843200000286103],[0.10927083333333343,-0.15759259259259265,7.859600000381462],[0.09500000000000004,-0.18222222222222217,7.879800000190727]]","[0.00020000028609956644,0.0494000000953605,0.05999999999998806,0.0796000003814612,0.09310000038146882,0.11180000019072622,0.12640000009535868,0.14310000038146597,0.16010000038146188,0.17820000028609684,0.1932000002860974,0.2116000003814662,0.22680000019073532,0.2431000003814603,0.26030000019072475,0.2783000001907254,0.2956000003814694,0.3131000003814677,0.32890000009535925,0.3432000002861031,0.3638000001907358,0.38130000019073407,0.3968000001907228,0.41490000009535777,0.4301000003814579,0.44299999999999784,0.4597000002860909,0.4764000000953672,0.492999999999995,0.513700000286093,0.5264000000953644,0.5432000002860917,0.559900000095368,0.5764999999999958,0.5931000003814688,0.6097000002860966,0.6264000000953587,0.6479000000953619,0.6646000003814692,0.6764000000953558,0.6929999999999978,0.7096000003814709,0.7266000003814668,0.7486000003814581,0.7657000002861025,0.7763000001907301,0.7931000003814717,0.8097000002860995,0.8264000000953615,0.8429999999999893,0.8596000003814623,0.8768000001907268,0.8963000001907346,0.9110000000000014,0.9264000000953558,0.9431000003814631,0.9596000003814709,0.9771000003814692,0.9947000002861017,1.0097000002861023,1.0323000001907303,1.045900000095358,1.0597000002860995,1.0764000000953615,1.0931000003814688,1.1097000002860966,1.1264000000953587,1.1430000000000007,1.1597000002860938,1.1764000000953558,1.1929999999999978,1.2096000003814709,1.2264000000953672,1.2443000001907336,1.2597000002861023,1.277800000190723,1.2934999999999945,1.3097000002860995,1.3263000001907272,1.3429999999999893,1.3618000001907262,1.377200000286095,1.393100000381466,1.4124999999999943,1.4281000003814626,1.4433000001907317,1.4616000003814662,1.4771000003814692,1.4962000002860947,1.5133000001907249,1.5276000003814687,1.5432000002860917,1.559999999999988,1.5846000003814709,1.5933000001907232,1.6098000001907309,1.627200000286095,1.645700000286098,1.6599000000953623,1.6771000003814578,1.6951000003814585,1.7109000000953642,1.7264000000953672,1.7458000001907266,1.7613000001907295,1.7772000002861006,1.7932000002860917,1.813200000286102,1.8279000000953687,1.843200000286103,1.8598000001907309,1.8794000000953588,1.8958000001907322,1.9107000002860985,1.9263000001907358,1.9439000000953683,1.959700000286091,1.978600000381462,1.9933000001907288,2.0097000002861023,2.0294999999999987,2.0471000003814623,2.0598000001907337,2.076600000381461,2.0959000000953694,2.112800000190731,2.1281000003814654,2.1433000001907345,2.16240000009536,2.177100000381458,2.1936000003814655,2.2099999999999937,2.2288000001907307,2.2432000002860946,2.2598000001907366,2.2804000000953693,2.2956000003814694,2.310300000190736,2.326499999999996,2.3464000000953575,2.360600000381467,2.376499999999993,2.3930000000000007,2.411300000190735,2.426400000095356,2.4448000001907246,2.4599000000953595,2.4777000002860916,2.492999999999995,2.5098000001907366,2.52630000019073,2.542999999999992,2.5597000002860995,2.579900000095364,2.5942000002860937,2.6097000002860966,2.6266000003814582,2.643100000381466,2.6599000000953623,2.6866000003814605,2.6933000001907317,2.7099000000953595,2.730499999999992,2.743400000095363,2.7599000000953566,2.7764999999999986,2.798100000381467,2.8098000001907337,2.826499999999996,2.8459999999999894,2.8622000002860943,2.882800000190727,2.8966000003814685,2.912700000286094,2.9299999999999926,2.945700000286095,2.959800000190725,2.9792000002860988,2.9976000003814676,3.0123000001907343,3.0264000000953644,3.044800000190733,3.060400000095356,3.0763000001907272,3.0929000000953693,3.1129000000953653,3.129400000095359,3.146900000095357,3.1619000000953577,3.1794999999999902,3.195600000381461,3.2134999999999962,3.2292000002860988,3.247,3.261499999999998,3.2784000000953597,3.2949000000953674,3.310999999999993,3.326200000286093,3.3453000001907327,3.3597000002860966,3.3778000001907316,3.3954999999999984,3.413900000095367,3.4306000003814603,3.4472000002861023,3.4669000000953645,3.476700000286101,3.4931000003814603,3.5098000001907366,3.5287000002860935,3.5431000003814717,3.559900000095368,3.5814999999999912,3.596200000286103,3.6126000003814625,3.6304000000953636,3.643100000381466,3.6599000000953623,3.6829000000953585,3.6932000002860974,3.7099000000953595,3.7266000003814668,3.7464999999999975,3.7624999999999886,3.782200000286096,3.7957000002861037,3.8098000001907337,3.8264000000953615,3.843100000381469,3.8662000002860992,3.876900000095361,3.8932000002861002,3.9137000002860987,3.935200000286102,3.9433000001907317,3.9599000000953595,3.9784000000953625,3.9983000001907243,4.009800000190737,4.026499999999999,4.044800000190733,4.062400000095366,4.076700000286095,4.093600000381471,4.109600000381462,4.129900000095361,4.1459000000953665,4.160400000095365,4.179000000000002,4.19760000038147,4.212200000286103,4.226300000190733,4.242999999999995,4.259600000381468,4.2813000001907255,4.295700000286104,4.311499999999995,4.326300000190727,4.345200000286098,4.359600000381462,4.376999999999995,4.3932000002861,4.409700000286094,4.429700000286104,4.443400000095366,4.459800000190725,4.4799000000953555,4.494200000286099,4.509800000190737,4.52630000019073,4.544900000095367,4.559999999999988,4.578600000381471,4.593100000381469,4.6119000000953605,4.626499999999993,4.6432000002861,4.659800000190728,4.680900000095363,4.693100000381463,4.709700000286091,4.732500000000002,4.74310000038146,4.759900000095357,4.77630000019073,4.792999999999992,4.814300000190727,4.826300000190727,4.842900000095369,4.859700000286097,4.876600000381458,4.892900000095366,4.911300000190735,4.926300000190736,4.942900000095364,4.959600000381471,4.976400000095367,4.992900000095361,5.011600000381463,5.02630000019073,5.042900000095358,5.059600000381465,5.077200000286098,5.092999999999989,5.109600000381462,5.126300000190724,5.142900000095366,5.159499999999994,5.176300000190736,5.192999999999998,5.210400000095362,5.226200000286099,5.243300000190729,5.261800000190732,5.277700000286103,5.293100000381472,5.3125,5.326499999999996,5.343100000381469,5.359700000286097,5.379700000286093,5.396300000190735,5.411600000381469,5.426300000190736,5.4451000003814585,5.459700000286091,5.477400000095358,5.495900000095361,5.511400000095364,5.526600000381464,5.545000000000002,5.5597000002860995,5.5771000003814635,5.592999999999989,5.612400000095363,5.626600000381458,5.644900000095362,5.659900000095362,5.679999999999993,5.693200000286097,5.710400000095362,5.729400000095367,5.74499999999999,5.759600000381468,5.780999999999992,5.797200000286097,5.813200000286102,5.8271000003814635,5.848100000381464,5.863500000000002,5.880100000381461,5.899400000095369,5.909700000286094,5.926300000190736,5.944100000381468,5.960900000095364,5.979200000286099,5.993499999999997,6.012300000190734,6.027600000381469,6.045600000381469,6.059999999999988,6.0777000002861,6.092999999999989,6.109800000190731,6.126200000286104,6.143000000000001,6.1596000003814595,6.179700000286104,6.195400000095361,6.209600000381471,6.231900000095365,6.242900000095361,6.2594999999999885,6.280800000190723,6.2968000001907285,6.313100000381468,6.328300000190737,6.343200000286103,6.359600000381462,6.3819000000953565,6.397800000190728,6.412999999999997,6.426400000095356,6.445900000095364,6.4599000000953595,6.476900000095355,6.498700000286092,6.509700000286102,6.526400000095364,6.54360000038146,6.5625,6.581300000190737,6.597300000190728,6.614600000381458,6.630700000286097,6.643100000381466,6.659800000190728,6.683200000286092,6.693100000381463,6.709800000190725,6.734800000190731,6.742999999999995,6.759800000190737,6.784800000190728,6.792999999999992,6.8097000002860995,6.8264000000953615,6.842999999999989,6.859600000381462,6.876300000190724,6.893000000000001,6.9096000003814595,6.926300000190736,6.942900000095364,6.959600000381471,6.976300000190733,6.992999999999995,7.009600000381468,7.030200000286101,7.042900000095358,7.059600000381465,7.078400000095357,7.094999999999999,7.111200000286104,7.128,7.143800000190737,7.160600000381464,7.177800000190729,7.192900000095364,7.209600000381471,7.226300000190733,7.245600000381458,7.259600000381468,7.276400000095364,7.295100000381467,7.3095,7.326300000190727,7.342999999999989,7.361600000381458,7.3774000000953635,7.393800000190737,7.409499999999994,7.4285,7.4462000002860975,7.462200000286103,7.4765000000000015,7.49310000038146,7.510999999999996,7.526900000095367,7.55749999999999,7.56360000038147,7.581100000381468,7.5956000003814665,7.610900000095356,7.626400000095359,7.643000000000001,7.661900000095358,7.676400000095356,7.692999999999998,7.709499999999991,7.726300000190733,7.742900000095361,7.7594999999999885,7.77630000019073,7.792900000095358,7.809600000381465,7.828400000095357,7.843200000286103,7.859600000381462,7.879800000190727]","[1731922093805,1731922093844,1731922093855,1731922093875,1731922093888,1731922093907,1731922093921,1731922093938,1731922093955,1731922093973,1731922093988,1731922094007,1731922094022,1731922094038,1731922094055,1731922094073,1731922094091,1731922094108,1731922094124,1731922094138,1731922094159,1731922094176,1731922094192,1731922094210,1731922094225,1731922094238,1731922094255,1731922094271,1731922094288,1731922094309,1731922094321,1731922094338,1731922094355,1731922094371,1731922094388,1731922094405,1731922094421,1731922094443,1731922094460,1731922094471,1731922094488,1731922094505,1731922094522,1731922094543,1731922094561,1731922094571,1731922094588,1731922094605,1731922094621,1731922094638,1731922094655,1731922094672,1731922094691,1731922094706,1731922094721,1731922094738,1731922094755,1731922094772,1731922094790,1731922094805,1731922094827,1731922094841,1731922094855,1731922094871,1731922094888,1731922094905,1731922094921,1731922094938,1731922094955,1731922094971,1731922094988,1731922095005,1731922095021,1731922095039,1731922095055,1731922095073,1731922095088,1731922095105,1731922095121,1731922095138,1731922095157,1731922095172,1731922095188,1731922095207,1731922095223,1731922095238,1731922095257,1731922095272,1731922095291,1731922095308,1731922095323,1731922095338,1731922095355,1731922095379,1731922095388,1731922095405,1731922095422,1731922095441,1731922095455,1731922095472,1731922095490,1731922095506,1731922095521,1731922095541,1731922095556,1731922095572,1731922095588,1731922095608,1731922095623,1731922095638,1731922095655,1731922095674,1731922095691,1731922095706,1731922095721,1731922095739,1731922095755,1731922095773,1731922095788,1731922095805,1731922095824,1731922095842,1731922095855,1731922095872,1731922095891,1731922095908,1731922095923,1731922095938,1731922095957,1731922095972,1731922095988,1731922096005,1731922096024,1731922096038,1731922096055,1731922096075,1731922096091,1731922096105,1731922096121,1731922096141,1731922096156,1731922096171,1731922096188,1731922096206,1731922096221,1731922096240,1731922096255,1731922096273,1731922096288,1731922096305,1731922096321,1731922096338,1731922096355,1731922096375,1731922096389,1731922096405,1731922096421,1731922096438,1731922096455,1731922096482,1731922096488,1731922096505,1731922096525,1731922096538,1731922096555,1731922096571,1731922096593,1731922096605,1731922096621,1731922096641,1731922096657,1731922096678,1731922096692,1731922096708,1731922096725,1731922096741,1731922096755,1731922096774,1731922096793,1731922096807,1731922096821,1731922096840,1731922096855,1731922096871,1731922096888,1731922096908,1731922096924,1731922096942,1731922096957,1731922096974,1731922096991,1731922097008,1731922097024,1731922097042,1731922097056,1731922097073,1731922097090,1731922097106,1731922097121,1731922097140,1731922097155,1731922097173,1731922097190,1731922097209,1731922097226,1731922097242,1731922097262,1731922097272,1731922097288,1731922097305,1731922097324,1731922097338,1731922097355,1731922097376,1731922097391,1731922097407,1731922097425,1731922097438,1731922097455,1731922097478,1731922097488,1731922097505,1731922097521,1731922097541,1731922097557,1731922097577,1731922097591,1731922097605,1731922097621,1731922097638,1731922097661,1731922097672,1731922097688,1731922097709,1731922097730,1731922097738,1731922097755,1731922097773,1731922097793,1731922097805,1731922097821,1731922097840,1731922097857,1731922097872,1731922097889,1731922097905,1731922097925,1731922097941,1731922097956,1731922097974,1731922097992,1731922098007,1731922098021,1731922098038,1731922098055,1731922098076,1731922098091,1731922098106,1731922098121,1731922098140,1731922098155,1731922098172,1731922098188,1731922098205,1731922098225,1731922098238,1731922098255,1731922098275,1731922098289,1731922098305,1731922098321,1731922098340,1731922098355,1731922098374,1731922098388,1731922098407,1731922098421,1731922098438,1731922098455,1731922098476,1731922098488,1731922098505,1731922098527,1731922098538,1731922098555,1731922098571,1731922098588,1731922098609,1731922098621,1731922098638,1731922098655,1731922098672,1731922098688,1731922098706,1731922098721,1731922098738,1731922098755,1731922098771,1731922098788,1731922098806,1731922098821,1731922098838,1731922098855,1731922098872,1731922098888,1731922098905,1731922098921,1731922098938,1731922098954,1731922098971,1731922098988,1731922099005,1731922099021,1731922099038,1731922099057,1731922099073,1731922099088,1731922099107,1731922099121,1731922099138,1731922099155,1731922099175,1731922099191,1731922099207,1731922099221,1731922099240,1731922099255,1731922099272,1731922099291,1731922099306,1731922099322,1731922099340,1731922099355,1731922099372,1731922099388,1731922099407,1731922099422,1731922099440,1731922099455,1731922099475,1731922099488,1731922099505,1731922099524,1731922099540,1731922099554,1731922099576,1731922099592,1731922099608,1731922099622,1731922099643,1731922099658,1731922099675,1731922099694,1731922099705,1731922099721,1731922099739,1731922099756,1731922099774,1731922099789,1731922099807,1731922099823,1731922099841,1731922099855,1731922099873,1731922099888,1731922099905,1731922099921,1731922099938,1731922099955,1731922099975,1731922099990,1731922100005,1731922100027,1731922100038,1731922100055,1731922100076,1731922100092,1731922100108,1731922100123,1731922100138,1731922100154,1731922100177,1731922100193,1731922100208,1731922100221,1731922100241,1731922100255,1731922100272,1731922100294,1731922100305,1731922100321,1731922100339,1731922100357,1731922100376,1731922100392,1731922100410,1731922100426,1731922100438,1731922100455,1731922100478,1731922100488,1731922100505,1731922100530,1731922100538,1731922100555,1731922100580,1731922100588,1731922100605,1731922100621,1731922100638,1731922100655,1731922100671,1731922100688,1731922100705,1731922100721,1731922100738,1731922100755,1731922100771,1731922100788,1731922100805,1731922100825,1731922100838,1731922100855,1731922100873,1731922100890,1731922100906,1731922100923,1731922100939,1731922100956,1731922100973,1731922100988,1731922101005,1731922101021,1731922101041,1731922101055,1731922101071,1731922101090,1731922101105,1731922101121,1731922101138,1731922101156,1731922101172,1731922101189,1731922101205,1731922101223,1731922101241,1731922101257,1731922101271,1731922101288,1731922101306,1731922101322,1731922101352,1731922101359,1731922101376,1731922101391,1731922101406,1731922101421,1731922101438,1731922101457,1731922101471,1731922101488,1731922101505,1731922101521,1731922101538,1731922101554,1731922101571,1731922101588,1731922101605,1731922101623,1731922101638,1731922101655,1731922101675]","[[1126,532.8],[1126,532.8],[1112.1,545.3],[1112.1,545.3],[1108.2,534.3],[1104.5,530.6],[1083.7,543],[1062.9,555.4],[1048.6,520.4],[1029.1,510.8],[1003.2,493.4],[1006.9,459.4],[991.2,437.5],[994.9,419.7],[1017.7,391.7],[1033.5,358.1],[1023.6,342.1],[1013.7,326.1],[1026.8,328.8],[1039.9,331.5],[1039.2,332.7],[1022.3,364.5],[1027.5,388.4],[992.9,411.6],[941.7,444.4],[941.7,444.4],[901,452.1],[901,452.1],[880.1,469.3],[880.1,469.3],[893.4,467.1],[893.4,467.1],[872.1,487],[872.1,487],[856,456],[856,456],[857.2,455],[882.5,408.6],[901.6,367.9],[901.6,367.9],[937,328.3],[937,328.3],[957.3,275.9],[983.3,262.5],[994.1,265],[994.1,265],[980.5,249.8],[980.5,249.8],[981.4,237.5],[981.4,237.5],[981.5,273.3],[1010.3,275.8],[969.7,333.9],[920.2,380],[893.1,397.6],[881.1,428],[861.1,462.3],[862.2,453.6],[849.2,483.3],[878.6,479.8],[878.6,479.8],[869.5,472.7],[834.4,495.5],[851.3,471.4],[851.3,471.4],[890,459],[911.3,474.3],[932.6,489.6],[940.7,502],[948.8,514.4],[931.6,546.2],[889.2,589.1],[881.1,628.9],[873.4,648],[855.1,689.9],[826.1,704.3],[792.1,719.5],[760.4,733.3],[727.8,737.2],[695.2,741.1],[695.9,716.5],[734.3,703.3],[763.7,683.6],[793.9,653.6],[826.3,619.1],[862.7,606.7],[882.8,623.8],[923.4,615.9],[986.7,606],[1050,596.1],[1081,597.9],[1065.2,579.6],[1063.3,578.8],[1061.4,578],[1061.4,578],[1058.3,598.2],[1067.1,606.8],[1076.9,598.5],[1067.4,604.9],[1059.4,608.6],[1051.4,612.3],[1050.6,623.6],[1049.8,634.9],[1043.9,644.7],[1026.5,634.5],[996.9,649.9],[996.9,649.9],[948.3,669],[957,671],[962.2,684.7],[928,706.1],[893.8,727.5],[890.1,726.8],[886.4,726.1],[866.6,742.2],[851.5,770.5],[850.3,750.1],[856.2,737.6],[850.5,711.5],[829.1,707.1],[832.7,702.5],[832.7,702.5],[825.5,690.5],[821.8,690.1],[818.1,689.7],[804.8,675.8],[798.3,669.7],[809.8,684.3],[835.2,702.3],[816.1,706],[795.1,698.2],[774.1,690.4],[781.5,679.1],[788.5,682.2],[784,667.8],[805.2,650.1],[826.5,638.7],[852.1,617.7],[846.5,596],[855,606.7],[888.8,582.8],[914.8,587],[939.5,569],[933.9,563.1],[966.7,563],[999.2,561.7],[1031.6,554.1],[1034.8,543.9],[1055.3,531],[1097.7,519.2],[1097.7,519.2],[1132.4,531.8],[1167.5,524.9],[1186.3,551.1],[1199.6,535.6],[1186,531.8],[1194,556.5],[1194,556.5],[1202,581.2],[1202,581.2],[1220.6,572.3],[1220.6,572.3],[1223.5,559.6],[1223.5,559.6],[1168.5,526.7],[1168.5,526.7],[1113.5,493.8],[1113.5,493.8],[1096.6,463.8],[1122.8,446.7],[1172.6,443.8],[1188.2,450.1],[1185.8,431.7],[1153.5,374.3],[1114.8,348.6],[1104.1,353.9],[1140.5,365.6],[1176.9,377.3],[1219.4,389.5],[1219.4,389.5],[1221.3,381.5],[1213.2,365.3],[1244.7,332.4],[1244.7,332.4],[1272.9,296.9],[1327,295.5],[1370,300.9],[1406,285.4],[1412.7,276],[1418.8,267.9],[1416.4,267.8],[1407.1,265.8],[1407.8,272],[1364.1,289.3],[1320.4,306.6],[1311.1,313.8],[1306.3,308],[1278.9,312.6],[1271.1,328.3],[1262.5,338.2],[1213,342.7],[1168.7,345],[1126,358],[1122.3,367.4],[1110.2,384.3],[1086.3,398.3],[1058.6,433.3],[1058.6,433.3],[1062.1,449.6],[1064.2,461.4],[1049,488],[1075.5,491.5],[1083.1,505.2],[1089.1,508.2],[1109.2,522.9],[1137.3,513.1],[1127.7,537.2],[1127.7,537.2],[1120.1,517.1],[1093.3,540.1],[1093.3,540.1],[1088.4,568.1],[1090.3,577.9],[1046.3,593.8],[1053.9,592.1],[1061.5,590.4],[1061.5,590.4],[1064.8,580.8],[1048.7,595.7],[1056.1,607.7],[1071.8,636.6],[1071.8,636.6],[1116.6,630.2],[1128.5,622.6],[1130.7,619],[1130.7,619],[1157.4,616.2],[1163.9,628.4],[1122.7,656.9],[1122.7,656.9],[1089.4,666.5],[1107.9,657],[1107.9,657],[1120.4,656.3],[1088,689.9],[1051.7,681.2],[1026.4,668.7],[1047.6,675.2],[1047.6,675.2],[1039.2,666.9],[1042.6,671.6],[1070.4,663.8],[1055.6,676.3],[1009.6,701.7],[983.3,694.8],[1002,666.1],[993.2,676.4],[984.4,686.7],[947.8,706.8],[946.7,722.6],[904.1,703.1],[884.8,679.8],[911.5,674.2],[937.4,667.3],[940,668.7],[908,686.9],[883.6,702.6],[878.5,730.9],[926.8,707.8],[926.8,707.8],[968.7,692],[1011.3,713.5],[1050.8,744.7],[1059.9,766.6],[1047.7,778.6],[1040.7,792.7],[1080,784.9],[1080,784.9],[1119.3,777.1],[1119.3,777.1],[1171.7,734.3],[1171.7,734.3],[1097.3,747.5],[1097.3,747.5],[1073.4,758.5],[1073.4,758.5],[1034.3,744.3],[1025.5,726.9],[1025.5,726.9],[1039,678.6],[1039,678.6],[1018.9,656.9],[990.5,627.5],[969.7,613.1],[948.9,598.7],[895.7,606.7],[938.3,588.6],[923.2,586.1],[934.4,621.6],[918.4,650.6],[891.1,689.4],[897.9,735.2],[927.3,783.8],[937,822.3],[955,846.9],[977.4,861.4],[971.6,891.7],[945.8,921],[911.2,905.4],[911.2,905.4],[869.2,896.1],[844.4,912.8],[840.4,905.8],[816.4,899.1],[792.8,892.6],[790.8,883],[784.1,882.9],[781.9,863.8],[797.5,832.2],[826.5,821.5],[846.6,776.2],[858.6,729.3],[896.1,684.9],[966.9,638],[1021.7,599.3],[1042.1,574.9],[1059.3,562.1],[1059.3,562.1],[1087.6,546.4],[1123.6,545.2],[1129.1,550],[1150.9,583.1],[1182.7,590.4],[1189,595.2],[1151.4,582.6],[1129.8,561.8],[1127,565.9],[1121.8,557],[1109.7,550.8],[1109.7,550.8],[1122.5,548.3],[1133.2,528.4],[1143.9,508.5],[1127.5,507.7],[1110.3,502],[1107.1,523.8],[1125.8,552.6],[1130.2,559.2],[1117.2,547.5],[1104.2,535.8],[1075.7,503.8],[1070.5,502],[1056.6,492.4],[1056.6,492.4],[1071,484.5],[1085.8,480.2],[1103.1,468.6],[1113.4,458.5],[1063.9,443],[1100.6,439.7],[1130.9,442],[1116.6,464],[1111.6,467.2],[1116.4,471.7],[1090.2,457.1],[1073.4,458.8],[1056.4,464.8],[1024.5,462.3],[1048.1,470.9],[1008.8,487.6],[976.4,498.9],[973.7,506.1],[967.4,496.7],[967.4,496.7],[986.6,488.3],[979.5,507.6],[993.4,505.7],[1007.3,503.8],[1015.4,508.7],[1027.8,507.9],[1038,490.2],[1047.7,472.3],[1067.2,477],[1082.8,505.7],[1065.4,540.2],[1092.8,541.9],[1084.3,547.7],[1081.8,547.3],[1085.2,551.9],[1085.2,551.9],[1081.1,546.7],[1075.2,564.7],[1080.1,560.3],[1074.4,577.9],[1078.9,548.4],[1068.8,522.1],[1077.1,515.9],[1077.1,515.9],[1068.8,505],[1068.8,505],[1081.7,494.3],[1081.7,494.3],[1066.3,489.9],[1066.3,489.9],[1074.6,486.1],[1074.6,486.1],[1067.1,473],[1067.1,473],[1046.3,493.8],[1046.3,493.8],[1020.2,456.5],[1020.2,456.5],[1005.8,453.7],[1005.8,453.7],[1022.3,438.8],[1022.3,438.8],[1010.9,416.1],[1010.9,416.1],[1021.6,420.2],[1021.6,420.2],[1006.8,418.3],[1006.8,418.3],[1041.9,392],[1030.6,375.1],[1032,376.3],[1035.9,366],[1098.3,347.4],[1152.7,333.2],[1156.9,357.4],[1146.4,386.7],[1159.2,370.6],[1159.2,370.6],[1165.1,377.2],[1140.8,390.7],[1140.8,390.7],[1146.7,404],[1158.4,389.8],[1151.7,376.3],[1092.6,384.6],[1027.1,393.7],[1039,382.9],[1065.6,367],[1060.9,356.1],[1081.9,340.5],[1094.5,318],[1107.1,295.5],[1110.6,301.3],[1110.6,301.3],[1132.5,306.4],[1132.5,306.4],[1161.5,298.2],[1161.5,298.2],[1192.4,327.6],[1178.8,351.7],[1165.2,375.8],[1161.1,412.7],[1136.4,441.8],[1127.6,496.5],[1127.6,496.5],[1104.1,519.5],[1096.7,520.3],[1107.6,527.7],[1097.7,558.1],[1089.3,547.1],[1081.2,530.6],[1073.1,514.1],[1064.7,506.4],[1056.4,500.5],[1047.5,475],[1060.3,461.6],[1064.9,454.9],[1051.2,441.6]]","[-0.132282,0.39684600000000003]","[0.132282,0.39684600000000003]","[0.39684600000000003,0.39684600000000003]","[-0.39684600000000003,0.132282]","[-0.39684600000000003,-0.39684600000000003]","[-0.39684600000000003,-0.132282]","[-0.132282,0.132282]","[0.132282,0.132282]","[0.39684600000000003,0.132282]","[-0.132282,-0.39684600000000003]","[0.132282,-0.39684600000000003]","[0.39684600000000003,-0.39684600000000003]","[-0.132282,-0.132282]","[0.132282,-0.132282]","[0.39684600000000003,-0.132282]",0,0,0,0,1,4,Tablet,25,20,8,1,60,4,1,60,3
