inst1_resp.keys,inst1_resp.rt,calibrationMouse.x,calibrationMouse.y,calibrationMouse.leftButton,calibrationMouse.midButton,calibrationMouse.rightButton,calibrationClick.x,calibrationClick.y,calibrationClick.leftButton,calibrationClick.midButton,calibrationClick.rightButton,calibrationClick.clicked_name,trialsc.thisRepN,trialsc.thisTrialN,trialsc.thisN,trialsc.thisIndex,trialsc.ran,calibration_x,calibration_y,participant,session,date,expName,psychopyVersion,OS,frameRate,ScreenRes_pixels,Camera_pixels,mouse_2.x,mouse_2.y,mouse_2.leftButton,mouse_2.midButton,mouse_2.rightButton,mouse_2.time,mouse_2.clicked_name,mouse.x,mouse.y,mouse.leftButton,mouse.midButton,mouse.rightButton,mouse.time,mouse.clicked_name,Choice,Trial,TrialDuration,MOUSE_GAZE,ET_GAZE,ET_GAZE_x_T,time,unixTime,ET_GAZE_NF,Loc_Bus_label,Loc_Metro_label,Loc_RH_label,Loc_Cost_label,Loc_Travel_label,Loc_Comfort_label,Loc_Bus_cost,Loc_Metro_cost,Loc_RH_cost,Loc_Bus_travel,Loc_Metro_travel,Loc_RH_travel,Loc_Bus_comfort,Loc_Metro_comfort,Loc_RH_comfort,trials.thisRepN,trials.thisTrialN,trials.thisN,trials.thisIndex,trials.ran,Block,Device,RH_cost,RH_travel_time,RH_Comfort,metro_cost,metro_travel_time,metro_Comfort,Bus_cost,Bus_travel_time,Bus_Comfort
space,5.2506,0.028125,-0.359259259,1,0,0,-0.665625,-0.333333333,1,0,0,calibration_square,0,0,0,1,1,-0.67,-0.33,42,001,2024-11-19_11h35.28.802,Attention_exp_legacy,2023.1.0,Win32,60.24096386,,,,,,,,,,,,,,,,,,,,,,,,,,,,,,,,,,,,,,,,,,,,,,,,,,,,,,,,
,,,,,,,-0.667708333,0.32962963,1,0,0,calibration_square,0,1,1,3,1,-0.67,0.33,42,001,2024-11-19_11h35.28.802,Attention_exp_legacy,2023.1.0,Win32,60.24096386,,,,,,,,,,,,,,,,,,,,,,,,,,,,,,,,,,,,,,,,,,,,,,,,,,,,,,,,
,,,,,,,0.3375,-0.335185185,1,0,0,calibration_square,0,2,2,15,1,0.33,-0.33,42,001,2024-11-19_11h35.28.802,Attention_exp_legacy,2023.1.0,Win32,60.24096386,,,,,,,,,,,,,,,,,,,,,,,,,,,,,,,,,,,,,,,,,,,,,,,,,,,,,,,,
,,,,,,,-0.3375,0.32962963,1,0,0,calibration_square,0,3,3,7,1,-0.33,0.33,42,001,2024-11-19_11h35.28.802,Attention_exp_legacy,2023.1.0,Win32,60.24096386,,,,,,,,,,,,,,,,,,,,,,,,,,,,,,,,,,,,,,,,,,,,,,,,,,,,,,,,
,,,,,,,0.330208333,0.327777778,1,0,0,calibration_square,0,4,4,17,1,0.33,0.33,42,001,2024-11-19_11h35.28.802,Attention_exp_legacy,2023.1.0,Win32,60.24096386,,,,,,,,,,,,,,,,,,,,,,,,,,,,,,,,,,,,,,,,,,,,,,,,,,,,,,,,
,,,,,,,0.329166667,-0.001851852,1,0,0,calibration_square,0,5,5,16,1,0.33,0,42,001,2024-11-19_11h35.28.802,Attention_exp_legacy,2023.1.0,Win32,60.24096386,,,,,,,,,,,,,,,,,,,,,,,,,,,,,,,,,,,,,,,,,,,,,,,,,,,,,,,,
,,,,,,,-0.667708333,0.009259259,1,0,0,calibration_square,0,6,6,2,1,-0.67,0,42,001,2024-11-19_11h35.28.802,Attention_exp_legacy,2023.1.0,Win32,60.24096386,,,,,,,,,,,,,,,,,,,,,,,,,,,,,,,,,,,,,,,,,,,,,,,,,,,,,,,,
,,,,,,,0.001041667,-0.327777778,1,0,0,calibration_square,0,7,7,10,1,0,-0.33,42,001,2024-11-19_11h35.28.802,Attention_exp_legacy,2023.1.0,Win32,60.24096386,,,,,,,,,,,,,,,,,,,,,,,,,,,,,,,,,,,,,,,,,,,,,,,,,,,,,,,,
,,,,,,,0.666666667,0.664814815,1,0,0,calibration_square,0,8,8,19,1,0.67,0.67,42,001,2024-11-19_11h35.28.802,Attention_exp_legacy,2023.1.0,Win32,60.24096386,,,,,,,,,,,,,,,,,,,,,,,,,,,,,,,,,,,,,,,,,,,,,,,,,,,,,,,,
,,,,,,,0.332291667,-0.672222222,1,0,0,calibration_square,0,9,9,14,1,0.33,-0.67,42,001,2024-11-19_11h35.28.802,Attention_exp_legacy,2023.1.0,Win32,60.24096386,,,,,,,,,,,,,,,,,,,,,,,,,,,,,,,,,,,,,,,,,,,,,,,,,,,,,,,,
,,,,,,,0.321875,0.666666667,1,0,0,calibration_square,0,10,10,18,1,0.33,0.67,42,001,2024-11-19_11h35.28.802,Attention_exp_legacy,2023.1.0,Win32,60.24096386,,,,,,,,,,,,,,,,,,,,,,,,,,,,,,,,,,,,,,,,,,,,,,,,,,,,,,,,
,,,,,,,0.001041667,0.322222222,1,0,0,calibration_square,0,11,11,12,1,0,0.33,42,001,2024-11-19_11h35.28.802,Attention_exp_legacy,2023.1.0,Win32,60.24096386,,,,,,,,,,,,,,,,,,,,,,,,,,,,,,,,,,,,,,,,,,,,,,,,,,,,,,,,
,,,,,,,0.678125,-0.674074074,1,0,0,calibration_square,0,12,12,20,1,0.67,-0.67,42,001,2024-11-19_11h35.28.802,Attention_exp_legacy,2023.1.0,Win32,60.24096386,,,,,,,,,,,,,,,,,,,,,,,,,,,,,,,,,,,,,,,,,,,,,,,,,,,,,,,,
,,,,,,,-0.669791667,-0.67037037,1,0,0,calibration_square,0,13,13,0,1,-0.67,-0.67,42,001,2024-11-19_11h35.28.802,Attention_exp_legacy,2023.1.0,Win32,60.24096386,,,,,,,,,,,,,,,,,,,,,,,,,,,,,,,,,,,,,,,,,,,,,,,,,,,,,,,,
,,,,,,,-0.3375,-0.003703704,1,0,0,calibration_square,0,14,14,6,1,-0.33,0,42,001,2024-11-19_11h35.28.802,Attention_exp_legacy,2023.1.0,Win32,60.24096386,,,,,,,,,,,,,,,,,,,,,,,,,,,,,,,,,,,,,,,,,,,,,,,,,,,,,,,,
,,,,,,,-0.327083333,-0.675925926,1,0,0,calibration_square,0,15,15,4,1,-0.33,-0.67,42,001,2024-11-19_11h35.28.802,Attention_exp_legacy,2023.1.0,Win32,60.24096386,,,,,,,,,,,,,,,,,,,,,,,,,,,,,,,,,,,,,,,,,,,,,,,,,,,,,,,,
,,,,,,,-0.001041667,-0.674074074,1,0,0,calibration_square,0,16,16,9,1,0,-0.67,42,001,2024-11-19_11h35.28.802,Attention_exp_legacy,2023.1.0,Win32,60.24096386,,,,,,,,,,,,,,,,,,,,,,,,,,,,,,,,,,,,,,,,,,,,,,,,,,,,,,,,
,,,,,,,0.003125,0.666666667,1,0,0,calibration_square,0,17,17,13,1,0,0.67,42,001,2024-11-19_11h35.28.802,Attention_exp_legacy,2023.1.0,Win32,60.24096386,,,,,,,,,,,,,,,,,,,,,,,,,,,,,,,,,,,,,,,,,,,,,,,,,,,,,,,,
,,,,,,,-0.005208333,0.003703704,1,0,0,calibration_square,0,18,18,11,1,0,0,42,001,2024-11-19_11h35.28.802,Attention_exp_legacy,2023.1.0,Win32,60.24096386,,,,,,,,,,,,,,,,,,,,,,,,,,,,,,,,,,,,,,,,,,,,,,,,,,,,,,,,
,,,,,,,-0.328125,-0.325925926,1,0,0,calibration_square,0,19,19,5,1,-0.33,-0.33,42,001,2024-11-19_11h35.28.802,Attention_exp_legacy,2023.1.0,Win32,60.24096386,,,,,,,,,,,,,,,,,,,,,,,,,,,,,,,,,,,,,,,,,,,,,,,,,,,,,,,,
,,,,,,,-0.329166667,0.672222222,1,0,0,calibration_square,0,20,20,8,1,-0.33,0.67,42,001,2024-11-19_11h35.28.802,Attention_exp_legacy,2023.1.0,Win32,60.24096386,,,,,,,,,,,,,,,,,,,,,,,,,,,,,,,,,,,,,,,,,,,,,,,,,,,,,,,,
,,,,,,,,,,,,,,,,,,,,42,001,2024-11-19_11h35.28.802,Attention_exp_legacy,2023.1.0,Win32,60.24096386,"[1920,1080]","[640,480]",[0.035416666666666666],[-0.5185185185185185],[1],[0],[0],[10.730799999713888],"[""StartButton""]",[0.16145833333333334],[0.412962962962963],[1],[0],[0],[5.7502000002861],"[""Metro_label""]",Metro_label,1,6.7602,"[[0.03958333333333333,-0.49444444444444446],[0.03958333333333333,-0.49444444444444446],[0.03958333333333333,-0.49444444444444446],[0.03958333333333333,-0.49444444444444446],[0.03958333333333333,-0.49444444444444446],[0.03958333333333333,-0.49444444444444446],[0.03958333333333333,-0.49444444444444446],[0.03958333333333333,-0.49444444444444446],[0.03958333333333333,-0.49444444444444446],[0.03958333333333333,-0.49444444444444446],[0.03958333333333333,-0.49444444444444446],[0.03958333333333333,-0.49444444444444446],[0.03958333333333333,-0.49444444444444446],[0.03958333333333333,-0.49444444444444446],[0.03958333333333333,-0.49444444444444446],[0.03958333333333333,-0.49444444444444446],[0.03958333333333333,-0.49444444444444446],[0.03958333333333333,-0.49444444444444446],[0.03958333333333333,-0.49444444444444446],[0.03958333333333333,-0.49444444444444446],[0.03958333333333333,-0.49444444444444446],[0.03958333333333333,-0.49444444444444446],[0.03958333333333333,-0.49444444444444446],[0.03958333333333333,-0.49444444444444446],[0.03958333333333333,-0.49444444444444446],[0.03958333333333333,-0.49444444444444446],[0.03958333333333333,-0.49444444444444446],[0.03958333333333333,-0.49444444444444446],[0.03958333333333333,-0.49444444444444446],[0.03958333333333333,-0.49444444444444446],[0.03958333333333333,-0.49444444444444446],[0.03958333333333333,-0.49444444444444446],[0.03958333333333333,-0.49444444444444446],[0.03958333333333333,-0.49444444444444446],[0.03958333333333333,-0.49444444444444446],[0.03958333333333333,-0.49444444444444446],[0.03958333333333333,-0.49444444444444446],[0.03958333333333333,-0.49444444444444446],[0.03958333333333333,-0.49444444444444446],[0.03958333333333333,-0.49444444444444446],[0.03958333333333333,-0.49444444444444446],[0.03958333333333333,-0.49444444444444446],[0.03958333333333333,-0.49444444444444446],[0.03958333333333333,-0.49444444444444446],[0.03958333333333333,-0.49444444444444446],[0.03958333333333333,-0.49444444444444446],[0.03958333333333333,-0.49444444444444446],[0.03958333333333333,-0.49444444444444446],[0.03958333333333333,-0.49444444444444446],[0.03958333333333333,-0.49444444444444446],[0.03958333333333333,-0.49444444444444446],[0.03958333333333333,-0.49444444444444446],[0.03958333333333333,-0.49444444444444446],[0.03958333333333333,-0.49444444444444446],[0.03958333333333333,-0.49444444444444446],[0.03958333333333333,-0.49444444444444446],[0.03958333333333333,-0.49444444444444446],[0.03958333333333333,-0.49444444444444446],[0.03958333333333333,-0.49444444444444446],[0.03958333333333333,-0.49444444444444446],[0.03958333333333333,-0.49444444444444446],[0.03958333333333333,-0.49444444444444446],[0.03958333333333333,-0.49444444444444446],[0.03958333333333333,-0.49444444444444446],[0.03958333333333333,-0.49444444444444446],[0.03958333333333333,-0.49444444444444446],[0.03958333333333333,-0.49444444444444446],[0.03958333333333333,-0.49444444444444446],[0.03958333333333333,-0.49444444444444446],[0.03958333333333333,-0.49444444444444446],[0.03958333333333333,-0.49444444444444446],[0.03958333333333333,-0.49444444444444446],[0.03958333333333333,-0.49444444444444446],[0.03958333333333333,-0.49444444444444446],[0.03958333333333333,-0.49444444444444446],[0.03958333333333333,-0.49444444444444446],[0.03958333333333333,-0.49444444444444446],[0.03958333333333333,-0.49444444444444446],[0.03958333333333333,-0.49444444444444446],[0.03958333333333333,-0.49444444444444446],[0.03958333333333333,-0.49444444444444446],[0.03958333333333333,-0.49444444444444446],[0.03958333333333333,-0.49444444444444446],[0.03958333333333333,-0.49444444444444446],[0.03958333333333333,-0.49444444444444446],[0.03958333333333333,-0.49444444444444446],[0.03958333333333333,-0.49444444444444446],[0.03958333333333333,-0.49444444444444446],[0.03958333333333333,-0.49444444444444446],[0.03958333333333333,-0.49444444444444446],[0.03958333333333333,-0.49444444444444446],[0.03958333333333333,-0.49444444444444446],[0.03958333333333333,-0.49444444444444446],[0.03958333333333333,-0.49444444444444446],[0.03958333333333333,-0.49444444444444446],[0.03958333333333333,-0.49444444444444446],[0.03958333333333333,-0.49444444444444446],[0.03958333333333333,-0.49444444444444446],[0.03958333333333333,-0.49444444444444446],[0.03958333333333333,-0.49444444444444446],[0.03958333333333333,-0.49444444444444446],[0.03958333333333333,-0.49444444444444446],[0.03958333333333333,-0.49444444444444446],[0.03958333333333333,-0.49444444444444446],[0.03958333333333333,-0.49444444444444446],[0.03958333333333333,-0.49444444444444446],[0.03958333333333333,-0.49444444444444446],[0.03958333333333333,-0.49444444444444446],[0.03958333333333333,-0.49444444444444446],[0.03958333333333333,-0.49444444444444446],[0.03958333333333333,-0.49444444444444446],[0.03958333333333333,-0.49444444444444446],[0.03958333333333333,-0.49444444444444446],[0.03958333333333333,-0.49444444444444446],[0.03958333333333333,-0.49444444444444446],[0.03958333333333333,-0.49444444444444446],[0.03958333333333333,-0.49444444444444446],[0.03958333333333333,-0.49444444444444446],[0.03958333333333333,-0.49444444444444446],[0.03958333333333333,-0.49444444444444446],[0.03958333333333333,-0.49444444444444446],[0.03958333333333333,-0.49444444444444446],[0.03958333333333333,-0.49444444444444446],[0.03958333333333333,-0.49444444444444446],[0.03958333333333333,-0.49444444444444446],[0.03958333333333333,-0.49444444444444446],[0.03958333333333333,-0.49444444444444446],[0.03958333333333333,-0.49444444444444446],[0.03958333333333333,-0.49444444444444446],[0.03958333333333333,-0.49444444444444446],[0.03958333333333333,-0.49444444444444446],[0.03958333333333333,-0.49444444444444446],[0.03958333333333333,-0.49444444444444446],[0.03958333333333333,-0.49444444444444446],[0.03958333333333333,-0.49444444444444446],[0.03958333333333333,-0.49444444444444446],[0.03958333333333333,-0.49444444444444446],[0.03958333333333333,-0.49444444444444446],[0.03958333333333333,-0.49444444444444446],[0.03958333333333333,-0.49444444444444446],[0.03958333333333333,-0.49444444444444446],[0.03958333333333333,-0.49444444444444446],[0.03958333333333333,-0.49444444444444446],[0.03958333333333333,-0.49444444444444446],[0.03958333333333333,-0.49444444444444446],[0.03958333333333333,-0.49444444444444446],[0.03958333333333333,-0.49444444444444446],[0.03958333333333333,-0.49444444444444446],[0.03958333333333333,-0.49444444444444446],[0.03958333333333333,-0.49444444444444446],[0.03958333333333333,-0.49444444444444446],[0.03958333333333333,-0.49444444444444446],[0.03958333333333333,-0.49444444444444446],[0.03958333333333333,-0.49444444444444446],[0.03958333333333333,-0.49444444444444446],[0.03958333333333333,-0.49444444444444446],[0.03958333333333333,-0.49444444444444446],[0.03958333333333333,-0.49444444444444446],[0.03958333333333333,-0.49444444444444446],[0.03958333333333333,-0.49444444444444446],[0.03958333333333333,-0.49444444444444446],[0.03958333333333333,-0.49444444444444446],[0.03958333333333333,-0.49444444444444446],[0.03958333333333333,-0.49444444444444446],[0.03958333333333333,-0.49444444444444446],[0.03958333333333333,-0.49444444444444446],[0.03958333333333333,-0.49444444444444446],[0.03958333333333333,-0.49444444444444446],[0.03958333333333333,-0.49444444444444446],[0.03958333333333333,-0.49444444444444446],[0.03958333333333333,-0.49444444444444446],[0.03958333333333333,-0.49444444444444446],[0.03958333333333333,-0.49444444444444446],[0.03958333333333333,-0.49444444444444446],[0.03958333333333333,-0.49444444444444446],[0.03958333333333333,-0.49444444444444446],[0.03958333333333333,-0.49444444444444446],[0.03958333333333333,-0.49444444444444446],[0.03958333333333333,-0.49444444444444446],[0.03958333333333333,-0.49444444444444446],[0.03958333333333333,-0.49444444444444446],[0.03958333333333333,-0.49444444444444446],[0.03958333333333333,-0.49444444444444446],[0.03958333333333333,-0.49444444444444446],[0.03958333333333333,-0.49444444444444446],[0.03958333333333333,-0.49444444444444446],[0.03958333333333333,-0.49444444444444446],[0.03958333333333333,-0.49444444444444446],[0.03958333333333333,-0.49444444444444446],[0.03958333333333333,-0.49444444444444446],[0.03958333333333333,-0.49444444444444446],[0.03958333333333333,-0.49444444444444446],[0.03958333333333333,-0.49444444444444446],[0.03958333333333333,-0.49444444444444446],[0.03958333333333333,-0.49444444444444446],[0.03958333333333333,-0.49444444444444446],[0.03958333333333333,-0.49444444444444446],[0.03958333333333333,-0.49444444444444446],[0.03958333333333333,-0.49444444444444446],[0.03958333333333333,-0.49444444444444446],[0.03958333333333333,-0.49444444444444446],[0.03958333333333333,-0.49444444444444446],[0.03958333333333333,-0.49444444444444446],[0.03958333333333333,-0.49444444444444446],[0.03958333333333333,-0.49444444444444446],[0.03958333333333333,-0.49444444444444446],[0.03958333333333333,-0.49444444444444446],[0.03958333333333333,-0.49444444444444446],[0.03958333333333333,-0.49444444444444446],[0.03958333333333333,-0.49444444444444446],[0.03958333333333333,-0.49444444444444446],[0.03958333333333333,-0.49444444444444446],[0.03958333333333333,-0.49444444444444446],[0.03958333333333333,-0.49444444444444446],[0.03958333333333333,-0.49444444444444446],[0.03958333333333333,-0.49444444444444446],[0.03958333333333333,-0.49444444444444446],[0.03958333333333333,-0.49444444444444446],[0.03958333333333333,-0.49444444444444446],[0.03958333333333333,-0.49444444444444446],[0.03958333333333333,-0.49444444444444446],[0.03958333333333333,-0.49444444444444446],[0.03958333333333333,-0.49444444444444446],[0.03958333333333333,-0.49444444444444446],[0.03958333333333333,-0.49444444444444446],[0.03958333333333333,-0.49444444444444446],[0.03958333333333333,-0.49444444444444446],[0.03958333333333333,-0.49444444444444446],[0.03958333333333333,-0.49444444444444446],[0.03958333333333333,-0.49444444444444446],[0.03958333333333333,-0.49444444444444446],[0.03958333333333333,-0.49444444444444446],[0.03958333333333333,-0.49444444444444446],[0.03958333333333333,-0.49444444444444446],[0.03958333333333333,-0.49444444444444446],[0.03958333333333333,-0.49444444444444446],[0.03958333333333333,-0.49444444444444446],[0.03958333333333333,-0.49444444444444446],[0.03958333333333333,-0.49444444444444446],[0.042708333333333334,-0.49444444444444446],[0.04583333333333333,-0.49444444444444446],[0.04895833333333333,-0.49444444444444446],[0.051041666666666666,-0.49444444444444446],[0.053125,-0.49444444444444446],[0.05416666666666667,-0.49444444444444446],[0.057291666666666664,-0.49444444444444446],[0.06041666666666667,-0.49074074074074076],[0.06354166666666666,-0.49074074074074076],[0.06458333333333334,-0.4888888888888889],[0.06666666666666667,-0.48518518518518516],[0.06770833333333333,-0.48518518518518516],[0.07291666666666667,-0.47962962962962963],[0.07708333333333334,-0.4740740740740741],[0.08125,-0.4685185185185185],[0.08541666666666667,-0.46296296296296297],[0.09583333333333334,-0.44074074074074077],[0.10104166666666667,-0.43148148148148147],[0.11041666666666666,-0.4203703703703704],[0.11770833333333333,-0.4074074074074074],[0.128125,-0.3888888888888889],[0.13854166666666667,-0.362962962962963],[0.15,-0.337037037037037],[0.16458333333333333,-0.3],[0.171875,-0.2777777777777778],[0.17916666666666667,-0.25925925925925924],[0.18645833333333334,-0.23148148148148148],[0.19375,-0.2],[0.20208333333333334,-0.1685185185185185],[0.20833333333333334,-0.13518518518518519],[0.215625,-0.10925925925925926],[0.21875,-0.08888888888888889],[0.221875,-0.07407407407407407],[0.22291666666666668,-0.05925925925925926],[0.22291666666666668,-0.053703703703703705],[0.22291666666666668,-0.05185185185185185],[0.22291666666666668,-0.04814814814814815],[0.22291666666666668,-0.046296296296296294],[0.22291666666666668,-0.04259259259259259],[0.22291666666666668,-0.04259259259259259],[0.22291666666666668,-0.03888888888888889],[0.22291666666666668,-0.03888888888888889],[0.22291666666666668,-0.03888888888888889],[0.22291666666666668,-0.03888888888888889],[0.22291666666666668,-0.037037037037037035],[0.22291666666666668,-0.037037037037037035],[0.22291666666666668,-0.037037037037037035],[0.221875,-0.03518518518518519],[0.22083333333333333,-0.03333333333333333],[0.22083333333333333,-0.03148148148148148],[0.22083333333333333,-0.02962962962962963],[0.21875,-0.024074074074074074],[0.21770833333333334,-0.024074074074074074],[0.21666666666666667,-0.018518518518518517],[0.21458333333333332,-0.011111111111111112],[0.21354166666666666,0.005555555555555556],[0.21041666666666667,0.02962962962962963],[0.20833333333333334,0.05],[0.20625,0.08518518518518518],[0.203125,0.1388888888888889],[0.203125,0.1962962962962963],[0.203125,0.23333333333333334],[0.2,0.26481481481481484],[0.19895833333333332,0.28703703703703703],[0.19791666666666666,0.30185185185185187],[0.19583333333333333,0.3111111111111111],[0.19583333333333333,0.31666666666666665],[0.19583333333333333,0.31851851851851853],[0.19583333333333333,0.31851851851851853],[0.19583333333333333,0.31851851851851853],[0.19583333333333333,0.31851851851851853],[0.19583333333333333,0.31851851851851853],[0.19583333333333333,0.31851851851851853],[0.19479166666666667,0.32222222222222224],[0.19166666666666668,0.3296296296296296],[0.18854166666666666,0.34444444444444444],[0.184375,0.3592592592592593],[0.18020833333333333,0.37407407407407406],[0.175,0.38333333333333336],[0.16979166666666667,0.39444444444444443],[0.165625,0.40370370370370373],[0.16458333333333333,0.4074074074074074],[0.16145833333333334,0.4111111111111111],[0.16145833333333334,0.412962962962963],[0.16145833333333334,0.412962962962963],[0.16145833333333334,0.412962962962963],[0.16145833333333334,0.412962962962963],[0.16145833333333334,0.412962962962963],[0.16145833333333334,0.412962962962963],[0.16145833333333334,0.412962962962963],[0.16145833333333334,0.412962962962963],[0.16145833333333334,0.412962962962963],[0.16145833333333334,0.412962962962963],[0.16145833333333334,0.412962962962963],[0.16145833333333334,0.412962962962963],[0.16145833333333334,0.412962962962963],[0.16145833333333334,0.412962962962963],[0.16145833333333334,0.412962962962963],[0.16145833333333334,0.412962962962963],[0.16145833333333334,0.412962962962963],[0.16145833333333334,0.412962962962963],[0.16145833333333334,0.412962962962963],[0.16145833333333334,0.412962962962963],[0.16145833333333334,0.412962962962963],[0.16145833333333334,0.412962962962963],[0.16145833333333334,0.412962962962963],[0.16145833333333334,0.412962962962963],[0.16145833333333334,0.412962962962963],[0.16145833333333334,0.412962962962963],[0.16145833333333334,0.412962962962963],[0.16145833333333334,0.412962962962963],[0.16145833333333334,0.412962962962963],[0.16145833333333334,0.412962962962963],[0.16145833333333334,0.412962962962963],[0.16145833333333334,0.412962962962963],[0.16145833333333334,0.412962962962963],[0.16145833333333334,0.412962962962963],[0.16145833333333334,0.412962962962963],[0.16145833333333334,0.412962962962963],[0.16145833333333334,0.412962962962963],[0.16145833333333334,0.412962962962963],[0.16145833333333334,0.412962962962963],[0.16145833333333334,0.412962962962963],[0.16145833333333334,0.412962962962963],[0.16145833333333334,0.412962962962963],[0.16145833333333334,0.412962962962963],[0.16145833333333334,0.412962962962963],[0.16145833333333334,0.412962962962963],[0.16145833333333334,0.412962962962963],[0.16145833333333334,0.412962962962963],[0.16145833333333334,0.412962962962963],[0.16145833333333334,0.412962962962963],[0.16145833333333334,0.412962962962963],[0.16145833333333334,0.412962962962963],[0.16145833333333334,0.412962962962963],[0.16145833333333334,0.412962962962963],[0.16145833333333334,0.412962962962963],[0.16145833333333334,0.412962962962963],[0.16145833333333334,0.412962962962963],[0.16145833333333334,0.412962962962963],[0.16145833333333334,0.412962962962963],[0.16145833333333334,0.412962962962963],[0.16145833333333334,0.412962962962963],[0.16145833333333334,0.412962962962963],[0.16145833333333334,0.412962962962963],[0.16145833333333334,0.412962962962963],[0.16145833333333334,0.412962962962963],[0.16145833333333334,0.412962962962963],[0.16145833333333334,0.412962962962963],[0.16145833333333334,0.412962962962963],[0.16145833333333334,0.412962962962963],[0.16145833333333334,0.412962962962963],[0.16145833333333334,0.412962962962963],[0.16145833333333334,0.412962962962963],[0.16145833333333334,0.412962962962963],[0.16145833333333334,0.412962962962963],[0.16145833333333334,0.412962962962963],[0.16145833333333334,0.412962962962963],[0.16145833333333334,0.412962962962963],[0.16145833333333334,0.412962962962963],[0.16145833333333334,0.412962962962963],[0.16145833333333334,0.412962962962963],[0.16145833333333334,0.412962962962963],[0.16145833333333334,0.412962962962963],[0.16145833333333334,0.412962962962963],[0.16145833333333334,0.412962962962963]]","[[-0.019166666666666644,0.4155555555555555],[-0.019166666666666644,0.4155555555555555],[-0.0140625,0.38851851851851843],[-0.025833333333333285,0.40425925925925915],[-0.013854166666666619,0.41999999999999993],[-0.0018749999999999527,0.43574074074074065],[0.01864583333333331,0.41574074074074074],[0.03916666666666669,0.39574074074074084],[0.06583333333333338,0.37240740740740746],[0.09249999999999996,0.34685185185185174],[0.09562499999999995,0.3146296296296296],[0.10812499999999996,0.3224074074074075],[0.10791666666666658,0.34814814814814815],[0.11270833333333338,0.342962962962963],[0.121875,0.342962962962963],[0.1397916666666667,0.3405555555555555],[0.12895833333333329,0.34333333333333327],[0.11604166666666677,0.342962962962963],[0.08718750000000004,0.34037037037037027],[0.07072916666666676,0.33777777777777773],[0.06906249999999996,0.3387037037037037],[0.05802083333333338,0.2996296296296295],[0.05249999999999998,0.2742592592592593],[0.04614583333333329,0.277962962962963],[0.035104166666666714,0.23259259259259263],[0.027708333333333356,0.22685185185185186],[0.030416666666666713,0.2403703703703703],[0.035208333333333286,0.25703703703703695],[0.03822916666666672,0.24888888888888885],[0.0328125,0.24092592592592596],[0.025416666666666643,0.25333333333333324],[0.018020833333333285,0.2657407407407407],[0.02333333333333331,0.2994444444444445],[0.03583333333333331,0.3109259259259259],[0.04125000000000002,0.3322222222222222],[0.04125000000000002,0.3322222222222222],[0.02177083333333331,0.3072222222222222],[0.02177083333333331,0.3072222222222222],[-0.0034374999999999527,0.280925925925926],[-0.05239583333333329,0.2774074074074073],[-0.08666666666666671,0.29148148148148145],[-0.12354166666666669,0.30111111111111116],[-0.13500000000000004,0.3307407407407408],[-0.14645833333333336,0.3603703703703704],[-0.18718750000000003,0.3648148148148148],[-0.22791666666666663,0.36925925925925923],[-0.2665625,0.39814814814814814],[-0.28791666666666665,0.4222222222222222],[-0.3072916666666667,0.44722222222222224],[-0.278125,0.48111111111111104],[-0.278125,0.48111111111111104],[-0.26437499999999997,0.5231481481481481],[-0.24781249999999996,0.569074074074074],[-0.24593750000000003,0.5777777777777777],[-0.25499999999999995,0.5501851851851852],[-0.24750000000000003,0.5264814814814814],[-0.23531249999999998,0.5307407407407407],[-0.22312500000000005,0.5349999999999999],[-0.20843750000000003,0.5449999999999999],[-0.19895833333333332,0.5449999999999999],[-0.21156250000000001,0.5255555555555554],[-0.21156250000000001,0.5255555555555554],[-0.21156250000000001,0.47925925925925916],[-0.23302083333333337,0.4301851851851851],[-0.23947916666666663,0.40611111111111103],[-0.23500000000000001,0.4183333333333333],[-0.24145833333333327,0.4398148148148148],[-0.2526041666666667,0.43333333333333335],[-0.2591666666666666,0.3966666666666668],[-0.2730208333333334,0.36814814814814806],[-0.2816666666666666,0.34962962962962957],[-0.2838541666666667,0.34666666666666673],[-0.2846874999999999,0.37962962962962965],[-0.2733333333333333,0.4166666666666667],[-0.2876041666666667,0.4162962962962962],[-0.30187499999999995,0.415925925925926],[-0.29447916666666674,0.41722222222222216],[-0.28541666666666665,0.42666666666666664],[-0.28541666666666665,0.42666666666666664],[-0.29885416666666664,0.4366666666666666],[-0.29885416666666664,0.4366666666666666],[-0.2783333333333334,0.47851851851851845],[-0.2783333333333334,0.47851851851851845],[-0.2789583333333333,0.4994444444444445],[-0.2789583333333333,0.4994444444444445],[-0.28145833333333337,0.49611111111111106],[-0.29229166666666667,0.48555555555555563],[-0.29229166666666667,0.48555555555555563],[-0.29666666666666663,0.4698148148148149],[-0.2864583333333333,0.4898148148148148],[-0.28583333333333333,0.4685185185185185],[-0.2959375,0.43629629629629635],[-0.2959375,0.42592592592592593],[-0.27802083333333333,0.44518518518518513],[-0.29406249999999995,0.43259259259259264],[-0.2638541666666666,0.43074074074074076],[-0.2638541666666666,0.43074074074074076],[-0.24093749999999994,0.42537037037037045],[-0.21666666666666667,0.425],[-0.21666666666666667,0.425],[-0.19239583333333338,0.4246296296296295],[-0.15895833333333337,0.39814814814814814],[-0.12312500000000005,0.41722222222222216],[-0.08729166666666661,0.43629629629629635],[-0.05927083333333331,0.4024074074074073],[-0.033854166666666664,0.38203703703703695],[-0.01427083333333338,0.37462962962962953],[-0.009062500000000048,0.3622222222222223],[-0.03156249999999995,0.36925925925925923],[-0.04708333333333338,0.3785185185185185],[-0.049479166666666664,0.3838888888888888],[-0.06499999999999997,0.39203703703703713],[-0.07166666666666661,0.3838888888888888],[-0.07708333333333334,0.3701851851851851],[-0.08697916666666666,0.381111111111111],[-0.09427083333333333,0.3785185185185185],[-0.08135416666666669,0.3701851851851851],[-0.07916666666666666,0.37703703703703706],[-0.049270833333333285,0.36444444444444435],[-0.02010416666666662,0.3653703703703703],[-0.005208333333333333,0.3698148148148149],[0.010208333333333286,0.365925925925926],[0.016875000000000046,0.3492592592592593],[0.022291666666666644,0.3381481481481482],[0.0234375,0.3322222222222222],[0.024583333333333356,0.32629629629629636],[0.016666666666666666,0.3096296296296297],[0.021145833333333287,0.290925925925926],[0.013854166666666619,0.3109259259259259],[-0.002291666666666714,0.26851851851851855],[-0.021875,0.22777777777777777],[-0.041979166666666616,0.19537037037037036],[-0.04572916666666664,0.1905555555555555],[-0.049479166666666664,0.18574074074074065],[-0.03812500000000003,0.18796296296296297],[-0.02677083333333338,0.19018518518518526],[-0.03729166666666662,0.18000000000000008],[-0.06020833333333329,0.17185185185185176],[-0.07541666666666665,0.11462962962962958],[-0.08104166666666662,0.10629629629629625],[-0.07406250000000002,0.13648148148148156],[-0.06708333333333331,0.16666666666666666],[-0.06739583333333338,0.1816666666666667],[-0.06760416666666665,0.18203703703703694],[-0.07947916666666661,0.1685185185185185],[-0.09322916666666667,0.13740740740740748],[-0.08218749999999998,0.14296296296296304],[-0.07062499999999995,0.14981481481481476],[-0.09166666666666666,0.1742592592592593],[-0.11083333333333331,0.19037037037037027],[-0.14281250000000004,0.18907407407407412],[-0.16979166666666667,0.18629629629629635],[-0.19874999999999995,0.2116666666666666],[-0.22781250000000006,0.25166666666666665],[-0.2543750000000001,0.29444444444444445],[-0.2790625,0.35481481481481486],[-0.2790625,0.35481481481481486],[-0.2990625,0.39462962962962966],[-0.3180208333333333,0.4329629629629629],[-0.3180208333333333,0.4329629629629629],[-0.296875,0.4772222222222223],[-0.284375,0.5138888888888888],[-0.2856250000000001,0.5050000000000001],[-0.29187500000000005,0.4975925925925927],[-0.27281249999999996,0.5127777777777778],[-0.27281249999999996,0.5127777777777778],[-0.25375000000000003,0.527962962962963],[-0.25375000000000003,0.527962962962963],[-0.24479166666666666,0.5201851851851852],[-0.21989583333333335,0.4800000000000001],[-0.19260416666666663,0.4596296296296297],[-0.16687500000000005,0.43944444444444436],[-0.16020833333333329,0.38925925925925936],[-0.14677083333333332,0.3550000000000001],[-0.11343749999999998,0.3475925925925927],[-0.08010416666666664,0.34018518518518526],[-0.06697916666666662,0.30037037037037045],[-0.05385416666666672,0.26055555555555565],[-0.025729166666666713,0.2272222222222223],[-0.013541666666666667,0.22629629629629638],[-0.0203125,0.20407407407407416],[-0.027083333333333334,0.18185185185185193],[-0.020624999999999952,0.19499999999999992],[-0.01416666666666669,0.2081481481481481],[-0.014791666666666713,0.21796296296296305],[-0.019687499999999976,0.23740740740740748],[-0.014374999999999952,0.2242592592592593],[-0.0046875,0.21370370370370367],[-0.005729166666666666,0.2162962962962962],[-0.0067708333333333336,0.21888888888888897],[-0.004166666666666667,0.22277777777777769],[0.0034374999999999527,0.21351851851851844],[0.004375000000000047,0.18092592592592602],[0.004375000000000047,0.18092592592592602],[0.01083333333333331,0.1633333333333334],[0.03854166666666667,0.15129629629629637],[0.06645833333333329,0.14722222222222223],[0.06645833333333329,0.14722222222222223],[0.07906250000000009,0.1698148148148149],[0.07906250000000009,0.1698148148148149],[0.08114583333333343,0.19981481481481478],[0.08114583333333343,0.19981481481481478],[0.08489583333333334,0.20925925925925926],[0.08489583333333334,0.20925925925925926],[0.10458333333333343,0.2131481481481482],[0.10458333333333343,0.2131481481481482],[0.11666666666666667,0.2125925925925925],[0.11666666666666667,0.2125925925925925],[0.12072916666666676,0.2361111111111111],[0.12999999999999995,0.28592592592592586],[0.128125,0.290925925925926],[0.11072916666666661,0.29000000000000004],[0.096875,0.28851851851851845],[0.08302083333333338,0.28703703703703703],[0.08302083333333338,0.28703703703703703],[0.07531249999999995,0.2755555555555555],[0.07531249999999995,0.2755555555555555],[0.07729166666666672,0.297037037037037],[0.07729166666666672,0.297037037037037],[0.04822916666666662,0.3148148148148148],[0.04822916666666662,0.3148148148148148],[0.04604166666666672,0.3557407407407408],[0.05166666666666669,0.37814814814814823],[0.06114583333333338,0.3790740740740742],[0.06729166666666657,0.39092592592592595],[0.0734375,0.4027777777777778],[0.05364583333333333,0.415925925925926],[0.04770833333333328,0.4016666666666666],[0.04666666666666662,0.40907407407407403],[0.04791666666666667,0.39740740740740743],[0.057395833333333354,0.38944444444444437],[0.036249999999999956,0.3581481481481481],[0.011041666666666691,0.35481481481481486],[-0.01416666666666669,0.3514814814814814],[-0.019166666666666644,0.34388888888888897],[-0.010208333333333286,0.34444444444444444],[0.01854166666666662,0.3103703703703704],[0.03343750000000002,0.3037037037037037],[0.043437500000000046,0.27537037037037043],[0.03270833333333331,0.26888888888888896],[0.03729166666666662,0.29740740740740745],[0.03729166666666662,0.29740740740740745],[0.05322916666666669,0.33055555555555555],[0.05322916666666669,0.33055555555555555],[0.06729166666666657,0.32259259259259265],[0.08447916666666658,0.3205555555555556],[0.09166666666666666,0.36129629629629634],[0.08010416666666677,0.38000000000000006],[0.1053124999999999,0.40018518518518525],[0.13052083333333328,0.4203703703703704],[0.12979166666666658,0.4594444444444445],[0.13739583333333344,0.47925925925925916],[0.13312499999999997,0.465],[0.12885416666666671,0.4507407407407407],[0.15270833333333325,0.4537037037037037],[0.15364583333333334,0.467962962962963],[0.15364583333333334,0.467962962962963],[0.15697916666666673,0.4346296296296297],[0.1694791666666667,0.42962962962962964],[0.15187499999999995,0.43944444444444436],[0.1109375,0.43425925925925923],[0.11624999999999991,0.4198148148148149],[0.10458333333333343,0.39944444444444455],[0.09770833333333329,0.3831481481481481],[0.09447916666666671,0.37518518518518523],[0.08197916666666671,0.36074074074074064],[0.08624999999999995,0.34592592592592586],[0.08687500000000009,0.35907407407407405],[0.07364583333333338,0.34888888888888886],[0.07364583333333338,0.34888888888888886],[0.07583333333333328,0.3183333333333333],[0.11489583333333328,0.3077777777777779],[0.09104166666666676,0.3616666666666666],[0.08760416666666657,0.42611111111111116],[0.08875000000000005,0.45981481481481473],[0.11083333333333342,0.42907407407407416],[0.0896874999999999,0.44814814814814813],[0.06666666666666667,0.4579629629629629],[0.06666666666666667,0.4579629629629629],[0.07312500000000005,0.45555555555555555],[0.07312500000000005,0.45555555555555555],[0.06843750000000005,0.4324074074074074],[0.036666666666666715,0.4192592592592592],[-0.008645833333333287,0.40111111111111114],[-0.003333333333333381,0.33666666666666656],[0.001979166666666643,0.2722222222222222],[0.0013541666666666192,0.2390740740740741],[-0.024270833333333287,0.22296296296296292],[-0.016979166666666618,0.1742592592592593],[-0.004791666666666691,0.11796296296296305],[-0.022083333333333382,0.07388888888888885],[-0.0046875,0.06703703703703712],[0.029375000000000047,0.06759259259259259],[0.06343749999999998,0.06814814814814807],[0.08760416666666657,0.06351851851851843],[0.11177083333333329,0.0588888888888888],[0.1428124999999999,0.02907407407407416],[0.1742708333333333,0.03833333333333342],[0.1742708333333333,0.03833333333333342],[0.19947916666666668,0.04259259259259259],[0.22166666666666662,0.06462962962962959],[0.24385416666666657,0.08666666666666659],[0.24187500000000003,0.057037037037036956],[0.23489583333333333,0.03037037037037033],[0.23447916666666657,0.01703703703703712],[0.23291666666666658,-0.03759259259259251],[0.2287499999999999,-0.08703703703703704],[0.21416666666666656,-0.11092592592592589],[0.22197916666666656,-0.12666666666666662],[0.22864583333333333,-0.14462962962962966],[0.23833333333333329,-0.18037037037037032],[0.22770833333333323,-0.22685185185185186],[0.2271874999999999,-0.22925925925925927],[0.22729166666666673,-0.22592592592592592],[0.240625,-0.24814814814814815],[0.2569791666666667,-0.25166666666666665],[0.2569791666666667,-0.25166666666666665],[0.2599999999999999,-0.24833333333333338],[0.2599999999999999,-0.24833333333333338],[0.2439583333333334,-0.247037037037037],[0.2439583333333334,-0.247037037037037],[0.21083333333333343,-0.24981481481481477],[0.21083333333333343,-0.24981481481481477],[0.1951041666666666,-0.28166666666666673],[0.1951041666666666,-0.28166666666666673],[0.17572916666666671,-0.27555555555555555],[0.17572916666666671,-0.27555555555555555],[0.18552083333333325,-0.297037037037037],[0.18552083333333325,-0.297037037037037],[0.1961458333333333,-0.2846296296296296],[0.2009375000000001,-0.29388888888888887],[0.1859375,-0.290925925925926],[0.16895833333333338,-0.2727777777777778],[0.16791666666666671,-0.26666666666666666],[0.18947916666666675,-0.2588888888888889],[0.20750000000000005,-0.2548148148148149],[0.20812499999999995,-0.22166666666666665],[0.23291666666666658,-0.24574074074074073],[0.22489583333333343,-0.22870370370370371],[0.22489583333333343,-0.22870370370370371],[0.21604166666666677,-0.2455555555555556],[0.22177083333333342,-0.22962962962962963],[0.2375,-0.21629629629629632],[0.2375,-0.21629629629629632],[0.2552083333333333,-0.21814814814814817],[0.2546875,-0.22759259259259254],[0.26583333333333337,-0.23481481481481484],[0.27625000000000005,-0.24666666666666665],[0.2877083333333334,-0.23592592592592587],[0.2709374999999999,-0.2212962962962963],[0.29104166666666675,-0.20759259259259263],[0.3069791666666667,-0.19277777777777783],[0.3069791666666667,-0.19277777777777783],[0.3240624999999999,-0.2088888888888889],[0.2915625000000001,-0.21203703703703702],[0.25906250000000003,-0.21518518518518517],[0.25322916666666656,-0.23351851851851857],[0.23572916666666663,-0.25407407407407406],[0.21687500000000004,-0.2596296296296296],[0.18458333333333338,-0.28111111111111114],[0.1599999999999999,-0.28722222222222227],[0.1599999999999999,-0.28722222222222227],[0.14958333333333323,-0.28407407407407403],[0.16124999999999995,-0.2831481481481481],[0.1056250000000001,-0.2733333333333334],[0.08958333333333333,-0.27518518518518525],[0.1009375000000001,-0.2788888888888889],[0.10385416666666672,-0.25981481481481483],[0.10385416666666672,-0.25981481481481483],[0.12468750000000005,-0.2535185185185185],[0.12270833333333328,-0.23925925925925923],[0.12270833333333328,-0.23925925925925923],[0.13312499999999997,-0.23166666666666672],[0.13531250000000009,-0.23259259259259263],[0.11531250000000005,-0.2433333333333333],[0.07739583333333329,-0.252962962962963],[0.12541666666666676,-0.22888888888888892],[0.12541666666666676,-0.22888888888888892],[0.1734375,-0.2035185185185185],[0.18875000000000006,-0.16370370370370366],[0.2046875,-0.14333333333333328],[0.20270833333333324,-0.11018518518518519],[0.22385416666666677,-0.09574074074074072],[0.22385416666666677,-0.09574074074074072],[0.19729166666666675,-0.07759259259259255],[0.16041666666666668,-0.062037037037037036],[0.14572916666666677,0.007407407407407408],[0.1310416666666666,0.07685185185185185],[0.1310416666666666,0.07685185185185185],[0.06947916666666672,0.06925925925925921],[0.008645833333333287,0.04981481481481477],[-0.049374999999999974,0.008703703703703788],[-0.10979166666666665,0.00592592592592601],[-0.17020833333333332,0.0031481481481482323],[-0.2345833333333334,0.005740740740740783],[-0.25125000000000003,0.004629629629629629],[-0.23541666666666666,0.0294444444444444],[-0.23541666666666666,0.0294444444444444],[-0.26020833333333326,-0.0338888888888888],[-0.29010416666666666,-0.06574074074074074],[-0.3007291666666667,-0.04740740740740745],[-0.3120833333333334,-0.01722222222222214],[-0.3232291666666666,0.018518518518518517],[-0.33260416666666665,0.03537037037037041],[-0.32312500000000005,0.03092592592592601]]","[[-0.019166666666666644,0.4155555555555555,0.0003000001907338401],[-0.019166666666666644,0.4155555555555555,0.04870000028608956],[-0.0140625,0.38851851851851843,0.060100000381467567],[-0.025833333333333285,0.40425925925925915,0.07690000009536391],[-0.013854166666666619,0.41999999999999993,0.09510000038146416],[-0.0018749999999999527,0.43574074074074065,0.11030000019073327],[0.01864583333333331,0.41574074074074074,0.12690000009536107],[0.03916666666666669,0.39574074074074084,0.14360000038146836],[0.06583333333333338,0.37240740740740746,0.16020000028609616],[0.09249999999999996,0.34685185185185174,0.17680000019072395],[0.09562499999999995,0.3146296296296296,0.19350000000000023],[0.10812499999999996,0.3224074074074075,0.2107000002860957],[0.10791666666666658,0.34814814814814815,0.22690000009535538],[0.11270833333333338,0.342962962962963,0.24349999999999739],[0.121875,0.342962962962963,0.26020000028609047],[0.1397916666666667,0.3405555555555555,0.27690000009536675],[0.12895833333333329,0.34333333333333327,0.29360000038145984],[0.11604166666666677,0.342962962962963,0.31020000028610184],[0.08718750000000004,0.34037037037037027,0.32680000019072963],[0.07072916666666676,0.33777777777777773,0.3434999999999917],[0.06906249999999996,0.3387037037037037,0.360200000286099],[0.05802083333333338,0.2996296296296295,0.3768000001907268],[0.05249999999999998,0.2742592592592593,0.39349999999998886],[0.04614583333333329,0.277962962962963,0.41030000019073043],[0.035104166666666714,0.23259259259259263,0.4269000000953582],[0.027708333333333356,0.22685185185185186,0.4436000003814655],[0.030416666666666713,0.2403703703703703,0.46090000009536425],[0.035208333333333286,0.25703703703703695,0.4769000000953554],[0.03822916666666672,0.24888888888888885,0.49370000028609695],[0.0328125,0.24092592592592596,0.5102000002860905],[0.025416666666666643,0.25333333333333324,0.5269000000953667],[0.018020833333333285,0.2657407407407407,0.5434999999999945],[0.02333333333333331,0.2994444444444445,0.5602000002861018],[0.03583333333333331,0.3109259259259259,0.5774999999999864],[0.04125000000000002,0.3322222222222222,0.593600000381457],[0.04125000000000002,0.3322222222222222,0.6103000001907333],[0.02177083333333331,0.3072222222222222,0.6269999999999953],[0.02177083333333331,0.3072222222222222,0.6436000003814684],[-0.0034374999999999527,0.280925925925926,0.6602000002860962],[-0.05239583333333329,0.2774074074074073,0.676800000190724],[-0.08666666666666671,0.29148148148148145,0.6936000003814655],[-0.12354166666666669,0.30111111111111116,0.7102000002860933],[-0.13500000000000004,0.3307407407407408,0.7268000001907211],[-0.14645833333333336,0.3603703703703704,0.7436000003814627],[-0.18718750000000003,0.3648148148148148,0.7602000002860905],[-0.22791666666666663,0.36925925925925923,0.7768000001907325],[-0.2665625,0.39814814814814814,0.7934999999999945],[-0.28791666666666665,0.4222222222222222,0.8102000002861018],[-0.3072916666666667,0.44722222222222224,0.8268000001907296],[-0.278125,0.48111111111111104,0.8434999999999917],[-0.278125,0.48111111111111104,0.8601000003814647],[-0.26437499999999997,0.5231481481481481,0.8769000000953611],[-0.24781249999999996,0.569074074074074,0.8934999999999889],[-0.24593750000000003,0.5777777777777777,0.9102000002860962],[-0.25499999999999995,0.5501851851851852,0.926800000190724],[-0.24750000000000003,0.5264814814814814,0.9438000001907341],[-0.23531249999999998,0.5307407407407407,0.9604000000953619],[-0.22312500000000005,0.5349999999999999,0.9769000000953554],[-0.20843750000000003,0.5449999999999999,0.9953000001907242],[-0.19895833333333332,0.5449999999999999,1.0102000002860905],[-0.21156250000000001,0.5255555555555554,1.0269000000953667],[-0.21156250000000001,0.5255555555555554,1.0434999999999945],[-0.21156250000000001,0.47925925925925916,1.0602000002861018],[-0.23302083333333337,0.4301851851851851,1.0771000003814635],[-0.23947916666666663,0.40611111111111103,1.0934999999999917],[-0.23500000000000001,0.4183333333333333,1.1104000000953675],[-0.24145833333333327,0.4398148148148148,1.126900000095361],[-0.2526041666666667,0.43333333333333335,1.1434999999999889],[-0.2591666666666666,0.3966666666666668,1.1602000002860962],[-0.2730208333333334,0.36814814814814806,1.1769999999999925],[-0.2816666666666666,0.34962962962962957,1.1936000003814655],[-0.2838541666666667,0.34666666666666673,1.2103000001907276],[-0.2846874999999999,0.37962962962962965,1.226800000190721],[-0.2733333333333333,0.4166666666666667,1.2434999999999974],[-0.2876041666666667,0.4162962962962962,1.2602000002860905],[-0.30187499999999995,0.415925925925926,1.2769000000953667],[-0.29447916666666674,0.41722222222222216,1.2986000003814695],[-0.28541666666666665,0.42666666666666664,1.3154000000953658],[-0.28541666666666665,0.42666666666666664,1.3268000001907296],[-0.29885416666666664,0.4366666666666666,1.3434999999999917],[-0.29885416666666664,0.4366666666666666,1.360200000286099],[-0.2783333333333334,0.47851851851851845,1.376900000095361],[-0.2783333333333334,0.47851851851851845,1.3936000003814684],[-0.2789583333333333,0.4994444444444445,1.4104000000953647],[-0.2789583333333333,0.4994444444444445,1.4269000000953582],[-0.28145833333333337,0.49611111111111106,1.4436000003814655],[-0.29229166666666667,0.48555555555555563,1.4656000003814569],[-0.29229166666666667,0.48555555555555563,1.4769999999999897],[-0.29666666666666663,0.4698148148148149,1.4936000003814627],[-0.2864583333333333,0.4898148148148148,1.5102000002860905],[-0.28583333333333333,0.4685185185185185,1.5268000001907325],[-0.2959375,0.43629629629629635,1.5434999999999945],[-0.2959375,0.42592592592592593,1.5602000002861018],[-0.27802083333333333,0.44518518518518513,1.5768000001907296],[-0.29406249999999995,0.43259259259259264,1.5952000002860984],[-0.2638541666666666,0.43074074074074076,1.610200000286099],[-0.2638541666666666,0.43074074074074076,1.626900000095361],[-0.24093749999999994,0.42537037037037045,1.6437000002860884],[-0.21666666666666667,0.425,1.6648000001907235],[-0.21666666666666667,0.425,1.676800000190724],[-0.19239583333333338,0.4246296296296295,1.6936000003814655],[-0.15895833333333337,0.39814814814814814,1.7102000002860933],[-0.12312500000000005,0.41722222222222216,1.7269000000953554],[-0.08729166666666661,0.43629629629629635,1.7434999999999974],[-0.05927083333333331,0.4024074074074073,1.7602000002860905],[-0.033854166666666664,0.38203703703703695,1.7772000002861006],[-0.01427083333333338,0.37462962962962953,1.7934999999999945],[-0.009062500000000048,0.3622222222222223,1.8114999999999952],[-0.03156249999999995,0.36925925925925923,1.826900000095364],[-0.04708333333333338,0.3785185185185185,1.8457000002861008],[-0.049479166666666664,0.3838888888888888,1.8601000003814647],[-0.06499999999999997,0.39203703703703713,1.8771000003814606],[-0.07166666666666661,0.3838888888888888,1.8938000001907227],[-0.07708333333333334,0.3701851851851851,1.9141000003814668],[-0.08697916666666666,0.381111111111111,1.9297000002860898],[-0.09427083333333333,0.3785185185185185,1.946400000095366],[-0.08135416666666669,0.3701851851851851,1.9604999999999961],[-0.07916666666666666,0.37703703703703706,1.9769000000953554],[-0.049270833333333285,0.36444444444444435,1.9934999999999974],[-0.02010416666666662,0.3653703703703703,2.0102000002860905],[-0.005208333333333333,0.3698148148148149,2.0272000002861006],[0.010208333333333286,0.365925925925926,2.0482000002861014],[0.016875000000000046,0.3492592592592593,2.063999999999993],[0.022291666666666644,0.3381481481481482,2.079200000286093],[0.0234375,0.3322222222222222,2.0963000001907233],[0.024583333333333356,0.32629629629629636,2.1104000000953675],[0.016666666666666666,0.3096296296296297,2.126800000190727],[0.021145833333333287,0.290925925925926,2.1437000002860884],[0.013854166666666619,0.3109259259259259,2.160200000286096],[-0.002291666666666714,0.26851851851851855,2.176800000190724],[-0.021875,0.22777777777777777,2.195600000381461],[-0.041979166666666616,0.19537037037037036,2.2102000002860933],[-0.04572916666666664,0.1905555555555555,2.2269000000953554],[-0.049479166666666664,0.18574074074074065,2.2434999999999974],[-0.03812500000000003,0.18796296296296297,2.2602000002860905],[-0.02677083333333338,0.19018518518518526,2.2768000001907325],[-0.03729166666666662,0.18000000000000008,2.295100000381467],[-0.06020833333333329,0.17185185185185176,2.3116000003814605],[-0.07541666666666665,0.11462962962962958,2.3268000001907296],[-0.08104166666666662,0.10629629629629625,2.343600000381457],[-0.07406250000000002,0.13648148148148156,2.3601000003814647],[-0.06708333333333331,0.16666666666666666,2.376900000095361],[-0.06739583333333338,0.1816666666666667,2.396499999999989],[-0.06760416666666665,0.18203703703703694,2.4106000003814643],[-0.07947916666666661,0.1685185185185185,2.426800000190724],[-0.09322916666666667,0.13740740740740748,2.4435000000000002],[-0.08218749999999998,0.14296296296296304,2.4606000003814614],[-0.07062499999999995,0.14981481481481476,2.4769999999999897],[-0.09166666666666666,0.1742592592592593,2.499300000190729],[-0.11083333333333331,0.19037037037037027,2.5139000000953615],[-0.14281250000000004,0.18907407407407412,2.5294000000953645],[-0.16979166666666667,0.18629629629629635,2.5453000001907213],[-0.19874999999999995,0.2116666666666666,2.562100000381463],[-0.22781250000000006,0.25166666666666665,2.5768000001907296],[-0.2543750000000001,0.29444444444444445,2.5934999999999917],[-0.2790625,0.35481481481481486,2.6122000002860943],[-0.2790625,0.35481481481481486,2.626900000095361],[-0.2990625,0.39462962962962966,2.6436000003814684],[-0.3180208333333333,0.4329629629629629,2.664200000286101],[-0.3180208333333333,0.4329629629629629,2.676800000190724],[-0.296875,0.4772222222222223,2.6937000002861],[-0.284375,0.5138888888888888,2.710100000381459],[-0.2856250000000001,0.5050000000000001,2.7269000000953554],[-0.29187500000000005,0.4975925925925927,2.7436000003814627],[-0.27281249999999996,0.5127777777777778,2.7649999999999864],[-0.27281249999999996,0.5127777777777778,2.782200000286096],[-0.25375000000000003,0.527962962962963,2.79549999999999],[-0.25375000000000003,0.527962962962963,2.810200000286102],[-0.24479166666666666,0.5201851851851852,2.8268000001907296],[-0.21989583333333335,0.4800000000000001,2.8434999999999917],[-0.19260416666666663,0.4596296296296297,2.8601000003814647],[-0.16687500000000005,0.43944444444444436,2.8769999999999953],[-0.16020833333333329,0.38925925925925936,2.89530000019073],[-0.14677083333333332,0.3550000000000001,2.910200000286096],[-0.11343749999999998,0.3475925925925927,2.926800000190724],[-0.08010416666666664,0.34018518518518526,2.9435000000000002],[-0.06697916666666662,0.30037037037037045,2.9602000002860933],[-0.05385416666666672,0.26055555555555565,2.976800000190721],[-0.025729166666666713,0.2272222222222223,2.9934999999999974],[-0.013541666666666667,0.22629629629629638,3.0102000002860905],[-0.0203125,0.20407407407407416,3.0269000000953667],[-0.027083333333333334,0.18185185185185193,3.0434999999999945],[-0.020624999999999952,0.19499999999999992,3.060200000286102],[-0.01416666666666669,0.2081481481481481,3.0768000001907296],[-0.014791666666666713,0.21796296296296305,3.0934000000953574],[-0.019687499999999976,0.23740740740740748,3.110200000286099],[-0.014374999999999952,0.2242592592592593,3.1271000003814606],[-0.0046875,0.21370370370370367,3.143499999999989],[-0.005729166666666666,0.2162962962962962,3.160200000286096],[-0.0067708333333333336,0.21888888888888897,3.1769000000953582],[-0.004166666666666667,0.22277777777777769,3.1951000003814585],[0.0034374999999999527,0.21351851851851844,3.2102000002860933],[0.004375000000000047,0.18092592592592602,3.2269999999999897],[0.004375000000000047,0.18092592592592602,3.2436000003814627],[0.01083333333333331,0.1633333333333334,3.2603000001907247],[0.03854166666666667,0.15129629629629637,3.2789999999999964],[0.06645833333333329,0.14722222222222223,3.298900000095358],[0.06645833333333329,0.14722222222222223,3.310200000286102],[0.07906250000000009,0.1698148148148149,3.326900000095364],[0.07906250000000009,0.1698148148148149,3.3434999999999917],[0.08114583333333343,0.19981481481481478,3.360200000286099],[0.08114583333333343,0.19981481481481478,3.376800000190727],[0.08489583333333334,0.20925925925925926,3.3936000003814684],[0.08489583333333334,0.20925925925925926,3.410100000381462],[0.10458333333333343,0.2131481481481482,3.426800000190724],[0.10458333333333343,0.2131481481481482,3.4435000000000002],[0.11666666666666667,0.2125925925925925,3.4602000002860933],[0.11666666666666667,0.2125925925925925,3.4769000000953554],[0.12072916666666676,0.2361111111111111,3.4938000001907312],[0.12999999999999995,0.28592592592592586,3.510100000381456],[0.128125,0.290925925925926,3.5268000001907325],[0.11072916666666661,0.29000000000000004,3.5434999999999945],[0.096875,0.28851851851851845,3.560300000190722],[0.08302083333333338,0.28703703703703703,3.576900000095364],[0.08302083333333338,0.28703703703703703,3.5934000000953574],[0.07531249999999995,0.2755555555555555,3.610200000286099],[0.07531249999999995,0.2755555555555555,3.627200000286095],[0.07729166666666672,0.297037037037037,3.6436000003814684],[0.07729166666666672,0.297037037037037,3.664200000286101],[0.04822916666666662,0.3148148148148148,3.6769000000953582],[0.04822916666666662,0.3148148148148148,3.6935000000000002],[0.04604166666666672,0.3557407407407408,3.7102000002860933],[0.05166666666666669,0.37814814814814823,3.7269000000953554],[0.06114583333333338,0.3790740740740742,3.7434999999999974],[0.06729166666666657,0.39092592592592595,3.7603000001907247],[0.0734375,0.4027777777777778,3.7784000000953597],[0.05364583333333333,0.415925925925926,3.7961000003814576],[0.04770833333333328,0.4016666666666666,3.81060000038147],[0.04666666666666662,0.40907407407407403,3.8268000001907296],[0.04791666666666667,0.39740740740740743,3.8434000000953574],[0.057395833333333354,0.38944444444444437,3.860200000286099],[0.036249999999999956,0.3581481481481481,3.876900000095361],[0.011041666666666691,0.35481481481481486,3.8938000001907227],[-0.01416666666666669,0.3514814814814814,3.910100000381462],[-0.019166666666666644,0.34388888888888897,3.9269000000953582],[-0.010208333333333286,0.34444444444444444,3.944600000381456],[0.01854166666666662,0.3103703703703704,3.9602000002860933],[0.03343750000000002,0.3037037037037037,3.976800000190721],[0.043437500000000046,0.27537037037037043,3.994100000381465],[0.03270833333333331,0.26888888888888896,4.013200000286091],[0.03729166666666662,0.29740740740740745,4.029100000381462],[0.03729166666666662,0.29740740740740745,4.043800000190728],[0.05322916666666669,0.33055555555555555,4.060400000095356],[0.05322916666666669,0.33055555555555555,4.0807000002861],[0.06729166666666657,0.32259259259259265,4.093700000286091],[0.08447916666666658,0.3205555555555556,4.11210000038146],[0.09166666666666666,0.36129629629629634,4.132400000095359],[0.08010416666666677,0.38000000000000006,4.146900000095357],[0.1053124999999999,0.40018518518518525,4.16240000009536],[0.13052083333333328,0.4203703703703704,4.178900000095354],[0.12979166666666658,0.4594444444444445,4.196900000095354],[0.13739583333333344,0.47925925925925916,4.211800000190735],[0.13312499999999997,0.465,4.227100000381469],[0.12885416666666671,0.4507407407407407,4.247400000095354],[0.15270833333333325,0.4537037037037037,4.262499999999989],[0.15364583333333334,0.467962962962963,4.282400000095365],[0.15364583333333334,0.467962962962963,4.29360000038146],[0.15697916666666673,0.4346296296296297,4.313400000095356],[0.1694791666666667,0.42962962962962964,4.328800000190725],[0.15187499999999995,0.43944444444444436,4.343999999999994],[0.1109375,0.43425925925925923,4.3604000000953675],[0.11624999999999991,0.4198148148148149,4.379800000190727],[0.10458333333333343,0.39944444444444455,4.396800000190723],[0.09770833333333329,0.3831481481481481,4.412499999999994],[0.09447916666666671,0.37518518518518523,4.4314000000953655],[0.08197916666666671,0.36074074074074064,4.447300000190722],[0.08624999999999995,0.34592592592592586,4.462600000381457],[0.08687500000000009,0.35907407407407405,4.477700000286092],[0.07364583333333338,0.34888888888888886,4.502600000381463],[0.07364583333333338,0.34888888888888886,4.510300000190725],[0.07583333333333328,0.3183333333333333,4.526999999999987],[0.11489583333333328,0.3077777777777779,4.5479000000953675],[0.09104166666666676,0.3616666666666666,4.563300000190722],[0.08760416666666657,0.42611111111111116,4.5789999999999935],[0.08875000000000005,0.45981481481481473,4.597900000095365],[0.11083333333333342,0.42907407407407416,4.61420000028609],[0.0896874999999999,0.44814814814814813,4.630700000286097],[0.06666666666666667,0.4579629629629629,4.650999999999996],[0.06666666666666667,0.4579629629629629,4.6614999999999895],[0.07312500000000005,0.45555555555555555,4.677100000381458],[0.07312500000000005,0.45555555555555555,4.6935],[0.06843750000000005,0.4324074074074074,4.710100000381459],[0.036666666666666715,0.4192592592592592,4.726800000190721],[-0.008645833333333287,0.40111111111111114,4.746300000190729],[-0.003333333333333381,0.33666666666666656,4.763400000095359],[0.001979166666666643,0.2722222222222222,4.778200000286091],[0.0013541666666666192,0.2390740740740741,4.7979000000953675],[-0.024270833333333287,0.22296296296296292,4.814400000095361],[-0.016979166666666618,0.1742592592592593,4.8289999999999935],[-0.004791666666666691,0.11796296296296305,4.843700000286091],[-0.022083333333333382,0.07388888888888885,4.862700000286097],[-0.0046875,0.06703703703703712,4.879400000095359],[0.029375000000000047,0.06759259259259259,4.896300000190735],[0.06343749999999998,0.06814814814814807,4.914900000095358],[0.08760416666666657,0.06351851851851843,4.92949999999999],[0.11177083333333329,0.0588888888888888,4.945400000095361],[0.1428124999999999,0.02907407407407416,4.960900000095364],[0.1742708333333333,0.03833333333333342,4.981900000095365],[0.1742708333333333,0.03833333333333342,4.993700000286097],[0.19947916666666668,0.04259259259259259,5.010300000190725],[0.22166666666666662,0.06462962962962959,5.027300000190735],[0.24385416666666657,0.08666666666666659,5.047100000381462],[0.24187500000000003,0.057037037037036956,5.0623000001907315],[0.23489583333333333,0.03037037037037033,5.076999999999998],[0.23447916666666657,0.01703703703703712,5.097499999999997],[0.23291666666666658,-0.03759259259259251,5.115700000286097],[0.2287499999999999,-0.08703703703703704,5.130400000095364],[0.21416666666666656,-0.11092592592592589,5.146400000095355],[0.22197916666666656,-0.12666666666666662,5.16260000038146],[0.22864583333333333,-0.14462962962962966,5.177300000190726],[0.23833333333333329,-0.18037037037037032,5.1935],[0.22770833333333323,-0.22685185185185186,5.210100000381459],[0.2271874999999999,-0.22925925925925927,5.22999999999999],[0.22729166666666673,-0.22592592592592592,5.246400000095363],[0.240625,-0.24814814814814815,5.262300000190734],[0.2569791666666667,-0.25166666666666665,5.281900000095362],[0.2569791666666667,-0.25166666666666665,5.29360000038146],[0.2599999999999999,-0.24833333333333338,5.310400000095356],[0.2599999999999999,-0.24833333333333338,5.326900000095364],[0.2439583333333334,-0.247037037037037,5.348700000286101],[0.2439583333333334,-0.247037037037037,5.360300000190733],[0.21083333333333343,-0.24981481481481477,5.376999999999995],[0.21083333333333343,-0.24981481481481477,5.399400000095355],[0.1951041666666666,-0.28166666666666673,5.410200000286096],[0.1951041666666666,-0.28166666666666673,5.426800000190724],[0.17572916666666671,-0.27555555555555555,5.446900000095354],[0.17572916666666671,-0.27555555555555555,5.460100000381459],[0.18552083333333325,-0.297037037037037,5.47699999999999],[0.18552083333333325,-0.297037037037037,5.493800000190731],[0.1961458333333333,-0.2846296296296296,5.510100000381456],[0.2009375000000001,-0.29388888888888887,5.528600000381459],[0.1859375,-0.290925925925926,5.545400000095356],[0.16895833333333338,-0.2727777777777778,5.5604999999999905],[0.16791666666666671,-0.26666666666666666,5.578700000286091],[0.18947916666666675,-0.2588888888888889,5.593999999999994],[0.20750000000000005,-0.2548148148148149,5.612200000286094],[0.20812499999999995,-0.22166666666666665,5.630900000095366],[0.23291666666666658,-0.24574074074074073,5.64830000019073],[0.22489583333333343,-0.22870370370370371,5.6648000001907235],[0.22489583333333343,-0.22870370370370371,5.676900000095358],[0.21604166666666677,-0.2455555555555556,5.6935],[0.22177083333333342,-0.22962962962962963,5.711999999999989],[0.2375,-0.21629629629629632,5.726800000190721],[0.2375,-0.21629629629629632,5.743499999999997],[0.2552083333333333,-0.21814814814814817,5.760100000381456],[0.2546875,-0.22759259259259254,5.776900000095367],[0.26583333333333337,-0.23481481481481484,5.793800000190728],[0.27625000000000005,-0.24666666666666665,5.811999999999998],[0.2877083333333334,-0.23592592592592587,5.827200000286098],[0.2709374999999999,-0.2212962962962963,5.846200000286089],[0.29104166666666675,-0.20759259259259263,5.8626000003814625],[0.3069791666666667,-0.19277777777777783,5.8782000002861],[0.3069791666666667,-0.19277777777777783,5.893499999999989],[0.3240624999999999,-0.2088888888888889,5.910100000381462],[0.2915625000000001,-0.21203703703703702,5.927300000190726],[0.25906250000000003,-0.21518518518518517,5.9436000003814655],[0.25322916666666656,-0.23351851851851857,5.961499999999987],[0.23572916666666663,-0.25407407407407406,5.977200000286089],[0.21687500000000004,-0.2596296296296296,5.995499999999993],[0.18458333333333338,-0.28111111111111114,6.010400000095359],[0.1599999999999999,-0.28722222222222227,6.0268000001907325],[0.1599999999999999,-0.28722222222222227,6.0434999999999945],[0.14958333333333323,-0.28407407407407403,6.060200000286102],[0.16124999999999995,-0.2831481481481481,6.079400000095362],[0.1056250000000001,-0.2733333333333334,6.096499999999992],[0.08958333333333333,-0.27518518518518525,6.111999999999995],[0.1009375000000001,-0.2788888888888889,6.126800000190727],[0.10385416666666672,-0.25981481481481483,6.143900000095357],[0.10385416666666672,-0.25981481481481483,6.160200000286096],[0.12468750000000005,-0.2535185185185185,6.176900000095358],[0.12270833333333328,-0.23925925925925923,6.199300000190732],[0.12270833333333328,-0.23925925925925923,6.210200000286093],[0.13312499999999997,-0.23166666666666672,6.226800000190721],[0.13531250000000009,-0.23259259259259263,6.246200000286095],[0.11531250000000005,-0.2433333333333333,6.262400000095354],[0.07739583333333329,-0.252962962962963,6.2768000001907325],[0.12541666666666676,-0.22888888888888892,6.295100000381467],[0.12541666666666676,-0.22888888888888892,6.310900000095359],[0.1734375,-0.2035185185185185,6.32680000019073],[0.18875000000000006,-0.16370370370370366,6.3464000000953575],[0.2046875,-0.14333333333333328,6.360100000381465],[0.20270833333333324,-0.11018518518518519,6.377200000286095],[0.22385416666666677,-0.09574074074074072,6.393600000381468],[0.22385416666666677,-0.09574074074074072,6.410200000286096],[0.19729166666666675,-0.07759259259259255,6.426800000190724],[0.16041666666666668,-0.062037037037037036,6.4435],[0.14572916666666677,0.007407407407407408,6.460100000381459],[0.1310416666666666,0.07685185185185185,6.48110000038146],[0.1310416666666666,0.07685185185185185,6.493499999999997],[0.06947916666666672,0.06925925925925921,6.5102000002860905],[0.008645833333333287,0.04981481481481477,6.5268000001907325],[-0.049374999999999974,0.008703703703703788,6.54340000009536],[-0.10979166666666665,0.00592592592592601,6.560200000286102],[-0.17020833333333332,0.0031481481481482323,6.5804999999999865],[-0.2345833333333334,0.005740740740740783,6.596200000286089],[-0.25125000000000003,0.004629629629629629,6.610300000190733],[-0.23541666666666666,0.0294444444444444,6.629600000381458],[-0.23541666666666666,0.0294444444444444,6.643499999999989],[-0.26020833333333326,-0.0338888888888888,6.660200000286096],[-0.29010416666666666,-0.06574074074074074,6.679300000190722],[-0.3007291666666667,-0.04740740740740745,6.696100000381463],[-0.3120833333333334,-0.01722222222222214,6.710400000095362],[-0.3232291666666666,0.018518518518518517,6.726900000095355],[-0.33260416666666665,0.03537037037037041,6.743700000286097],[-0.32312500000000005,0.03092592592592601,6.7602000002860905]]","[0.0003000001907338401,0.04870000028608956,0.060100000381467567,0.07690000009536391,0.09510000038146416,0.11030000019073327,0.12690000009536107,0.14360000038146836,0.16020000028609616,0.17680000019072395,0.19350000000000023,0.2107000002860957,0.22690000009535538,0.24349999999999739,0.26020000028609047,0.27690000009536675,0.29360000038145984,0.31020000028610184,0.32680000019072963,0.3434999999999917,0.360200000286099,0.3768000001907268,0.39349999999998886,0.41030000019073043,0.4269000000953582,0.4436000003814655,0.46090000009536425,0.4769000000953554,0.49370000028609695,0.5102000002860905,0.5269000000953667,0.5434999999999945,0.5602000002861018,0.5774999999999864,0.593600000381457,0.6103000001907333,0.6269999999999953,0.6436000003814684,0.6602000002860962,0.676800000190724,0.6936000003814655,0.7102000002860933,0.7268000001907211,0.7436000003814627,0.7602000002860905,0.7768000001907325,0.7934999999999945,0.8102000002861018,0.8268000001907296,0.8434999999999917,0.8601000003814647,0.8769000000953611,0.8934999999999889,0.9102000002860962,0.926800000190724,0.9438000001907341,0.9604000000953619,0.9769000000953554,0.9953000001907242,1.0102000002860905,1.0269000000953667,1.0434999999999945,1.0602000002861018,1.0771000003814635,1.0934999999999917,1.1104000000953675,1.126900000095361,1.1434999999999889,1.1602000002860962,1.1769999999999925,1.1936000003814655,1.2103000001907276,1.226800000190721,1.2434999999999974,1.2602000002860905,1.2769000000953667,1.2986000003814695,1.3154000000953658,1.3268000001907296,1.3434999999999917,1.360200000286099,1.376900000095361,1.3936000003814684,1.4104000000953647,1.4269000000953582,1.4436000003814655,1.4656000003814569,1.4769999999999897,1.4936000003814627,1.5102000002860905,1.5268000001907325,1.5434999999999945,1.5602000002861018,1.5768000001907296,1.5952000002860984,1.610200000286099,1.626900000095361,1.6437000002860884,1.6648000001907235,1.676800000190724,1.6936000003814655,1.7102000002860933,1.7269000000953554,1.7434999999999974,1.7602000002860905,1.7772000002861006,1.7934999999999945,1.8114999999999952,1.826900000095364,1.8457000002861008,1.8601000003814647,1.8771000003814606,1.8938000001907227,1.9141000003814668,1.9297000002860898,1.946400000095366,1.9604999999999961,1.9769000000953554,1.9934999999999974,2.0102000002860905,2.0272000002861006,2.0482000002861014,2.063999999999993,2.079200000286093,2.0963000001907233,2.1104000000953675,2.126800000190727,2.1437000002860884,2.160200000286096,2.176800000190724,2.195600000381461,2.2102000002860933,2.2269000000953554,2.2434999999999974,2.2602000002860905,2.2768000001907325,2.295100000381467,2.3116000003814605,2.3268000001907296,2.343600000381457,2.3601000003814647,2.376900000095361,2.396499999999989,2.4106000003814643,2.426800000190724,2.4435000000000002,2.4606000003814614,2.4769999999999897,2.499300000190729,2.5139000000953615,2.5294000000953645,2.5453000001907213,2.562100000381463,2.5768000001907296,2.5934999999999917,2.6122000002860943,2.626900000095361,2.6436000003814684,2.664200000286101,2.676800000190724,2.6937000002861,2.710100000381459,2.7269000000953554,2.7436000003814627,2.7649999999999864,2.782200000286096,2.79549999999999,2.810200000286102,2.8268000001907296,2.8434999999999917,2.8601000003814647,2.8769999999999953,2.89530000019073,2.910200000286096,2.926800000190724,2.9435000000000002,2.9602000002860933,2.976800000190721,2.9934999999999974,3.0102000002860905,3.0269000000953667,3.0434999999999945,3.060200000286102,3.0768000001907296,3.0934000000953574,3.110200000286099,3.1271000003814606,3.143499999999989,3.160200000286096,3.1769000000953582,3.1951000003814585,3.2102000002860933,3.2269999999999897,3.2436000003814627,3.2603000001907247,3.2789999999999964,3.298900000095358,3.310200000286102,3.326900000095364,3.3434999999999917,3.360200000286099,3.376800000190727,3.3936000003814684,3.410100000381462,3.426800000190724,3.4435000000000002,3.4602000002860933,3.4769000000953554,3.4938000001907312,3.510100000381456,3.5268000001907325,3.5434999999999945,3.560300000190722,3.576900000095364,3.5934000000953574,3.610200000286099,3.627200000286095,3.6436000003814684,3.664200000286101,3.6769000000953582,3.6935000000000002,3.7102000002860933,3.7269000000953554,3.7434999999999974,3.7603000001907247,3.7784000000953597,3.7961000003814576,3.81060000038147,3.8268000001907296,3.8434000000953574,3.860200000286099,3.876900000095361,3.8938000001907227,3.910100000381462,3.9269000000953582,3.944600000381456,3.9602000002860933,3.976800000190721,3.994100000381465,4.013200000286091,4.029100000381462,4.043800000190728,4.060400000095356,4.0807000002861,4.093700000286091,4.11210000038146,4.132400000095359,4.146900000095357,4.16240000009536,4.178900000095354,4.196900000095354,4.211800000190735,4.227100000381469,4.247400000095354,4.262499999999989,4.282400000095365,4.29360000038146,4.313400000095356,4.328800000190725,4.343999999999994,4.3604000000953675,4.379800000190727,4.396800000190723,4.412499999999994,4.4314000000953655,4.447300000190722,4.462600000381457,4.477700000286092,4.502600000381463,4.510300000190725,4.526999999999987,4.5479000000953675,4.563300000190722,4.5789999999999935,4.597900000095365,4.61420000028609,4.630700000286097,4.650999999999996,4.6614999999999895,4.677100000381458,4.6935,4.710100000381459,4.726800000190721,4.746300000190729,4.763400000095359,4.778200000286091,4.7979000000953675,4.814400000095361,4.8289999999999935,4.843700000286091,4.862700000286097,4.879400000095359,4.896300000190735,4.914900000095358,4.92949999999999,4.945400000095361,4.960900000095364,4.981900000095365,4.993700000286097,5.010300000190725,5.027300000190735,5.047100000381462,5.0623000001907315,5.076999999999998,5.097499999999997,5.115700000286097,5.130400000095364,5.146400000095355,5.16260000038146,5.177300000190726,5.1935,5.210100000381459,5.22999999999999,5.246400000095363,5.262300000190734,5.281900000095362,5.29360000038146,5.310400000095356,5.326900000095364,5.348700000286101,5.360300000190733,5.376999999999995,5.399400000095355,5.410200000286096,5.426800000190724,5.446900000095354,5.460100000381459,5.47699999999999,5.493800000190731,5.510100000381456,5.528600000381459,5.545400000095356,5.5604999999999905,5.578700000286091,5.593999999999994,5.612200000286094,5.630900000095366,5.64830000019073,5.6648000001907235,5.676900000095358,5.6935,5.711999999999989,5.726800000190721,5.743499999999997,5.760100000381456,5.776900000095367,5.793800000190728,5.811999999999998,5.827200000286098,5.846200000286089,5.8626000003814625,5.8782000002861,5.893499999999989,5.910100000381462,5.927300000190726,5.9436000003814655,5.961499999999987,5.977200000286089,5.995499999999993,6.010400000095359,6.0268000001907325,6.0434999999999945,6.060200000286102,6.079400000095362,6.096499999999992,6.111999999999995,6.126800000190727,6.143900000095357,6.160200000286096,6.176900000095358,6.199300000190732,6.210200000286093,6.226800000190721,6.246200000286095,6.262400000095354,6.2768000001907325,6.295100000381467,6.310900000095359,6.32680000019073,6.3464000000953575,6.360100000381465,6.377200000286095,6.393600000381468,6.410200000286096,6.426800000190724,6.4435,6.460100000381459,6.48110000038146,6.493499999999997,6.5102000002860905,6.5268000001907325,6.54340000009536,6.560200000286102,6.5804999999999865,6.596200000286089,6.610300000190733,6.629600000381458,6.643499999999989,6.660200000286096,6.679300000190722,6.696100000381463,6.710400000095362,6.726900000095355,6.743700000286097,6.7602000002860905]","[1731987388770,1731987388809,1731987388820,1731987388837,1731987388855,1731987388870,1731987388887,1731987388903,1731987388920,1731987388937,1731987388953,1731987388971,1731987388987,1731987389003,1731987389020,1731987389037,1731987389053,1731987389070,1731987389087,1731987389103,1731987389120,1731987389137,1731987389153,1731987389170,1731987389187,1731987389203,1731987389221,1731987389237,1731987389254,1731987389270,1731987389287,1731987389303,1731987389320,1731987389337,1731987389353,1731987389370,1731987389387,1731987389403,1731987389420,1731987389437,1731987389453,1731987389470,1731987389487,1731987389503,1731987389520,1731987389537,1731987389553,1731987389570,1731987389587,1731987389603,1731987389620,1731987389637,1731987389653,1731987389670,1731987389687,1731987389704,1731987389720,1731987389737,1731987389755,1731987389770,1731987389787,1731987389803,1731987389820,1731987389837,1731987389853,1731987389870,1731987389887,1731987389903,1731987389920,1731987389937,1731987389953,1731987389970,1731987389987,1731987390003,1731987390020,1731987390037,1731987390058,1731987390075,1731987390087,1731987390103,1731987390120,1731987390137,1731987390153,1731987390170,1731987390187,1731987390203,1731987390225,1731987390237,1731987390253,1731987390270,1731987390287,1731987390303,1731987390320,1731987390337,1731987390355,1731987390370,1731987390387,1731987390404,1731987390425,1731987390437,1731987390453,1731987390470,1731987390487,1731987390503,1731987390520,1731987390537,1731987390553,1731987390571,1731987390587,1731987390605,1731987390620,1731987390637,1731987390654,1731987390674,1731987390690,1731987390706,1731987390720,1731987390737,1731987390753,1731987390770,1731987390787,1731987390808,1731987390824,1731987390839,1731987390856,1731987390870,1731987390887,1731987390904,1731987390920,1731987390937,1731987390955,1731987390970,1731987390987,1731987391003,1731987391020,1731987391037,1731987391055,1731987391071,1731987391087,1731987391103,1731987391120,1731987391137,1731987391156,1731987391170,1731987391187,1731987391203,1731987391220,1731987391237,1731987391259,1731987391274,1731987391289,1731987391305,1731987391322,1731987391337,1731987391353,1731987391372,1731987391387,1731987391403,1731987391424,1731987391437,1731987391453,1731987391470,1731987391487,1731987391503,1731987391525,1731987391542,1731987391555,1731987391570,1731987391587,1731987391603,1731987391620,1731987391637,1731987391655,1731987391670,1731987391687,1731987391703,1731987391720,1731987391737,1731987391753,1731987391770,1731987391787,1731987391803,1731987391820,1731987391837,1731987391853,1731987391870,1731987391887,1731987391903,1731987391920,1731987391937,1731987391955,1731987391970,1731987391987,1731987392003,1731987392020,1731987392039,1731987392059,1731987392070,1731987392087,1731987392103,1731987392120,1731987392137,1731987392154,1731987392170,1731987392187,1731987392203,1731987392220,1731987392237,1731987392254,1731987392270,1731987392287,1731987392303,1731987392320,1731987392337,1731987392353,1731987392370,1731987392387,1731987392404,1731987392424,1731987392437,1731987392453,1731987392470,1731987392487,1731987392503,1731987392520,1731987392538,1731987392556,1731987392570,1731987392587,1731987392603,1731987392620,1731987392637,1731987392654,1731987392670,1731987392687,1731987392705,1731987392720,1731987392737,1731987392754,1731987392773,1731987392789,1731987392804,1731987392820,1731987392841,1731987392854,1731987392872,1731987392892,1731987392907,1731987392922,1731987392939,1731987392957,1731987392972,1731987392987,1731987393007,1731987393022,1731987393042,1731987393053,1731987393073,1731987393089,1731987393104,1731987393120,1731987393140,1731987393157,1731987393172,1731987393191,1731987393207,1731987393222,1731987393237,1731987393263,1731987393270,1731987393287,1731987393308,1731987393323,1731987393339,1731987393358,1731987393374,1731987393391,1731987393411,1731987393421,1731987393437,1731987393453,1731987393470,1731987393487,1731987393506,1731987393523,1731987393538,1731987393558,1731987393574,1731987393589,1731987393604,1731987393623,1731987393639,1731987393656,1731987393675,1731987393689,1731987393705,1731987393721,1731987393742,1731987393754,1731987393770,1731987393787,1731987393807,1731987393822,1731987393837,1731987393857,1731987393875,1731987393890,1731987393906,1731987393922,1731987393937,1731987393953,1731987393970,1731987393990,1731987394006,1731987394022,1731987394042,1731987394053,1731987394070,1731987394087,1731987394109,1731987394120,1731987394137,1731987394159,1731987394170,1731987394187,1731987394207,1731987394220,1731987394237,1731987394254,1731987394270,1731987394288,1731987394305,1731987394320,1731987394339,1731987394354,1731987394372,1731987394391,1731987394408,1731987394425,1731987394437,1731987394453,1731987394472,1731987394487,1731987394503,1731987394520,1731987394537,1731987394554,1731987394572,1731987394587,1731987394606,1731987394622,1731987394638,1731987394653,1731987394670,1731987394687,1731987394703,1731987394721,1731987394737,1731987394755,1731987394770,1731987394787,1731987394803,1731987394820,1731987394839,1731987394856,1731987394872,1731987394887,1731987394904,1731987394920,1731987394937,1731987394959,1731987394970,1731987394987,1731987395006,1731987395022,1731987395037,1731987395055,1731987395071,1731987395087,1731987395106,1731987395120,1731987395137,1731987395153,1731987395170,1731987395187,1731987395203,1731987395220,1731987395241,1731987395253,1731987395270,1731987395287,1731987395303,1731987395320,1731987395340,1731987395356,1731987395370,1731987395389,1731987395403,1731987395420,1731987395439,1731987395456,1731987395470,1731987395487,1731987395504,1731987395520]","[[941.6,764.4],[941.6,764.4],[946.5,749.8],[935.2,758.3],[946.7,766.8],[958.2,775.3],[977.9,764.5],[997.6,753.7],[1023.2,741.1],[1048.8,727.3],[1051.8,709.9],[1063.8,714.1],[1063.6,728],[1068.2,725.2],[1077,725.2],[1094.2,723.9],[1083.8,725.4],[1071.4,725.2],[1043.7,723.8],[1027.9,722.4],[1026.3,722.9],[1015.7,701.8],[1010.4,688.1],[1004.3,690.1],[993.7,665.6],[986.6,662.5],[989.2,669.8],[993.8,678.8],[996.7,674.4],[991.5,670.1],[984.4,676.8],[977.3,683.5],[982.4,701.7],[994.4,707.9],[999.6,719.4],[999.6,719.4],[980.9,705.9],[980.9,705.9],[956.7,691.7],[909.7,689.8],[876.8,697.4],[841.4,702.6],[830.4,718.6],[819.4,734.6],[780.3,737],[741.2,739.4],[704.1,755],[683.6,768],[665,781.5],[693,799.8],[693,799.8],[706.2,822.5],[722.1,847.3],[723.9,852],[715.2,837.1],[722.4,824.3],[734.1,826.6],[745.8,828.9],[759.9,834.3],[769,834.3],[756.9,823.8],[756.9,823.8],[756.9,798.8],[736.3,772.3],[730.1,759.3],[734.4,765.9],[728.2,777.5],[717.5,774],[711.2,754.2],[697.9,738.8],[689.6,728.8],[687.5,727.2],[686.7,745],[697.6,765],[683.9,764.8],[670.2,764.6],[677.3,765.3],[686,770.4],[686,770.4],[673.1,775.8],[673.1,775.8],[692.8,798.4],[692.8,798.4],[692.2,809.7],[692.2,809.7],[689.8,807.9],[679.4,802.2],[679.4,802.2],[675.2,793.7],[685,804.5],[685.6,793],[675.9,775.6],[675.9,770],[693.1,780.4],[677.7,773.6],[706.7,772.6],[706.7,772.6],[728.7,769.7],[752,769.5],[752,769.5],[775.3,769.3],[807.4,755],[841.8,765.3],[876.2,775.6],[903.1,757.3],[927.5,746.3],[946.3,742.3],[951.3,735.6],[929.7,739.4],[914.8,744.4],[912.5,747.3],[897.6,751.7],[891.2,747.3],[886,739.9],[876.5,745.8],[869.5,744.4],[881.9,739.9],[884,743.6],[912.7,736.8],[940.7,737.3],[955,739.7],[969.8,737.6],[976.2,728.6],[981.4,722.6],[982.5,719.4],[983.6,716.2],[976,707.2],[980.3,697.1],[973.3,707.9],[957.8,685],[939,663],[919.7,645.5],[916.1,642.9],[912.5,640.3],[923.4,641.5],[934.3,642.7],[924.2,637.2],[902.2,632.8],[887.6,601.9],[882.2,597.4],[888.9,613.7],[895.6,630],[895.3,638.1],[895.1,638.3],[883.7,631],[870.5,614.2],[881.1,617.2],[892.2,620.9],[872,634.1],[853.6,642.8],[822.9,642.1],[797,640.6],[769.2,654.3],[741.3,675.9],[715.8,699],[692.1,731.6],[692.1,731.6],[672.9,753.1],[654.7,773.8],[654.7,773.8],[675,797.7],[687,817.5],[685.8,812.7],[679.8,808.7],[698.1,816.9],[698.1,816.9],[716.4,825.1],[716.4,825.1],[725,820.9],[748.9,799.2],[775.1,788.2],[799.8,777.3],[806.2,750.2],[819.1,731.7],[851.1,727.7],[883.1,723.7],[895.7,702.2],[908.3,680.7],[935.3,662.7],[947,662.2],[940.5,650.2],[934,638.2],[940.2,645.3],[946.4,652.4],[945.8,657.7],[941.1,668.2],[946.2,661.1],[955.5,655.4],[954.5,656.8],[953.5,658.2],[956,660.3],[963.3,655.3],[964.2,637.7],[964.2,637.7],[970.4,628.2],[997,621.7],[1023.8,619.5],[1023.8,619.5],[1035.9,631.7],[1035.9,631.7],[1037.9,647.9],[1037.9,647.9],[1041.5,653],[1041.5,653],[1060.4,655.1],[1060.4,655.1],[1072,654.8],[1072,654.8],[1075.9,667.5],[1084.8,694.4],[1083,697.1],[1066.3,696.6],[1053,695.8],[1039.7,695],[1039.7,695],[1032.3,688.8],[1032.3,688.8],[1034.2,700.4],[1034.2,700.4],[1006.3,710],[1006.3,710],[1004.2,732.1],[1009.6,744.2],[1018.7,744.7],[1024.6,751.1],[1030.5,757.5],[1011.5,764.6],[1005.8,756.9],[1004.8,760.9],[1006,754.6],[1015.1,750.3],[994.8,733.4],[970.6,731.6],[946.4,729.8],[941.6,725.7],[950.2,726],[977.8,707.6],[992.1,704],[1001.7,688.7],[991.4,685.2],[995.8,700.6],[995.8,700.6],[1011.1,718.5],[1011.1,718.5],[1024.6,714.2],[1041.1,713.1],[1048,735.1],[1036.9,745.2],[1061.1,756.1],[1085.3,767],[1084.6,788.1],[1091.9,798.8],[1087.8,791.1],[1083.7,783.4],[1106.6,785],[1107.5,792.7],[1107.5,792.7],[1110.7,774.7],[1122.7,772],[1105.8,777.3],[1066.5,774.5],[1071.6,766.7],[1060.4,755.7],[1053.8,746.9],[1050.7,742.6],[1038.7,734.8],[1042.8,726.8],[1043.4,733.9],[1030.7,728.4],[1030.7,728.4],[1032.8,711.9],[1070.3,706.2],[1047.4,735.3],[1044.1,770.1],[1045.2,788.3],[1066.4,771.7],[1046.1,782],[1024,787.3],[1024,787.3],[1030.2,786],[1030.2,786],[1025.7,773.5],[995.2,766.4],[951.7,756.6],[956.8,721.8],[961.9,687],[961.3,669.1],[936.7,660.4],[943.7,634.1],[955.4,603.7],[938.8,579.9],[955.5,576.2],[988.2,576.5],[1020.9,576.8],[1044.1,574.3],[1067.3,571.8],[1097.1,555.7],[1127.3,560.7],[1127.3,560.7],[1151.5,563],[1172.8,574.9],[1194.1,586.8],[1192.2,570.8],[1185.5,556.4],[1185.1,549.2],[1183.6,519.7],[1179.6,493],[1165.6,480.1],[1173.1,471.6],[1179.5,461.9],[1188.8,442.6],[1178.6,417.5],[1178.1,416.2],[1178.2,418],[1191,406],[1206.7,404.1],[1206.7,404.1],[1209.6,405.9],[1209.6,405.9],[1194.2,406.6],[1194.2,406.6],[1162.4,405.1],[1162.4,405.1],[1147.3,387.9],[1147.3,387.9],[1128.7,391.2],[1128.7,391.2],[1138.1,379.6],[1138.1,379.6],[1148.3,386.3],[1152.9,381.3],[1138.5,382.9],[1122.2,392.7],[1121.2,396],[1141.9,400.2],[1159.2,402.4],[1159.8,420.3],[1183.6,407.3],[1175.9,416.5],[1175.9,416.5],[1167.4,407.4],[1172.9,416],[1188,423.2],[1188,423.2],[1205,422.2],[1204.5,417.1],[1215.2,413.2],[1225.2,406.8],[1236.2,412.6],[1220.1,420.5],[1239.4,427.9],[1254.7,435.9],[1254.7,435.9],[1271.1,427.2],[1239.9,425.5],[1208.7,423.8],[1203.1,413.9],[1186.3,402.8],[1168.2,399.8],[1137.2,388.2],[1113.6,384.9],[1113.6,384.9],[1103.6,386.6],[1114.8,387.1],[1061.4,392.4],[1046,391.4],[1056.9,389.4],[1059.7,399.7],[1059.7,399.7],[1079.7,403.1],[1077.8,410.8],[1077.8,410.8],[1087.8,414.9],[1089.9,414.4],[1070.7,408.6],[1034.3,403.4],[1080.4,416.4],[1080.4,416.4],[1126.5,430.1],[1141.2,451.6],[1156.5,462.6],[1154.6,480.5],[1174.9,488.3],[1174.9,488.3],[1149.4,498.1],[1114,506.5],[1099.9,544],[1085.8,581.5],[1085.8,581.5],[1026.7,577.4],[968.3,566.9],[912.6,544.7],[854.6,543.2],[796.6,541.7],[734.8,543.1],[718.8,542.5],[734,555.9],[734,555.9],[710.2,521.7],[681.5,504.5],[671.3,514.4],[660.4,530.7],[649.7,550],[640.7,559.1],[649.8,556.7]]","[-0.142,0.42599999999999993]","[0.142,0.42599999999999993]","[0.42599999999999993,0.42599999999999993]","[-0.42599999999999993,-0.42599999999999993]","[-0.42599999999999993,-0.142]","[-0.42599999999999993,0.142]","[-0.142,-0.42599999999999993]","[0.142,-0.42599999999999993]","[0.42599999999999993,-0.42599999999999993]","[-0.142,-0.142]","[0.142,-0.142]","[0.42599999999999993,-0.142]","[-0.142,0.142]","[0.142,0.142]","[0.42599999999999993,0.142]",0,0,0,0,1,4,Laptop,25,20,8,1,60,4,1,60,3
