inst1_resp.keys,inst1_resp.rt,calibrationMouse.x,calibrationMouse.y,calibrationMouse.leftButton,calibrationMouse.midButton,calibrationMouse.rightButton,calibrationClick.x,calibrationClick.y,calibrationClick.leftButton,calibrationClick.midButton,calibrationClick.rightButton,trialsc.thisRepN,trialsc.thisTrialN,trialsc.thisN,trialsc.thisIndex,trialsc.ran,calibration_x,calibration_y,participant,session,date,expName,psychopyVersion,OS,frameRate,calibrationClick.clicked_name,ScreenRes_pixels,Camera_pixels,mouse_2.x,mouse_2.y,mouse_2.leftButton,mouse_2.midButton,mouse_2.rightButton,mouse_2.time,mouse_2.clicked_name,mouse.x,mouse.y,mouse.leftButton,mouse.midButton,mouse.rightButton,mouse.time,mouse.clicked_name,Choice,Trial,TrialDuration,MOUSE_GAZE,ET_GAZE,ET_GAZE_x_T,time,unixTime,ET_GAZE_NF,Loc_Bus_label,Loc_Metro_label,Loc_RH_label,Loc_Cost_label,Loc_Travel_label,Loc_Comfort_label,Loc_Bus_cost,Loc_Metro_cost,Loc_RH_cost,Loc_Bus_travel,Loc_Metro_travel,Loc_RH_travel,Loc_Bus_comfort,Loc_Metro_comfort,Loc_RH_comfort,trials.thisRepN,trials.thisTrialN,trials.thisN,trials.thisIndex,trials.ran,Block,Device,RH_cost,RH_travel_time,RH_Comfort,metro_cost,metro_travel_time,metro_Comfort,Bus_cost,Bus_travel_time,Bus_Comfort
space,8.1117,-0.485416667,-0.240740741,1,0,0,-0.340625,-0.32037037,1,0,0,0,0,0,5,1,-0.33,-0.33,40,001,2024-11-19_11h18.38.610,Attention_exp_legacy,2023.1.0,Win32,59.88023952,,,,,,,,,,,,,,,,,,,,,,,,,,,,,,,,,,,,,,,,,,,,,,,,,,,,,,,,,
,,,,,,,-0.335416667,0.001851852,1,0,0,0,1,1,6,1,-0.33,0,40,001,2024-11-19_11h18.38.610,Attention_exp_legacy,2023.1.0,Win32,59.88023952,calibration_square,,,,,,,,,,,,,,,,,,,,,,,,,,,,,,,,,,,,,,,,,,,,,,,,,,,,,,,,
,,,,,,,0,0.337037037,1,0,0,0,2,2,12,1,0,0.33,40,001,2024-11-19_11h18.38.610,Attention_exp_legacy,2023.1.0,Win32,59.88023952,calibration_square,,,,,,,,,,,,,,,,,,,,,,,,,,,,,,,,,,,,,,,,,,,,,,,,,,,,,,,,
,,,,,,,-0.667708333,0.333333333,1,0,0,0,3,3,3,1,-0.67,0.33,40,001,2024-11-19_11h18.38.610,Attention_exp_legacy,2023.1.0,Win32,59.88023952,calibration_square,,,,,,,,,,,,,,,,,,,,,,,,,,,,,,,,,,,,,,,,,,,,,,,,,,,,,,,,
,,,,,,,-0.002083333,-0.675925926,1,0,0,0,4,4,9,1,0,-0.67,40,001,2024-11-19_11h18.38.610,Attention_exp_legacy,2023.1.0,Win32,59.88023952,calibration_square,,,,,,,,,,,,,,,,,,,,,,,,,,,,,,,,,,,,,,,,,,,,,,,,,,,,,,,,
,,,,,,,-0.669791667,-0.655555556,1,0,0,0,5,5,0,1,-0.67,-0.67,40,001,2024-11-19_11h18.38.610,Attention_exp_legacy,2023.1.0,Win32,59.88023952,,,,,,,,,,,,,,,,,,,,,,,,,,,,,,,,,,,,,,,,,,,,,,,,,,,,,,,,,
,,,,,,,0.327083333,0.325925926,1,0,0,0,6,6,17,1,0.33,0.33,40,001,2024-11-19_11h18.38.610,Attention_exp_legacy,2023.1.0,Win32,59.88023952,calibration_square,,,,,,,,,,,,,,,,,,,,,,,,,,,,,,,,,,,,,,,,,,,,,,,,,,,,,,,,
,,,,,,,0.33125,0.666666667,1,0,0,0,7,7,18,1,0.33,0.67,40,001,2024-11-19_11h18.38.610,Attention_exp_legacy,2023.1.0,Win32,59.88023952,calibration_square,,,,,,,,,,,,,,,,,,,,,,,,,,,,,,,,,,,,,,,,,,,,,,,,,,,,,,,,
,,,,,,,0.005208333,-0.325925926,1,0,0,0,8,8,10,1,0,-0.33,40,001,2024-11-19_11h18.38.610,Attention_exp_legacy,2023.1.0,Win32,59.88023952,calibration_square,,,,,,,,,,,,,,,,,,,,,,,,,,,,,,,,,,,,,,,,,,,,,,,,,,,,,,,,
,,,,,,,0.005208333,0.666666667,1,0,0,0,9,9,13,1,0,0.67,40,001,2024-11-19_11h18.38.610,Attention_exp_legacy,2023.1.0,Win32,59.88023952,calibration_square,,,,,,,,,,,,,,,,,,,,,,,,,,,,,,,,,,,,,,,,,,,,,,,,,,,,,,,,
,,,,,,,-0.332291667,-0.655555556,1,0,0,0,10,10,4,1,-0.33,-0.67,40,001,2024-11-19_11h18.38.610,Attention_exp_legacy,2023.1.0,Win32,59.88023952,,,,,,,,,,,,,,,,,,,,,,,,,,,,,,,,,,,,,,,,,,,,,,,,,,,,,,,,,
,,,,,,,-0.675,-0.322222222,1,0,0,0,11,11,1,1,-0.67,-0.33,40,001,2024-11-19_11h18.38.610,Attention_exp_legacy,2023.1.0,Win32,59.88023952,calibration_square,,,,,,,,,,,,,,,,,,,,,,,,,,,,,,,,,,,,,,,,,,,,,,,,,,,,,,,,
,,,,,,,-0.332291667,0.335185185,1,0,0,0,12,12,7,1,-0.33,0.33,40,001,2024-11-19_11h18.38.610,Attention_exp_legacy,2023.1.0,Win32,59.88023952,calibration_square,,,,,,,,,,,,,,,,,,,,,,,,,,,,,,,,,,,,,,,,,,,,,,,,,,,,,,,,
,,,,,,,0.3375,-0.005555556,1,0,0,0,13,13,16,1,0.33,0,40,001,2024-11-19_11h18.38.610,Attention_exp_legacy,2023.1.0,Win32,59.88023952,calibration_square,,,,,,,,,,,,,,,,,,,,,,,,,,,,,,,,,,,,,,,,,,,,,,,,,,,,,,,,
,,,,,,,0.663541667,0.666666667,1,0,0,0,14,14,19,1,0.67,0.67,40,001,2024-11-19_11h18.38.610,Attention_exp_legacy,2023.1.0,Win32,59.88023952,calibration_square,,,,,,,,,,,,,,,,,,,,,,,,,,,,,,,,,,,,,,,,,,,,,,,,,,,,,,,,
,,,,,,,-0.665625,-0.001851852,1,0,0,0,15,15,2,1,-0.67,0,40,001,2024-11-19_11h18.38.610,Attention_exp_legacy,2023.1.0,Win32,59.88023952,calibration_square,,,,,,,,,,,,,,,,,,,,,,,,,,,,,,,,,,,,,,,,,,,,,,,,,,,,,,,,
,,,,,,,-0.005208333,0,1,0,0,0,16,16,11,1,0,0,40,001,2024-11-19_11h18.38.610,Attention_exp_legacy,2023.1.0,Win32,59.88023952,calibration_square,,,,,,,,,,,,,,,,,,,,,,,,,,,,,,,,,,,,,,,,,,,,,,,,,,,,,,,,
,,,,,,,0.321875,-0.659259259,1,0,0,0,17,17,14,1,0.33,-0.67,40,001,2024-11-19_11h18.38.610,Attention_exp_legacy,2023.1.0,Win32,59.88023952,,,,,,,,,,,,,,,,,,,,,,,,,,,,,,,,,,,,,,,,,,,,,,,,,,,,,,,,,
,,,,,,,-0.33125,0.668518519,1,0,0,0,18,18,8,1,-0.33,0.67,40,001,2024-11-19_11h18.38.610,Attention_exp_legacy,2023.1.0,Win32,59.88023952,calibration_square,,,,,,,,,,,,,,,,,,,,,,,,,,,,,,,,,,,,,,,,,,,,,,,,,,,,,,,,
,,,,,,,0.335416667,-0.335185185,1,0,0,0,19,19,15,1,0.33,-0.33,40,001,2024-11-19_11h18.38.610,Attention_exp_legacy,2023.1.0,Win32,59.88023952,calibration_square,,,,,,,,,,,,,,,,,,,,,,,,,,,,,,,,,,,,,,,,,,,,,,,,,,,,,,,,
,,,,,,,0.680208333,-0.675925926,1,0,0,0,20,20,20,1,0.67,-0.67,40,001,2024-11-19_11h18.38.610,Attention_exp_legacy,2023.1.0,Win32,59.88023952,,,,,,,,,,,,,,,,,,,,,,,,,,,,,,,,,,,,,,,,,,,,,,,,,,,,,,,,,
,,,,,,,,,,,,,,,,,,,40,001,2024-11-19_11h18.38.610,Attention_exp_legacy,2023.1.0,Win32,59.88023952,,"[1920,1080]","[640,480]",[0.05625],[-0.5259259259259259],[1],[0],[0],[16.583599999904635],"[""StartButton""]",[-0.10208333333333333],[0.6074074074074074],[1],[0],[0],[7.849000000000004],"[""Bus_label""]",Bus_label,1,8.8616,"[[0.058333333333333334,-0.5037037037037037],[0.058333333333333334,-0.5037037037037037],[0.058333333333333334,-0.5037037037037037],[0.058333333333333334,-0.5037037037037037],[0.058333333333333334,-0.5037037037037037],[0.058333333333333334,-0.5037037037037037],[0.058333333333333334,-0.5037037037037037],[0.058333333333333334,-0.5037037037037037],[0.058333333333333334,-0.5037037037037037],[0.058333333333333334,-0.5037037037037037],[0.058333333333333334,-0.5037037037037037],[0.058333333333333334,-0.5037037037037037],[0.058333333333333334,-0.5037037037037037],[0.058333333333333334,-0.5037037037037037],[0.058333333333333334,-0.5037037037037037],[0.058333333333333334,-0.5037037037037037],[0.058333333333333334,-0.5037037037037037],[0.058333333333333334,-0.5037037037037037],[0.058333333333333334,-0.5037037037037037],[0.058333333333333334,-0.5037037037037037],[0.058333333333333334,-0.5037037037037037],[0.058333333333333334,-0.5037037037037037],[0.058333333333333334,-0.5037037037037037],[0.058333333333333334,-0.5037037037037037],[0.058333333333333334,-0.5037037037037037],[0.058333333333333334,-0.5037037037037037],[0.058333333333333334,-0.5037037037037037],[0.058333333333333334,-0.5037037037037037],[0.058333333333333334,-0.5037037037037037],[0.058333333333333334,-0.5037037037037037],[0.058333333333333334,-0.5037037037037037],[0.058333333333333334,-0.5037037037037037],[0.058333333333333334,-0.5037037037037037],[0.058333333333333334,-0.5037037037037037],[0.058333333333333334,-0.5037037037037037],[0.058333333333333334,-0.5037037037037037],[0.058333333333333334,-0.5037037037037037],[0.058333333333333334,-0.5037037037037037],[0.058333333333333334,-0.5037037037037037],[0.058333333333333334,-0.5037037037037037],[0.058333333333333334,-0.5037037037037037],[0.058333333333333334,-0.5037037037037037],[0.058333333333333334,-0.5037037037037037],[0.058333333333333334,-0.5037037037037037],[0.058333333333333334,-0.5037037037037037],[0.058333333333333334,-0.5037037037037037],[0.058333333333333334,-0.5037037037037037],[0.058333333333333334,-0.5037037037037037],[0.058333333333333334,-0.5037037037037037],[0.058333333333333334,-0.5037037037037037],[0.058333333333333334,-0.5037037037037037],[0.058333333333333334,-0.5037037037037037],[0.058333333333333334,-0.5037037037037037],[0.058333333333333334,-0.5037037037037037],[0.058333333333333334,-0.5037037037037037],[0.058333333333333334,-0.5037037037037037],[0.058333333333333334,-0.5037037037037037],[0.058333333333333334,-0.5037037037037037],[0.058333333333333334,-0.5037037037037037],[0.058333333333333334,-0.5037037037037037],[0.058333333333333334,-0.5037037037037037],[0.058333333333333334,-0.5037037037037037],[0.058333333333333334,-0.5037037037037037],[0.058333333333333334,-0.5037037037037037],[0.058333333333333334,-0.5037037037037037],[0.058333333333333334,-0.5037037037037037],[0.058333333333333334,-0.5037037037037037],[0.058333333333333334,-0.5037037037037037],[0.058333333333333334,-0.5037037037037037],[0.058333333333333334,-0.5037037037037037],[0.058333333333333334,-0.5037037037037037],[0.058333333333333334,-0.5037037037037037],[0.058333333333333334,-0.5037037037037037],[0.058333333333333334,-0.5037037037037037],[0.058333333333333334,-0.5037037037037037],[0.058333333333333334,-0.5037037037037037],[0.058333333333333334,-0.5037037037037037],[0.058333333333333334,-0.5037037037037037],[0.058333333333333334,-0.5037037037037037],[0.058333333333333334,-0.5037037037037037],[0.058333333333333334,-0.5037037037037037],[0.058333333333333334,-0.5037037037037037],[0.058333333333333334,-0.5037037037037037],[0.058333333333333334,-0.5037037037037037],[0.058333333333333334,-0.5037037037037037],[0.058333333333333334,-0.5037037037037037],[0.058333333333333334,-0.5037037037037037],[0.058333333333333334,-0.5037037037037037],[0.058333333333333334,-0.5037037037037037],[0.058333333333333334,-0.5037037037037037],[0.058333333333333334,-0.5037037037037037],[0.058333333333333334,-0.5037037037037037],[0.058333333333333334,-0.5037037037037037],[0.057291666666666664,-0.5037037037037037],[0.057291666666666664,-0.5037037037037037],[0.057291666666666664,-0.5037037037037037],[0.057291666666666664,-0.5037037037037037],[0.057291666666666664,-0.5037037037037037],[0.057291666666666664,-0.5037037037037037],[0.057291666666666664,-0.5037037037037037],[0.057291666666666664,-0.5037037037037037],[0.057291666666666664,-0.5037037037037037],[0.057291666666666664,-0.5037037037037037],[0.057291666666666664,-0.5037037037037037],[0.057291666666666664,-0.5037037037037037],[0.057291666666666664,-0.5037037037037037],[0.057291666666666664,-0.5037037037037037],[0.057291666666666664,-0.5037037037037037],[0.057291666666666664,-0.5037037037037037],[0.057291666666666664,-0.5037037037037037],[0.057291666666666664,-0.5037037037037037],[0.057291666666666664,-0.5037037037037037],[0.057291666666666664,-0.5037037037037037],[0.057291666666666664,-0.5037037037037037],[0.057291666666666664,-0.5037037037037037],[0.057291666666666664,-0.5037037037037037],[0.057291666666666664,-0.5037037037037037],[0.057291666666666664,-0.5037037037037037],[0.057291666666666664,-0.5037037037037037],[0.057291666666666664,-0.5037037037037037],[0.057291666666666664,-0.5037037037037037],[0.057291666666666664,-0.5037037037037037],[0.057291666666666664,-0.5037037037037037],[0.057291666666666664,-0.5037037037037037],[0.057291666666666664,-0.5037037037037037],[0.057291666666666664,-0.5037037037037037],[0.057291666666666664,-0.5037037037037037],[0.057291666666666664,-0.5037037037037037],[0.057291666666666664,-0.5037037037037037],[0.057291666666666664,-0.5037037037037037],[0.057291666666666664,-0.5037037037037037],[0.057291666666666664,-0.5037037037037037],[0.057291666666666664,-0.5037037037037037],[0.057291666666666664,-0.5037037037037037],[0.057291666666666664,-0.5037037037037037],[0.057291666666666664,-0.5037037037037037],[0.057291666666666664,-0.5037037037037037],[0.057291666666666664,-0.5037037037037037],[0.057291666666666664,-0.5037037037037037],[0.057291666666666664,-0.5037037037037037],[0.057291666666666664,-0.5037037037037037],[0.057291666666666664,-0.5037037037037037],[0.057291666666666664,-0.5037037037037037],[0.057291666666666664,-0.5037037037037037],[0.057291666666666664,-0.5037037037037037],[0.057291666666666664,-0.5037037037037037],[0.057291666666666664,-0.5037037037037037],[0.057291666666666664,-0.5037037037037037],[0.057291666666666664,-0.5037037037037037],[0.057291666666666664,-0.5037037037037037],[0.057291666666666664,-0.5037037037037037],[0.057291666666666664,-0.5037037037037037],[0.057291666666666664,-0.5037037037037037],[0.057291666666666664,-0.5037037037037037],[0.057291666666666664,-0.5037037037037037],[0.057291666666666664,-0.5037037037037037],[0.057291666666666664,-0.5037037037037037],[0.057291666666666664,-0.5037037037037037],[0.057291666666666664,-0.5037037037037037],[0.057291666666666664,-0.5037037037037037],[0.057291666666666664,-0.5037037037037037],[0.057291666666666664,-0.5037037037037037],[0.057291666666666664,-0.5037037037037037],[0.057291666666666664,-0.5037037037037037],[0.057291666666666664,-0.5037037037037037],[0.057291666666666664,-0.5037037037037037],[0.057291666666666664,-0.5037037037037037],[0.057291666666666664,-0.5037037037037037],[0.057291666666666664,-0.5037037037037037],[0.057291666666666664,-0.5037037037037037],[0.057291666666666664,-0.5037037037037037],[0.057291666666666664,-0.5037037037037037],[0.057291666666666664,-0.5037037037037037],[0.057291666666666664,-0.5037037037037037],[0.057291666666666664,-0.5037037037037037],[0.057291666666666664,-0.5037037037037037],[0.057291666666666664,-0.5037037037037037],[0.057291666666666664,-0.5037037037037037],[0.057291666666666664,-0.5037037037037037],[0.057291666666666664,-0.5037037037037037],[0.057291666666666664,-0.5037037037037037],[0.057291666666666664,-0.5037037037037037],[0.057291666666666664,-0.5037037037037037],[0.057291666666666664,-0.5037037037037037],[0.057291666666666664,-0.5037037037037037],[0.057291666666666664,-0.5037037037037037],[0.057291666666666664,-0.5037037037037037],[0.057291666666666664,-0.5037037037037037],[0.057291666666666664,-0.5037037037037037],[0.057291666666666664,-0.5037037037037037],[0.057291666666666664,-0.5037037037037037],[0.057291666666666664,-0.5037037037037037],[0.057291666666666664,-0.5037037037037037],[0.057291666666666664,-0.5037037037037037],[0.057291666666666664,-0.5037037037037037],[0.057291666666666664,-0.5037037037037037],[0.057291666666666664,-0.5037037037037037],[0.057291666666666664,-0.5037037037037037],[0.057291666666666664,-0.5037037037037037],[0.057291666666666664,-0.5037037037037037],[0.057291666666666664,-0.5037037037037037],[0.057291666666666664,-0.5037037037037037],[0.057291666666666664,-0.5037037037037037],[0.057291666666666664,-0.5037037037037037],[0.057291666666666664,-0.5037037037037037],[0.057291666666666664,-0.5037037037037037],[0.057291666666666664,-0.5037037037037037],[0.057291666666666664,-0.5037037037037037],[0.057291666666666664,-0.5037037037037037],[0.057291666666666664,-0.5037037037037037],[0.057291666666666664,-0.5037037037037037],[0.057291666666666664,-0.5037037037037037],[0.057291666666666664,-0.5037037037037037],[0.057291666666666664,-0.5037037037037037],[0.057291666666666664,-0.5037037037037037],[0.057291666666666664,-0.5037037037037037],[0.057291666666666664,-0.5037037037037037],[0.057291666666666664,-0.5037037037037037],[0.057291666666666664,-0.5037037037037037],[0.057291666666666664,-0.5037037037037037],[0.057291666666666664,-0.5037037037037037],[0.057291666666666664,-0.5037037037037037],[0.057291666666666664,-0.5037037037037037],[0.057291666666666664,-0.5037037037037037],[0.057291666666666664,-0.5037037037037037],[0.057291666666666664,-0.5037037037037037],[0.057291666666666664,-0.5037037037037037],[0.057291666666666664,-0.5037037037037037],[0.057291666666666664,-0.5037037037037037],[0.057291666666666664,-0.5037037037037037],[0.057291666666666664,-0.5037037037037037],[0.057291666666666664,-0.5037037037037037],[0.057291666666666664,-0.5037037037037037],[0.057291666666666664,-0.5037037037037037],[0.057291666666666664,-0.5037037037037037],[0.057291666666666664,-0.5037037037037037],[0.057291666666666664,-0.5037037037037037],[0.057291666666666664,-0.5037037037037037],[0.057291666666666664,-0.5037037037037037],[0.057291666666666664,-0.5037037037037037],[0.057291666666666664,-0.5037037037037037],[0.057291666666666664,-0.5037037037037037],[0.057291666666666664,-0.5037037037037037],[0.057291666666666664,-0.5037037037037037],[0.057291666666666664,-0.5037037037037037],[0.057291666666666664,-0.5037037037037037],[0.057291666666666664,-0.5037037037037037],[0.057291666666666664,-0.5037037037037037],[0.057291666666666664,-0.5037037037037037],[0.057291666666666664,-0.5037037037037037],[0.057291666666666664,-0.5037037037037037],[0.057291666666666664,-0.5037037037037037],[0.057291666666666664,-0.5037037037037037],[0.057291666666666664,-0.5037037037037037],[0.057291666666666664,-0.5037037037037037],[0.057291666666666664,-0.5037037037037037],[0.057291666666666664,-0.5037037037037037],[0.057291666666666664,-0.5037037037037037],[0.057291666666666664,-0.5037037037037037],[0.057291666666666664,-0.5037037037037037],[0.057291666666666664,-0.5037037037037037],[0.057291666666666664,-0.5037037037037037],[0.057291666666666664,-0.5037037037037037],[0.057291666666666664,-0.5037037037037037],[0.057291666666666664,-0.5037037037037037],[0.057291666666666664,-0.5037037037037037],[0.057291666666666664,-0.5037037037037037],[0.057291666666666664,-0.5037037037037037],[0.057291666666666664,-0.5037037037037037],[0.057291666666666664,-0.5037037037037037],[0.057291666666666664,-0.5037037037037037],[0.057291666666666664,-0.5037037037037037],[0.057291666666666664,-0.5037037037037037],[0.057291666666666664,-0.5037037037037037],[0.057291666666666664,-0.5037037037037037],[0.057291666666666664,-0.5037037037037037],[0.057291666666666664,-0.5037037037037037],[0.057291666666666664,-0.5037037037037037],[0.057291666666666664,-0.5037037037037037],[0.057291666666666664,-0.5037037037037037],[0.057291666666666664,-0.5037037037037037],[0.057291666666666664,-0.5037037037037037],[0.057291666666666664,-0.5037037037037037],[0.057291666666666664,-0.5037037037037037],[0.057291666666666664,-0.5037037037037037],[0.057291666666666664,-0.5037037037037037],[0.057291666666666664,-0.5037037037037037],[0.057291666666666664,-0.5037037037037037],[0.057291666666666664,-0.5037037037037037],[0.057291666666666664,-0.5037037037037037],[0.057291666666666664,-0.5037037037037037],[0.057291666666666664,-0.5037037037037037],[0.057291666666666664,-0.5037037037037037],[0.057291666666666664,-0.5037037037037037],[0.057291666666666664,-0.5037037037037037],[0.053125,-0.5037037037037037],[0.053125,-0.5],[0.051041666666666666,-0.5],[0.05,-0.5],[0.05,-0.5],[0.05,-0.5],[0.05,-0.5],[0.05,-0.5],[0.05,-0.5],[0.05,-0.5],[0.05,-0.5],[0.05,-0.5],[0.05,-0.5],[0.05,-0.5],[0.05,-0.5],[0.05,-0.5],[0.05,-0.5],[0.05,-0.5],[0.05,-0.5],[0.05,-0.5],[0.05,-0.5],[0.05,-0.5],[0.05,-0.5],[0.05,-0.5],[0.05,-0.5],[0.05,-0.5],[0.05,-0.5],[0.05,-0.5],[0.05,-0.5],[0.05,-0.5],[0.05,-0.5],[0.05,-0.5],[0.05,-0.5],[0.05,-0.5],[0.05,-0.5],[0.05,-0.5],[0.05,-0.5],[0.05,-0.5],[0.05,-0.5],[0.05,-0.5],[0.051041666666666666,-0.5],[0.051041666666666666,-0.5],[0.051041666666666666,-0.5],[0.052083333333333336,-0.5],[0.052083333333333336,-0.5],[0.052083333333333336,-0.5],[0.052083333333333336,-0.5],[0.052083333333333336,-0.5],[0.052083333333333336,-0.5],[0.052083333333333336,-0.5],[0.052083333333333336,-0.5],[0.052083333333333336,-0.5],[0.052083333333333336,-0.5],[0.052083333333333336,-0.5],[0.052083333333333336,-0.5],[0.052083333333333336,-0.5],[0.052083333333333336,-0.5],[0.052083333333333336,-0.5],[0.053125,-0.5],[0.053125,-0.5],[0.053125,-0.5],[0.053125,-0.5],[0.053125,-0.5],[0.053125,-0.5],[0.053125,-0.5],[0.053125,-0.5],[0.053125,-0.5],[0.053125,-0.5],[0.053125,-0.5],[0.053125,-0.5],[0.053125,-0.5],[0.053125,-0.5],[0.053125,-0.5],[0.053125,-0.5],[0.053125,-0.5],[0.053125,-0.5],[0.053125,-0.5],[0.053125,-0.5],[0.053125,-0.5],[0.053125,-0.5],[0.053125,-0.5],[0.053125,-0.5],[0.053125,-0.5],[0.053125,-0.5],[0.053125,-0.5],[0.053125,-0.5],[0.053125,-0.5],[0.053125,-0.5],[0.053125,-0.5],[0.053125,-0.5],[0.053125,-0.5],[0.053125,-0.5],[0.053125,-0.5],[0.053125,-0.5],[0.053125,-0.5],[0.053125,-0.5],[0.053125,-0.5],[0.053125,-0.5],[0.053125,-0.5],[0.053125,-0.5],[0.053125,-0.5],[0.05416666666666667,-0.4981481481481482],[0.05416666666666667,-0.4981481481481482],[0.05416666666666667,-0.4981481481481482],[0.05416666666666667,-0.4981481481481482],[0.05416666666666667,-0.4962962962962963],[0.05416666666666667,-0.4962962962962963],[0.05416666666666667,-0.4962962962962963],[0.05416666666666667,-0.4962962962962963],[0.05416666666666667,-0.49444444444444446],[0.05416666666666667,-0.49444444444444446],[0.05520833333333333,-0.49444444444444446],[0.05520833333333333,-0.49444444444444446],[0.05520833333333333,-0.49444444444444446],[0.05520833333333333,-0.49444444444444446],[0.05520833333333333,-0.49444444444444446],[0.05520833333333333,-0.49444444444444446],[0.05520833333333333,-0.49444444444444446],[0.05520833333333333,-0.49444444444444446],[0.05520833333333333,-0.49074074074074076],[0.05520833333333333,-0.47962962962962963],[0.05416666666666667,-0.4759259259259259],[0.053125,-0.45],[0.04895833333333333,-0.40185185185185185],[0.04375,-0.35185185185185186],[0.041666666666666664,-0.3074074074074074],[0.03958333333333333,-0.25555555555555554],[0.03854166666666667,-0.2037037037037037],[0.03854166666666667,-0.15555555555555556],[0.03854166666666667,-0.10740740740740741],[0.03854166666666667,-0.06481481481481481],[0.03854166666666667,0.007407407407407408],[0.03854166666666667,0.02962962962962963],[0.03854166666666667,0.06851851851851852],[0.03854166666666667,0.12222222222222222],[0.03854166666666667,0.15555555555555556],[0.03854166666666667,0.2074074074074074],[0.03854166666666667,0.2222222222222222],[0.03854166666666667,0.2611111111111111],[0.0375,0.2962962962962963],[0.03125,0.3296296296296296],[0.026041666666666668,0.3574074074074074],[0.017708333333333333,0.3907407407407407],[0.009375,0.4148148148148148],[-0.0010416666666666667,0.4444444444444444],[-0.009375,0.4722222222222222],[-0.029166666666666667,0.5222222222222223],[-0.040625,0.5444444444444444],[-0.053125,0.5666666666666667],[-0.06354166666666666,0.587037037037037],[-0.071875,0.5981481481481481],[-0.078125,0.6055555555555555],[-0.08333333333333333,0.6092592592592593],[-0.08541666666666667,0.6111111111111112],[-0.08958333333333333,0.6129629629629629],[-0.08958333333333333,0.6129629629629629],[-0.09166666666666666,0.6148148148148148],[-0.09270833333333334,0.6166666666666667],[-0.09270833333333334,0.6166666666666667],[-0.09479166666666666,0.6166666666666667],[-0.09583333333333334,0.6166666666666667],[-0.096875,0.6166666666666667],[-0.09791666666666667,0.6166666666666667],[-0.1,0.6148148148148148],[-0.1,0.6148148148148148],[-0.10208333333333333,0.6111111111111112],[-0.10208333333333333,0.6111111111111112],[-0.10208333333333333,0.6092592592592593],[-0.10208333333333333,0.6092592592592593],[-0.10208333333333333,0.6074074074074074],[-0.10208333333333333,0.6074074074074074],[-0.10208333333333333,0.6074074074074074],[-0.10208333333333333,0.6074074074074074],[-0.10208333333333333,0.6074074074074074],[-0.10208333333333333,0.6074074074074074],[-0.10208333333333333,0.6074074074074074],[-0.10208333333333333,0.6074074074074074],[-0.10208333333333333,0.6074074074074074],[-0.10208333333333333,0.6074074074074074],[-0.10208333333333333,0.6074074074074074],[-0.10208333333333333,0.6074074074074074],[-0.10208333333333333,0.6074074074074074],[-0.10208333333333333,0.6074074074074074],[-0.10208333333333333,0.6074074074074074],[-0.10208333333333333,0.6074074074074074],[-0.10208333333333333,0.6074074074074074],[-0.10208333333333333,0.6074074074074074],[-0.10208333333333333,0.6074074074074074],[-0.10208333333333333,0.6074074074074074],[-0.10208333333333333,0.6074074074074074],[-0.10208333333333333,0.6074074074074074],[-0.10208333333333333,0.6074074074074074],[-0.10208333333333333,0.6074074074074074],[-0.10208333333333333,0.6074074074074074],[-0.10208333333333333,0.6074074074074074],[-0.10208333333333333,0.6074074074074074],[-0.10208333333333333,0.6074074074074074],[-0.10208333333333333,0.6074074074074074],[-0.10208333333333333,0.6074074074074074],[-0.10208333333333333,0.6074074074074074],[-0.10208333333333333,0.6074074074074074],[-0.10208333333333333,0.6074074074074074],[-0.10208333333333333,0.6074074074074074],[-0.10208333333333333,0.6074074074074074],[-0.10208333333333333,0.6074074074074074],[-0.10208333333333333,0.6074074074074074],[-0.10208333333333333,0.6074074074074074],[-0.10208333333333333,0.6074074074074074],[-0.10208333333333333,0.6074074074074074],[-0.10208333333333333,0.6074074074074074],[-0.10208333333333333,0.6037037037037037],[-0.10208333333333333,0.6037037037037037],[-0.10208333333333333,0.6],[-0.10208333333333333,0.6],[-0.10208333333333333,0.5962962962962963],[-0.10208333333333333,0.5944444444444444],[-0.10208333333333333,0.5907407407407408],[-0.10208333333333333,0.5907407407407408],[-0.10208333333333333,0.5907407407407408],[-0.10208333333333333,0.5907407407407408],[-0.10208333333333333,0.5888888888888889],[-0.10208333333333333,0.5888888888888889],[-0.10208333333333333,0.5851851851851851],[-0.10208333333333333,0.5851851851851851],[-0.10208333333333333,0.5796296296296296],[-0.10208333333333333,0.5796296296296296],[-0.10208333333333333,0.5777777777777777],[-0.10208333333333333,0.5777777777777777],[-0.10208333333333333,0.5777777777777777],[-0.10208333333333333,0.575925925925926],[-0.10208333333333333,0.575925925925926],[-0.10208333333333333,0.575925925925926],[-0.10208333333333333,0.575925925925926],[-0.10208333333333333,0.5740740740740741],[-0.10208333333333333,0.5740740740740741]]","[[-0.06645833333333329,0.5079629629629628],[-0.06645833333333329,0.5079629629629628],[-0.08166666666666664,0.5287037037037037],[-0.09083333333333338,0.5055555555555555],[-0.09083333333333338,0.5055555555555555],[-0.10083333333333329,0.4994444444444445],[-0.1203125,0.487962962962963],[-0.1203125,0.487962962962963],[-0.15291666666666662,0.5040740740740741],[-0.15291666666666662,0.5040740740740741],[-0.17124999999999999,0.4844444444444445],[-0.17124999999999999,0.4844444444444445],[-0.20125000000000004,0.4818518518518519],[-0.18531249999999996,0.4698148148148149],[-0.18531249999999996,0.4698148148148149],[-0.2141666666666667,0.48555555555555563],[-0.2141666666666667,0.48555555555555563],[-0.21749999999999994,0.4714814814814815],[-0.21749999999999994,0.4714814814814815],[-0.21156250000000001,0.4479629629629629],[-0.2241666666666667,0.46407407407407414],[-0.24291666666666673,0.47240740740740744],[-0.2430208333333333,0.49148148148148146],[-0.2603125,0.4587037037037038],[-0.26458333333333334,0.4338888888888888],[-0.2607291666666666,0.4064814814814815],[-0.26062500000000005,0.3822222222222222],[-0.24229166666666668,0.3346296296296297],[-0.24906250000000002,0.2887037037037037],[-0.27291666666666664,0.2368518518518518],[-0.2751041666666667,0.21907407407407398],[-0.2703125,0.19203703703703712],[-0.27468750000000003,0.1596296296296297],[-0.2803125,0.16592592592592598],[-0.29270833333333335,0.1705555555555556],[-0.3051041666666666,0.14962962962962956],[-0.3307291666666667,0.12925925925925918],[-0.3476041666666667,0.12814814814814823],[-0.3796875,0.15333333333333324],[-0.3703125,0.1875925925925925],[-0.3694791666666667,0.17740740740740732],[-0.37854166666666667,0.16500000000000004],[-0.3876041666666667,0.15259259259259256],[-0.35531250000000003,0.18111111111111103],[-0.32302083333333337,0.20962962962962972],[-0.32135416666666666,0.2490740740740741],[-0.31968749999999996,0.28851851851851845],[-0.3486458333333334,0.2985185185185186],[-0.3486458333333334,0.2985185185185186],[-0.32531249999999995,0.28648148148148156],[-0.3342708333333333,0.2729629629629629],[-0.34322916666666664,0.2594444444444445],[-0.3841666666666666,0.2655555555555555],[-0.4226041666666667,0.2764814814814814],[-0.47239583333333335,0.24685185185185177],[-0.5221875,0.21722222222222215],[-0.5413541666666667,0.2022222222222223],[-0.5851041666666668,0.2242592592592593],[-0.5851041666666668,0.2242592592592593],[-0.6069791666666667,0.2564814814814815],[-0.6394791666666666,0.2881481481481482],[-0.6811458333333333,0.3164814814814814],[-0.7228125,0.3448148148148149],[-0.7064583333333334,0.3392592592592593],[-0.706875,0.3494444444444445],[-0.7273958333333332,0.35407407407407415],[-0.7479166666666667,0.3587037037037038],[-0.7479166666666667,0.3587037037037038],[-0.7563541666666667,0.34203703703703714],[-0.7563541666666667,0.34203703703703714],[-0.7530208333333334,0.29222222222222216],[-0.7472916666666667,0.2390740740740741],[-0.7569791666666668,0.22629629629629638],[-0.7528125,0.20870370370370378],[-0.7127083333333334,0.17814814814814822],[-0.6887500000000001,0.16407407407407412],[-0.6887500000000001,0.16407407407407412],[-0.6817708333333333,0.15833333333333333],[-0.6817708333333333,0.17296296296296293],[-0.6709375000000001,0.1814814814814815],[-0.6721874999999999,0.21129629629629634],[-0.661875,0.22259259259259268],[-0.6539583333333333,0.23722222222222225],[-0.6632291666666668,0.23925925925925934],[-0.6710416666666668,0.2412962962962962],[-0.7278125000000001,0.27611111111111114],[-0.7845833333333334,0.3109259259259259],[-0.7858333333333333,0.2675925925925926],[-0.7789583333333333,0.22814814814814824],[-0.7753125,0.2192592592592592],[-0.7820833333333332,0.2175925925925926],[-0.7820833333333332,0.2175925925925926],[-0.7808333333333334,0.23833333333333342],[-0.7751041666666667,0.2518518518518518],[-0.7751041666666667,0.2518518518518518],[-0.7003125,0.27240740740740743],[-0.6269791666666666,0.29296296296296304],[-0.5101041666666667,0.2887037037037037],[-0.39489583333333333,0.29444444444444445],[-0.30375,0.34629629629629627],[-0.22614583333333335,0.3890740740740741],[-0.15614583333333332,0.4074074074074074],[-0.07770833333333335,0.4198148148148149],[-0.00604166666666662,0.4244444444444445],[0.06114583333333338,0.43629629629629635],[0.06114583333333338,0.43629629629629635],[0.09510416666666661,0.4388888888888889],[0.1290625000000001,0.43333333333333335],[0.13250000000000003,0.4327777777777779],[0.15572916666666667,0.43074074074074076],[0.1787499999999999,0.43185185185185193],[0.19927083333333329,0.4390740740740741],[0.21979166666666666,0.4462962962962963],[0.2537499999999999,0.4462962962962963],[0.28187499999999993,0.48870370370370364],[0.29010416666666666,0.4905555555555555],[0.27791666666666665,0.4838888888888888],[0.28958333333333336,0.4883333333333334],[0.3012500000000001,0.4927777777777778],[0.27541666666666675,0.48277777777777786],[0.24958333333333324,0.4727777777777777],[0.2538541666666667,0.48407407407407405],[0.22447916666666667,0.4699999999999999],[0.18364583333333329,0.4618518518518518],[0.17645833333333344,0.4305555555555556],[0.2029166666666666,0.44962962962962955],[0.2029166666666666,0.44962962962962955],[0.22791666666666663,0.44648148148148153],[0.22791666666666663,0.44648148148148153],[0.2234375,0.45444444444444443],[0.2234375,0.45444444444444443],[0.1921875,0.44666666666666677],[0.1921875,0.44666666666666677],[0.19104166666666675,0.4287037037037037],[0.19104166666666675,0.4287037037037037],[0.21166666666666673,0.4327777777777779],[0.21166666666666673,0.4327777777777779],[0.20385416666666673,0.4183333333333333],[0.24385416666666657,0.4027777777777778],[0.24385416666666657,0.4027777777777778],[0.27239583333333334,0.40314814814814826],[0.2716666666666666,0.3816666666666667],[0.2716666666666666,0.3816666666666667],[0.26510416666666664,0.3427777777777778],[0.2535416666666668,0.3168518518518519],[0.2535416666666668,0.3168518518518519],[0.2476041666666667,0.27685185185185185],[0.29187500000000005,0.28111111111111103],[0.29187500000000005,0.28111111111111103],[0.3334374999999999,0.2838888888888888],[0.3264583333333334,0.275],[0.3421875,0.272037037037037],[0.34375,0.29555555555555557],[0.3359375,0.30037037037037045],[0.2690624999999999,0.29555555555555557],[0.2179166666666667,0.2825925925925926],[0.1570833333333333,0.29870370370370364],[0.11906249999999995,0.30574074074074076],[0.03177083333333333,0.2822222222222222],[-0.06927083333333334,0.2825925925925926],[-0.14354166666666662,0.27259259259259266],[-0.22364583333333338,0.24944444444444452],[-0.3151041666666667,0.21851851851851853],[-0.4227083333333333,0.19870370370370363],[-0.46427083333333335,0.19499999999999992],[-0.5294791666666667,0.2418518518518519],[-0.5294791666666667,0.2418518518518519],[-0.5768749999999999,0.24944444444444452],[-0.6377083333333334,0.22759259259259254],[-0.6364583333333333,0.24388888888888896],[-0.6534375,0.2638888888888889],[-0.6965625000000001,0.2962962962962963],[-0.71875,0.30703703703703694],[-0.7264583333333333,0.3161111111111112],[-0.7047916666666667,0.3509259259259259],[-0.7044791666666667,0.3772222222222223],[-0.6786458333333333,0.3427777777777778],[-0.654375,0.36648148148148146],[-0.6394791666666666,0.4287037037037037],[-0.6642708333333334,0.45759259259259266],[-0.6651041666666667,0.4764814814814814],[-0.656875,0.4366666666666666],[-0.6671875,0.42740740740740735],[-0.6594791666666667,0.4422222222222221],[-0.6388541666666666,0.4300000000000001],[-0.6115625,0.4068518518518519],[-0.6115625,0.4068518518518519],[-0.6097916666666666,0.40962962962962973],[-0.6097916666666666,0.40962962962962973],[-0.6205208333333334,0.37759259259259254],[-0.625625,0.3477777777777777],[-0.6375,0.32703703703703707],[-0.6467708333333333,0.28851851851851845],[-0.6197916666666666,0.29888888888888887],[-0.5567708333333333,0.3140740740740741],[-0.5148958333333333,0.3146296296296296],[-0.5148958333333333,0.3146296296296296],[-0.47885416666666664,0.32333333333333336],[-0.3985416666666667,0.35999999999999993],[-0.33229166666666665,0.3851851851851852],[-0.2625,0.4233333333333334],[-0.19468749999999999,0.4401851851851853],[-0.1397916666666667,0.44462962962962965],[-0.09520833333333331,0.46037037037037043],[-0.04770833333333328,0.47740740740740734],[-0.034895833333333334,0.4927777777777778],[-0.022083333333333382,0.5081481481481481],[-0.03302083333333338,0.5275925925925925],[-0.07906249999999998,0.5346296296296297],[-0.07781250000000005,0.5224074074074074],[-0.09979166666666663,0.4903703703703703],[-0.13177083333333334,0.4962962962962963],[-0.1172916666666667,0.4888888888888889],[-0.12208333333333338,0.4801851851851851],[-0.14895833333333333,0.4675925925925926],[-0.17625000000000005,0.4546296296296296],[-0.21833333333333335,0.4579629629629629],[-0.23937499999999995,0.4196296296296297],[-0.2389583333333333,0.39351851851851855],[-0.28072916666666664,0.38629629629629636],[-0.29270833333333335,0.3838888888888888],[-0.2977083333333333,0.3801851851851851],[-0.3403125000000001,0.4012962962962964],[-0.3559375000000001,0.4301851851851851],[-0.3601041666666667,0.4557407407407408],[-0.35968749999999994,0.4722222222222222],[-0.3444791666666667,0.47240740740740744],[-0.3266666666666667,0.4901851851851853],[-0.3567708333333333,0.519074074074074],[-0.3242708333333333,0.5437037037037038],[-0.3085416666666667,0.5796296296296296],[-0.28145833333333337,0.5942592592592593],[-0.2678125,0.605925925925926],[-0.22760416666666666,0.6070370370370369],[-0.20427083333333335,0.6111111111111112],[-0.18218749999999997,0.6240740740740741],[-0.16333333333333327,0.6087037037037037],[-0.12614583333333335,0.6235185185185186],[-0.07104166666666671,0.6272222222222223],[-0.06468750000000002,0.6027777777777777],[-0.03927083333333338,0.5651851851851852],[-0.041875000000000044,0.5755555555555555],[-0.07166666666666661,0.557037037037037],[-0.07166666666666661,0.557037037037037],[-0.12218749999999995,0.5485185185185186],[-0.15843750000000004,0.5520370370370371],[-0.15843750000000004,0.5520370370370371],[-0.19885416666666664,0.5403703703703703],[-0.23937499999999995,0.5775925925925925],[-0.31312500000000004,0.5968518518518517],[-0.31312500000000004,0.5968518518518517],[-0.37770833333333337,0.6050000000000001],[-0.42312500000000003,0.64],[-0.4903125,0.6737037037037036],[-0.5414583333333333,0.6631481481481482],[-0.5421875,0.6694444444444444],[-0.5366666666666667,0.6638888888888889],[-0.561875,0.6555555555555556],[-0.5819791666666667,0.6544444444444444],[-0.5819791666666667,0.6544444444444444],[-0.5921875,0.647037037037037],[-0.5921875,0.647037037037037],[-0.5695833333333333,0.6238888888888888],[-0.5686458333333333,0.5953703703703703],[-0.5686458333333333,0.5953703703703703],[-0.6151041666666667,0.5951851851851852],[-0.6151041666666667,0.5951851851851852],[-0.613125,0.5896296296296296],[-0.613125,0.5896296296296296],[-0.6271875,0.590925925925926],[-0.6271875,0.590925925925926],[-0.6311458333333333,0.5772222222222223],[-0.6458333333333334,0.5992592592592593],[-0.6314583333333333,0.5890740740740741],[-0.6301041666666667,0.5824074074074074],[-0.6331249999999999,0.5764814814814814],[-0.6517708333333334,0.5803703703703703],[-0.651875,0.5744444444444445],[-0.6286458333333333,0.5575925925925926],[-0.6046875,0.5555555555555556],[-0.5707291666666666,0.5522222222222223],[-0.573125,0.5562962962962963],[-0.5768749999999999,0.5370370370370371],[-0.5895833333333333,0.5462962962962963],[-0.599375,0.555925925925926],[-0.6174999999999999,0.5653703703703703],[-0.6205208333333334,0.5477777777777777],[-0.6177083333333333,0.5375925925925925],[-0.6222916666666667,0.5462962962962963],[-0.6526041666666667,0.5444444444444444],[-0.6553125000000001,0.5259259259259259],[-0.6053125,0.5140740740740741],[-0.5339583333333333,0.5259259259259259],[-0.4732291666666667,0.5357407407407406],[-0.4076041666666666,0.5396296296296296],[-0.32937500000000003,0.5322222222222222],[-0.2626041666666667,0.5372222222222223],[-0.2033333333333334,0.569074074074074],[-0.13708333333333336,0.5579629629629629],[-0.07843749999999995,0.5631481481481482],[-0.04135416666666671,0.5794444444444444],[-0.03312499999999995,0.5894444444444443],[-0.04624999999999998,0.5757407407407407],[-0.030312500000000023,0.5657407407407408],[-0.019270833333333334,0.5511111111111111],[-0.004791666666666691,0.5474074074074075],[-0.021041666666666715,0.5338888888888889],[-0.027083333333333334,0.5085185185185186],[-0.027083333333333334,0.5085185185185186],[-0.00947916666666669,0.5209259259259258],[0.002395833333333286,0.5092592592592593],[0.014687500000000023,0.4888888888888889],[0.014687500000000023,0.4888888888888889],[0.027395833333333286,0.48777777777777775],[-0.019895833333333356,0.4601851851851852],[-0.07614583333333336,0.425],[-0.12572916666666673,0.4251851851851852],[-0.16770833333333332,0.3979629629629629],[-0.1935416666666666,0.405925925925926],[-0.21447916666666664,0.38925925925925936],[-0.21447916666666664,0.38925925925925936],[-0.2695833333333333,0.37518518518518523],[-0.2795833333333333,0.3520370370370371],[-0.31833333333333336,0.3435185185185185],[-0.34104166666666663,0.327962962962963],[-0.3294791666666666,0.32462962962962955],[-0.3023958333333333,0.3333333333333333],[-0.29739583333333336,0.31129629629629635],[-0.29739583333333336,0.31129629629629635],[-0.2967708333333333,0.29370370370370374],[-0.30270833333333336,0.2716666666666668],[-0.32687499999999997,0.25999999999999995],[-0.3277083333333334,0.2411111111111112],[-0.3372916666666666,0.24259259259259258],[-0.3185416666666666,0.2381481481481482],[-0.28572916666666665,0.22444444444444453],[-0.2016666666666667,0.23851851851851844],[-0.1580208333333334,0.23037037037037034],[-0.09249999999999996,0.2624074074074075],[-0.09249999999999996,0.2624074074074075],[-0.06031249999999998,0.29740740740740745],[-0.06031249999999998,0.29740740740740745],[-0.0020833333333333333,0.34148148148148144],[0.07479166666666662,0.37962962962962965],[0.1404166666666666,0.41],[0.1404166666666666,0.41],[0.15927083333333342,0.4433333333333333],[0.18197916666666672,0.4885185185185184],[0.1898958333333333,0.5303703703703704],[0.14552083333333338,0.5429629629629631],[0.12854166666666675,0.5803703703703703],[0.1178124999999999,0.5896296296296296],[0.1178124999999999,0.5896296296296296],[0.12239583333333333,0.5896296296296296],[0.1304166666666667,0.590925925925926],[0.1304166666666667,0.590925925925926],[0.12895833333333329,0.6174074074074074],[0.11749999999999995,0.6329629629629628],[0.1321875000000001,0.6414814814814814],[0.1382291666666667,0.6196296296296296],[0.13541666666666666,0.6277777777777778],[0.159375,0.6516666666666666],[0.15437500000000004,0.6492592592592593],[0.13666666666666671,0.6407407407407407],[0.13614583333333338,0.6637037037037037],[0.12197916666666657,0.6685185185185185],[0.08468749999999996,0.6381481481481482],[0.08468749999999996,0.6381481481481482],[0.05625,0.6174074074074074],[0.05625,0.6174074074074074],[0.016979166666666618,0.6094444444444445],[-0.03687499999999998,0.6025925925925926],[-0.0828125,0.5859259259259259],[-0.10031249999999996,0.5648148148148148],[-0.08697916666666666,0.5627777777777777],[-0.11291666666666664,0.55],[-0.11291666666666664,0.55],[-0.14781249999999999,0.505925925925926],[-0.19020833333333337,0.4868518518518518],[-0.18062499999999998,0.4911111111111112],[-0.18062499999999998,0.4911111111111112],[-0.21354166666666666,0.4838888888888888],[-0.21354166666666666,0.4838888888888888],[-0.21614583333333334,0.43555555555555564],[-0.21614583333333334,0.43555555555555564],[-0.2289583333333333,0.4185185185185185],[-0.2289583333333333,0.4185185185185185],[-0.2679166666666667,0.4035185185185185],[-0.3536458333333333,0.3883333333333334],[-0.3536458333333333,0.3883333333333334],[-0.4328125,0.39444444444444443],[-0.48000000000000004,0.3727777777777777],[-0.5252083333333333,0.39574074074074084],[-0.5706249999999999,0.3774074074074073],[-0.6467708333333333,0.35759259259259263],[-0.6711458333333333,0.3501851851851852],[-0.7380208333333333,0.38851851851851843],[-0.7063541666666667,0.3968518518518518],[-0.6351041666666667,0.40666666666666673],[-0.5772916666666668,0.40111111111111114],[-0.5772916666666668,0.40111111111111114],[-0.5109375,0.3937037037037037],[-0.5109375,0.3937037037037037],[-0.4313541666666667,0.42296296296296293],[-0.38250000000000006,0.4177777777777778],[-0.2865625,0.40796296296296286],[-0.22281249999999997,0.4009259259259259],[-0.15187499999999995,0.36999999999999994],[-0.04552083333333338,0.3512962962962964],[-0.04125000000000002,0.3487037037037036],[-0.035104166666666714,0.3392592592592593],[-0.0032291666666666905,0.36740740740740735],[0.0007291666666667141,0.3461111111111111],[0.006666666666666643,0.32259259259259265],[0.08031249999999991,0.29499999999999993],[0.08125,0.3111111111111111],[0.1015625,0.3314814814814815],[0.09697916666666657,0.36666666666666664],[0.08052083333333329,0.3698148148148149],[0.13270833333333343,0.3696296296296297],[0.1428124999999999,0.35611111111111104],[0.16270833333333337,0.33907407407407414],[0.16395833333333343,0.3375925925925925],[0.1974999999999999,0.33722222222222226],[0.19895833333333332,0.3490740740740741],[0.1796875,0.3562962962962963],[0.20447916666666663,0.3135185185185184],[0.20447916666666663,0.3135185185185184],[0.21385416666666662,0.27240740740740743],[0.21385416666666662,0.27240740740740743],[0.26885416666666656,0.2388888888888889],[0.2384375000000001,0.22555555555555548],[0.2384375000000001,0.22555555555555548],[0.2703125,0.22962962962962963],[0.2834374999999999,0.2162962962962962],[0.3159374999999999,0.21074074074074065],[0.3159374999999999,0.21074074074074065],[0.28875000000000006,0.17981481481481484],[0.2900000000000001,0.19277777777777783],[0.2900000000000001,0.19277777777777783],[0.30270833333333325,0.12685185185185185],[0.2953125,0.12222222222222222],[0.2953125,0.12222222222222222],[0.2859375,0.07037037037037037],[0.2795833333333334,0.11500000000000005],[0.2691666666666668,0.05648148148148148],[0.2691666666666668,0.05648148148148148],[0.21572916666666658,-0.01629629629629621],[0.1728125000000001,-0.05944444444444449],[0.13031249999999991,-0.10481481481481486],[0.07531249999999995,-0.08777777777777773],[-0.0020833333333333333,-0.14000000000000004],[-0.0020833333333333333,-0.14000000000000004],[-0.007708333333333309,-0.14425925925925923],[-0.03166666666666664,-0.16166666666666668],[-0.03166666666666664,-0.16166666666666668],[-0.05270833333333336,-0.1698148148148148],[-0.16479166666666673,-0.31925925925925924],[-0.1766666666666667,-0.35111111111111115],[-0.17927083333333335,-0.3877777777777777],[-0.17604166666666668,-0.41],[-0.1827083333333333,-0.42851851851851847],[-0.15291666666666662,-0.5024074074074074],[-0.15291666666666662,-0.5024074074074074],[-0.14677083333333332,-0.557962962962963],[-0.17083333333333334,-0.5640740740740741],[-0.17843749999999994,-0.6062962962962962],[-0.17843749999999994,-0.6062962962962962],[-0.15062500000000004,-0.5887037037037036],[-0.15062500000000004,-0.5887037037037036],[-0.08718750000000004,-0.5227777777777778],[-0.09177083333333336,-0.4964814814814815],[-0.09947916666666666,-0.4546296296296296],[-0.09395833333333338,-0.4922222222222222],[-0.08916666666666669,-0.5549999999999999],[-0.08104166666666662,-0.5105555555555555],[-0.06979166666666667,-0.5264814814814816],[-0.07614583333333336,-0.5653703703703704],[-0.09177083333333336,-0.5733333333333334],[-0.11343749999999998,-0.5835185185185185],[-0.1345833333333334,-0.596111111111111],[-0.12041666666666669,-0.5722222222222222],[-0.12781250000000005,-0.5825925925925927],[-0.14979166666666663,-0.5542592592592592],[-0.140625,-0.5122222222222222],[-0.15833333333333333,-0.5768518518518518],[-0.15531250000000002,-0.5462962962962963],[-0.15531250000000002,-0.5462962962962963],[-0.12895833333333329,-0.5164814814814814],[-0.12895833333333329,-0.5164814814814814],[-0.11302083333333333,-0.5188888888888888],[-0.13125,-0.5211111111111111],[-0.11979166666666667,-0.5181481481481481],[-0.15906250000000005,-0.5851851851851851],[-0.15427083333333336,-0.6046296296296296],[-0.15291666666666662,-0.6270370370370371],[-0.1716666666666666,-0.6357407407407407],[-0.1859375,-0.6235185185185185],[-0.21666666666666667,-0.6427777777777778],[-0.21666666666666667,-0.6427777777777778],[-0.21666666666666667,-0.6427777777777778],[-0.23781249999999995,-0.6866666666666666],[-0.23781249999999995,-0.6866666666666666],[-0.24343750000000006,-0.6505555555555556],[-0.24343750000000006,-0.6505555555555556],[-0.18697916666666667,-0.6081481481481481],[-0.18697916666666667,-0.6081481481481481],[-0.19281250000000003,-0.6003703703703703],[-0.19281250000000003,-0.6003703703703703],[-0.09624999999999997,-0.544074074074074],[-0.09624999999999997,-0.544074074074074],[-0.10083333333333329,-0.5127777777777778],[-0.10083333333333329,-0.5127777777777778],[-0.12270833333333328,-0.5101851851851852],[-0.12270833333333328,-0.5101851851851852],[-0.10718749999999998,-0.4853703703703704],[-0.10718749999999998,-0.4853703703703704],[-0.07406250000000002,-0.4655555555555555],[-0.07406250000000002,-0.4655555555555555],[-0.04010416666666667,-0.42462962962962963],[-0.04010416666666667,-0.42462962962962963],[-0.07687499999999996,-0.36370370370370364],[-0.07687499999999996,-0.36370370370370364],[-0.11843750000000004,-0.36444444444444446],[-0.11843750000000004,-0.36444444444444446],[-0.18250000000000005,-0.4264814814814815],[-0.18250000000000005,-0.4264814814814815],[-0.22718750000000001,-0.4624074074074074],[-0.22718750000000001,-0.4624074074074074],[-0.2969791666666667,-0.46870370370370373]]","[[-0.06645833333333329,0.5079629629629628,0.0003000001907338401],[-0.06645833333333329,0.5079629629629628,0.04720000028609661],[-0.08166666666666664,0.5287037037037037,0.059800000190733726],[-0.09083333333333338,0.5055555555555555,0.08180000019072509],[-0.09083333333333338,0.5055555555555555,0.09370000028610548],[-0.10083333333333329,0.4994444444444445,0.10990000009536516],[-0.1203125,0.487962962962963,0.13540000009535902],[-0.1203125,0.487962962962963,0.15490000009536686],[-0.15291666666666662,0.5040740740740741,0.17149999999999466],[-0.15291666666666662,0.5040740740740741,0.182300000190736],[-0.17124999999999999,0.4844444444444445,0.19809999990462757],[-0.17124999999999999,0.4844444444444445,0.20990000009535947],[-0.20125000000000004,0.4818518518518519,0.22659999990463575],[-0.18531249999999996,0.4698148148148149,0.24890000009536095],[-0.18531249999999996,0.4698148148148149,0.25980000019073657],[-0.2141666666666667,0.48555555555555563,0.2765999999046329],[-0.2141666666666667,0.48555555555555563,0.293300000190726],[-0.21749999999999994,0.4714814814814815,0.3100000000000023],[-0.21749999999999994,0.4714814814814815,0.3264999999999958],[-0.21156250000000001,0.4479629629629629,0.3432000002861031],[-0.2241666666666667,0.46407407407407414,0.3598000001907309],[-0.24291666666666673,0.47240740740740744,0.37649999999999295],[-0.2430208333333333,0.49148148148148146,0.3933000001907345],[-0.2603125,0.4587037037037038,0.41290000009536243],[-0.26458333333333334,0.4338888888888888,0.4264999999999901],[-0.2607291666666666,0.4064814814814815,0.4432000002860974],[-0.26062500000000005,0.3822222222222222,0.4598000001907252],[-0.24229166666666668,0.3346296296296297,0.4765000000000015],[-0.24906250000000002,0.2887037037037037,0.49359999990463166],[-0.27291666666666664,0.2368518518518518,0.5099000000953566],[-0.2751041666666667,0.21907407407407398,0.5265999999046329],[-0.2703125,0.19203703703703712,0.5432000002860917],[-0.27468750000000003,0.1596296296296297,0.559900000095368],[-0.2803125,0.16592592592592598,0.5765999999046301],[-0.29270833333333335,0.1705555555555556,0.5932000002861031],[-0.3051041666666666,0.14962962962962956,0.6099000000953652],[-0.3307291666666667,0.12925925925925918,0.626499999999993],[-0.3476041666666667,0.12814814814814823,0.6434000000953688],[-0.3796875,0.15333333333333324,0.6599000000953623],[-0.3703125,0.1875925925925925,0.6765999999046244],[-0.3694791666666667,0.17740740740740732,0.6933000001907317],[-0.37854166666666667,0.16500000000000004,0.7099000000953595],[-0.3876041666666667,0.15259259259259256,0.7265000000000015],[-0.35531250000000003,0.18111111111111103,0.7432000002860946],[-0.32302083333333337,0.20962962962962972,0.7599000000953566],[-0.32135416666666666,0.2490740740740741,0.7765999999046329],[-0.31968749999999996,0.28851851851851845,0.7932000002860917],[-0.3486458333333334,0.2985185185185186,0.809900000095368],[-0.3486458333333334,0.2985185185185186,0.8264999999999958],[-0.32531249999999995,0.28648148148148156,0.8432000002861031],[-0.3342708333333333,0.2729629629629629,0.8599000000953652],[-0.34322916666666664,0.2594444444444445,0.8765999999046272],[-0.3841666666666666,0.2655555555555555,0.895700000286098],[-0.4226041666666667,0.2764814814814814,0.910499999999999],[-0.47239583333333335,0.24685185185185177,0.9265999999046244],[-0.5221875,0.21722222222222215,0.9432000002860974],[-0.5413541666666667,0.2022222222222223,0.9599000000953595],[-0.5851041666666668,0.2242592592592593,0.9769999999999897],[-0.5851041666666668,0.2242592592592593,0.9932000002860946],[-0.6069791666666667,0.2564814814814815,1.0099000000953566],[-0.6394791666666666,0.2881481481481482,1.0264999999999986],[-0.6811458333333333,0.3164814814814814,1.0432000002860917],[-0.7228125,0.3448148148148149,1.059900000095368],[-0.7064583333333334,0.3392592592592593,1.076900000095364],[-0.706875,0.3494444444444445,1.0953000001907327],[-0.7273958333333332,0.35407407407407415,1.1099999999999994],[-0.7479166666666667,0.3587037037037038,1.1274000000953635],[-0.7479166666666667,0.3587037037037038,1.1434000000953688],[-0.7563541666666667,0.34203703703703714,1.1599000000953623],[-0.7563541666666667,0.34203703703703714,1.1765999999046244],[-0.7530208333333334,0.29222222222222216,1.1932000002860974],[-0.7472916666666667,0.2390740740740741,1.2099000000953595],[-0.7569791666666668,0.22629629629629638,1.2265000000000015],[-0.7528125,0.20870370370370378,1.2432000002860946],[-0.7127083333333334,0.17814814814814822,1.2599000000953566],[-0.6887500000000001,0.16407407407407412,1.276599999904633],[-0.6887500000000001,0.16407407407407412,1.2932000002860917],[-0.6817708333333333,0.15833333333333333,1.3098000001907337],[-0.6817708333333333,0.17296296296296293,1.3264999999999958],[-0.6709375000000001,0.1814814814814815,1.343200000286103],[-0.6721874999999999,0.21129629629629634,1.3599000000953652],[-0.661875,0.22259259259259268,1.376499999999993],[-0.6539583333333333,0.23722222222222225,1.3939999999999912],[-0.6632291666666668,0.23925925925925934,1.4099000000953623],[-0.6710416666666668,0.2412962962962962,1.42649999999999],[-0.7278125000000001,0.27611111111111114,1.4432000002860974],[-0.7845833333333334,0.3109259259259259,1.4599000000953595],[-0.7858333333333333,0.2675925925925926,1.4765000000000015],[-0.7789583333333333,0.22814814814814824,1.4949999999999903],[-0.7753125,0.2192592592592592,1.5128000001907367],[-0.7820833333333332,0.2175925925925926,1.530700000286103],[-0.7820833333333332,0.2175925925925926,1.543300000190726],[-0.7808333333333334,0.23833333333333342,1.559900000095368],[-0.7751041666666667,0.2518518518518518,1.5827000002860956],[-0.7751041666666667,0.2518518518518518,1.593200000286103],[-0.7003125,0.27240740740740743,1.6099000000953652],[-0.6269791666666666,0.29296296296296304,1.626499999999993],[-0.5101041666666667,0.2887037037037037,1.643900000095357],[-0.39489583333333333,0.29444444444444445,1.6600999999046309],[-0.30375,0.34629629629629627,1.67649999999999],[-0.22614583333333335,0.3890740740740741,1.6944999999999908],[-0.15614583333333332,0.4074074074074074,1.7099999999999937],[-0.07770833333333335,0.4198148148148149,1.7265000000000015],[-0.00604166666666662,0.4244444444444445,1.7432000002860946],[0.06114583333333338,0.43629629629629635,1.7713000001907346],[0.06114583333333338,0.43629629629629635,1.7784000000953597],[0.09510416666666661,0.4388888888888889,1.7932000002860917],[0.1290625000000001,0.43333333333333335,1.809900000095368],[0.13250000000000003,0.4327777777777779,1.8264999999999958],[0.15572916666666667,0.43074074074074076,1.8433000001907374],[0.1787499999999999,0.43185185185185193,1.8599000000953652],[0.19927083333333329,0.4390740740740741,1.8793000001907245],[0.21979166666666666,0.4462962962962963,1.8949000000953617],[0.2537499999999999,0.4462962962962963,1.9110999999046356],[0.28187499999999993,0.48870370370370364,1.9273000001907263],[0.29010416666666666,0.4905555555555555,1.9435000000000002],[0.27791666666666665,0.4838888888888888,1.9603000001907276],[0.28958333333333336,0.4883333333333334,1.9765000000000015],[0.3012500000000001,0.4927777777777778,1.9933000001907288],[0.27541666666666675,0.48277777777777786,2.010400000095359],[0.24958333333333324,0.4727777777777777,2.0264999999999986],[0.2538541666666667,0.48407407407407405,2.0432000002860917],[0.22447916666666667,0.4699999999999999,2.0604000000953704],[0.18364583333333329,0.4618518518518518,2.078099999904623],[0.17645833333333344,0.4305555555555556,2.0944999999999965],[0.2029166666666666,0.44962962962962955,2.1104000000953675],[0.2029166666666666,0.44962962962962955,2.126499999999993],[0.22791666666666663,0.44648148148148153,2.1433000001907345],[0.22791666666666663,0.44648148148148153,2.1599000000953623],[0.2234375,0.45444444444444443,2.1765999999046244],[0.2234375,0.45444444444444443,2.1933000001907317],[0.1921875,0.44666666666666677,2.2099000000953595],[0.1921875,0.44666666666666677,2.2265999999046358],[0.19104166666666675,0.4287037037037037,2.243300000190729],[0.19104166666666675,0.4287037037037037,2.263300000190725],[0.21166666666666673,0.4327777777777779,2.2764999999999986],[0.21166666666666673,0.4327777777777779,2.293300000190726],[0.20385416666666673,0.4183333333333333,2.309900000095368],[0.24385416666666657,0.4027777777777778,2.330599999904635],[0.24385416666666657,0.4027777777777778,2.343200000286103],[0.27239583333333334,0.40314814814814826,2.359900000095365],[0.2716666666666666,0.3816666666666667,2.380599999904632],[0.2716666666666666,0.3816666666666667,2.393500000000003],[0.26510416666666664,0.3427777777777778,2.4099000000953623],[0.2535416666666668,0.3168518518518519,2.432000000000002],[0.2535416666666668,0.3168518518518519,2.4432000002860974],[0.2476041666666667,0.27685185185185185,2.459800000190725],[0.29187500000000005,0.28111111111111103,2.481499999999997],[0.29187500000000005,0.28111111111111103,2.493400000095363],[0.3334374999999999,0.2838888888888888,2.5098000001907366],[0.3264583333333334,0.275,2.530700000286103],[0.3421875,0.272037037037037,2.5479000000953675],[0.34375,0.29555555555555557,2.5623000001907315],[0.3359375,0.30037037037037045,2.578099999904623],[0.2690624999999999,0.29555555555555557,2.593200000286103],[0.2179166666666667,0.2825925925925926,2.609800000190731],[0.1570833333333333,0.29870370370370364,2.626499999999993],[0.11906249999999995,0.30574074074074076,2.643500000000003],[0.03177083333333333,0.2822222222222222,2.6599000000953623],[-0.06927083333333334,0.2825925925925926,2.676800000190738],[-0.14354166666666662,0.27259259259259266,2.695300000190727],[-0.22364583333333338,0.24944444444444452,2.711200000286098],[-0.3151041666666667,0.21851851851851853,2.7265000000000015],[-0.4227083333333333,0.19870370370370363,2.7432000002860946],[-0.46427083333333335,0.19499999999999992,2.759999999999991],[-0.5294791666666667,0.2418518518518519,2.7764999999999986],[-0.5294791666666667,0.2418518518518519,2.7932000002860917],[-0.5768749999999999,0.24944444444444452,2.809900000095368],[-0.6377083333333334,0.22759259259259254,2.826499999999996],[-0.6364583333333333,0.24388888888888896,2.8437000002861055],[-0.6534375,0.2638888888888889,2.8603000001907333],[-0.6965625000000001,0.2962962962962963,2.876499999999993],[-0.71875,0.30703703703703694,2.893500000000003],[-0.7264583333333333,0.3161111111111112,2.9123000001907258],[-0.7047916666666667,0.3509259259259259,2.926700000286104],[-0.7044791666666667,0.3772222222222223,2.9435000000000002],[-0.6786458333333333,0.3427777777777778,2.9599000000953595],[-0.654375,0.36648148148148146,2.978499999999997],[-0.6394791666666666,0.4287037037037037,2.9957000002860923],[-0.6642708333333334,0.45759259259259266,3.0123000001907343],[-0.6651041666666667,0.4764814814814814,3.0278000001907373],[-0.656875,0.4366666666666666,3.0432000002860917],[-0.6671875,0.42740740740740735,3.0612000002860924],[-0.6594791666666667,0.4422222222222221,3.0779000000953687],[-0.6388541666666666,0.4300000000000001,3.0945999999046307],[-0.6115625,0.4068518518518519,3.1123000001907286],[-0.6115625,0.4068518518518519,3.1265999999046272],[-0.6097916666666666,0.40962962962962973,3.1433000001907345],[-0.6097916666666666,0.40962962962962973,3.1599000000953623],[-0.6205208333333334,0.37759259259259254,3.176700000286104],[-0.625625,0.3477777777777777,3.194499999999991],[-0.6375,0.32703703703703707,3.2114000000953666],[-0.6467708333333333,0.28851851851851845,3.2269000000953696],[-0.6197916666666666,0.29888888888888887,3.2445999999046222],[-0.5567708333333333,0.3140740740740741,3.2599000000953566],[-0.5148958333333333,0.3146296296296296,3.28140000009536],[-0.5148958333333333,0.3146296296296296,3.293300000190726],[-0.47885416666666664,0.32333333333333336,3.3098000001907337],[-0.3985416666666667,0.35999999999999993,3.326499999999996],[-0.33229166666666665,0.3851851851851852,3.3433000001907374],[-0.2625,0.4233333333333334,3.359900000095365],[-0.19468749999999999,0.4401851851851853,3.3770999999046296],[-0.1397916666666667,0.44462962962962965,3.3932000002861002],[-0.09520833333333331,0.46037037037037043,3.410200000286096],[-0.04770833333333328,0.47740740740740734,3.42649999999999],[-0.034895833333333334,0.4927777777777778,3.4454999999999956],[-0.022083333333333382,0.5081481481481481,3.459800000190725],[-0.03302083333333338,0.5275925925925925,3.4765000000000015],[-0.07906249999999998,0.5346296296296297,3.493400000095363],[-0.07781250000000005,0.5224074074074074,3.5102000002861047],[-0.09979166666666663,0.4903703703703703,3.5264000000953644],[-0.13177083333333334,0.4962962962962963,3.5430999999046264],[-0.1172916666666667,0.4888888888888889,3.559900000095368],[-0.12208333333333338,0.4801851851851851,3.576900000095364],[-0.14895833333333333,0.4675925925925926,3.5944999999999965],[-0.17625000000000005,0.4546296296296296,3.609900000095365],[-0.21833333333333335,0.4579629629629629,3.6264000000953587],[-0.23937499999999995,0.4196296296296297,3.643400000095369],[-0.2389583333333333,0.39351851851851855,3.6599000000953623],[-0.28072916666666664,0.38629629629629636,3.67649999999999],[-0.29270833333333335,0.3838888888888888,3.693099999904632],[-0.2977083333333333,0.3801851851851851,3.71080000019073],[-0.3403125000000001,0.4012962962962964,3.7265999999046358],[-0.3559375000000001,0.4301851851851851,3.7438000001907312],[-0.3601041666666667,0.4557407407407408,3.7598000001907366],[-0.35968749999999994,0.4722222222222222,3.7764999999999986],[-0.3444791666666667,0.47240740740740744,3.7930999999046264],[-0.3266666666666667,0.4901851851851853,3.809900000095368],[-0.3567708333333333,0.519074074074074,3.8264000000953615],[-0.3242708333333333,0.5437037037037038,3.8453000001907327],[-0.3085416666666667,0.5796296296296296,3.859800000190731],[-0.28145833333333337,0.5942592592592593,3.876499999999993],[-0.2678125,0.605925925925926,3.8963000001907346],[-0.22760416666666666,0.6070370370370369,3.910499999999999],[-0.20427083333333335,0.6111111111111112,3.92649999999999],[-0.18218749999999997,0.6240740740740741,3.943400000095366],[-0.16333333333333327,0.6087037037037037,3.959800000190725],[-0.12614583333333335,0.6235185185185186,3.9765000000000015],[-0.07104166666666671,0.6272222222222223,3.993300000190729],[-0.06468750000000002,0.6027777777777777,4.011200000286095],[-0.03927083333333338,0.5651851851851852,4.026499999999999],[-0.041875000000000044,0.5755555555555555,4.045099999904622],[-0.07166666666666661,0.557037037037037,4.063800000190724],[-0.07166666666666661,0.557037037037037,4.082400000095362],[-0.12218749999999995,0.5485185185185186,4.098700000286101],[-0.15843750000000004,0.5520370370370371,4.112700000286097],[-0.15843750000000004,0.5520370370370371,4.126499999999993],[-0.19885416666666664,0.5403703703703703,4.1433000001907345],[-0.23937499999999995,0.5775925925925925,4.1607000002860985],[-0.31312500000000004,0.5968518518518517,4.176700000286104],[-0.31312500000000004,0.5968518518518517,4.193200000286097],[-0.37770833333333337,0.6050000000000001,4.209800000190725],[-0.42312500000000003,0.64,4.226599999904636],[-0.4903125,0.6737037037037036,4.243200000286095],[-0.5414583333333333,0.6631481481481482,4.259900000095357],[-0.5421875,0.6694444444444444,4.2794000000953645],[-0.5366666666666667,0.6638888888888889,4.294499999999999],[-0.561875,0.6555555555555556,4.309900000095368],[-0.5819791666666667,0.6544444444444444,4.326499999999996],[-0.5819791666666667,0.6544444444444444,4.343200000286103],[-0.5921875,0.647037037037037,4.359900000095365],[-0.5921875,0.647037037037037,4.376499999999993],[-0.5695833333333333,0.6238888888888888,4.3932000002861],[-0.5686458333333333,0.5953703703703703,4.414999999999992],[-0.5686458333333333,0.5953703703703703,4.42649999999999],[-0.6151041666666667,0.5951851851851852,4.443200000286097],[-0.6151041666666667,0.5951851851851852,4.459800000190725],[-0.613125,0.5896296296296296,4.4765000000000015],[-0.613125,0.5896296296296296,4.493200000286095],[-0.6271875,0.590925925925926,4.509800000190737],[-0.6271875,0.590925925925926,4.526499999999999],[-0.6311458333333333,0.5772222222222223,4.543200000286092],[-0.6458333333333334,0.5992592592592593,4.559800000190734],[-0.6314583333333333,0.5890740740740741,4.577200000286098],[-0.6301041666666667,0.5824074074074074,4.593099999904624],[-0.6331249999999999,0.5764814814814814,4.609800000190731],[-0.6517708333333334,0.5803703703703703,4.626499999999993],[-0.651875,0.5744444444444445,4.643099999904635],[-0.6286458333333333,0.5575925925925926,4.659800000190728],[-0.6046875,0.5555555555555556,4.676599999904624],[-0.5707291666666666,0.5522222222222223,4.694700000286105],[-0.573125,0.5562962962962963,4.709800000190725],[-0.5768749999999999,0.5370370370370371,4.7265000000000015],[-0.5895833333333333,0.5462962962962963,4.743099999904629],[-0.599375,0.555925925925926,4.760999999999996],[-0.6174999999999999,0.5653703703703703,4.776599999904633],[-0.6205208333333334,0.5477777777777777,4.794900000095367],[-0.6177083333333333,0.5375925925925925,4.809800000190734],[-0.6222916666666667,0.5462962962962963,4.826499999999996],[-0.6526041666666667,0.5444444444444444,4.843200000286103],[-0.6553125000000001,0.5259259259259259,4.859800000190731],[-0.6053125,0.5140740740740741,4.876599999904627],[-0.5339583333333333,0.5259259259259259,4.893500000000003],[-0.4732291666666667,0.5357407407407406,4.909900000095362],[-0.4076041666666666,0.5396296296296296,4.92649999999999],[-0.32937500000000003,0.5322222222222222,4.945700000286095],[-0.2626041666666667,0.5372222222222223,4.959999999999994],[-0.2033333333333334,0.569074074074074,4.976700000286101],[-0.13708333333333336,0.5579629629629629,4.996099999904629],[-0.07843749999999995,0.5631481481481482,5.0113000001907295],[-0.04135416666666671,0.5794444444444444,5.029200000286096],[-0.03312499999999995,0.5894444444444443,5.043099999904626],[-0.04624999999999998,0.5757407407407407,5.059800000190734],[-0.030312500000000023,0.5657407407407408,5.076499999999996],[-0.019270833333333334,0.5511111111111111,5.093099999904624],[-0.004791666666666691,0.5474074074074075,5.109900000095365],[-0.021041666666666715,0.5338888888888889,5.126400000095359],[-0.027083333333333334,0.5085185185185186,5.1474000000953595],[-0.027083333333333334,0.5085185185185186,5.159900000095362],[-0.00947916666666669,0.5209259259259258,5.176599999904624],[0.002395833333333286,0.5092592592592593,5.194400000095371],[0.014687500000000023,0.4888888888888889,5.209800000190725],[0.014687500000000023,0.4888888888888889,5.226400000095367],[0.027395833333333286,0.48777777777777775,5.243200000286095],[-0.019895833333333356,0.4601851851851852,5.261499999999998],[-0.07614583333333336,0.425,5.276499999999999],[-0.12572916666666673,0.4251851851851852,5.293200000286092],[-0.16770833333333332,0.3979629629629629,5.309800000190734],[-0.1935416666666666,0.405925925925926,5.326499999999996],[-0.21447916666666664,0.38925925925925936,5.343200000286103],[-0.21447916666666664,0.38925925925925936,5.359800000190731],[-0.2695833333333333,0.37518518518518523,5.376499999999993],[-0.2795833333333333,0.3520370370370371,5.393099999904635],[-0.31833333333333336,0.3435185185185185,5.409800000190728],[-0.34104166666666663,0.327962962962963,5.42649999999999],[-0.3294791666666666,0.32462962962962955,5.443099999904632],[-0.3023958333333333,0.3333333333333333,5.462599999904626],[-0.29739583333333336,0.31129629629629635,5.477200000286103],[-0.29739583333333336,0.31129629629629635,5.493200000286095],[-0.2967708333333333,0.29370370370370374,5.509800000190737],[-0.30270833333333336,0.2716666666666668,5.526499999999999],[-0.32687499999999997,0.25999999999999995,5.543099999904626],[-0.3277083333333334,0.2411111111111112,5.559800000190734],[-0.3372916666666666,0.24259259259259258,5.576999999999998],[-0.3185416666666666,0.2381481481481482,5.593099999904624],[-0.28572916666666665,0.22444444444444453,5.612499999999997],[-0.2016666666666667,0.23851851851851844,5.6292000002861045],[-0.1580208333333334,0.23037037037037034,5.644599999904628],[-0.09249999999999996,0.2624074074074075,5.66840000009536],[-0.09249999999999996,0.2624074074074075,5.677200000286092],[-0.06031249999999998,0.29740740740740745,5.698200000286093],[-0.06031249999999998,0.29740740740740745,5.709800000190725],[-0.0020833333333333333,0.34148148148148144,5.7265000000000015],[0.07479166666666662,0.37962962962962965,5.744700000286102],[0.1404166666666666,0.41,5.762400000095369],[0.1404166666666666,0.41,5.776599999904633],[0.15927083333333342,0.4433333333333333,5.793099999904626],[0.18197916666666672,0.4885185185185184,5.809800000190734],[0.1898958333333333,0.5303703703703704,5.82659999990463],[0.14552083333333338,0.5429629629629631,5.844599999904631],[0.12854166666666675,0.5803703703703703,5.86399999999999],[0.1178124999999999,0.5896296296296296,5.8793000001907245],[0.1178124999999999,0.5896296296296296,5.893099999904635],[0.12239583333333333,0.5896296296296296,5.9133000001907305],[0.1304166666666667,0.590925925925926,5.930999999999997],[0.1304166666666667,0.590925925925926,5.943200000286097],[0.12895833333333329,0.6174074074074074,5.959800000190725],[0.11749999999999995,0.6329629629629628,5.97790000009536],[0.1321875000000001,0.6414814814814814,5.996099999904629],[0.1382291666666667,0.6196296296296296,6.011200000286095],[0.13541666666666666,0.6277777777777778,6.026900000095367],[0.159375,0.6516666666666666,6.043099999904626],[0.15437500000000004,0.6492592592592593,6.059800000190734],[0.13666666666666671,0.6407407407407407,6.077200000286098],[0.13614583333333338,0.6637037037037037,6.094999999999999],[0.12197916666666657,0.6685185185185185,6.109800000190731],[0.08468749999999996,0.6381481481481482,6.1312000002861],[0.08468749999999996,0.6381481481481482,6.1433000001907345],[0.05625,0.6174074074074074,6.159999999999997],[0.05625,0.6174074074074074,6.176599999904624],[0.016979166666666618,0.6094444444444445,6.193200000286097],[-0.03687499999999998,0.6025925925925926,6.211599999904635],[-0.0828125,0.5859259259259259,6.226400000095367],[-0.10031249999999996,0.5648148148148148,6.243099999904629],[-0.08697916666666666,0.5627777777777777,6.259800000190737],[-0.11291666666666664,0.55,6.276400000095364],[-0.11291666666666664,0.55,6.293099999904626],[-0.14781249999999999,0.505925925925926,6.309900000095368],[-0.19020833333333337,0.4868518518518518,6.330900000095369],[-0.18062499999999998,0.4911111111111112,6.3497000002860915],[-0.18062499999999998,0.4911111111111112,6.359800000190731],[-0.21354166666666666,0.4838888888888888,6.376499999999993],[-0.21354166666666666,0.4838888888888888,6.3932000002861],[-0.21614583333333334,0.43555555555555564,6.409800000190728],[-0.21614583333333334,0.43555555555555564,6.42649999999999],[-0.2289583333333333,0.4185185185185185,6.443200000286097],[-0.2289583333333333,0.4185185185185185,6.459800000190725],[-0.2679166666666667,0.4035185185185185,6.4765000000000015],[-0.3536458333333333,0.3883333333333334,6.498300000190724],[-0.3536458333333333,0.3883333333333334,6.509900000095357],[-0.4328125,0.39444444444444443,6.526400000095364],[-0.48000000000000004,0.3727777777777777,6.543200000286092],[-0.5252083333333333,0.39574074074074084,6.559800000190734],[-0.5706249999999999,0.3774074074074073,6.5764000000953615],[-0.6467708333333333,0.35759259259259263,6.593300000190737],[-0.6711458333333333,0.3501851851851852,6.609999999999999],[-0.7380208333333333,0.38851851851851843,6.628900000095371],[-0.7063541666666667,0.3968518518518518,6.644499999999994],[-0.6351041666666667,0.40666666666666673,6.660499999999999],[-0.5772916666666668,0.40111111111111114,6.677900000095363],[-0.5772916666666668,0.40111111111111114,6.6962000002860975],[-0.5109375,0.3937037037037037,6.709800000190725],[-0.5109375,0.3937037037037037,6.726400000095367],[-0.4313541666666667,0.42296296296296293,6.743200000286095],[-0.38250000000000006,0.4177777777777778,6.763499999999993],[-0.2865625,0.40796296296296286,6.778499999999994],[-0.22281249999999997,0.4009259259259259,6.7953000001907355],[-0.15187499999999995,0.36999999999999994,6.810099999904622],[-0.04552083333333338,0.3512962962962964,6.8264000000953615],[-0.04125000000000002,0.3487037037037036,6.845099999904633],[-0.035104166666666714,0.3392592592592593,6.862300000190729],[-0.0032291666666666905,0.36740740740740735,6.87709999990463],[0.0007291666666667141,0.3461111111111111,6.895700000286098],[0.006666666666666643,0.32259259259259265,6.910499999999999],[0.08031249999999991,0.29499999999999993,6.9303000001907265],[0.08125,0.3111111111111111,6.945400000095361],[0.1015625,0.3314814814814815,6.960400000095362],[0.09697916666666657,0.36666666666666664,6.976700000286101],[0.08052083333333329,0.3698148148148149,6.996300000190729],[0.13270833333333343,0.3696296296296297,7.012300000190734],[0.1428124999999999,0.35611111111111104,7.027099999904635],[0.16270833333333337,0.33907407407407414,7.043300000190726],[0.16395833333333343,0.3375925925925925,7.0623000001907315],[0.1974999999999999,0.33722222222222226,7.077300000190732],[0.19895833333333332,0.3490740740740741,7.094999999999999],[0.1796875,0.3562962962962963,7.112900000095365],[0.20447916666666663,0.3135185185185184,7.131],[0.20447916666666663,0.3135185185185184,7.143400000095369],[0.21385416666666662,0.27240740740740743,7.164200000286101],[0.21385416666666662,0.27240740740740743,7.176700000286104],[0.26885416666666656,0.2388888888888889,7.193300000190732],[0.2384375000000001,0.22555555555555548,7.223599999904636],[0.2384375000000001,0.22555555555555548,7.23090000009536],[0.2703125,0.22962962962962963,7.243400000095363],[0.2834374999999999,0.2162962962962962,7.261900000095366],[0.3159374999999999,0.21074074074074065,7.280000000000001],[0.3159374999999999,0.21074074074074065,7.2934999999999945],[0.28875000000000006,0.17981481481481484,7.310000000000002],[0.2900000000000001,0.19277777777777783,7.329300000190727],[0.2900000000000001,0.19277777777777783,7.343300000190737],[0.30270833333333325,0.12685185185185185,7.359999999999999],[0.2953125,0.12222222222222222,7.380499999999998],[0.2953125,0.12222222222222222,7.3933000001907345],[0.2859375,0.07037037037037037,7.409999999999997],[0.2795833333333334,0.11500000000000005,7.429300000190736],[0.2691666666666668,0.05648148148148148,7.445499999999996],[0.2691666666666668,0.05648148148148148,7.4599000000953595],[0.21572916666666658,-0.01629629629629621,7.476599999904636],[0.1728125000000001,-0.05944444444444449,7.497],[0.13031249999999991,-0.10481481481481486,7.513300000190725],[0.07531249999999995,-0.08777777777777773,7.529099999904631],[-0.0020833333333333333,-0.14000000000000004,7.549700000286094],[-0.0020833333333333333,-0.14000000000000004,7.559900000095368],[-0.007708333333333309,-0.14425925925925923,7.5764000000953615],[-0.03166666666666664,-0.16166666666666668,7.600099999904629],[-0.03166666666666664,-0.16166666666666668,7.609900000095365],[-0.05270833333333336,-0.1698148148148148,7.626599999904627],[-0.16479166666666673,-0.31925925925925924,7.6432000002861],[-0.1766666666666667,-0.35111111111111115,7.662599999904629],[-0.17927083333333335,-0.3877777777777777,7.679099999904622],[-0.17604166666666668,-0.41,7.6969000000953685],[-0.1827083333333333,-0.42851851851851847,7.712400000095357],[-0.15291666666666662,-0.5024074074074074,7.737099999904629],[-0.15291666666666662,-0.5024074074074074,7.743700000286097],[-0.14677083333333332,-0.557962962962963,7.759900000095357],[-0.17083333333333334,-0.5640740740740741,7.776499999999999],[-0.17843749999999994,-0.6062962962962962,7.796499999999995],[-0.17843749999999994,-0.6062962962962962,7.819200000286102],[-0.15062500000000004,-0.5887037037037036,7.835200000286093],[-0.15062500000000004,-0.5887037037037036,7.843099999904624],[-0.08718750000000004,-0.5227777777777778,7.859800000190731],[-0.09177083333333336,-0.4964814814814815,7.876400000095359],[-0.09947916666666666,-0.4546296296296296,7.8932000002861],[-0.09395833333333338,-0.4922222222222222,7.909800000190728],[-0.08916666666666669,-0.5549999999999999,7.92640000009537],[-0.08104166666666662,-0.5105555555555555,7.943099999904632],[-0.06979166666666667,-0.5264814814814816,7.959800000190725],[-0.07614583333333336,-0.5653703703703704,7.976400000095367],[-0.09177083333333336,-0.5733333333333334,7.993099999904629],[-0.11343749999999998,-0.5835185185185185,8.009800000190737],[-0.1345833333333334,-0.596111111111111,8.026499999999999],[-0.12041666666666669,-0.5722222222222222,8.043099999904626],[-0.12781250000000005,-0.5825925925925927,8.060200000286102],[-0.14979166666666663,-0.5542592592592592,8.076400000095362],[-0.140625,-0.5122222222222222,8.093099999904624],[-0.15833333333333333,-0.5768518518518518,8.10980000019073],[-0.15531250000000002,-0.5462962962962963,8.128099999904634],[-0.15531250000000002,-0.5462962962962963,8.1432000002861],[-0.12895833333333329,-0.5164814814814814,8.159800000190728],[-0.12895833333333329,-0.5164814814814814,8.17649999999999],[-0.11302083333333333,-0.5188888888888888,8.193200000286097],[-0.13125,-0.5211111111111111,8.209800000190725],[-0.11979166666666667,-0.5181481481481481,8.226400000095367],[-0.15906250000000005,-0.5851851851851851,8.24309999990463],[-0.15427083333333336,-0.6046296296296296,8.259700000286102],[-0.15291666666666662,-0.6270370370370371,8.276900000095367],[-0.1716666666666666,-0.6357407407407407,8.293099999904626],[-0.1859375,-0.6235185185185185,8.3097000002861],[-0.21666666666666667,-0.6427777777777778,8.326400000095362],[-0.21666666666666667,-0.6427777777777778,8.343200000286103],[-0.21666666666666667,-0.6427777777777778,8.361599999904627],[-0.23781249999999995,-0.6866666666666666,8.39830000019073],[-0.23781249999999995,-0.6866666666666666,8.404499999999999],[-0.24343750000000006,-0.6505555555555556,8.432999999999993],[-0.24343750000000006,-0.6505555555555556,8.4407000002861],[-0.18697916666666667,-0.6081481481481481,8.464599999904635],[-0.18697916666666667,-0.6081481481481481,8.471300000190737],[-0.19281250000000003,-0.6003703703703703,8.497599999904622],[-0.19281250000000003,-0.6003703703703703,8.504099999904625],[-0.09624999999999997,-0.544074074074074,8.531999999999996],[-0.09624999999999997,-0.544074074074074,8.539900000095358],[-0.10083333333333329,-0.5127777777777778,8.565300000190732],[-0.10083333333333329,-0.5127777777777778,8.572099999904623],[-0.12270833333333328,-0.5101851851851852,8.598700000286101],[-0.12270833333333328,-0.5101851851851852,8.607],[-0.10718749999999998,-0.4853703703703704,8.632400000095359],[-0.10718749999999998,-0.4853703703703704,8.639400000095364],[-0.07406250000000002,-0.4655555555555555,8.663400000095365],[-0.07406250000000002,-0.4655555555555555,8.669700000286099],[-0.04010416666666667,-0.42462962962962963,8.6995],[-0.04010416666666667,-0.42462962962962963,8.706300000190737],[-0.07687499999999996,-0.36370370370370364,8.730599999904626],[-0.07687499999999996,-0.36370370370370364,8.737200000286094],[-0.11843750000000004,-0.36444444444444446,8.761599999904632],[-0.11843750000000004,-0.36444444444444446,8.778099999904626],[-0.18250000000000005,-0.4264814814814815,8.795000000000002],[-0.18250000000000005,-0.4264814814814815,8.801999999999992],[-0.22718750000000001,-0.4624074074074074,8.828499999999991],[-0.22718750000000001,-0.4624074074074074,8.845200000286098],[-0.2969791666666667,-0.46870370370370373,8.861599999904627]]","[0.0003000001907338401,0.04720000028609661,0.059800000190733726,0.08180000019072509,0.09370000028610548,0.10990000009536516,0.13540000009535902,0.15490000009536686,0.17149999999999466,0.182300000190736,0.19809999990462757,0.20990000009535947,0.22659999990463575,0.24890000009536095,0.25980000019073657,0.2765999999046329,0.293300000190726,0.3100000000000023,0.3264999999999958,0.3432000002861031,0.3598000001907309,0.37649999999999295,0.3933000001907345,0.41290000009536243,0.4264999999999901,0.4432000002860974,0.4598000001907252,0.4765000000000015,0.49359999990463166,0.5099000000953566,0.5265999999046329,0.5432000002860917,0.559900000095368,0.5765999999046301,0.5932000002861031,0.6099000000953652,0.626499999999993,0.6434000000953688,0.6599000000953623,0.6765999999046244,0.6933000001907317,0.7099000000953595,0.7265000000000015,0.7432000002860946,0.7599000000953566,0.7765999999046329,0.7932000002860917,0.809900000095368,0.8264999999999958,0.8432000002861031,0.8599000000953652,0.8765999999046272,0.895700000286098,0.910499999999999,0.9265999999046244,0.9432000002860974,0.9599000000953595,0.9769999999999897,0.9932000002860946,1.0099000000953566,1.0264999999999986,1.0432000002860917,1.059900000095368,1.076900000095364,1.0953000001907327,1.1099999999999994,1.1274000000953635,1.1434000000953688,1.1599000000953623,1.1765999999046244,1.1932000002860974,1.2099000000953595,1.2265000000000015,1.2432000002860946,1.2599000000953566,1.276599999904633,1.2932000002860917,1.3098000001907337,1.3264999999999958,1.343200000286103,1.3599000000953652,1.376499999999993,1.3939999999999912,1.4099000000953623,1.42649999999999,1.4432000002860974,1.4599000000953595,1.4765000000000015,1.4949999999999903,1.5128000001907367,1.530700000286103,1.543300000190726,1.559900000095368,1.5827000002860956,1.593200000286103,1.6099000000953652,1.626499999999993,1.643900000095357,1.6600999999046309,1.67649999999999,1.6944999999999908,1.7099999999999937,1.7265000000000015,1.7432000002860946,1.7713000001907346,1.7784000000953597,1.7932000002860917,1.809900000095368,1.8264999999999958,1.8433000001907374,1.8599000000953652,1.8793000001907245,1.8949000000953617,1.9110999999046356,1.9273000001907263,1.9435000000000002,1.9603000001907276,1.9765000000000015,1.9933000001907288,2.010400000095359,2.0264999999999986,2.0432000002860917,2.0604000000953704,2.078099999904623,2.0944999999999965,2.1104000000953675,2.126499999999993,2.1433000001907345,2.1599000000953623,2.1765999999046244,2.1933000001907317,2.2099000000953595,2.2265999999046358,2.243300000190729,2.263300000190725,2.2764999999999986,2.293300000190726,2.309900000095368,2.330599999904635,2.343200000286103,2.359900000095365,2.380599999904632,2.393500000000003,2.4099000000953623,2.432000000000002,2.4432000002860974,2.459800000190725,2.481499999999997,2.493400000095363,2.5098000001907366,2.530700000286103,2.5479000000953675,2.5623000001907315,2.578099999904623,2.593200000286103,2.609800000190731,2.626499999999993,2.643500000000003,2.6599000000953623,2.676800000190738,2.695300000190727,2.711200000286098,2.7265000000000015,2.7432000002860946,2.759999999999991,2.7764999999999986,2.7932000002860917,2.809900000095368,2.826499999999996,2.8437000002861055,2.8603000001907333,2.876499999999993,2.893500000000003,2.9123000001907258,2.926700000286104,2.9435000000000002,2.9599000000953595,2.978499999999997,2.9957000002860923,3.0123000001907343,3.0278000001907373,3.0432000002860917,3.0612000002860924,3.0779000000953687,3.0945999999046307,3.1123000001907286,3.1265999999046272,3.1433000001907345,3.1599000000953623,3.176700000286104,3.194499999999991,3.2114000000953666,3.2269000000953696,3.2445999999046222,3.2599000000953566,3.28140000009536,3.293300000190726,3.3098000001907337,3.326499999999996,3.3433000001907374,3.359900000095365,3.3770999999046296,3.3932000002861002,3.410200000286096,3.42649999999999,3.4454999999999956,3.459800000190725,3.4765000000000015,3.493400000095363,3.5102000002861047,3.5264000000953644,3.5430999999046264,3.559900000095368,3.576900000095364,3.5944999999999965,3.609900000095365,3.6264000000953587,3.643400000095369,3.6599000000953623,3.67649999999999,3.693099999904632,3.71080000019073,3.7265999999046358,3.7438000001907312,3.7598000001907366,3.7764999999999986,3.7930999999046264,3.809900000095368,3.8264000000953615,3.8453000001907327,3.859800000190731,3.876499999999993,3.8963000001907346,3.910499999999999,3.92649999999999,3.943400000095366,3.959800000190725,3.9765000000000015,3.993300000190729,4.011200000286095,4.026499999999999,4.045099999904622,4.063800000190724,4.082400000095362,4.098700000286101,4.112700000286097,4.126499999999993,4.1433000001907345,4.1607000002860985,4.176700000286104,4.193200000286097,4.209800000190725,4.226599999904636,4.243200000286095,4.259900000095357,4.2794000000953645,4.294499999999999,4.309900000095368,4.326499999999996,4.343200000286103,4.359900000095365,4.376499999999993,4.3932000002861,4.414999999999992,4.42649999999999,4.443200000286097,4.459800000190725,4.4765000000000015,4.493200000286095,4.509800000190737,4.526499999999999,4.543200000286092,4.559800000190734,4.577200000286098,4.593099999904624,4.609800000190731,4.626499999999993,4.643099999904635,4.659800000190728,4.676599999904624,4.694700000286105,4.709800000190725,4.7265000000000015,4.743099999904629,4.760999999999996,4.776599999904633,4.794900000095367,4.809800000190734,4.826499999999996,4.843200000286103,4.859800000190731,4.876599999904627,4.893500000000003,4.909900000095362,4.92649999999999,4.945700000286095,4.959999999999994,4.976700000286101,4.996099999904629,5.0113000001907295,5.029200000286096,5.043099999904626,5.059800000190734,5.076499999999996,5.093099999904624,5.109900000095365,5.126400000095359,5.1474000000953595,5.159900000095362,5.176599999904624,5.194400000095371,5.209800000190725,5.226400000095367,5.243200000286095,5.261499999999998,5.276499999999999,5.293200000286092,5.309800000190734,5.326499999999996,5.343200000286103,5.359800000190731,5.376499999999993,5.393099999904635,5.409800000190728,5.42649999999999,5.443099999904632,5.462599999904626,5.477200000286103,5.493200000286095,5.509800000190737,5.526499999999999,5.543099999904626,5.559800000190734,5.576999999999998,5.593099999904624,5.612499999999997,5.6292000002861045,5.644599999904628,5.66840000009536,5.677200000286092,5.698200000286093,5.709800000190725,5.7265000000000015,5.744700000286102,5.762400000095369,5.776599999904633,5.793099999904626,5.809800000190734,5.82659999990463,5.844599999904631,5.86399999999999,5.8793000001907245,5.893099999904635,5.9133000001907305,5.930999999999997,5.943200000286097,5.959800000190725,5.97790000009536,5.996099999904629,6.011200000286095,6.026900000095367,6.043099999904626,6.059800000190734,6.077200000286098,6.094999999999999,6.109800000190731,6.1312000002861,6.1433000001907345,6.159999999999997,6.176599999904624,6.193200000286097,6.211599999904635,6.226400000095367,6.243099999904629,6.259800000190737,6.276400000095364,6.293099999904626,6.309900000095368,6.330900000095369,6.3497000002860915,6.359800000190731,6.376499999999993,6.3932000002861,6.409800000190728,6.42649999999999,6.443200000286097,6.459800000190725,6.4765000000000015,6.498300000190724,6.509900000095357,6.526400000095364,6.543200000286092,6.559800000190734,6.5764000000953615,6.593300000190737,6.609999999999999,6.628900000095371,6.644499999999994,6.660499999999999,6.677900000095363,6.6962000002860975,6.709800000190725,6.726400000095367,6.743200000286095,6.763499999999993,6.778499999999994,6.7953000001907355,6.810099999904622,6.8264000000953615,6.845099999904633,6.862300000190729,6.87709999990463,6.895700000286098,6.910499999999999,6.9303000001907265,6.945400000095361,6.960400000095362,6.976700000286101,6.996300000190729,7.012300000190734,7.027099999904635,7.043300000190726,7.0623000001907315,7.077300000190732,7.094999999999999,7.112900000095365,7.131,7.143400000095369,7.164200000286101,7.176700000286104,7.193300000190732,7.223599999904636,7.23090000009536,7.243400000095363,7.261900000095366,7.280000000000001,7.2934999999999945,7.310000000000002,7.329300000190727,7.343300000190737,7.359999999999999,7.380499999999998,7.3933000001907345,7.409999999999997,7.429300000190736,7.445499999999996,7.4599000000953595,7.476599999904636,7.497,7.513300000190725,7.529099999904631,7.549700000286094,7.559900000095368,7.5764000000953615,7.600099999904629,7.609900000095365,7.626599999904627,7.6432000002861,7.662599999904629,7.679099999904622,7.6969000000953685,7.712400000095357,7.737099999904629,7.743700000286097,7.759900000095357,7.776499999999999,7.796499999999995,7.819200000286102,7.835200000286093,7.843099999904624,7.859800000190731,7.876400000095359,7.8932000002861,7.909800000190728,7.92640000009537,7.943099999904632,7.959800000190725,7.976400000095367,7.993099999904629,8.009800000190737,8.026499999999999,8.043099999904626,8.060200000286102,8.076400000095362,8.093099999904624,8.10980000019073,8.128099999904634,8.1432000002861,8.159800000190728,8.17649999999999,8.193200000286097,8.209800000190725,8.226400000095367,8.24309999990463,8.259700000286102,8.276900000095367,8.293099999904626,8.3097000002861,8.326400000095362,8.343200000286103,8.361599999904627,8.39830000019073,8.404499999999999,8.432999999999993,8.4407000002861,8.464599999904635,8.471300000190737,8.497599999904622,8.504099999904625,8.531999999999996,8.539900000095358,8.565300000190732,8.572099999904623,8.598700000286101,8.607,8.632400000095359,8.639400000095364,8.663400000095365,8.669700000286099,8.6995,8.706300000190737,8.730599999904626,8.737200000286094,8.761599999904632,8.778099999904626,8.795000000000002,8.801999999999992,8.828499999999991,8.845200000286098,8.861599999904627]","[1731986389228,1731986389265,1731986389277,1731986389299,1731986389311,1731986389327,1731986389353,1731986389372,1731986389389,1731986389400,1731986389415,1731986389427,1731986389444,1731986389466,1731986389477,1731986389494,1731986389511,1731986389527,1731986389544,1731986389561,1731986389577,1731986389594,1731986389611,1731986389630,1731986389644,1731986389661,1731986389677,1731986389694,1731986389711,1731986389727,1731986389744,1731986389761,1731986389777,1731986389794,1731986389811,1731986389827,1731986389844,1731986389861,1731986389877,1731986389894,1731986389911,1731986389927,1731986389944,1731986389961,1731986389977,1731986389994,1731986390011,1731986390027,1731986390044,1731986390061,1731986390077,1731986390094,1731986390113,1731986390128,1731986390144,1731986390161,1731986390177,1731986390194,1731986390211,1731986390227,1731986390244,1731986390261,1731986390277,1731986390294,1731986390313,1731986390327,1731986390345,1731986390361,1731986390377,1731986390394,1731986390411,1731986390427,1731986390444,1731986390461,1731986390477,1731986390494,1731986390511,1731986390527,1731986390544,1731986390561,1731986390577,1731986390594,1731986390611,1731986390627,1731986390644,1731986390661,1731986390677,1731986390694,1731986390712,1731986390730,1731986390748,1731986390761,1731986390777,1731986390800,1731986390811,1731986390827,1731986390844,1731986390861,1731986390877,1731986390894,1731986390912,1731986390927,1731986390944,1731986390961,1731986390989,1731986390996,1731986391011,1731986391027,1731986391044,1731986391061,1731986391077,1731986391097,1731986391112,1731986391128,1731986391145,1731986391161,1731986391178,1731986391194,1731986391211,1731986391228,1731986391244,1731986391261,1731986391278,1731986391295,1731986391312,1731986391328,1731986391344,1731986391361,1731986391377,1731986391394,1731986391411,1731986391427,1731986391444,1731986391461,1731986391481,1731986391494,1731986391511,1731986391527,1731986391548,1731986391561,1731986391577,1731986391598,1731986391611,1731986391627,1731986391649,1731986391661,1731986391677,1731986391699,1731986391711,1731986391727,1731986391748,1731986391765,1731986391780,1731986391796,1731986391811,1731986391827,1731986391844,1731986391861,1731986391877,1731986391894,1731986391913,1731986391929,1731986391944,1731986391961,1731986391977,1731986391994,1731986392011,1731986392027,1731986392044,1731986392061,1731986392078,1731986392094,1731986392111,1731986392130,1731986392144,1731986392161,1731986392177,1731986392196,1731986392213,1731986392230,1731986392245,1731986392261,1731986392279,1731986392295,1731986392312,1731986392330,1731986392344,1731986392361,1731986392377,1731986392394,1731986392412,1731986392429,1731986392444,1731986392462,1731986392477,1731986392499,1731986392511,1731986392527,1731986392544,1731986392561,1731986392577,1731986392594,1731986392611,1731986392628,1731986392644,1731986392663,1731986392677,1731986392694,1731986392711,1731986392728,1731986392744,1731986392761,1731986392777,1731986392794,1731986392812,1731986392827,1731986392844,1731986392861,1731986392877,1731986392894,1731986392911,1731986392928,1731986392944,1731986392961,1731986392977,1731986392994,1731986393011,1731986393027,1731986393044,1731986393063,1731986393077,1731986393094,1731986393114,1731986393128,1731986393144,1731986393161,1731986393177,1731986393194,1731986393211,1731986393229,1731986393244,1731986393263,1731986393281,1731986393300,1731986393316,1731986393330,1731986393344,1731986393361,1731986393378,1731986393394,1731986393411,1731986393427,1731986393444,1731986393461,1731986393477,1731986393497,1731986393512,1731986393527,1731986393544,1731986393561,1731986393577,1731986393594,1731986393611,1731986393632,1731986393644,1731986393661,1731986393677,1731986393694,1731986393711,1731986393727,1731986393744,1731986393761,1731986393777,1731986393795,1731986393811,1731986393827,1731986393844,1731986393860,1731986393877,1731986393894,1731986393912,1731986393927,1731986393944,1731986393961,1731986393978,1731986393994,1731986394012,1731986394027,1731986394044,1731986394061,1731986394077,1731986394094,1731986394111,1731986394127,1731986394144,1731986394163,1731986394177,1731986394194,1731986394214,1731986394229,1731986394247,1731986394261,1731986394277,1731986394294,1731986394311,1731986394327,1731986394344,1731986394365,1731986394377,1731986394394,1731986394412,1731986394427,1731986394444,1731986394461,1731986394479,1731986394494,1731986394511,1731986394527,1731986394544,1731986394561,1731986394577,1731986394594,1731986394610,1731986394627,1731986394644,1731986394660,1731986394680,1731986394695,1731986394711,1731986394727,1731986394744,1731986394760,1731986394777,1731986394794,1731986394810,1731986394830,1731986394847,1731986394862,1731986394886,1731986394895,1731986394916,1731986394927,1731986394944,1731986394962,1731986394980,1731986394994,1731986395011,1731986395027,1731986395044,1731986395062,1731986395081,1731986395097,1731986395111,1731986395131,1731986395148,1731986395161,1731986395177,1731986395195,1731986395213,1731986395229,1731986395244,1731986395260,1731986395277,1731986395295,1731986395312,1731986395327,1731986395349,1731986395361,1731986395377,1731986395394,1731986395411,1731986395429,1731986395444,1731986395460,1731986395477,1731986395494,1731986395511,1731986395527,1731986395548,1731986395567,1731986395577,1731986395594,1731986395611,1731986395627,1731986395644,1731986395661,1731986395677,1731986395694,1731986395716,1731986395727,1731986395744,1731986395761,1731986395777,1731986395794,1731986395811,1731986395827,1731986395846,1731986395862,1731986395878,1731986395895,1731986395914,1731986395927,1731986395944,1731986395961,1731986395981,1731986395996,1731986396013,1731986396027,1731986396044,1731986396062,1731986396080,1731986396094,1731986396113,1731986396128,1731986396148,1731986396163,1731986396178,1731986396194,1731986396214,1731986396230,1731986396244,1731986396261,1731986396280,1731986396295,1731986396312,1731986396330,1731986396348,1731986396361,1731986396382,1731986396394,1731986396411,1731986396441,1731986396448,1731986396461,1731986396479,1731986396497,1731986396511,1731986396527,1731986396547,1731986396561,1731986396577,1731986396598,1731986396611,1731986396627,1731986396647,1731986396663,1731986396677,1731986396694,1731986396714,1731986396731,1731986396747,1731986396767,1731986396777,1731986396794,1731986396817,1731986396827,1731986396844,1731986396861,1731986396880,1731986396896,1731986396914,1731986396930,1731986396954,1731986396961,1731986396977,1731986396994,1731986397014,1731986397037,1731986397053,1731986397060,1731986397077,1731986397094,1731986397111,1731986397127,1731986397144,1731986397160,1731986397177,1731986397194,1731986397210,1731986397227,1731986397244,1731986397260,1731986397278,1731986397294,1731986397311,1731986397327,1731986397345,1731986397361,1731986397377,1731986397394,1731986397411,1731986397427,1731986397444,1731986397460,1731986397477,1731986397494,1731986397510,1731986397527,1731986397544,1731986397561,1731986397579,1731986397616,1731986397622,1731986397650,1731986397658,1731986397682,1731986397689,1731986397715,1731986397721,1731986397749,1731986397757,1731986397783,1731986397789,1731986397816,1731986397824,1731986397850,1731986397857,1731986397881,1731986397887,1731986397917,1731986397924,1731986397948,1731986397955,1731986397979,1731986397995,1731986398012,1731986398019,1731986398046,1731986398063,1731986398079]","[[896.2,814.3],[896.2,814.3],[881.6,825.5],[872.8,813],[872.8,813],[863.2,809.7],[844.5,803.5],[844.5,803.5],[813.2,812.2],[813.2,812.2],[795.6,801.6],[795.6,801.6],[766.8,800.2],[782.1,793.7],[782.1,793.7],[754.4,802.2],[754.4,802.2],[751.2,794.6],[751.2,794.6],[756.9,781.9],[744.8,790.6],[726.8,795.1],[726.7,805.4],[710.1,787.7],[706,774.3],[709.7,759.5],[709.8,746.4],[727.4,720.7],[720.9,695.9],[698,667.9],[695.9,658.3],[700.5,643.7],[696.3,626.2],[690.9,629.6],[679,632.1],[667.1,620.8],[642.5,609.8],[626.3,609.2],[595.5,622.8],[604.5,641.3],[605.3,635.8],[596.6,629.1],[587.9,622.4],[618.9,637.8],[649.9,653.2],[651.5,674.5],[653.1,695.8],[625.3,701.2],[625.3,701.2],[647.7,694.7],[639.1,687.4],[630.5,680.1],[591.2,683.4],[554.3,689.3],[506.5,673.3],[458.7,657.3],[440.3,649.2],[398.3,661.1],[398.3,661.1],[377.3,678.5],[346.1,695.6],[306.1,710.9],[266.1,726.2],[281.8,723.2],[281.4,728.7],[261.7,731.2],[242,733.7],[242,733.7],[233.9,724.7],[233.9,724.7],[237.1,697.8],[242.6,669.1],[233.3,662.2],[237.3,652.7],[275.8,636.2],[298.8,628.6],[298.8,628.6],[305.5,625.5],[305.5,633.4],[315.9,638],[314.7,654.1],[324.6,660.2],[332.2,668.1],[323.3,669.2],[315.8,670.3],[261.3,689.1],[206.8,707.9],[205.6,684.5],[212.2,663.2],[215.7,658.4],[209.2,657.5],[209.2,657.5],[210.4,668.7],[215.9,676],[215.9,676],[287.7,687.1],[358.1,698.2],[470.3,695.9],[580.9,699],[668.4,727],[742.9,750.1],[810.1,760],[885.4,766.7],[954.2,769.2],[1018.7,775.6],[1018.7,775.6],[1051.3,777],[1083.9,774],[1087.2,773.7],[1109.5,772.6],[1131.6,773.2],[1151.3,777.1],[1171,781],[1203.6,781],[1230.6,803.9],[1238.5,804.9],[1226.8,801.3],[1238,803.7],[1249.2,806.1],[1224.4,800.7],[1199.6,795.3],[1203.7,801.4],[1175.5,793.8],[1136.3,789.4],[1129.4,772.5],[1154.8,782.8],[1154.8,782.8],[1178.8,781.1],[1178.8,781.1],[1174.5,785.4],[1174.5,785.4],[1144.5,781.2],[1144.5,781.2],[1143.4,771.5],[1143.4,771.5],[1163.2,773.7],[1163.2,773.7],[1155.7,765.9],[1194.1,757.5],[1194.1,757.5],[1221.5,757.7],[1220.8,746.1],[1220.8,746.1],[1214.5,725.1],[1203.4,711.1],[1203.4,711.1],[1197.7,689.5],[1240.2,691.8],[1240.2,691.8],[1280.1,693.3],[1273.4,688.5],[1288.5,686.9],[1290,699.6],[1282.5,702.2],[1218.3,699.6],[1169.2,692.6],[1110.8,701.3],[1074.3,705.1],[990.5,692.4],[893.5,692.6],[822.2,687.2],[745.3,674.7],[657.5,658],[554.2,647.3],[514.3,645.3],[451.7,670.6],[451.7,670.6],[406.2,674.7],[347.8,662.9],[349,671.7],[332.7,682.5],[291.3,700],[270,705.8],[262.6,710.7],[283.4,729.5],[283.7,743.7],[308.5,725.1],[331.8,737.9],[346.1,771.5],[322.3,787.1],[321.5,797.3],[329.4,775.8],[319.5,770.8],[326.9,778.8],[346.7,772.2],[372.9,759.7],[372.9,759.7],[374.6,761.2],[374.6,761.2],[364.3,743.9],[359.4,727.8],[348,716.6],[339.1,695.8],[365,701.4],[425.5,709.6],[465.7,709.9],[465.7,709.9],[500.3,714.6],[577.4,734.4],[641,748],[708,768.6],[773.1,777.7],[825.8,780.1],[868.6,788.6],[914.2,797.8],[926.5,806.1],[938.8,814.4],[928.3,824.9],[884.1,828.7],[885.3,822.1],[864.2,804.8],[833.5,808],[847.4,804],[842.8,799.3],[817,792.5],[790.8,785.5],[750.4,787.3],[730.2,766.6],[730.6,752.5],[690.5,748.6],[679,747.3],[674.2,745.3],[633.3,756.7],[618.3,772.3],[614.3,786.1],[614.7,795],[629.3,795.1],[646.4,804.7],[617.5,820.3],[648.7,833.6],[663.8,853],[689.8,860.9],[702.9,867.2],[741.5,867.8],[763.9,870],[785.1,877],[803.2,868.7],[838.9,876.7],[891.8,878.7],[897.9,865.5],[922.3,845.2],[919.8,850.8],[891.2,840.8],[891.2,840.8],[842.7,836.2],[807.9,838.1],[807.9,838.1],[769.1,831.8],[730.2,851.9],[659.4,862.3],[659.4,862.3],[597.4,866.7],[553.8,885.6],[489.3,903.8],[440.2,898.1],[439.5,901.5],[444.8,898.5],[420.6,894],[401.3,893.4],[401.3,893.4],[391.5,889.4],[391.5,889.4],[413.2,876.9],[414.1,861.5],[414.1,861.5],[369.5,861.4],[369.5,861.4],[371.4,858.4],[371.4,858.4],[357.9,859.1],[357.9,859.1],[354.1,851.7],[340,863.6],[353.8,858.1],[355.1,854.5],[352.2,851.3],[334.3,853.4],[334.2,850.2],[356.5,841.1],[379.5,840],[412.1,838.2],[409.8,840.4],[406.2,830],[394,835],[384.6,840.2],[367.2,845.3],[364.3,835.8],[367,830.3],[362.6,835],[333.5,834],[330.9,824],[378.9,817.6],[447.4,824],[505.7,829.3],[568.7,831.4],[643.8,827.4],[707.9,830.1],[764.8,847.3],[828.4,841.3],[884.7,844.1],[920.3,852.9],[928.2,858.3],[915.6,850.9],[930.9,845.5],[941.5,837.6],[955.4,835.6],[939.8,828.3],[934,814.6],[934,814.6],[950.9,821.3],[962.3,815],[974.1,804],[974.1,804],[986.3,803.4],[940.9,788.5],[886.9,769.5],[839.3,769.6],[799,754.9],[774.2,759.2],[754.1,750.2],[754.1,750.2],[701.2,742.6],[691.6,730.1],[654.4,725.5],[632.6,717.1],[643.7,715.3],[669.7,720],[674.5,708.1],[674.5,708.1],[675.1,698.6],[669.4,686.7],[646.2,680.4],[645.4,670.2],[636.2,671],[654.2,668.6],[685.7,661.2],[766.4,668.8],[808