inst1_resp.keys,inst1_resp.rt,calibrationMouse.x,calibrationMouse.y,calibrationMouse.leftButton,calibrationMouse.midButton,calibrationMouse.rightButton,calibrationClick.x,calibrationClick.y,calibrationClick.leftButton,calibrationClick.midButton,calibrationClick.rightButton,trialsc.thisRepN,trialsc.thisTrialN,trialsc.thisN,trialsc.thisIndex,trialsc.ran,calibration_x,calibration_y,participant,session,date,expName,psychopyVersion,OS,frameRate,calibrationClick.clicked_name,ScreenRes_pixels,Camera_pixels,mouse_2.x,mouse_2.y,mouse_2.leftButton,mouse_2.midButton,mouse_2.rightButton,mouse_2.time,mouse_2.clicked_name,mouse.x,mouse.y,mouse.leftButton,mouse.midButton,mouse.rightButton,mouse.time,mouse.clicked_name,Choice,Trial,TrialDuration,MOUSE_GAZE,ET_GAZE,ET_GAZE_x_T,time,unixTime,ET_GAZE_NF,Loc_Bus_label,Loc_Metro_label,Loc_RH_label,Loc_Cost_label,Loc_Travel_label,Loc_Comfort_label,Loc_Bus_cost,Loc_Metro_cost,Loc_RH_cost,Loc_Bus_travel,Loc_Metro_travel,Loc_RH_travel,Loc_Bus_comfort,Loc_Metro_comfort,Loc_RH_comfort,trials.thisRepN,trials.thisTrialN,trials.thisN,trials.thisIndex,trials.ran,Block,Device,RH_cost,RH_travel_time,RH_Comfort,metro_cost,metro_travel_time,metro_Comfort,Bus_cost,Bus_travel_time,Bus_Comfort
space,4.874,0.515625,0.042592593,1,0,0,-0.336458333,0.012962963,1,0,0,0,0,0,6,1,-0.33,0,04,001,2024-11-19_12h34.43.000,Attention_exp_legacy,2023.1.0,Win32,59.88023952,,,,,,,,,,,,,,,,,,,,,,,,,,,,,,,,,,,,,,,,,,,,,,,,,,,,,,,,,
,,,,,,,-0.672916667,-0.022222222,1,0,0,0,1,1,2,1,-0.67,0,04,001,2024-11-19_12h34.43.000,Attention_exp_legacy,2023.1.0,Win32,59.88023952,,,,,,,,,,,,,,,,,,,,,,,,,,,,,,,,,,,,,,,,,,,,,,,,,,,,,,,,,
,,,,,,,0.339583333,0.033333333,1,0,0,0,2,2,16,1,0.33,0,04,001,2024-11-19_12h34.43.000,Attention_exp_legacy,2023.1.0,Win32,59.88023952,,,,,,,,,,,,,,,,,,,,,,,,,,,,,,,,,,,,,,,,,,,,,,,,,,,,,,,,,
,,,,,,,-0.001041667,-0.65,1,0,0,0,3,3,9,1,0,-0.67,04,001,2024-11-19_12h34.43.000,Attention_exp_legacy,2023.1.0,Win32,59.88023952,,,,,,,,,,,,,,,,,,,,,,,,,,,,,,,,,,,,,,,,,,,,,,,,,,,,,,,,,
,,,,,,,0.001041667,0.318518519,1,0,0,0,4,4,12,1,0,0.33,04,001,2024-11-19_12h34.43.000,Attention_exp_legacy,2023.1.0,Win32,59.88023952,,,,,,,,,,,,,,,,,,,,,,,,,,,,,,,,,,,,,,,,,,,,,,,,,,,,,,,,,
,,,,,,,0.664583333,-0.653703704,1,0,0,0,5,5,20,1,0.67,-0.67,04,001,2024-11-19_12h34.43.000,Attention_exp_legacy,2023.1.0,Win32,59.88023952,,,,,,,,,,,,,,,,,,,,,,,,,,,,,,,,,,,,,,,,,,,,,,,,,,,,,,,,,
,,,,,,,-0.334375,0.311111111,1,0,0,0,6,6,7,1,-0.33,0.33,04,001,2024-11-19_12h34.43.000,Attention_exp_legacy,2023.1.0,Win32,59.88023952,,,,,,,,,,,,,,,,,,,,,,,,,,,,,,,,,,,,,,,,,,,,,,,,,,,,,,,,,
,,,,,,,-0.007291667,0.661111111,1,0,0,0,7,7,13,1,0,0.67,04,001,2024-11-19_12h34.43.000,Attention_exp_legacy,2023.1.0,Win32,59.88023952,calibration_square,,,,,,,,,,,,,,,,,,,,,,,,,,,,,,,,,,,,,,,,,,,,,,,,,,,,,,,,
,,,,,,,0.326041667,0.67962963,1,0,0,0,8,8,18,1,0.33,0.67,04,001,2024-11-19_12h34.43.000,Attention_exp_legacy,2023.1.0,Win32,59.88023952,calibration_square,,,,,,,,,,,,,,,,,,,,,,,,,,,,,,,,,,,,,,,,,,,,,,,,,,,,,,,,
,,,,,,,-0.663541667,-0.666666667,1,0,0,0,9,9,0,1,-0.67,-0.67,04,001,2024-11-19_12h34.43.000,Attention_exp_legacy,2023.1.0,Win32,59.88023952,calibration_square,,,,,,,,,,,,,,,,,,,,,,,,,,,,,,,,,,,,,,,,,,,,,,,,,,,,,,,,
,,,,,,,0.3375,0.32962963,1,0,0,0,10,10,17,1,0.33,0.33,04,001,2024-11-19_12h34.43.000,Attention_exp_legacy,2023.1.0,Win32,59.88023952,calibration_square,,,,,,,,,,,,,,,,,,,,,,,,,,,,,,,,,,,,,,,,,,,,,,,,,,,,,,,,
,,,,,,,-0.326041667,-0.681481481,1,0,0,0,11,11,4,1,-0.33,-0.67,04,001,2024-11-19_12h34.43.000,Attention_exp_legacy,2023.1.0,Win32,59.88023952,,,,,,,,,,,,,,,,,,,,,,,,,,,,,,,,,,,,,,,,,,,,,,,,,,,,,,,,,
,,,,,,,0.333333333,-0.322222222,1,0,0,0,12,12,15,1,0.33,-0.33,04,001,2024-11-19_12h34.43.000,Attention_exp_legacy,2023.1.0,Win32,59.88023952,calibration_square,,,,,,,,,,,,,,,,,,,,,,,,,,,,,,,,,,,,,,,,,,,,,,,,,,,,,,,,
,,,,,,,-0.332291667,0.681481481,1,0,0,0,13,13,8,1,-0.33,0.67,04,001,2024-11-19_12h34.43.000,Attention_exp_legacy,2023.1.0,Win32,59.88023952,,,,,,,,,,,,,,,,,,,,,,,,,,,,,,,,,,,,,,,,,,,,,,,,,,,,,,,,,
,,,,,,,0.001041667,-0.311111111,1,0,0,0,14,14,10,1,0,-0.33,04,001,2024-11-19_12h34.43.000,Attention_exp_legacy,2023.1.0,Win32,59.88023952,,,,,,,,,,,,,,,,,,,,,,,,,,,,,,,,,,,,,,,,,,,,,,,,,,,,,,,,,
,,,,,,,0.672916667,0.653703704,1,0,0,0,15,15,19,1,0.67,0.67,04,001,2024-11-19_12h34.43.000,Attention_exp_legacy,2023.1.0,Win32,59.88023952,,,,,,,,,,,,,,,,,,,,,,,,,,,,,,,,,,,,,,,,,,,,,,,,,,,,,,,,,
,,,,,,,-0.667708333,-0.314814815,1,0,0,0,16,16,1,1,-0.67,-0.33,04,001,2024-11-19_12h34.43.000,Attention_exp_legacy,2023.1.0,Win32,59.88023952,,,,,,,,,,,,,,,,,,,,,,,,,,,,,,,,,,,,,,,,,,,,,,,,,,,,,,,,,
,,,,,,,-0.334375,-0.32962963,1,0,0,0,17,17,5,1,-0.33,-0.33,04,001,2024-11-19_12h34.43.000,Attention_exp_legacy,2023.1.0,Win32,59.88023952,calibration_square,,,,,,,,,,,,,,,,,,,,,,,,,,,,,,,,,,,,,,,,,,,,,,,,,,,,,,,,
,,,,,,,0.003125,0.012962963,1,0,0,0,18,18,11,1,0,0,04,001,2024-11-19_12h34.43.000,Attention_exp_legacy,2023.1.0,Win32,59.88023952,,,,,,,,,,,,,,,,,,,,,,,,,,,,,,,,,,,,,,,,,,,,,,,,,,,,,,,,,
,,,,,,,-0.669791667,0.32962963,1,0,0,0,19,19,3,1,-0.67,0.33,04,001,2024-11-19_12h34.43.000,Attention_exp_legacy,2023.1.0,Win32,59.88023952,calibration_square,,,,,,,,,,,,,,,,,,,,,,,,,,,,,,,,,,,,,,,,,,,,,,,,,,,,,,,,
,,,,,,,0.308333333,-0.677777778,1,0,0,0,20,20,14,1,0.33,-0.67,04,001,2024-11-19_12h34.43.000,Attention_exp_legacy,2023.1.0,Win32,59.88023952,,,,,,,,,,,,,,,,,,,,,,,,,,,,,,,,,,,,,,,,,,,,,,,,,,,,,,,,,
,,,,,,,,,,,,,,,,,,,04,001,2024-11-19_12h34.43.000,Attention_exp_legacy,2023.1.0,Win32,59.88023952,,"[1920,1080]","[640,480]",[-0.025],[-0.5055555555555555],[1],[0],[0],[15.091000000000008],"[""StartButton""]",[0.19479166666666667],[0.4148148148148148],[1],[0],[0],[4.819299999713891],"[""Metro_label""]",Metro_label,1,5.8311,"[[-0.025,-0.5055555555555555],[-0.025,-0.5055555555555555],[-0.025,-0.5055555555555555],[-0.025,-0.5055555555555555],[-0.025,-0.5055555555555555],[-0.025,-0.5055555555555555],[-0.025,-0.5055555555555555],[-0.025,-0.5055555555555555],[-0.025,-0.5055555555555555],[-0.025,-0.5055555555555555],[-0.025,-0.5055555555555555],[-0.025,-0.5055555555555555],[-0.025,-0.5055555555555555],[-0.025,-0.5055555555555555],[-0.025,-0.5055555555555555],[-0.025,-0.5055555555555555],[-0.025,-0.5055555555555555],[-0.025,-0.5055555555555555],[-0.025,-0.5055555555555555],[-0.025,-0.5055555555555555],[-0.025,-0.5055555555555555],[-0.025,-0.5055555555555555],[-0.025,-0.5055555555555555],[-0.025,-0.5055555555555555],[-0.025,-0.5055555555555555],[-0.025,-0.5055555555555555],[-0.025,-0.5055555555555555],[-0.025,-0.5055555555555555],[-0.025,-0.5055555555555555],[-0.025,-0.5055555555555555],[-0.025,-0.5055555555555555],[-0.025,-0.5055555555555555],[-0.025,-0.5055555555555555],[-0.025,-0.5055555555555555],[-0.025,-0.5055555555555555],[-0.025,-0.5055555555555555],[-0.025,-0.5055555555555555],[-0.025,-0.5055555555555555],[-0.025,-0.5055555555555555],[-0.025,-0.5055555555555555],[-0.025,-0.5055555555555555],[-0.025,-0.5055555555555555],[-0.025,-0.5055555555555555],[-0.025,-0.5055555555555555],[-0.025,-0.5055555555555555],[-0.025,-0.5055555555555555],[-0.025,-0.5055555555555555],[-0.025,-0.5055555555555555],[-0.025,-0.5055555555555555],[-0.025,-0.5055555555555555],[-0.025,-0.5055555555555555],[-0.025,-0.5055555555555555],[-0.025,-0.5055555555555555],[-0.025,-0.5055555555555555],[-0.025,-0.5055555555555555],[-0.025,-0.5055555555555555],[-0.025,-0.5055555555555555],[-0.025,-0.5055555555555555],[-0.025,-0.5055555555555555],[-0.025,-0.5055555555555555],[-0.025,-0.5055555555555555],[-0.025,-0.5055555555555555],[-0.025,-0.5055555555555555],[-0.025,-0.5055555555555555],[-0.025,-0.5055555555555555],[-0.025,-0.5055555555555555],[-0.025,-0.5055555555555555],[-0.025,-0.5055555555555555],[-0.025,-0.5055555555555555],[-0.025,-0.5055555555555555],[-0.025,-0.5055555555555555],[-0.025,-0.5055555555555555],[-0.025,-0.5055555555555555],[-0.025,-0.5055555555555555],[-0.025,-0.5055555555555555],[-0.025,-0.5055555555555555],[-0.025,-0.5055555555555555],[-0.025,-0.5055555555555555],[-0.025,-0.5055555555555555],[-0.025,-0.5055555555555555],[-0.025,-0.5055555555555555],[-0.025,-0.5055555555555555],[-0.025,-0.5055555555555555],[-0.025,-0.5055555555555555],[-0.025,-0.5055555555555555],[-0.025,-0.5055555555555555],[-0.025,-0.5055555555555555],[-0.025,-0.5055555555555555],[-0.025,-0.5055555555555555],[-0.025,-0.5055555555555555],[-0.025,-0.5055555555555555],[-0.025,-0.5055555555555555],[-0.025,-0.5055555555555555],[-0.025,-0.5055555555555555],[-0.025,-0.5055555555555555],[-0.025,-0.5055555555555555],[-0.025,-0.5055555555555555],[-0.025,-0.5055555555555555],[-0.025,-0.5055555555555555],[-0.025,-0.5055555555555555],[-0.025,-0.5055555555555555],[-0.025,-0.5055555555555555],[-0.025,-0.5055555555555555],[-0.025,-0.5055555555555555],[-0.025,-0.5055555555555555],[-0.025,-0.5055555555555555],[-0.025,-0.5055555555555555],[-0.025,-0.5055555555555555],[-0.025,-0.5055555555555555],[-0.025,-0.5055555555555555],[-0.025,-0.5055555555555555],[-0.025,-0.5055555555555555],[-0.025,-0.5055555555555555],[-0.025,-0.5055555555555555],[-0.025,-0.5055555555555555],[-0.025,-0.5055555555555555],[-0.025,-0.5055555555555555],[-0.025,-0.5055555555555555],[-0.025,-0.5055555555555555],[-0.025,-0.5055555555555555],[-0.025,-0.5055555555555555],[-0.025,-0.5055555555555555],[-0.025,-0.5055555555555555],[-0.025,-0.5055555555555555],[-0.025,-0.5055555555555555],[-0.025,-0.5055555555555555],[-0.025,-0.5055555555555555],[-0.025,-0.5055555555555555],[-0.025,-0.5055555555555555],[-0.025,-0.5055555555555555],[-0.025,-0.5055555555555555],[-0.025,-0.5055555555555555],[-0.025,-0.5055555555555555],[-0.025,-0.5055555555555555],[-0.025,-0.5055555555555555],[-0.025,-0.5055555555555555],[-0.025,-0.5055555555555555],[-0.025,-0.5055555555555555],[-0.025,-0.5055555555555555],[-0.025,-0.5055555555555555],[-0.025,-0.5055555555555555],[-0.025,-0.5055555555555555],[-0.025,-0.5055555555555555],[-0.025,-0.5055555555555555],[-0.025,-0.5055555555555555],[-0.025,-0.5055555555555555],[-0.025,-0.5055555555555555],[-0.025,-0.5055555555555555],[-0.025,-0.5055555555555555],[-0.025,-0.5055555555555555],[-0.025,-0.5055555555555555],[-0.025,-0.5055555555555555],[-0.025,-0.5055555555555555],[-0.025,-0.5055555555555555],[-0.025,-0.5055555555555555],[-0.025,-0.5055555555555555],[-0.025,-0.5055555555555555],[-0.025,-0.5055555555555555],[-0.025,-0.5055555555555555],[-0.025,-0.5055555555555555],[-0.025,-0.5055555555555555],[-0.025,-0.5055555555555555],[-0.025,-0.5055555555555555],[-0.025,-0.5055555555555555],[-0.025,-0.5055555555555555],[-0.025,-0.5055555555555555],[-0.025,-0.5055555555555555],[-0.025,-0.5055555555555555],[-0.025,-0.5055555555555555],[-0.025,-0.5055555555555555],[-0.025,-0.5055555555555555],[-0.025,-0.5055555555555555],[-0.025,-0.5055555555555555],[-0.025,-0.5055555555555555],[-0.025,-0.5055555555555555],[-0.025,-0.5055555555555555],[-0.025,-0.5055555555555555],[-0.025,-0.5055555555555555],[-0.025,-0.5055555555555555],[-0.025,-0.5055555555555555],[-0.025,-0.5055555555555555],[-0.025,-0.5055555555555555],[-0.025,-0.5055555555555555],[-0.025,-0.5055555555555555],[-0.025,-0.5055555555555555],[-0.025,-0.5055555555555555],[-0.025,-0.5055555555555555],[-0.025,-0.5055555555555555],[-0.025,-0.5055555555555555],[-0.025,-0.5055555555555555],[-0.025,-0.5055555555555555],[-0.025,-0.5055555555555555],[-0.025,-0.5055555555555555],[-0.025,-0.5055555555555555],[-0.025,-0.5055555555555555],[-0.025,-0.5018518518518519],[-0.025,-0.48148148148148145],[-0.01875,-0.46111111111111114],[-0.011458333333333333,-0.42962962962962964],[0.003125,-0.3888888888888889],[0.03229166666666667,-0.3333333333333333],[0.04583333333333333,-0.30925925925925923],[0.05416666666666667,-0.28703703703703703],[0.06145833333333333,-0.26296296296296295],[0.071875,-0.22962962962962963],[0.084375,-0.19444444444444445],[0.10625,-0.1574074074074074],[0.121875,-0.14629629629629629],[0.12708333333333333,-0.14444444444444443],[0.12916666666666668,-0.14444444444444443],[0.13229166666666667,-0.14444444444444443],[0.13541666666666666,-0.14444444444444443],[0.13854166666666667,-0.14444444444444443],[0.13958333333333334,-0.14444444444444443],[0.140625,-0.14444444444444443],[0.14270833333333333,-0.14444444444444443],[0.146875,-0.14444444444444443],[0.153125,-0.14444444444444443],[0.15833333333333333,-0.13518518518518519],[0.159375,-0.10185185185185185],[0.159375,-0.053703703703703705],[0.15,0.06296296296296296],[0.13854166666666667,0.15555555555555556],[0.13125,0.21481481481481482],[0.12604166666666666,0.2722222222222222],[0.12083333333333333,0.31851851851851853],[0.11354166666666667,0.37222222222222223],[0.11145833333333334,0.387037037037037],[0.10833333333333334,0.40925925925925927],[0.10625,0.4222222222222222],[0.10625,0.42962962962962964],[0.10625,0.43148148148148147],[0.10625,0.43703703703703706],[0.109375,0.4462962962962963],[0.12395833333333334,0.4648148148148148],[0.17083333333333334,0.5185185185185185],[0.18854166666666666,0.5296296296296297],[0.2125,0.5481481481481482],[0.23333333333333334,0.5611111111111111],[0.24479166666666666,0.5648148148148148],[0.2552083333333333,0.5648148148148148],[0.25729166666666664,0.5648148148148148],[0.25833333333333336,0.5648148148148148],[0.259375,0.5648148148148148],[0.259375,0.5648148148148148],[0.259375,0.5648148148148148],[0.259375,0.5648148148148148],[0.259375,0.5648148148148148],[0.259375,0.5648148148148148],[0.25833333333333336,0.5648148148148148],[0.25416666666666665,0.5611111111111111],[0.2520833333333333,0.5574074074074075],[0.24895833333333334,0.5518518518518518],[0.24583333333333332,0.5462962962962963],[0.24375,0.5425925925925926],[0.24166666666666667,0.5407407407407407],[0.24166666666666667,0.5407407407407407],[0.24166666666666667,0.5407407407407407],[0.24166666666666667,0.5388888888888889],[0.23854166666666668,0.5351851851851852],[0.23541666666666666,0.5314814814814814],[0.23125,0.5259259259259259],[0.225,0.512962962962963],[0.21875,0.4981481481481482],[0.21458333333333332,0.4925925925925926],[0.21041666666666667,0.47962962962962963],[0.20416666666666666,0.4666666666666667],[0.2,0.45925925925925926],[0.2,0.45740740740740743],[0.19895833333333332,0.45555555555555555],[0.19895833333333332,0.45555555555555555],[0.19791666666666666,0.4537037037037037],[0.19791666666666666,0.4537037037037037],[0.196875,0.45185185185185184],[0.196875,0.45],[0.19583333333333333,0.44814814814814813],[0.19479166666666667,0.4444444444444444],[0.19479166666666667,0.4425925925925926],[0.19479166666666667,0.4388888888888889],[0.19479166666666667,0.4351851851851852],[0.19479166666666667,0.42962962962962964],[0.19479166666666667,0.42407407407407405],[0.19479166666666667,0.4166666666666667],[0.19479166666666667,0.4148148148148148],[0.19479166666666667,0.4148148148148148],[0.19479166666666667,0.4148148148148148],[0.19479166666666667,0.4148148148148148],[0.19479166666666667,0.4148148148148148],[0.19479166666666667,0.4148148148148148],[0.19479166666666667,0.4148148148148148],[0.19479166666666667,0.4148148148148148],[0.19479166666666667,0.4148148148148148],[0.19479166666666667,0.4148148148148148],[0.19479166666666667,0.4148148148148148],[0.19479166666666667,0.4148148148148148],[0.19479166666666667,0.4148148148148148],[0.19479166666666667,0.4148148148148148],[0.19479166666666667,0.4148148148148148],[0.19479166666666667,0.4148148148148148],[0.19479166666666667,0.4148148148148148],[0.19479166666666667,0.4148148148148148],[0.19479166666666667,0.4148148148148148],[0.19479166666666667,0.4148148148148148],[0.19479166666666667,0.4148148148148148],[0.19479166666666667,0.4148148148148148],[0.19479166666666667,0.4148148148148148],[0.19479166666666667,0.4148148148148148],[0.19479166666666667,0.4148148148148148],[0.19479166666666667,0.4148148148148148],[0.19479166666666667,0.4148148148148148],[0.19479166666666667,0.4148148148148148],[0.19479166666666667,0.4148148148148148],[0.19479166666666667,0.4148148148148148],[0.19479166666666667,0.4148148148148148],[0.19479166666666667,0.4148148148148148],[0.19479166666666667,0.4148148148148148],[0.19479166666666667,0.4148148148148148],[0.19479166666666667,0.4148148148148148],[0.19479166666666667,0.4148148148148148],[0.19479166666666667,0.412962962962963],[0.190625,0.40925925925925927],[0.18333333333333332,0.40925925925925927],[0.17708333333333334,0.40925925925925927],[0.171875,0.40925925925925927],[0.165625,0.40925925925925927],[0.15729166666666666,0.40925925925925927],[0.146875,0.40925925925925927],[0.13854166666666667,0.40925925925925927],[0.12916666666666668,0.40925925925925927],[0.12708333333333333,0.40925925925925927],[0.12708333333333333,0.40925925925925927],[0.12708333333333333,0.40925925925925927],[0.12708333333333333,0.40925925925925927],[0.12708333333333333,0.40925925925925927],[0.12708333333333333,0.40925925925925927],[0.12708333333333333,0.40925925925925927],[0.12708333333333333,0.40925925925925927],[0.12604166666666666,0.40925925925925927],[0.12708333333333333,0.412962962962963],[0.128125,0.4185185185185185],[0.13125,0.42407407407407405],[0.13125,0.42592592592592593],[0.13333333333333333,0.43148148148148147],[0.134375,0.4351851851851852],[0.13645833333333332,0.43703703703703706],[0.1375,0.44074074074074077],[0.1375,0.44074074074074077],[0.1375,0.4425925925925926],[0.1375,0.4425925925925926]]","[[-0.11760416666666665,0.13851851851851843],[-0.11760416666666665,0.13851851851851843],[-0.12270833333333328,0.1359259259259259],[-0.12270833333333328,0.1359259259259259],[-0.12406250000000002,0.11870370370370374],[-0.12406250000000002,0.11870370370370374],[-0.12614583333333335,0.09148148148148144],[-0.13708333333333336,0.14333333333333328],[-0.13708333333333336,0.14333333333333328],[-0.13843749999999996,0.12018518518518514],[-0.13843749999999996,0.12018518518518514],[-0.1430208333333333,0.11259259259259251],[-0.1430208333333333,0.11259259259259251],[-0.14791666666666667,0.05259259259259255],[-0.14479166666666668,0.05740740740740741],[-0.15072916666666672,0.04055555555555551],[-0.13947916666666665,0.04796296296296292],[-0.15,0.06555555555555552],[-0.1610416666666667,0.11314814814814819],[-0.17843749999999994,0.19370370370370374],[-0.18614583333333337,0.1737037037037036],[-0.20343749999999997,0.22870370370370371],[-0.2185416666666666,0.2972222222222222],[-0.23645833333333333,0.36629629629629623],[-0.25406249999999997,0.38870370370370366],[-0.26052083333333337,0.4262962962962964],[-0.2827083333333333,0.46870370370370373],[-0.2872916666666666,0.507037037037037],[-0.2640625,0.4903703703703703],[-0.23395833333333335,0.47925925925925916],[-0.21875,0.467962962962963],[-0.20354166666666665,0.4566666666666667],[-0.19489583333333335,0.447037037037037],[-0.18624999999999994,0.43740740740740747],[-0.16989583333333336,0.4420370370370371],[-0.14624999999999996,0.43499999999999994],[-0.10239583333333328,0.4300000000000001],[-0.058958333333333356,0.4183333333333333],[-0.04885416666666664,0.4594444444444445],[-0.05135416666666662,0.44074074074074077],[-0.034375,0.44370370370370377],[-0.01739583333333338,0.44666666666666677],[-0.01739583333333338,0.44666666666666677],[0.016979166666666618,0.41203703703703703],[0.050833333333333286,0.3635185185185184],[0.06666666666666667,0.3285185185185185],[0.08510416666666672,0.2927777777777778],[0.0943749999999999,0.23537037037037042],[0.09354166666666662,0.1844444444444445],[0.09645833333333324,0.12222222222222222],[0.1310416666666666,0.11611111111111119],[0.1586458333333333,0.1037037037037037],[0.18427083333333344,0.08759259259259251],[0.1896874999999999,0.08944444444444435],[0.21760416666666677,0.11074074074074065],[0.24552083333333338,0.13203703703703695],[0.27010416666666665,0.152962962962963],[0.2946875000000001,0.17388888888888884],[0.31791666666666674,0.18370370370370379],[0.3411458333333333,0.1935185185185185],[0.34093749999999995,0.16203703703703703],[0.3407291666666666,0.13055555555555556],[0.33697916666666666,0.09537037037037037],[0.33833333333333326,0.06314814814814819],[0.3285416666666668,0.06999999999999991],[0.3071875000000001,0.04148148148148144],[0.2978125000000001,0.04888888888888885],[0.28843750000000007,0.056296296296296254],[0.26927083333333335,0.06703703703703712],[0.25010416666666657,0.07777777777777778],[0.23229166666666667,0.10944444444444448],[0.21447916666666675,0.1411111111111112],[0.19874999999999995,0.17740740740740732],[0.18864583333333323,0.2101851851851852],[0.1724999999999999,0.2146296296296296],[0.16791666666666671,0.2544444444444444],[0.14572916666666677,0.2412962962962962],[0.12354166666666658,0.22814814814814824],[0.08770833333333337,0.26777777777777784],[0.051874999999999956,0.3074074074074074],[0.050520833333333334,0.2898148148148148],[0.0421875,0.28462962962962973],[0.017499999999999953,0.2735185185185186],[-0.004062499999999977,0.2603703703703704],[-0.026041666666666668,0.23148148148148148],[-0.04802083333333336,0.20259259259259255],[-0.07218749999999995,0.1992592592592593],[-0.09635416666666667,0.19592592592592584],[-0.08666666666666671,0.13944444444444437],[-0.07697916666666664,0.08296296296296288],[-0.09041666666666662,0.0992592592592593],[-0.09416666666666665,0.08000000000000008],[-0.078125,0.06944444444444445],[-0.08270833333333331,0.06740740740740736],[-0.09166666666666666,0.06481481481481481],[-0.10062500000000002,0.06222222222222226],[-0.0985416666666667,0.09092592592592597],[-0.09645833333333335,0.11962962962962967],[-0.12687499999999996,0.16351851851851842],[-0.15520833333333334,0.22074074074074082],[-0.19718749999999996,0.22555555555555548],[-0.21947916666666673,0.29148148148148145],[-0.2601041666666667,0.31574074074074077],[-0.28552083333333333,0.34037037037037027],[-0.3126041666666667,0.38629629629629636],[-0.33968750000000003,0.4322222222222222],[-0.37312500000000004,0.39018518518518525],[-0.40656249999999994,0.34814814814814815],[-0.40656249999999994,0.34814814814814815],[-0.4007291666666667,0.34222222222222215],[-0.38093750000000004,0.34333333333333327],[-0.35562499999999997,0.3768518518518518],[-0.36062500000000003,0.35481481481481486],[-0.34614583333333326,0.3701851851851851],[-0.34437500000000004,0.3801851851851851],[-0.3422916666666667,0.3698148148148149],[-0.32875000000000004,0.35592592592592603],[-0.3186458333333333,0.402962962962963],[-0.31583333333333335,0.44759259259259265],[-0.32093750000000004,0.4420370370370371],[-0.3758333333333333,0.4192592592592592],[-0.3758333333333333,0.4192592592592592],[-0.42989583333333337,0.4057407407407408],[-0.42989583333333337,0.4057407407407408],[-0.48541666666666666,0.41351851851851845],[-0.48541666666666666,0.41351851851851845],[-0.5403125000000001,0.419074074074074],[-0.5403125000000001,0.419074074074074],[-0.5826041666666666,0.4338888888888888],[-0.5826041666666666,0.4338888888888888],[-0.6178125,0.44314814814814807],[-0.6178125,0.44314814814814807],[-0.6660416666666666,0.4674074074074074],[-0.7094791666666667,0.48777777777777775],[-0.7094791666666667,0.48777777777777775],[-0.7317708333333334,0.5275925925925925],[-0.7317708333333334,0.5275925925925925],[-0.7715625,0.5520370370370371],[-0.7715625,0.5520370370370371],[-0.7648958333333333,0.5840740740740741],[-0.7648958333333333,0.5840740740740741],[-0.7676041666666666,0.6107407407407407],[-0.7676041666666666,0.6107407407407407],[-0.7585416666666667,0.6166666666666667],[-0.7585416666666667,0.6166666666666667],[-0.7601041666666667,0.6392592592592593],[-0.7601041666666667,0.6392592592592593],[-0.7558333333333334,0.6420370370370371],[-0.7475,0.6533333333333332],[-0.7376041666666667,0.6531481481481483],[-0.7328125,0.6568518518518519],[-0.7418750000000001,0.6435185185185185],[-0.7389583333333333,0.6375925925925925],[-0.7487499999999999,0.6209259259259259],[-0.75,0.5979629629629629],[-0.7536458333333333,0.5920370370370371],[-0.74375,0.5716666666666668],[-0.7372916666666666,0.5603703703703704],[-0.74375,0.5568518518518519],[-0.7502083333333334,0.5533333333333332],[-0.7633333333333333,0.5555555555555556],[-0.7667708333333334,0.5472222222222223],[-0.7609375,0.5522222222222223],[-0.7551041666666667,0.5572222222222222],[-0.7320833333333333,0.5551851851851851],[-0.7370833333333333,0.5651851851851852],[-0.7444791666666667,0.581111111111111],[-0.751875,0.597037037037037],[-0.7557291666666667,0.6235185185185186],[-0.7648958333333333,0.6300000000000001],[-0.7654166666666666,0.6257407407407407],[-0.775625,0.632037037037037],[-0.7755208333333333,0.6287037037037037],[-0.7754166666666666,0.6253703703703705],[-0.751875,0.605185185185185],[-0.691875,0.5666666666666667],[-0.619375,0.5724074074074075],[-0.5586458333333333,0.5805555555555556],[-0.5,0.5662962962962962],[-0.43416666666666665,0.5281481481481483],[-0.37531249999999994,0.5027777777777778],[-0.31281249999999994,0.47611111111111115],[-0.26885416666666667,0.44888888888888884],[-0.22489583333333332,0.42166666666666675],[-0.2172916666666667,0.40629629629629627],[-0.21343749999999997,0.40851851851851856],[-0.22156250000000005,0.3562962962962963],[-0.2179166666666667,0.30166666666666664],[-0.20656249999999995,0.2564814814814815],[-0.1970833333333334,0.2551851851851851],[-0.18520833333333328,0.24166666666666667],[-0.17697916666666663,0.2294444444444444],[-0.14895833333333333,0.21574074074074073],[-0.12093750000000002,0.20203703703703707],[-0.11437499999999995,0.2212962962962963],[-0.115625,0.22462962962962954],[-0.09260416666666664,0.24537037037037038],[-0.07218749999999995,0.2733333333333334],[-0.07218749999999995,0.2733333333333334],[-0.050729166666666714,0.2890740740740741],[-0.029270833333333357,0.306111111111111],[-0.0048958333333333805,0.32759259259259255],[0.022291666666666644,0.3507407407407407],[0.025520833333333333,0.36500000000000005],[0.035000000000000024,0.3798148148148149],[0.06395833333333331,0.384074074074074],[0.08739583333333342,0.37814814814814823],[0.09114583333333333,0.36870370370370376],[0.09270833333333334,0.3772222222222223],[0.09270833333333334,0.3772222222222223],[0.08333333333333333,0.3638888888888889],[0.07166666666666661,0.35537037037037034],[0.05572916666666667,0.35425925925925916],[0.04500000000000005,0.3285185185185185],[0.04510416666666662,0.31851851851851853],[0.03895833333333331,0.3079629629629629],[0.03895833333333331,0.3079629629629629],[0.050625000000000024,0.2861111111111111],[0.071875,0.2683333333333333],[0.07739583333333329,0.28648148148148156],[0.10010416666666658,0.22962962962962963],[0.12666666666666657,0.19759259259259268],[0.14979166666666663,0.1507407407407407],[0.16822916666666668,0.09277777777777782],[0.1974999999999999,0.07370370370370362],[0.1974999999999999,0.07370370370370362],[0.20614583333333342,0.02240740740740745],[0.20614583333333342,0.02240740740740745],[0.2039583333333333,-0.10092592592592593],[0.1993750000000001,-0.15240740740740744],[0.1709374999999999,-0.22296296296296292],[0.1508333333333333,-0.33481481481481484],[0.13531250000000009,-0.40611111111111114],[0.11729166666666657,-0.4468518518518519],[0.11979166666666667,-0.4607407407407408],[0.13125,-0.47092592592592597],[0.1256249999999999,-0.508888888888889],[0.140625,-0.5146296296296295],[0.15197916666666675,-0.46833333333333327],[0.14562499999999995,-0.4905555555555555],[0.16958333333333328,-0.43388888888888894],[0.1935416666666666,-0.3772222222222222],[0.19927083333333329,-0.31666666666666665],[0.20750000000000005,-0.2866666666666667],[0.20541666666666672,-0.28481481481481485],[0.2033333333333334,-0.28296296296296297],[0.1962500000000001,-0.2881481481481482],[0.18916666666666657,-0.2933333333333333],[0.18739583333333343,-0.25981481481481483],[0.2053124999999999,-0.2588888888888889],[0.21302083333333333,-0.32092592592592595],[0.21135416666666676,-0.3490740740740741],[0.22104166666666672,-0.395],[0.22104166666666672,-0.395],[0.2271874999999999,-0.43648148148148147],[0.22697916666666676,-0.4644444444444445],[0.22697916666666676,-0.4644444444444445],[0.2273958333333333,-0.5231481481481481],[0.2273958333333333,-0.5231481481481481],[0.23166666666666677,-0.5212962962962963],[0.23166666666666677,-0.5212962962962963],[0.23385416666666667,-0.5285185185185185],[0.23385416666666667,-0.5285185185185185],[0.24093749999999994,-0.52],[0.24093749999999994,-0.52],[0.21479166666666671,-0.4844444444444445],[0.19791666666666666,-0.42685185185185187],[0.19041666666666662,-0.40314814814814814],[0.1544791666666666,-0.4083333333333333],[0.1319791666666667,-0.40851851851851856],[0.09760416666666671,-0.37333333333333335],[0.0626041666666667,-0.3074074074074074],[0.05166666666666669,-0.24407407407407408],[0.042812500000000024,-0.17166666666666663],[-0.0014583333333333095,-0.17092592592592595],[0.0068750000000000235,-0.14518518518518514],[0.00947916666666669,-0.14092592592592595],[0.006458333333333381,-0.1255555555555556],[0.004999999999999952,-0.05851851851851856],[-0.010416666666666666,0.0011111111111111532],[-0.04468749999999998,0.057962962962962876],[-0.07416666666666671,0.10351851851851848],[-0.08968750000000002,0.0507407407407407],[-0.10958333333333338,-0.011481481481481566],[-0.08979166666666671,-0.036481481481481566],[-0.10906250000000005,-0.0809259259259259],[-0.10874999999999997,-0.12481481481481477],[-0.08541666666666667,-0.20666666666666672],[-0.0453125,-0.2881481481481482],[-0.001145833333333357,-0.37166666666666665],[0.0775000000000001,-0.4888888888888889],[0.15135416666666662,-0.5948148148148148],[0.21062500000000003,-0.6531481481481481],[0.2742708333333333,-0.7020370370370371],[0.3023958333333333,-0.6977777777777778],[0.33052083333333326,-0.6935185185185185],[0.3494791666666667,-0.7053703703703703],[0.33781249999999996,-0.6675925925925926],[0.33468749999999997,-0.6316666666666667],[0.3315624999999999,-0.5957407407407407],[0.3267708333333334,-0.5574074074074075],[0.3296875,-0.534074074074074],[0.30531249999999993,-0.5],[0.2705208333333334,-0.4487037037037037],[0.2613541666666668,-0.4412962962962963],[0.2521874999999999,-0.43388888888888894],[0.23302083333333337,-0.4118518518518518],[0.22708333333333333,-0.4125925925925926],[0.2275000000000001,-0.42777777777777776],[0.22999999999999995,-0.4375925925925926],[0.22406249999999991,-0.44888888888888884],[0.22406249999999991,-0.44888888888888884],[0.2195833333333333,-0.4359259259259259],[0.21749999999999994,-0.42000000000000004],[0.22229166666666675,-0.42851851851851847],[0.23697916666666666,-0.4462962962962963],[0.24947916666666667,-0.46518518518518515],[0.2608333333333334,-0.4698148148148148],[0.28489583333333335,-0.4933333333333333],[0.29406249999999995,-0.5005555555555555],[0.2757291666666667,-0.49296296296296294],[0.265625,-0.48870370370370364],[0.25,-0.48518518518518516],[0.23697916666666666,-0.4874074074074074],[0.2271874999999999,-0.48462962962962963],[0.23072916666666668,-0.4859259259259259],[0.20031249999999995,-0.4698148148148148],[0.16989583333333325,-0.4537037037037037],[0.14010416666666667,-0.42240740740740745],[0.12062499999999995,-0.39296296296296296],[0.12062499999999995,-0.39296296296296296],[0.1203125,-0.3798148148148149],[0.10927083333333343,-0.36740740740740735],[0.09458333333333328,-0.3635185185185185],[0.07729166666666672,-0.35537037037037034],[0.058854166666666666,-0.3351851851851852],[0.027083333333333334,-0.3109259259259259],[0.027083333333333334,-0.3109259259259259],[0.04510416666666662,-0.32092592592592595],[0.06760416666666676,-0.33259259259259266],[0.07291666666666667,-0.33259259259259266],[0.07291666666666667,-0.33259259259259266],[0.0678124999999999,-0.33851851851851855],[0.05677083333333333,-0.3485185185185185],[0.07239583333333334,-0.35462962962962963],[0.08489583333333334,-0.36500000000000005],[0.096875,-0.36944444444444446],[0.1109375,-0.3853703703703704],[0.13572916666666662,-0.41574074074074074]]","[[-0.11760416666666665,0.13851851851851843,0.0002000002861137773],[-0.11760416666666665,0.13851851851851843,0.050499999999999545],[-0.12270833333333328,0.1359259259259259,0.06070000028610423],[-0.12270833333333328,0.1359259259259259,0.0774000000953663],[-0.12406250000000002,0.11870370370370374,0.09420000028610787],[-0.12406250000000002,0.11870370370370374,0.11070000028610139],[-0.12614583333333335,0.09148148148148144,0.12740000009537766],[-0.13708333333333336,0.14333333333333328,0.15030000019073952],[-0.13708333333333336,0.14333333333333328,0.16840000009537448],[-0.13843749999999996,0.12018518518518514,0.1818000001907336],[-0.13843749999999996,0.12018518518518514,0.19410000038148212],[-0.1430208333333333,0.11259259259259251,0.2107000002861099],[-0.1430208333333333,0.11259259259259251,0.22740000009537198],[-0.14791666666666667,0.05259259259259255,0.24410000038147928],[-0.14479166666666668,0.05740740740740741,0.26080000019074134],[-0.15072916666666672,0.04055555555555551,0.28040000009536925],[-0.13947916666666665,0.04796296296296292,0.2954000000953698],[-0.15,0.06555555555555552,0.3133000001907362],[-0.1610416666666667,0.11314814814814819,0.3297000002861097],[-0.17843749999999994,0.19370370370370374,0.3441000003814736],[-0.18614583333333337,0.1737037037037036,0.3607000002861014],[-0.20343749999999997,0.22870370370370371,0.37740000009537766],[-0.2185416666666666,0.2972222222222222,0.39400000000000546],[-0.23645833333333333,0.36629629629629623,0.41070000028611275],[-0.25406249999999997,0.38870370370370366,0.4306000003814745],[-0.26052083333333337,0.4262962962962964,0.44610000038147746],[-0.2827083333333333,0.46870370370370373,0.4607000002861099],[-0.2872916666666666,0.507037037037037,0.477400000095372],[-0.2640625,0.4903703703703703,0.4939999999999998],[-0.23395833333333335,0.47925925925925916,0.5106000003814728],[-0.21875,0.467962962962963,0.5302000002861007],[-0.20354166666666665,0.4566666666666667,0.5467000002861084],[-0.19489583333333335,0.447037037037037,0.56060000038147],[-0.18624999999999994,0.43740740740740747,0.5774000000953663],[-0.16989583333333336,0.4420370370370371,0.5941000003814736],[-0.14624999999999996,0.43499999999999994,0.6107000002861014],[-0.10239583333333328,0.4300000000000001,0.6289000000953706],[-0.058958333333333356,0.4183333333333333,0.6440000000000055],[-0.04885416666666664,0.4594444444444445,0.6607000002861128],[-0.05135416666666662,0.44074074074074077,0.6773000001907405],[-0.034375,0.44370370370370377,0.6940000000000026],[-0.01739583333333338,0.44666666666666677,0.7108000001907442],[-0.01739583333333338,0.44666666666666677,0.727400000095372],[0.016979166666666618,0.41203703703703703,0.7443000001907336],[0.050833333333333286,0.3635185185185184,0.7607000002861071],[0.06666666666666667,0.3285185185185185,0.7781000003814711],[0.08510416666666672,0.2927777777777778,0.7941000003814764],[0.0943749999999999,0.23537037037037042,0.8107000002861042],[0.09354166666666662,0.1844444444444445,0.8305000000000007],[0.09645833333333324,0.12222222222222222,0.8448000001907445],[0.1310416666666666,0.11611111111111119,0.8608000001907357],[0.1586458333333333,0.1037037037037037,0.8774000000953777],[0.18427083333333344,0.08759259259259251,0.8940000000000055],[0.1896874999999999,0.08944444444444435,0.9106000003814785],[0.21760416666666677,0.11074074074074065,0.9287000002861134],[0.24552083333333338,0.13203703703703695,0.9440000000000026],[0.27010416666666665,0.152962962962963,0.9607000002861099],[0.2946875000000001,0.17388888888888884,0.977400000095372],[0.31791666666666674,0.18370370370370379,0.9939999999999998],[0.3411458333333333,0.1935185185185185,1.010700000286107],[0.34093749999999995,0.16203703703703703,1.0287000002861078],[0.3407291666666666,0.13055555555555556,1.0442000002861107],[0.33697916666666666,0.09537037037037037,1.0607000002861042],[0.33833333333333326,0.06314814814814819,1.0774000000953663],[0.3285416666666668,0.06999999999999991,1.0940000000000083],[0.3071875000000001,0.04148148148148144,1.1107000002861014],[0.2978125000000001,0.04888888888888885,1.1290000000000049],[0.28843750000000007,0.056296296296296254,1.1440000000000055],[0.26927083333333335,0.06703703703703712,1.1606000003814785],[0.25010416666666657,0.07777777777777778,1.1773000001907405],[0.23229166666666667,0.10944444444444448,1.1940000000000026],[0.21447916666666675,0.1411111111111112,1.21070000028611],[0.19874999999999995,0.17740740740740732,1.230000000000004],[0.18864583333333323,0.2101851851851852,1.2441000003814793],[0.1724999999999999,0.2146296296296296,1.260700000286107],[0.16791666666666671,0.2544444444444444,1.2775000000000034],[0.14572916666666677,0.2412962962962962,1.2941000003814764],[0.12354166666666658,0.22814814814814824,1.3108000001907385],[0.08770833333333337,0.26777777777777784,1.3275000000000006],[0.051874999999999956,0.3074074074074074,1.3440000000000083],[0.050520833333333334,0.2898148148148148,1.3606000003814813],[0.0421875,0.28462962962962973,1.3774000000953777],[0.017499999999999953,0.2735185185185186,1.3940000000000055],[-0.004062499999999977,0.2603703703703704,1.4107000002861128],[-0.026041666666666668,0.23148148148148148,1.4276000003814744],[-0.04802083333333336,0.20259259259259255,1.4440000000000026],[-0.07218749999999995,0.1992592592592593,1.46070000028611],[-0.09635416666666667,0.19592592592592584,1.4776000003814715],[-0.08666666666666671,0.13944444444444437,1.4957000002861065],[-0.07697916666666664,0.08296296296296288,1.513600000381473],[-0.09041666666666662,0.0992592592592593,1.5319000000953764],[-0.09416666666666665,0.08000000000000008,1.54840000009537],[-0.078125,0.06944444444444445,1.565800000190734],[-0.08270833333333331,0.06740740740740736,1.5814000000953712],[-0.09166666666666666,0.06481481481481481,1.5966000003814713],[-0.10062500000000002,0.06222222222222226,1.61090000009537],[-0.0985416666666667,0.09092592592592597,1.6299000000953754],[-0.09645833333333335,0.11962962962962967,1.6444000000953736],[-0.12687499999999996,0.16351851851851842,1.660900000095367],[-0.15520833333333334,0.22074074074074082,1.6774000000953748],[-0.19718749999999996,0.22555555555555548,1.6940000000000026],[-0.21947916666666673,0.29148148148148145,1.7109999999999985],[-0.2601041666666667,0.31574074074074077,1.730700000286106],[-0.28552083333333333,0.34037037037037027,1.7465000000000117],[-0.3126041666666667,0.38629629629629636,1.7630000000000052],[-0.33968750000000003,0.4322222222222222,1.7776000003814687],[-0.37312500000000004,0.39018518518518525,1.7940000000000111],[-0.40656249999999994,0.34814814814814815,1.8107000002861042],[-0.40656249999999994,0.34814814814814815,1.8275000000000006],[-0.4007291666666667,0.34222222222222215,1.8441000003814736],[-0.38093750000000004,0.34333333333333327,1.8607000002861014],[-0.35562499999999997,0.3768518518518518,1.8778000001907458],[-0.36062500000000003,0.35481481481481486,1.8941000003814707],[-0.34614583333333326,0.3701851851851851,1.9106000003814785],[-0.34437500000000004,0.3801851851851851,1.9286000003814792],[-0.3422916666666667,0.3698148148148149,1.9465000000000003],[-0.32875000000000004,0.35592592592592603,1.9606000003814756],[-0.3186458333333333,0.402962962962963,1.9775000000000063],[-0.31583333333333335,0.44759259259259265,1.9939999999999998],[-0.32093750000000004,0.4420370370370371,2.010600000381473],[-0.3758333333333333,0.4192592592592592,2.029800000190747],[-0.3758333333333333,0.4192592592592592,2.0441000003814764],[-0.42989583333333337,0.4057407407407408,2.06060000038147],[-0.42989583333333337,0.4057407407407408,2.0773000001907462],[-0.48541666666666666,0.41351851851851845,2.0940000000000083],[-0.48541666666666666,0.41351851851851845,2.1106000003814813],[-0.5403125000000001,0.419074074074074,2.1273000001907434],[-0.5403125000000001,0.419074074074074,2.1440000000000055],[-0.5826041666666666,0.4338888888888888,2.160800000190747],[-0.5826041666666666,0.4338888888888888,2.1773000001907405],[-0.6178125,0.44314814814814807,2.198900000095378],[-0.6178125,0.44314814814814807,2.21070000028611],[-0.6660416666666666,0.4674074074074074,2.227400000095372],[-0.7094791666666667,0.48777777777777775,2.2490000000000094],[-0.7094791666666667,0.48777777777777775,2.260600000381473],[-0.7317708333333334,0.5275925925925925,2.277400000095369],[-0.7317708333333334,0.5275925925925925,2.2941000003814764],[-0.7715625,0.5520370370370371,2.3108000001907385],[-0.7715625,0.5520370370370371,2.3274000000953663],[-0.7648958333333333,0.5840740740740741,2.3441000003814736],[-0.7648958333333333,0.5840740740740741,2.3607000002861014],[-0.7676041666666666,0.6107407407407407,2.3774000000953777],[-0.7676041666666666,0.6107407407407407,2.3940000000000055],[-0.7585416666666667,0.6166666666666667,2.4107000002861128],[-0.7585416666666667,0.6166666666666667,2.427400000095375],[-0.7601041666666667,0.6392592592592593,2.444100000381482],[-0.7601041666666667,0.6392592592592593,2.46070000028611],[-0.7558333333333334,0.6420370370370371,2.4773000001907377],[-0.7475,0.6533333333333332,2.4939999999999998],[-0.7376041666666667,0.6531481481481483,2.510700000286107],[-0.7328125,0.6568518518518519,2.5282000002861054],[-0.7418750000000001,0.6435185185185185,2.544000000000011],[-0.7389583333333333,0.6375925925925925,2.56060000038147],[-0.7487499999999999,0.6209259259259259,2.5774000000953663],[-0.75,0.5979629629629629,2.5940000000000083],[-0.7536458333333333,0.5920370370370371,2.6107000002861014],[-0.74375,0.5716666666666668,2.6278000001907458],[-0.7372916666666666,0.5603703703703704,2.6444000000953736],[-0.74375,0.5568518518518519,2.6607000002861128],[-0.7502083333333334,0.5533333333333332,2.6781000003814768],[-0.7633333333333333,0.5555555555555556,2.696800000190734],[-0.7667708333333334,0.5472222222222223,2.7114000000953666],[-0.7609375,0.5522222222222223,2.728999999999999],[-0.7551041666666667,0.5572222222222222,2.7441000003814793],[-0.7320833333333333,0.5551851851851851,2.76100000000001],[-0.7370833333333333,0.5651851851851852,2.7776000003814687],[-0.7444791666666667,0.581111111111111,2.794000000000011],[-0.751875,0.597037037037037,2.81060000038147],[-0.7557291666666667,0.6235185185185186,2.8305000000000007],[-0.7648958333333333,0.6300000000000001,2.846900000095374],[-0.7654166666666666,0.6257407407407407,2.8621000003814743],[-0.775625,0.632037037037037,2.8792000002861045],[-0.7755208333333333,0.6287037037037037,2.893900000095371],[-0.7754166666666666,0.6253703703703705,2.9106000003814785],[-0.751875,0.605185185185185,2.9306000003814745],[-0.691875,0.5666666666666667,2.9446000003814703],[-0.619375,0.5724074074074075,2.9609000000953785],[-0.5586458333333333,0.5805555555555556,2.977400000095372],[-0.5,0.5662962962962962,2.9943000001907336],[-0.43416666666666665,0.5281481481481483,3.010700000286107],[-0.37531249999999994,0.5027777777777778,3.0294999999999987],[-0.31281249999999994,0.47611111111111115,3.0441000003814764],[-0.26885416666666667,0.44888888888888884,3.06060000038147],[-0.22489583333333332,0.42166666666666675,3.0782000002861025],[-0.2172916666666667,0.40629629629629627,3.0940000000000083],[-0.21343749999999997,0.40851851851851856,3.1106000003814813],[-0.22156250000000005,0.3562962962962963,3.1300000000000097],[-0.2179166666666667,0.30166666666666664,3.1470000000000056],[-0.20656249999999995,0.2564814814814815,3.163100000381476],[-0.1970833333333334,0.2551851851851851,3.1787000002861134],[-0.18520833333333328,0.24166666666666667,3.1940000000000026],[-0.17697916666666663,0.2294444444444444,3.21070000028611],[-0.14895833333333333,0.21574074074074073,3.2298000001907354],[-0.12093750000000002,0.20203703703703707,3.2472000002861137],[-0.11437499999999995,0.2212962962962963,3.263200000286105],[-0.115625,0.22462962962962954,3.2804000000953693],[-0.09260416666666664,0.24537037037037038,3.2968000001907427],[-0.07218749999999995,0.2733333333333334,3.3133000001907362],[-0.07218749999999995,0.2733333333333334,3.3275000000000006],[-0.050729166666666714,0.2890740740740741,3.347200000286108],[-0.029270833333333357,0.306111111111111,3.3634000000953677],[-0.0048958333333333805,0.32759259259259255,3.3784000000953682],[0.022291666666666644,0.3507407407407407,3.39820000028611],[0.025520833333333333,0.36500000000000005,3.4147000002861034],[0.035000000000000024,0.3798148148148149,3.431100000381477],[0.06395833333333331,0.384074074074074,3.449200000286112],[0.08739583333333342,0.37814814814814823,3.4643000001907467],[0.09114583333333333,0.36870370370370376,3.480700000286106],[0.09270833333333334,0.3772222222222223,3.5009000000953705],[0.09270833333333334,0.3772222222222223,3.5108000001907413],[0.08333333333333333,0.3638888888888889,3.5275000000000034],[0.07166666666666661,0.35537037037037034,3.5442000002861107],[0.05572916666666667,0.35425925925925916,3.5652000002861115],[0.04500000000000005,0.3285185185185185,3.5808000001907345],[0.04510416666666662,0.31851851851851853,3.5947000002861103],[0.03895833333333331,0.3079629629629629,3.6184000000953773],[0.03895833333333331,0.3079629629629629,3.627500000000012],[0.050625000000000024,0.2861111111111111,3.6443000001907393],[0.071875,0.2683333333333333,3.660800000190747],[0.07739583333333329,0.28648148148148156,3.682000000000002],[0.10010416666666658,0.22962962962962963,3.697400000095371],[0.12666666666666657,0.19759259259259268,3.714900000095369],[0.14979166666666663,0.1507407407407407,3.7332000002861037],[0.16822916666666668,0.09277777777777782,3.747400000095368],[0.1974999999999999,0.07370370370370362,3.766600000381473],[0.1974999999999999,0.07370370370370362,3.7974000000953794],[0.20614583333333342,0.02240740740740745,3.8056000003814745],[0.20614583333333342,0.02240740740740745,3.81240000009538],[0.2039583333333333,-0.10092592592592593,3.8275000000000006],[0.1993750000000001,-0.15240740740740744,3.846100000381469],[0.1709374999999999,-0.22296296296296292,3.8608000001907357],[0.1508333333333333,-0.33481481481481484,3.877900000095366],[0.13531250000000009,-0.40611111111111114,3.8966000003814685],[0.11729166666666657,-0.4468518518518519,3.9125000000000085],[0.11979166666666667,-0.4607407407407408,3.927900000095377],[0.13125,-0.47092592592592597,3.9477000002861047],[0.1256249999999999,-0.508888888888889,3.961100000381478],[0.140625,-0.5146296296296295,3.9775000000000063],[0.15197916666666675,-0.46833333333333327,3.9942000002861135],[0.14562499999999995,-0.4905555555555555,4.012500000000003],[0.16958333333333328,-0.43388888888888894,4.027400000095369],[0.1935416666666666,-0.3772222222222222,4.044200000286111],[0.19927083333333329,-0.31666666666666665,4.0608000001907385],[0.20750000000000005,-0.2866666666666667,4.079400000095376],[0.20541666666666672,-0.28481481481481485,4.094000000000008],[0.2033333333333334,-0.28296296296296297,4.110600000381481],[0.1962500000000001,-0.2881481481481482,4.127300000190743],[0.18916666666666657,-0.2933333333333333,4.147200000286105],[0.18739583333333343,-0.25981481481481483,4.1606000003814785],[0.2053124999999999,-0.2588888888888889,4.179500000000004],[0.21302083333333333,-0.32092592592592595,4.194200000286102],[0.21135416666666676,-0.3490740740740741,4.2109000000953785],[0.22104166666666672,-0.395,4.2302000002861035],[0.22104166666666672,-0.395,4.2442000002861135],[0.2271874999999999,-0.43648148148148147,4.260800000190741],[0.22697916666666676,-0.4644444444444445,4.283100000381481],[0.22697916666666676,-0.4644444444444445,4.294000000000011],[0.2273958333333333,-0.5231481481481481,4.310700000286104],[0.2273958333333333,-0.5231481481481481,4.327500000000001],[0.23166666666666677,-0.5212962962962963,4.349500000000006],[0.23166666666666677,-0.5212962962962963,4.360800000190736],[0.23385416666666667,-0.5285185185185185,4.377600000381477],[0.23385416666666667,-0.5285185185185185,4.394100000381471],[0.24093749999999994,-0.52,4.4177000002861035],[0.24093749999999994,-0.52,4.427500000000009],[0.21479166666666671,-0.4844444444444445,4.4443000001907365],[0.19791666666666666,-0.42685185185185187,4.460800000190744],[0.19041666666666662,-0.40314814814814814,4.4802000002861035],[0.1544791666666666,-0.4083333333333333,4.494300000190734],[0.1319791666666667,-0.40851851851851856,4.510800000190741],[0.09760416666666671,-0.37333333333333335,4.527300000190735],[0.0626041666666667,-0.3074074074074074,4.546100000381472],[0.05166666666666669,-0.24407407407407408,4.56060000038147],[0.042812500000000024,-0.17166666666666663,4.577500000000001],[-0.0014583333333333095,-0.17092592592592595,4.597200000286108],[0.0068750000000000235,-0.14518518518518514,4.615100000381474],[0.00947916666666669,-0.14092592592592595,4.630400000095378],[0.006458333333333381,-0.1255555555555556,4.64800000000001],[0.004999999999999952,-0.05851851851851856,4.664700000286103],[-0.010416666666666666,0.0011111111111111532,4.680400000095375],[-0.04468749999999998,0.057962962962962876,4.694100000381482],[-0.07416666666666671,0.10351851851851848,4.7135000000000105],[-0.08968750000000002,0.0507407407407407,4.731300000190743],[-0.10958333333333338,-0.011481481481481566,4.747100000381479],[-0.08979166666666671,-0.036481481481481566,4.762800000190737],[-0.10906250000000005,-0.0809259259259259,4.777600000381469],[-0.10874999999999997,-0.12481481481481477,4.793900000095377],[-0.08541666666666667,-0.20666666666666672,4.810700000286104],[-0.0453125,-0.2881481481481482,4.828800000190739],[-0.001145833333333357,-0.37166666666666665,4.844100000381474],[0.0775000000000001,-0.4888888888888889,4.860700000286101],[0.15135416666666662,-0.5948148148148148,4.877900000095366],[0.21062500000000003,-0.6531481481481481,4.893900000095371],[0.2742708333333333,-0.7020370370370371,4.910700000286113],[0.3023958333333333,-0.6977777777777778,4.9273000001907405],[0.33052083333333326,-0.6935185185185185,4.944100000381482],[0.3494791666666667,-0.7053703703703703,4.960600000381476],[0.33781249999999996,-0.6675925925925926,4.977400000095372],[0.33468749999999997,-0.6316666666666667,4.99390000009538],[0.3315624999999999,-0.5957407407407407,5.010700000286107],[0.3267708333333334,-0.5574074074074075,5.027300000190735],[0.3296875,-0.534074074074074,5.044000000000011],[0.30531249999999993,-0.5,5.062200000286111],[0.2705208333333334,-0.4487037037037037,5.077300000190746],[0.2613541666666668,-0.4412962962962963,5.094000000000008],[0.2521874999999999,-0.43388888888888894,5.110700000286101],[0.23302083333333337,-0.4118518518518518,5.130400000095378],[0.22708333333333333,-0.4125925925925926,5.144100000381471],[0.2275000000000001,-0.42777777777777776,5.1606000003814785],[0.22999999999999995,-0.4375925925925926,5.180400000095375],[0.22406249999999991,-0.44888888888888884,5.194000000000003],[0.22406249999999991,-0.44888888888888884,5.210600000381476],[0.2195833333333333,-0.4359259259259259,5.227400000095372],[0.21749999999999994,-0.42000000000000004,5.244],[0.22229166666666675,-0.42851851851851847,5.260700000286107],[0.23697916666666666,-0.4462962962962963,5.277800000190737],[0.24947916666666667,-0.46518518518518515,5.294100000381476],[0.2608333333333334,-0.4698148148148148,5.311000000000007],[0.28489583333333335,-0.4933333333333333,5.329300000190742],[0.29406249999999995,-0.5005555555555555,5.346600000381471],[0.2757291666666667,-0.49296296296296294,5.360800000190736],[0.265625,-0.48870370370370364,5.380600000381477],[0.25,-0.48518518518518516,5.397400000095374],[0.23697916666666666,-0.4874074074074074,5.412400000095374],[0.2271874999999999,-0.48462962962962963,5.430400000095375],[0.23072916666666668,-0.4859259259259259,5.449200000286112],[0.20031249999999995,-0.4698148148148148,5.463999999999999],[0.16989583333333325,-0.4537037037037037,5.479300000190747],[0.14010416666666667,-0.42240740740740745,5.494100000381479],[0.12062499999999995,-0.39296296296296296,5.516500000000008],[0.12062499999999995,-0.39296296296296296,5.527300000190735],[0.1203125,-0.3798148148148149,5.544000000000011],[0.10927083333333343,-0.36740740740740735,5.56060000038147],[0.09458333333333328,-0.3635185185185185,5.580500000000001],[0.07729166666666672,-0.35537037037037034,5.595400000095367],[0.058854166666666666,-0.3351851851851852,5.613100000381479],[0.027083333333333334,-0.3109259259259259,5.632600000381473],[0.027083333333333334,-0.3109259259259259,5.64820000028611],[0.04510416666666662,-0.32092592592592595,5.661000000000001],[0.06760416666666676,-0.33259259259259266,5.680100000381472],[0.07291666666666667,-0.33259259259259266,5.701100000381473],[0.07291666666666667,-0.33259259259259266,5.7109000000953785],[0.0678124999999999,-0.33851851851851855,5.727700000286106],[0.05677083333333333,-0.3485185185185185,5.746400000095377],[0.07239583333333334,-0.35462962962962963,5.764600000381478],[0.08489583333333334,-0.36500000000000005,5.78130000019074],[0.096875,-0.36944444444444446,5.796900000095377],[0.1109375,-0.3853703703703704,5.814400000095375],[0.13572916666666662,-0.41574074074074074,5.831100000381468]]","[0.0002000002861137773,0.050499999999999545,0.06070000028610423,0.0774000000953663,0.09420000028610787,0.11070000028610139,0.12740000009537766,0.15030000019073952,0.16840000009537448,0.1818000001907336,0.19410000038148212,0.2107000002861099,0.22740000009537198,0.24410000038147928,0.26080000019074134,0.28040000009536925,0.2954000000953698,0.3133000001907362,0.3297000002861097,0.3441000003814736,0.3607000002861014,0.37740000009537766,0.39400000000000546,0.41070000028611275,0.4306000003814745,0.44610000038147746,0.4607000002861099,0.477400000095372,0.4939999999999998,0.5106000003814728,0.5302000002861007,0.5467000002861084,0.56060000038147,0.5774000000953663,0.5941000003814736,0.6107000002861014,0.6289000000953706,0.6440000000000055,0.6607000002861128,0.6773000001907405,0.6940000000000026,0.7108000001907442,0.727400000095372,0.7443000001907336,0.7607000002861071,0.7781000003814711,0.7941000003814764,0.8107000002861042,0.8305000000000007,0.8448000001907445,0.8608000001907357,0.8774000000953777,0.8940000000000055,0.9106000003814785,0.9287000002861134,0.9440000000000026,0.9607000002861099,0.977400000095372,0.9939999999999998,1.010700000286107,1.0287000002861078,1.0442000002861107,1.0607000002861042,1.0774000000953663,1.0940000000000083,1.1107000002861014,1.1290000000000049,1.1440000000000055,1.1606000003814785,1.1773000001907405,1.1940000000000026,1.21070000028611,1.230000000000004,1.2441000003814793,1.260700000286107,1.2775000000000034,1.2941000003814764,1.3108000001907385,1.3275000000000006,1.3440000000000083,1.3606000003814813,1.3774000000953777,1.3940000000000055,1.4107000002861128,1.4276000003814744,1.4440000000000026,1.46070000028611,1.4776000003814715,1.4957000002861065,1.513600000381473,1.5319000000953764,1.54840000009537,1.565800000190734,1.5814000000953712,1.5966000003814713,1.61090000009537,1.6299000000953754,1.6444000000953736,1.660900000095367,1.6774000000953748,1.6940000000000026,1.7109999999999985,1.730700000286106,1.7465000000000117,1.7630000000000052,1.7776000003814687,1.7940000000000111,1.8107000002861042,1.8275000000000006,1.8441000003814736,1.8607000002861014,1.8778000001907458,1.8941000003814707,1.9106000003814785,1.9286000003814792,1.9465000000000003,1.9606000003814756,1.9775000000000063,1.9939999999999998,2.010600000381473,2.029800000190747,2.0441000003814764,2.06060000038147,2.0773000001907462,2.0940000000000083,2.1106000003814813,2.1273000001907434,2.1440000000000055,2.160800000190747,2.1773000001907405,2.198900000095378,2.21070000028611,2.227400000095372,2.2490000000000094,2.260600000381473,2.277400000095369,2.2941000003814764,2.3108000001907385,2.3274000000953663,2.3441000003814736,2.3607000002861014,2.3774000000953777,2.3940000000000055,2.4107000002861128,2.427400000095375,2.444100000381482,2.46070000028611,2.4773000001907377,2.4939999999999998,2.510700000286107,2.5282000002861054,2.544000000000011,2.56060000038147,2.5774000000953663,2.5940000000000083,2.6107000002861014,2.6278000001907458,2.6444000000953736,2.6607000002861128,2.6781000003814768,2.696800000190734,2.7114000000953666,2.728999999999999,2.7441000003814793,2.76100000000001,2.7776000003814687,2.794000000000011,2.81060000038147,2.8305000000000007,2.846900000095374,2.8621000003814743,2.8792000002861045,2.893900000095371,2.9106000003814785,2.9306000003814745,2.9446000003814703,2.9609000000953785,2.977400000095372,2.9943000001907336,3.010700000286107,3.0294999999999987,3.0441000003814764,3.06060000038147,3.0782000002861025,3.0940000000000083,3.1106000003814813,3.1300000000000097,3.1470000000000056,3.163100000381476,3.1787000002861134,3.1940000000000026,3.21070000028611,3.2298000001907354,3.2472000002861137,3.263200000286105,3.2804000000953693,3.2968000001907427,3.3133000001907362,3.3275000000000006,3.347200000286108,3.3634000000953677,3.3784000000953682,3.39820000028611,3.4147000002861034,3.431100000381477,3.449200000286112,3.4643000001907467,3.480700000286106,3.5009000000953705,3.5108000001907413,3.5275000000000034,3.5442000002861107,3.5652000002861115,3.5808000001907345,3.5947000002861103,3.6184000000953773,3.627500000000012,3.6443000001907393,3.660800000190747,3.682000000000002,3.697400000095371,3.714900000095369,3.7332000002861037,3.747400000095368,3.766600000381473,3.7974000000953794,3.8056000003814745,3.81240000009538,3.8275000000000006,3.846100000381469,3.8608000001907357,3.877900000095366,3.8966000003814685,3.9125000000000085,3.927900000095377,3.9477000002861047,3.961100000381478,3.9775000000000063,3.9942000002861135,4.012500000000003,4.027400000095369,4.044200000286111,4.0608000001907385,4.079400000095376,4.094000000000008,4.110600000381481,4.127300000190743,4.147200000286105,4.1606000003814785,4.179500000000004,4.194200000286102,4.2109000000953785,4.2302000002861035,4.2442000002861135,4.260800000190741,4.283100000381481,4.294000000000011,4.310700000286104,4.327500000000001,4.349500000000006,4.360800000190736,4.377600000381477,4.394100000381471,4.4177000002861035,4.427500000000009,4.4443000001907365,4.460800000190744,4.4802000002861035,4.494300000190734,4.510800000190741,4.527300000190735,4.546100000381472,4.56060000038147,4.577500000000001,4.597200000286108,4.615100000381474,4.630400000095378,4.64800000000001,4.664700000286103,4.680400000095375,4.694100000381482,4.7135000000000105,4.731300000190743,4.747100000381479,4.762800000190737,4.777600000381469,4.793900000095377,4.810700000286104,4.828800000190739,4.844100000381474,4.860700000286101,4.877900000095366,4.893900000095371,4.910700000286113,4.9273000001907405,4.944100000381482,4.960600000381476,4.977400000095372,4.99390000009538,5.010700000286107,5.027300000190735,5.044000000000011,5.062200000286111,5.077300000190746,5.094000000000008,5.110700000286101,5.130400000095378,5.144100000381471,5.1606000003814785,5.180400000095375,5.194000000000003,5.210600000381476,5.227400000095372,5.244,5.260700000286107,5.277800000190737,5.294100000381476,5.311000000000007,5.329300000190742,5.346600000381471,5.360800000190736,5.380600000381477,5.397400000095374,5.412400000095374,5.430400000095375,5.449200000286112,5.463999999999999,5.479300000190747,5.494100000381479,5.516500000000008,5.527300000190735,5.544000000000011,5.56060000038147,5.580500000000001,5.595400000095367,5.613100000381479,5.632600000381473,5.64820000028611,5.661000000000001,5.680100000381472,5.701100000381473,5.7109000000953785,5.727700000286106,5.746400000095377,5.764600000381478,5.78130000019074,5.796900000095377,5.814400000095375,5.831100000381468]","[1731990950550,1731990950590,1731990950601,1731990950617,1731990950634,1731990950651,1731990950667,1731990950690,1731990950708,1731990950722,1731990950734,1731990950751,1731990950767,1731990950784,1731990950801,1731990950820,1731990950835,1731990950853,1731990950870,1731990950884,1731990950901,1731990950917,1731990950934,1731990950951,1731990950971,1731990950986,1731990951001,1731990951017,1731990951034,1731990951051,1731990951070,1731990951087,1731990951101,1731990951117,1731990951134,1731990951151,1731990951169,1731990951184,1731990951201,1731990951217,1731990951234,1731990951251,1731990951267,1731990951284,1731990951301,1731990951318,1731990951334,1731990951351,1731990951370,1731990951385,1731990951401,1731990951417,1731990951434,1731990951451,1731990951469,1731990951484,1731990951501,1731990951517,1731990951534,1731990951551,1731990951569,1731990951584,1731990951601,1731990951617,1731990951634,1731990951651,1731990951669,1731990951684,1731990951701,1731990951717,1731990951734,1731990951751,1731990951770,1731990951784,1731990951801,1731990951818,1731990951834,1731990951851,1731990951867,1731990951884,1731990951901,1731990951917,1731990951934,1731990951951,1731990951967,1731990951984,1731990952001,1731990952018,1731990952036,1731990952054,1731990952072,1731990952088,1731990952106,1731990952121,1731990952137,1731990952151,1731990952170,1731990952184,1731990952201,1731990952217,1731990952234,1731990952251,1731990952271,1731990952286,1731990952303,1731990952318,1731990952334,1731990952351,1731990952367,1731990952384,1731990952401,1731990952418,1731990952434,1731990952451,1731990952469,1731990952486,1731990952501,1731990952517,1731990952534,1731990952551,1731990952570,1731990952584,1731990952601,1731990952617,1731990952634,1731990952651,1731990952667,1731990952684,1731990952701,1731990952717,1731990952739,1731990952751,1731990952767,1731990952789,1731990952801,1731990952817,1731990952834,1731990952851,1731990952867,1731990952884,1731990952901,1731990952917,1731990952934,1731990952951,1731990952967,1731990952984,1731990953001,1731990953017,1731990953034,1731990953051,1731990953068,1731990953084,1731990953101,1731990953117,1731990953134,1731990953151,1731990953168,1731990953184,1731990953201,1731990953218,1731990953237,1731990953251,1731990953269,1731990953284,1731990953301,1731990953318,1731990953334,1731990953351,1731990953370,1731990953387,1731990953402,1731990953419,1731990953434,1731990953451,1731990953470,1731990953485,1731990953501,1731990953517,1731990953534,1731990953551,1731990953569,1731990953584,1731990953601,1731990953618,1731990953634,1731990953651,1731990953670,1731990953687,1731990953703,1731990953719,1731990953734,1731990953751,1731990953770,1731990953787,1731990953803,1731990953820,1731990953837,1731990953853,1731990953867,1731990953887,1731990953903,1731990953918,1731990953938,1731990953955,1731990953971,1731990953989,1731990954004,1731990954021,1731990954041,1731990954051,1731990954068,1731990954084,1731990954105,1731990954121,1731990954135,1731990954158,1731990954167,1731990954184,1731990954201,1731990954222,1731990954237,1731990954255,1731990954273,1731990954287,1731990954307,1731990954337,1731990954346,1731990954352,1731990954367,1731990954386,1731990954401,1731990954418,1731990954437,1731990954452,1731990954468,1731990954488,1731990954501,1731990954518,1731990954534,1731990954552,1731990954567,1731990954584,1731990954601,1731990954619,1731990954634,1731990954651,1731990954667,1731990954687,1731990954701,1731990954719,1731990954734,1731990954751,1731990954770,1731990954784,1731990954801,1731990954823,1731990954834,1731990954851,1731990954867,1731990954889,1731990954901,1731990954918,1731990954934,1731990954958,1731990954967,1731990954984,1731990955001,1731990955020,1731990955034,1731990955051,1731990955067,1731990955086,1731990955101,1731990955118,1731990955137,1731990955155,1731990955170,1731990955188,1731990955205,1731990955220,1731990955234,1731990955253,1731990955271,1731990955287,1731990955303,1731990955318,1731990955334,1731990955351,1731990955369,1731990955384,1731990955401,1731990955418,1731990955434,1731990955451,1731990955467,1731990955484,1731990955501,1731990955517,1731990955534,1731990955551,1731990955567,1731990955584,1731990955602,1731990955617,1731990955634,1731990955651,1731990955670,1731990955684,1731990955701,1731990955720,1731990955734,1731990955751,1731990955767,1731990955784,1731990955801,1731990955818,1731990955834,1731990955851,1731990955869,1731990955886,1731990955901,1731990955921,1731990955937,1731990955952,1731990955970,1731990955989,1731990956004,1731990956019,1731990956034,1731990956056,1731990956067,1731990956084,1731990956101,1731990956120,1731990956135,1731990956153,1731990956173,1731990956188,1731990956201,1731990956220,1731990956241,1731990956251,1731990956268,1731990956286,1731990956304,1731990956321,1731990956337,1731990956354,1731990956371]","[[847.1,614.8],[847.1,614.8],[842.2,613.4],[842.2,613.4],[840.9,604.1],[840.9,604.1],[838.9,589.4],[828.4,617.4],[828.4,617.4],[827.1,604.9],[827.1,604.9],[822.7,600.8],[822.7,600.8],[818,568.4],[821,571],[815.3,561.9],[826.1,565.9],[816,575.4],[805.4,601.1],[788.7,644.6],[781.3,633.8],[764.7,663.5],[750.2,700.5],[733,737.8],[716.1,749.9],[709.9,770.2],[688.6,793.1],[684.2,813.8],[706.5,804.8],[735.4,798.8],[750,792.7],[764.6,786.6],[772.9,781.4],[781.2,776.2],[796.9,778.7],[819.6,774.9],[861.7,772.2],[903.4,765.9],[913.1,788.1],[910.7,778],[927,779.6],[943.3,781.2],[943.3,781.2],[976.3,762.5],[1008.8,736.3],[1024,717.4],[1041.7,698.1],[1050.6,667.1],[1049.8,639.6],[1052.6,606],[1085.8,602.7],[1112.3,596],[1136.9,587.3],[1142.1,588.3],[1168.9,599.8],[1195.7,611.3],[1219.3,622.6],[1242.9,633.9],[1265.2,639.2],[1287.5,644.5],[1287.3,627.5],[1287.1,610.5],[1283.5,591.5],[1284.8,574.1],[1275.4,577.8],[1254.9,562.4],[1245.9,566.4],[1236.9,570.4],[1218.5,576.2],[1200.1,582],[1183,599.1],[1165.9,616.2],[1150.8,635.8],[1141.1,653.5],[1125.6,655.9],[1121.2,677.4],[1099.9,670.3],[1078.6,663.2],[1044.2,684.6],[1009.8,706],[1008.5,696.5],[1000.5,693.7],[976.8,687.7],[956.1,680.6],[935,665],[913.9,649.4],[890.7,647.6],[867.5,645.8],[876.8,615.3],[886.1,584.8],[873.2,593.6],[869.6,583.2],[885,577.5],[880.6,576.4],[872,575],[863.4,573.6],[865.4,589.1],[867.4,604.6],[838.2,628.3],[811,659.2],[770.7,661.8],[749.3,697.4],[710.3,710.5],[685.9,723.8],[659.9,748.6],[633.9,773.4],[601.8,750.7],[569.7,728],[569.7,728],[575.3,724.8],[594.3,725.4],[618.6,743.5],[613.8,731.6],[627.7,739.9],[629.4,745.3],[631.4,739.7],[644.4,732.2],[654.1,757.6],[656.8,781.7],[651.9,778.7],[599.2,766.4],[599.2,766.4],[547.3,759.1],[547.3,759.1],[494,763.3],[494,763.3],[441.3,766.3],[441.3,766.3],[400.7,774.3],[400.7,774.3],[366.9,779.3],[366.9,779.3],[320.6,792.4],[278.9,803.4],[278.9,803.4],[257.5,824.9],[257.5,824.9],[219.3,838.1],[219.3,838.1],[225.7,855.4],[225.7,855.4],[223.1,869.8],[223.1,869.8],[231.8,873],[231.8,873],[230.3,885.2],[230.3,885.2],[234.4,886.7],[242.4,892.8],[251.9,892.7],[256.5,894.7],[247.8,887.5],[250.6,884.3],[241.2,875.3],[240,862.9],[236.5,859.7],[246,848.7],[252.2,842.6],[246,840.7],[239.8,838.8],[227.2,840],[223.9,835.5],[229.5,838.2],[235.1,840.9],[257.2,839.8],[252.4,845.2],[245.3,853.8],[238.2,862.4],[234.5,876.7],[225.7,880.2],[225.2,877.9],[215.4,881.3],[215.5,879.5],[215.6,877.7],[238.2,866.8],[295.8,846],[365.4,849.1],[423.7,853.5],[480,845.8],[543.2,825.2],[599.7,811.5],[659.7,797.1],[701.9,782.4],[744.1,767.7],[751.4,759.4],[755.1,760.6],[747.3,732.4],[750.8,702.9],[761.7,678.5],[770.8,677.8],[782.2,670.5],[790.1,663.9],[817,656.5],[843.9,649.1],[850.2,659.5],[849,661.3],[871.1,672.5],[890.7,687.6],[890.7,687.6],[911.3,696.1],[931.9,705.3],[955.3,716.9],[981.4,729.4],[984.5,737.1],[993.6,745.1],[1021.4,747.4],[1043.9,744.2],[1047.5,739.1],[1049,743.7],[1049,743.7],[1040,736.5],[1028.8,731.9],[1013.5,731.3],[1003.2,717.4],[1003.3,712],[997.4,706.3],[997.4,706.3],[1008.6,694.5],[1029,684.9],[1034.3,694.7],[1056.1,664],[1081.6,646.7],[1103.8,621.4],[1121.5,590.1],[1149.6,579.8],[1149.6,579.8],[1157.9,552.1],[1157.9,552.1],[1155.8,485.5],[1151.4,457.7],[1124.1,419.6],[1104.8,359.2],[1089.9,320.7],[1072.6,298.7],[1075,291.2],[1086,285.7],[1080.6,265.2],[1095,262.1],[1105.9,287.1],[1099.8,275.1],[1122.8,305.7],[1145.8,336.3],[1151.3,369],[1159.2,385.2],[1157.2,386.2],[1155.2,387.2],[1148.4,384.4],[1141.6,381.6],[1139.9,399.7],[1157.1,400.2],[1164.5,366.7],[1162.9,351.5],[1172.2,326.7],[1172.2,326.7],[1178.1,304.3],[1177.9,289.2],[1177.9,289.2],[1178.3,257.5],[1178.3,257.5],[1182.4,258.5],[1182.4,258.5],[1184.5,254.6],[1184.5,254.6],[1191.3,259.2],[1191.3,259.2],[1166.2,278.4],[1150,309.5],[1142.8,322.3],[1108.3,319.5],[1086.7,319.4],[1053.7,338.4],[1020.1,374],[1009.6,408.2],[1001.1,447.3],[958.6,447.7],[966.6,461.6],[969.1,463.9],[966.2,472.2],[964.8,508.4],[950,540.6],[917.1,571.3],[888.8,595.9],[873.9,567.4],[854.8,533.8],[873.8,520.3],[855.3,496.3],[855.6,472.6],[878,428.4],[916.5,384.4],[958.9,339.3],[1034.4,276],[1105.3,218.8],[1162.2,187.3],[1223.3,160.9],[1250.3,163.2],[1277.3,165.5],[1295.5,159.1],[1284.3,179.5],[1281.3,198.9],[1278.3,218.3],[1273.7,239],[1276.5,251.6],[1253.1,270],[1219.7,297.7],[1210.9,301.7],[1202.1,305.7],[1183.7,317.6],[1178,317.2],[1178.4,309],[1180.8,303.7],[1175.1,297.6],[1175.1,297.6],[1170.8,304.6],[1168.8,313.2],[1173.4,308.6],[1187.5,299],[1199.5,288.8],[1210.4,286.3],[1233.5,273.6],[1242.3,269.7],[1224.7,273.8],[1215,276.1],[1200,278],[1187.5,276.8],[1178.1,278.3],[1181.5,277.6],[1152.3,286.3],[1123.1,295],[1094.5,311.9],[1075.8,327.8],[1075.8,327.8],[1075.5,334.9],[1064.9,341.6],[1050.8,343.7],[1034.2,348.1],[1016.5,359],[986,372.1],[986,372.1],[1003.3,366.7],[1024.9,360.4],[1030,360.4],[1030,360.4],[1025.1,357.2],[1014.5,351.8],[1029.5,348.5],[1041.5,342.9],[1053,340.5],[1066.5,331.9],[1090.3,315.5]]","[-0.142,0.42599999999999993]","[0.142,0.42599999999999993]","[0.42599999999999993,0.42599999999999993]","[-0.42599999999999993,0.142]","[-0.42599999999999993,-0.42599999999999993]","[-0.42599999999999993,-0.142]","[-0.142,0.142]","[0.142,0.142]","[0.42599999999999993,0.142]","[-0.142,-0.42599999999999993]","[0.142,-0.42599999999999993]","[0.42599999999999993,-0.42599999999999993]","[-0.142,-0.142]","[0.142,-0.142]","[0.42599999999999993,-0.142]",0,0,0,0,1,1,Laptop,20,20,7,2,70,4,2,70,4
