inst1_resp.keys,inst1_resp.rt,calibrationMouse.x,calibrationMouse.y,calibrationMouse.leftButton,calibrationMouse.midButton,calibrationMouse.rightButton,calibrationClick.x,calibrationClick.y,calibrationClick.leftButton,calibrationClick.midButton,calibrationClick.rightButton,calibrationClick.clicked_name,trialsc.thisRepN,trialsc.thisTrialN,trialsc.thisN,trialsc.thisIndex,trialsc.ran,calibration_x,calibration_y,participant,session,date,expName,psychopyVersion,OS,frameRate,ScreenRes_pixels,Camera_pixels,mouse_2.x,mouse_2.y,mouse_2.leftButton,mouse_2.midButton,mouse_2.rightButton,mouse_2.time,mouse_2.clicked_name,mouse.x,mouse.y,mouse.leftButton,mouse.midButton,mouse.rightButton,mouse.time,mouse.clicked_name,Choice,Trial,TrialDuration,MOUSE_GAZE,ET_GAZE,ET_GAZE_x_T,time,unixTime,ET_GAZE_NF,Loc_Option1_label,Loc_Option2_label,Loc_Cost_label,Loc_Qual_label,Loc_Option1_cost,Loc_Option2_cost,Loc_Option1_quality,Loc_Option2_quality,trials.thisRepN,trials.thisTrialN,trials.thisN,trials.thisIndex,trials.ran,Block,Device,cost1,qual1,cost2,qual2
space,1.6179,0.090625,-0.372222222,1,0,0,0.329166667,0.322222222,1,0,0,calibration_square,0,0,0,17,1,0.33,0.33,22,001,2024-12-02_17h06.13.279,Attention_exp_legacy,2023.1.0,Win32,60.24096386,,,,,,,,,,,,,,,,,,,,,,,,,,,,,,,,,,,,,,,,,,,,
,,,,,,,-0.005208333,0.322222222,1,0,0,calibration_square,0,1,1,12,1,0,0.33,22,001,2024-12-02_17h06.13.279,Attention_exp_legacy,2023.1.0,Win32,60.24096386,,,,,,,,,,,,,,,,,,,,,,,,,,,,,,,,,,,,,,,,,,,,
,,,,,,,0.017708333,-0.016666667,1,0,0,,0,2,2,11,1,0,0,22,001,2024-12-02_17h06.13.279,Attention_exp_legacy,2023.1.0,Win32,60.24096386,,,,,,,,,,,,,,,,,,,,,,,,,,,,,,,,,,,,,,,,,,,,
,,,,,,,0.010416667,0.677777778,1,0,0,,0,3,3,13,1,0,0.67,22,001,2024-12-02_17h06.13.279,Attention_exp_legacy,2023.1.0,Win32,60.24096386,,,,,,,,,,,,,,,,,,,,,,,,,,,,,,,,,,,,,,,,,,,,
,,,,,,,0.305208333,-0.046296296,1,0,0,,0,4,4,16,1,0.33,0,22,001,2024-12-02_17h06.13.279,Attention_exp_legacy,2023.1.0,Win32,60.24096386,,,,,,,,,,,,,,,,,,,,,,,,,,,,,,,,,,,,,,,,,,,,
,,,,,,,-0.692708333,0.316666667,1,0,0,,0,5,5,3,1,-0.67,0.33,22,001,2024-12-02_17h06.13.279,Attention_exp_legacy,2023.1.0,Win32,60.24096386,,,,,,,,,,,,,,,,,,,,,,,,,,,,,,,,,,,,,,,,,,,,
,,,,,,,0.010416667,-0.668518519,1,0,0,,0,6,6,9,1,0,-0.67,22,001,2024-12-02_17h06.13.279,Attention_exp_legacy,2023.1.0,Win32,60.24096386,,,,,,,,,,,,,,,,,,,,,,,,,,,,,,,,,,,,,,,,,,,,
,,,,,,,0.676041667,0.653703704,1,0,0,,0,7,7,19,1,0.67,0.67,22,001,2024-12-02_17h06.13.279,Attention_exp_legacy,2023.1.0,Win32,60.24096386,,,,,,,,,,,,,,,,,,,,,,,,,,,,,,,,,,,,,,,,,,,,
,,,,,,,-0.322916667,-0.338888889,1,0,0,calibration_square,0,8,8,5,1,-0.33,-0.33,22,001,2024-12-02_17h06.13.279,Attention_exp_legacy,2023.1.0,Win32,60.24096386,,,,,,,,,,,,,,,,,,,,,,,,,,,,,,,,,,,,,,,,,,,,
,,,,,,,0.010416667,-0.301851852,1,0,0,,0,9,9,10,1,0,-0.33,22,001,2024-12-02_17h06.13.279,Attention_exp_legacy,2023.1.0,Win32,60.24096386,,,,,,,,,,,,,,,,,,,,,,,,,,,,,,,,,,,,,,,,,,,,
,,,,,,,-0.307291667,-0.668518519,1,0,0,,0,10,10,4,1,-0.33,-0.67,22,001,2024-12-02_17h06.13.279,Attention_exp_legacy,2023.1.0,Win32,60.24096386,,,,,,,,,,,,,,,,,,,,,,,,,,,,,,,,,,,,,,,,,,,,
,,,,,,,-0.3375,0.67962963,1,0,0,calibration_square,0,11,11,8,1,-0.33,0.67,22,001,2024-12-02_17h06.13.279,Attention_exp_legacy,2023.1.0,Win32,60.24096386,,,,,,,,,,,,,,,,,,,,,,,,,,,,,,,,,,,,,,,,,,,,
,,,,,,,0.35,-0.309259259,1,0,0,,0,12,12,15,1,0.33,-0.33,22,001,2024-12-02_17h06.13.279,Attention_exp_legacy,2023.1.0,Win32,60.24096386,,,,,,,,,,,,,,,,,,,,,,,,,,,,,,,,,,,,,,,,,,,,
,,,,,,,0.325,-0.687037037,1,0,0,,0,13,13,14,1,0.33,-0.67,22,001,2024-12-02_17h06.13.279,Attention_exp_legacy,2023.1.0,Win32,60.24096386,,,,,,,,,,,,,,,,,,,,,,,,,,,,,,,,,,,,,,,,,,,,
,,,,,,,-0.666666667,-0.683333333,1,0,0,,0,14,14,0,1,-0.67,-0.67,22,001,2024-12-02_17h06.13.279,Attention_exp_legacy,2023.1.0,Win32,60.24096386,,,,,,,,,,,,,,,,,,,,,,,,,,,,,,,,,,,,,,,,,,,,
,,,,,,,-0.316666667,0.338888889,1,0,0,,0,15,15,7,1,-0.33,0.33,22,001,2024-12-02_17h06.13.279,Attention_exp_legacy,2023.1.0,Win32,60.24096386,,,,,,,,,,,,,,,,,,,,,,,,,,,,,,,,,,,,,,,,,,,,
,,,,,,,0.3125,0.685185185,1,0,0,,0,16,16,18,1,0.33,0.67,22,001,2024-12-02_17h06.13.279,Attention_exp_legacy,2023.1.0,Win32,60.24096386,,,,,,,,,,,,,,,,,,,,,,,,,,,,,,,,,,,,,,,,,,,,
,,,,,,,-0.679166667,-0.327777778,1,0,0,calibration_square,0,17,17,1,1,-0.67,-0.33,22,001,2024-12-02_17h06.13.279,Attention_exp_legacy,2023.1.0,Win32,60.24096386,,,,,,,,,,,,,,,,,,,,,,,,,,,,,,,,,,,,,,,,,,,,
,,,,,,,-0.305208333,-0.001851852,1,0,0,,0,18,18,6,1,-0.33,0,22,001,2024-12-02_17h06.13.279,Attention_exp_legacy,2023.1.0,Win32,60.24096386,,,,,,,,,,,,,,,,,,,,,,,,,,,,,,,,,,,,,,,,,,,,
,,,,,,,0.655208333,-0.666666667,1,0,0,,0,19,19,20,1,0.67,-0.67,22,001,2024-12-02_17h06.13.279,Attention_exp_legacy,2023.1.0,Win32,60.24096386,,,,,,,,,,,,,,,,,,,,,,,,,,,,,,,,,,,,,,,,,,,,
,,,,,,,-0.688541667,-0.001851852,1,0,0,,0,20,20,2,1,-0.67,0,22,001,2024-12-02_17h06.13.279,Attention_exp_legacy,2023.1.0,Win32,60.24096386,,,,,,,,,,,,,,,,,,,,,,,,,,,,,,,,,,,,,,,,,,,,
,,,,,,,,,,,,,,,,,,,,22,001,2024-12-02_17h06.13.279,Attention_exp_legacy,2023.1.0,Win32,60.24096386,"[1920,1080]","[640,480]",[0.020833333333333332],[-0.5018518518518519],[1],[0],[0],[1.0807000000029774],"[""StartButton""]",[0.409375],[0.387037037037037],[1],[0],[0],[2.7354999999999947],"[""Option2_label""]",Option2_label,1,3.7574,"[[0.051041666666666666,-0.10555555555555556],[0.05,-0.10555555555555556],[0.05,-0.10555555555555556],[0.04895833333333333,-0.10555555555555556],[0.04895833333333333,-0.10555555555555556],[0.04895833333333333,-0.10555555555555556],[0.04895833333333333,-0.10555555555555556],[0.04895833333333333,-0.10555555555555556],[0.04895833333333333,-0.10555555555555556],[0.04895833333333333,-0.10555555555555556],[0.04895833333333333,-0.10555555555555556],[0.04895833333333333,-0.10555555555555556],[0.04895833333333333,-0.10555555555555556],[0.04895833333333333,-0.10555555555555556],[0.04895833333333333,-0.10555555555555556],[0.04895833333333333,-0.10555555555555556],[0.04895833333333333,-0.10555555555555556],[0.04895833333333333,-0.10555555555555556],[0.04895833333333333,-0.10555555555555556],[0.04895833333333333,-0.10555555555555556],[0.04895833333333333,-0.10555555555555556],[0.04791666666666667,-0.10555555555555556],[0.046875,-0.10555555555555556],[0.04375,-0.1037037037037037],[0.03854166666666667,-0.1037037037037037],[0.03229166666666667,-0.1037037037037037],[0.026041666666666668,-0.1037037037037037],[0.025,-0.1037037037037037],[0.025,-0.1037037037037037],[0.025,-0.1037037037037037],[0.025,-0.1037037037037037],[0.025,-0.1037037037037037],[0.025,-0.1037037037037037],[0.025,-0.1037037037037037],[0.023958333333333335,-0.1],[0.022916666666666665,-0.1],[0.020833333333333332,-0.0962962962962963],[0.014583333333333334,-0.08518518518518518],[0.010416666666666666,-0.07962962962962963],[0.010416666666666666,-0.07962962962962963],[0.010416666666666666,-0.07962962962962963],[0.010416666666666666,-0.07962962962962963],[0.010416666666666666,-0.07962962962962963],[0.010416666666666666,-0.07962962962962963],[0.010416666666666666,-0.07962962962962963],[0.010416666666666666,-0.07962962962962963],[0.010416666666666666,-0.07962962962962963],[0.010416666666666666,-0.07962962962962963],[0.010416666666666666,-0.07962962962962963],[0.010416666666666666,-0.07962962962962963],[0.010416666666666666,-0.07962962962962963],[0.010416666666666666,-0.07962962962962963],[0.010416666666666666,-0.07962962962962963],[0.010416666666666666,-0.07962962962962963],[0.010416666666666666,-0.07962962962962963],[0.010416666666666666,-0.07962962962962963],[0.010416666666666666,-0.07962962962962963],[0.010416666666666666,-0.07962962962962963],[0.010416666666666666,-0.07962962962962963],[0.010416666666666666,-0.07962962962962963],[0.010416666666666666,-0.07962962962962963],[0.010416666666666666,-0.07962962962962963],[0.010416666666666666,-0.07962962962962963],[0.010416666666666666,-0.07962962962962963],[0.010416666666666666,-0.07962962962962963],[0.010416666666666666,-0.07962962962962963],[0.010416666666666666,-0.07962962962962963],[0.010416666666666666,-0.07962962962962963],[0.010416666666666666,-0.07962962962962963],[0.010416666666666666,-0.07962962962962963],[0.010416666666666666,-0.07962962962962963],[0.010416666666666666,-0.07962962962962963],[0.010416666666666666,-0.07962962962962963],[0.010416666666666666,-0.07962962962962963],[0.010416666666666666,-0.07962962962962963],[0.010416666666666666,-0.07962962962962963],[0.010416666666666666,-0.07962962962962963],[0.010416666666666666,-0.07962962962962963],[0.010416666666666666,-0.07962962962962963],[0.010416666666666666,-0.07962962962962963],[0.010416666666666666,-0.07962962962962963],[0.010416666666666666,-0.07962962962962963],[0.010416666666666666,-0.07962962962962963],[0.010416666666666666,-0.07962962962962963],[0.016666666666666666,-0.07777777777777778],[0.028125,-0.07407407407407407],[0.036458333333333336,-0.07407407407407407],[0.053125,-0.07222222222222222],[0.08229166666666667,-0.07037037037037037],[0.11666666666666667,-0.07037037037037037],[0.14895833333333333,-0.07037037037037037],[0.1875,-0.07037037037037037],[0.20416666666666666,-0.07037037037037037],[0.21979166666666666,-0.07037037037037037],[0.228125,-0.07037037037037037],[0.23541666666666666,-0.07037037037037037],[0.23854166666666668,-0.07037037037037037],[0.24166666666666667,-0.06666666666666667],[0.24166666666666667,-0.06666666666666667],[0.24166666666666667,-0.06666666666666667],[0.24166666666666667,-0.06666666666666667],[0.24166666666666667,-0.06666666666666667],[0.24166666666666667,-0.06666666666666667],[0.24166666666666667,-0.06666666666666667],[0.24166666666666667,-0.06666666666666667],[0.24166666666666667,-0.06666666666666667],[0.24166666666666667,-0.06666666666666667],[0.24166666666666667,-0.06666666666666667],[0.24166666666666667,-0.06666666666666667],[0.24166666666666667,-0.06666666666666667],[0.24166666666666667,-0.06666666666666667],[0.24166666666666667,-0.06666666666666667],[0.24270833333333333,-0.06666666666666667],[0.24270833333333333,-0.06666666666666667],[0.24375,-0.06666666666666667],[0.24583333333333332,-0.06481481481481481],[0.24583333333333332,-0.06481481481481481],[0.246875,-0.06481481481481481],[0.24895833333333334,-0.06296296296296296],[0.24895833333333334,-0.06296296296296296],[0.24895833333333334,-0.06296296296296296],[0.24895833333333334,-0.06296296296296296],[0.24895833333333334,-0.06296296296296296],[0.24895833333333334,-0.06296296296296296],[0.24895833333333334,-0.06296296296296296],[0.24895833333333334,-0.06296296296296296],[0.24895833333333334,-0.06296296296296296],[0.24895833333333334,-0.06296296296296296],[0.24895833333333334,-0.06296296296296296],[0.24895833333333334,-0.06296296296296296],[0.24895833333333334,-0.06296296296296296],[0.24895833333333334,-0.06296296296296296],[0.24895833333333334,-0.06296296296296296],[0.25625,-0.05925925925925926],[0.2677083333333333,-0.05555555555555555],[0.28541666666666665,-0.05],[0.30520833333333336,-0.040740740740740744],[0.32916666666666666,-0.02962962962962963],[0.365625,-0.009259259259259259],[0.3927083333333333,0.012962962962962963],[0.4322916666666667,0.05925925925925926],[0.46875,0.11666666666666667],[0.4875,0.16111111111111112],[0.49895833333333334,0.1962962962962963],[0.5145833333333333,0.26481481481481484],[0.5166666666666667,0.3333333333333333],[0.5166666666666667,0.34444444444444444],[0.5166666666666667,0.35555555555555557],[0.5145833333333333,0.37222222222222223],[0.5104166666666666,0.3814814814814815],[0.5083333333333333,0.387037037037037],[0.5,0.387037037037037],[0.4895833333333333,0.387037037037037],[0.471875,0.387037037037037],[0.4552083333333333,0.387037037037037],[0.4354166666666667,0.387037037037037],[0.41875,0.387037037037037],[0.4114583333333333,0.387037037037037],[0.409375,0.387037037037037],[0.409375,0.387037037037037],[0.409375,0.387037037037037],[0.409375,0.387037037037037],[0.409375,0.387037037037037],[0.409375,0.387037037037037],[0.409375,0.387037037037037],[0.409375,0.387037037037037],[0.409375,0.387037037037037],[0.409375,0.387037037037037],[0.409375,0.387037037037037],[0.409375,0.387037037037037],[0.409375,0.387037037037037],[0.409375,0.387037037037037],[0.409375,0.387037037037037],[0.409375,0.387037037037037],[0.409375,0.387037037037037],[0.409375,0.387037037037037],[0.409375,0.387037037037037],[0.409375,0.387037037037037],[0.409375,0.387037037037037],[0.409375,0.387037037037037],[0.409375,0.387037037037037],[0.409375,0.387037037037037],[0.409375,0.387037037037037],[0.409375,0.387037037037037],[0.409375,0.387037037037037],[0.409375,0.387037037037037],[0.409375,0.387037037037037],[0.409375,0.387037037037037],[0.409375,0.387037037037037],[0.409375,0.387037037037037],[0.409375,0.387037037037037],[0.409375,0.387037037037037],[0.409375,0.387037037037037],[0.409375,0.387037037037037],[0.409375,0.387037037037037],[0.409375,0.387037037037037],[0.409375,0.387037037037037],[0.409375,0.387037037037037],[0.409375,0.387037037037037],[0.409375,0.387037037037037],[0.409375,0.387037037037037],[0.409375,0.387037037037037],[0.409375,0.387037037037037],[0.409375,0.387037037037037],[0.409375,0.387037037037037],[0.409375,0.387037037037037],[0.409375,0.387037037037037],[0.409375,0.387037037037037],[0.409375,0.387037037037037],[0.409375,0.387037037037037],[0.409375,0.387037037037037],[0.409375,0.387037037037037],[0.409375,0.387037037037037],[0.409375,0.387037037037037],[0.409375,0.387037037037037],[0.409375,0.387037037037037],[0.409375,0.387037037037037],[0.409375,0.387037037037037],[0.409375,0.387037037037037],[0.409375,0.387037037037037],[0.409375,0.387037037037037],[0.409375,0.387037037037037],[0.409375,0.387037037037037],[0.409375,0.387037037037037],[0.409375,0.387037037037037]]","[[-0.022708333333333285,0.30166666666666664],[-0.022708333333333285,0.30166666666666664],[-0.017916666666666713,0.28129629629629627],[0.02385416666666664,0.27907407407407414],[0.06281249999999995,0.272037037037037],[0.08833333333333329,0.2544444444444444],[0.10177083333333338,0.2448148148148149],[0.08927083333333338,0.22962962962962963],[0.10281250000000004,0.22518518518518524],[0.10281250000000004,0.22518518518518524],[0.10854166666666672,0.24222222222222214],[0.11260416666666657,0.2614814814814816],[0.11604166666666677,0.28425925925925927],[0.10833333333333334,0.2183333333333333],[0.09562499999999995,0.1557407407407408],[0.09177083333333323,0.10407407407407415],[0.10260416666666666,0.06055555555555564],[0.08979166666666671,0.05314814814814823],[0.08583333333333343,0.025185185185185227],[0.06989583333333324,-0.01907407407407399],[0.06593749999999995,-0.039629629629629584],[0.06895833333333339,-0.09740740740740746],[0.04770833333333328,-0.14870370370370373],[0.024687500000000046,-0.1270370370370371],[0.0026041666666666665,-0.10185185185185185],[-0.03135416666666669,-0.09666666666666665],[-0.05802083333333338,-0.09185185185185189],[-0.08333333333333333,-0.11222222222222226],[-0.08333333333333333,-0.11222222222222226],[-0.10531250000000002,-0.12518518518518523],[-0.11322916666666671,-0.14074074074074075],[-0.11979166666666667,-0.16500000000000004],[-0.11875,-0.1838888888888889],[-0.1015625,-0.20611111111111113],[-0.084375,-0.22833333333333336],[-0.07395833333333333,-0.2103703703703704],[-0.0780208333333333,-0.17907407407407405],[-0.09208333333333331,-0.1522222222222222],[-0.10812499999999996,-0.12518518518518523],[-0.11864583333333331,-0.12333333333333338],[-0.11864583333333331,-0.12333333333333338],[-0.14458333333333329,-0.09018518518518516],[-0.16124999999999995,-0.04722222222222222],[-0.19333333333333336,0.014814814814814815],[-0.21781250000000002,0.0712962962962963],[-0.24583333333333332,0.11185185185185181],[-0.2634375,0.1300000000000001],[-0.26281249999999995,0.14537037037037037],[-0.2911458333333333,0.14388888888888898],[-0.3107291666666666,0.14444444444444443],[-0.34093749999999995,0.1787037037037037],[-0.3759375,0.17092592592592584],[-0.42156250000000006,0.16203703703703703],[-0.4469791666666667,0.1485185185185186],[-0.4505208333333333,0.13037037037037033],[-0.4690625,0.12462962962962955],[-0.5,0.08611111111111111],[-0.4952083333333333,0.08074074074074078],[-0.4670833333333333,0.05759259259259263],[-0.44125000000000003,0.03888888888888889],[-0.40343749999999995,0.0338888888888888],[-0.3796875,0.05129629629629638],[-0.3559375000000001,0.06870370370370374],[-0.33968750000000003,0.08111111111111102],[-0.34968750000000004,0.09759259259259268],[-0.3344791666666667,0.06574074074074074],[-0.31927083333333334,0.0338888888888888],[-0.3559375000000001,0.005555555555555556],[-0.3842708333333333,0.016666666666666666],[-0.4102083333333333,0.03314814814814811],[-0.43072916666666666,0.0668518518518519],[-0.43333333333333335,0.09055555555555551],[-0.4326041666666666,0.0955555555555556],[-0.43416666666666665,0.08629629629629634],[-0.43083333333333335,0.08000000000000008],[-0.42770833333333336,0.12259259259259268],[-0.42458333333333337,0.16518518518518527],[-0.3905208333333333,0.1905555555555555],[-0.3564583333333334,0.21592592592592597],[-0.2989583333333333,0.23407407407407405],[-0.26364583333333336,0.2192592592592592],[-0.22281249999999997,0.23037037037037034],[-0.19041666666666662,0.25759259259259265],[-0.16343749999999999,0.29518518518518516],[-0.14281250000000004,0.3331481481481481],[-0.11302083333333333,0.3464814814814815],[-0.11302083333333333,0.3464814814814815],[-0.08322916666666665,0.35981481481481475],[-0.08322916666666665,0.35981481481481475],[-0.07145833333333336,0.33555555555555566],[-0.06177083333333329,0.31796296296296306],[-0.04114583333333333,0.3114814814814816],[-0.04114583333333333,0.3114814814814816],[-0.016354166666666715,0.3037037037037037],[-0.016354166666666715,0.3037037037037037],[-0.028125,0.2722222222222222],[-0.028125,0.2722222222222222],[-0.04624999999999998,0.2903703703703703],[-0.04624999999999998,0.2903703703703703],[-0.03270833333333331,0.22685185185185186],[-0.03270833333333331,0.22685185185185186],[-0.012083333333333357,0.16833333333333328],[-0.012083333333333357,0.16833333333333328],[-0.011354166666666643,0.16111111111111112],[-0.02052083333333338,0.13962962962962958],[-0.009062500000000048,0.1477777777777777],[0.004479166666666619,0.1492592592592593],[-0.019270833333333334,0.14074074074074075],[-0.03729166666666662,0.1270370370370371],[-0.02791666666666662,0.10407407407407415],[-0.007083333333333286,0.034074074074074034],[0.004999999999999952,0.019999999999999917],[0.016354166666666715,0.0005555555555554713],[0.028125,-0.009259259259259259],[0.051145833333333356,-0.012592592592592508],[0.05604166666666662,-0.028888888888888933],[0.0609375,-0.04518518518518514],[0.059895833333333336,-0.012592592592592508],[0.06947916666666672,0.011666666666666582],[0.0709374999999999,0.04944444444444453],[0.08458333333333339,0.06814814814814807],[0.08572916666666662,0.10703703703703696],[0.08687500000000009,0.14592592592592585],[0.10197916666666676,0.13425925925925927],[0.09812500000000005,0.10648148148148148],[0.0978125000000001,0.1425925925925926],[0.0974999999999999,0.1787037037037037],[0.11572916666666658,0.13740740740740748],[0.12333333333333343,0.10444444444444441],[0.1290625000000001,0.10092592592592593],[0.1321875000000001,0.14370370370370375],[0.12270833333333328,0.2],[0.11322916666666671,0.25629629629629624],[0.0974999999999999,0.2646296296296296],[0.11416666666666657,0.30277777777777776],[0.11510416666666666,0.2624074074074075],[0.11604166666666677,0.222037037037037],[0.10958333333333338,0.20777777777777787],[0.10833333333333334,0.24574074074074082],[0.1423958333333334,0.23462962962962972],[0.14656250000000004,0.21333333333333343],[0.18416666666666662,0.13851851851851843],[0.20114583333333325,0.09203703703703713],[0.21427083333333338,0.11074074074074065],[0.21427083333333338,0.11074074074074065],[0.21052083333333324,0.07074074074074083],[0.21052083333333324,0.07074074074074083],[0.26364583333333325,0.030740740740740784],[0.3060416666666666,0.019259259259259216],[0.36177083333333326,0.006481481481481481],[0.38822916666666674,-0.0653703703703704],[0.38125,-0.1175925925925926],[0.38312499999999994,-0.17444444444444443],[0.39968750000000003,-0.19240740740740736],[0.4209374999999999,-0.22722222222222221],[0.4421875,-0.262037037037037],[0.46427083333333335,-0.25],[0.4410416666666668,-0.24370370370370376],[0.4493750000000001,-0.2535185185185185],[0.4523958333333333,-0.25148148148148153],[0.46541666666666665,-0.2564814814814815],[0.47843749999999996,-0.2614814814814815],[0.5092708333333335,-0.2675925925925926],[0.5053124999999999,-0.27740740740740744],[0.5015625,-0.2733333333333334],[0.48458333333333337,-0.22314814814814815],[0.46885416666666657,-0.167037037037037],[0.46885416666666657,-0.13518518518518519],[0.44802083333333326,-0.11574074074074074],[0.4271874999999999,-0.0962962962962963],[0.41854166666666665,-0.03537037037037041],[0.41072916666666665,-0.0338888888888888],[0.39958333333333323,-0.025370370370370456],[0.3877083333333334,-0.012037037037037037],[0.36437499999999995,0.0012962962962963806],[0.35427083333333326,-0.03148148148148148],[0.36062500000000003,-0.07907407407407405],[0.365625,-0.11018518518518519],[0.38156249999999997,-0.13777777777777775],[0.3974999999999999,-0.1653703703703704],[0.42125000000000007,-0.23444444444444448],[0.44416666666666677,-0.24407407407407408],[0.4540625000000001,-0.2581481481481481],[0.4639583333333334,-0.2722222222222222],[0.5107291666666666,-0.32759259259259255],[0.5575,-0.382962962962963],[0.558125,-0.4007407407407407],[0.55625,-0.3781481481481481],[0.5525000000000001,-0.40685185185185185],[0.5313541666666666,-0.3925925925925926],[0.5282291666666665,-0.38925925925925925],[0.5230208333333333,-0.3516666666666666],[0.5278125,-0.327962962962963],[0.5364583333333334,-0.32314814814814813],[0.5210416666666667,-0.3014814814814815],[0.5056250000000001,-0.27981481481481485],[0.5169791666666667,-0.2977777777777778],[0.5184375,-0.33055555555555555],[0.5086458333333332,-0.3109259259259259],[0.5162499999999999,-0.33425925925925926],[0.5047916666666665,-0.35351851851851845],[0.49541666666666656,-0.40703703703703703],[0.47458333333333325,-0.43277777777777776],[0.4527083333333332,-0.44222222222222224],[0.45510416666666675,-0.4668518518518519],[0.4575000000000001,-0.49148148148148146],[0.4305208333333333,-0.4809259259259259],[0.4021874999999999,-0.4677777777777778],[0.3811458333333334,-0.4653703703703704],[0.3601041666666667,-0.46296296296296297],[0.3334374999999999,-0.40425925925925926],[0.3067708333333333,-0.3455555555555556],[0.2998958333333334,-0.29018518518518516],[0.2998958333333334,-0.29018518518518516],[0.27999999999999997,-0.24314814814814817],[0.26229166666666665,-0.19981481481481478],[0.2445833333333333,-0.15648148148148147],[0.24770833333333328,-0.12018518518518514],[0.24645833333333325,-0.08129629629629626],[0.24645833333333325,-0.08129629629629626],[0.24010416666666667,-0.03629629629629634],[0.24260416666666676,-0.02111111111111107],[0.24114583333333334,-0.020370370370370372],[0.23968749999999991,-0.01962962962962967],[0.23770833333333338,-0.0668518518518519]]","[[-0.022708333333333285,0.30166666666666664,0.00029999999701857405],[-0.022708333333333285,0.30166666666666664,0.03750000000000142],[-0.017916666666666713,0.28129629629629627,0.04239999999850852],[0.02385416666666664,0.27907407407407414,0.05779999999702312],[0.06281249999999995,0.272037037037037,0.07429999999702375],[0.08833333333333329,0.2544444444444444,0.08879999999702193],[0.10177083333333338,0.2448148148148149,0.10950000000000415],[0.08927083333333338,0.22962962962962963,0.1255000000000024],[0.10281250000000004,0.22518518518518524,0.1425999999977634],[0.10281250000000004,0.22518518518518524,0.15479999999702443],[0.10854166666666672,0.24222222222222214,0.1713999999985134],[0.11260416666666657,0.2614814814814816,0.1880000000000024],[0.11604166666666677,0.28425925925925927,0.20459999999776812],[0.10833333333333334,0.2183333333333333,0.2212999999970222],[0.09562499999999995,0.1557407407407408,0.2378999999985112],[0.09177083333333323,0.10407407407407415,0.25469999999925363],[0.10260416666666666,0.06055555555555564,0.27139999999851483],[0.08979166666666671,0.05314814814814823,0.2880000000000038],[0.08583333333333343,0.025185185185185227,0.30459999999776954],[0.06989583333333324,-0.01907407407407399,0.321399999998512],[0.06593749999999995,-0.039629629629629584,0.33800000000000097],[0.06895833333333339,-0.09740740740740746,0.3575999999977668],[0.04770833333333328,-0.14870370370370373,0.37459999999776983],[0.024687500000000046,-0.1270370370370371,0.389099999997768],[0.0026041666666666665,-0.10185185185185185,0.4083999999985082],[-0.03135416666666669,-0.09666666666666665,0.42249999999999943],[-0.05802083333333338,-0.09185185185185189,0.4383999999985093],[-0.08333333333333333,-0.11222222222222226,0.4550999999977634],[-0.08333333333333333,-0.11222222222222226,0.4712999999970222],[-0.10531250000000002,-0.12518518518518523,0.48799999999999955],[-0.11322916666666671,-0.14074074074074075,0.5045999999977653],[-0.11979166666666667,-0.16500000000000004,0.5215000000000032],[-0.11875,-0.1838888888888889,0.5380000000000038],[-0.1015625,-0.20611111111111113,0.5546999999992579],[-0.084375,-0.22833333333333336,0.5750000000000028],[-0.07395833333333333,-0.2103703703703704,0.5910000000000011],[-0.0780208333333333,-0.17907407407407405,0.6050999999977691],[-0.09208333333333331,-0.1522222222222222,0.6215999999977697],[-0.10812499999999996,-0.12518518518518523,0.6411999999992588],[-0.11864583333333331,-0.12333333333333338,0.6553999999985081],[-0.11864583333333331,-0.12333333333333338,0.6713999999985134],[-0.14458333333333329,-0.09018518518518516,0.6880000000000024],[-0.16124999999999995,-0.04722222222222222,0.7046999999992565],[-0.19333333333333336,0.014814814814814815,0.7213999999985106],[-0.21781250000000002,0.0712962962962963,0.7420000000000044],[-0.24583333333333332,0.11185185185185181,0.7582999999970212],[-0.2634375,0.1300000000000001,0.7753999999985126],[-0.26281249999999995,0.14537037037037037,0.790699999999255],[-0.2911458333333333,0.14388888888888898,0.8050999999977648],[-0.3107291666666666,0.14444444444444443,0.8212999999970236],[-0.34093749999999995,0.1787037037037037,0.8378999999985126],[-0.3759375,0.17092592592592584,0.8546999999992551],[-0.42156250000000006,0.16203703703703703,0.8715000000000046],[-0.4469791666666667,0.1485185185185186,0.8887999999970191],[-0.4505208333333333,0.13037037037037033,0.9052999999970197],[-0.4690625,0.12462962962962955,0.921299999997018],[-0.5,0.08611111111111111,0.9380000000000024],[-0.4952083333333333,0.08074074074074078,0.9545999999977681],[-0.4670833333333333,0.05759259259259263,0.97529999999702],[-0.44125000000000003,0.03888888888888889,0.9909999999999997],[-0.40343749999999995,0.0338888888888888,1.005500000000005],[-0.3796875,0.05129629629629638,1.0213999999985148],[-0.3559375000000001,0.06870370370370374,1.0380000000000038],[-0.33968750000000003,0.08111111111111102,1.054699999999258],[-0.34968750000000004,0.09759259259259268,1.0712999999970236],[-0.3344791666666667,0.06574074074074074,1.088000000000001],[-0.31927083333333334,0.0338888888888888,1.1045999999977667],[-0.3559375000000001,0.005555555555555556,1.1212999999970208],[-0.3842708333333333,0.016666666666666666,1.1378999999985098],[-0.4102083333333333,0.03314814814814811,1.1547999999970244],[-0.43072916666666666,0.0668518518518519,1.171299999997018],[-0.43333333333333335,0.09055555555555551,1.187899999998514],[-0.4326041666666666,0.0955555555555556,1.2045999999977681],[-0.43416666666666665,0.08629629629629634,1.2212999999970222],[-0.43083333333333335,0.08000000000000008,1.2378999999985112],[-0.42770833333333336,0.12259259259259268,1.2546999999992536],[-0.42458333333333337,0.16518518518518527,1.2741999999992544],[-0.3905208333333333,0.1905555555555555,1.2885999999977642],[-0.3564583333333334,0.21592592592592597,1.3045999999977695],[-0.2989583333333333,0.23407407407407405,1.3215000000000003],[-0.26364583333333336,0.2192592592592592,1.338000000000001],[-0.22281249999999997,0.23037037037037034,1.3575999999977668],[-0.19041666666666662,0.25759259259259265,1.375799999997021],[-0.16343749999999999,0.29518518518518516,1.3928999999985123],[-0.14281250000000004,0.3331481481481481,1.4100000000000037],[-0.11302083333333333,0.3464814814814815,1.4255999999977647],[-0.11302083333333333,0.3464814814814815,1.4380999999977675],[-0.08322916666666665,0.35981481481481475,1.4547999999970216],[-0.08322916666666665,0.35981481481481475,1.4747999999970247],[-0.07145833333333336,0.33555555555555566,1.4880999999977647],[-0.06177083333333329,0.31796296296296306,1.5048999999985142],[-0.04114583333333333,0.3114814814814816,1.5280999999977638],[-0.04114583333333333,0.3114814814814816,1.5380000000000038],[-0.016354166666666715,0.3037037037037037,1.5549999999999997],[-0.016354166666666715,0.3037037037037037,1.5760000000000005],[-0.028125,0.2722222222222222,1.588099999997766],[-0.028125,0.2722222222222222,1.6048999999985085],[-0.04624999999999998,0.2903703703703703,1.6278999999985118],[-0.04624999999999998,0.2903703703703703,1.6378999999985098],[-0.03270833333333331,0.22685185185185186,1.6546999999992593],[-0.03270833333333331,0.22685185185185186,1.6713999999985134],[-0.012083333333333357,0.16833333333333328,1.687899999998514],[-0.012083333333333357,0.16833333333333328,1.7047999999970216],[-0.011354166666666643,0.16111111111111112,1.7213999999985106],[-0.02052083333333338,0.13962962962962958,1.741899999998509],[-0.009062500000000048,0.1477777777777777,1.7575999999977654],[0.004479166666666619,0.1492592592592593,1.774099999997766],[-0.019270833333333334,0.14074074074074075,1.7880000000000038],[-0.03729166666666662,0.1270370370370371,1.8045999999977695],[-0.02791666666666662,0.10407407407407415,1.8216999999992538],[-0.007083333333333286,0.034074074074074034,1.8378999999985126],[0.004999999999999952,0.019999999999999917,1.854699999999255],[0.016354166666666715,0.0005555555555554713,1.8765999999977652],[0.028125,-0.009259259259259259,1.8907999999970215],[0.051145833333333356,-0.012592592592592508,1.9067999999970198],[0.05604166666666662,-0.028888888888888933,1.9215000000000018],[0.0609375,-0.04518518518518514,1.937899999998514],[0.059895833333333336,-0.012592592592592508,1.9575000000000031],[0.06947916666666672,0.011666666666666582,1.9726999999992572],[0.0709374999999999,0.04944444444444453,1.9878999999985112],[0.08458333333333339,0.06814814814814807,2.0045999999977653],[0.08572916666666662,0.10703703703703696,2.0212999999970194],[0.08687500000000009,0.14592592592592585,2.038000000000004],[0.10197916666666676,0.13425925925925927,2.054799999997023],[0.09812500000000005,0.10648148148148148,2.072199999999256],[0.0978125000000001,0.1425925925925926,2.088099999997766],[0.0974999999999999,0.1787037037037037,2.1045999999977667],[0.11572916666666658,0.13740740740740748,2.121299999997021],[0.12333333333333343,0.10444444444444441,2.1388999999985145],[0.1290625000000001,0.10092592592592593,2.1546999999992593],[0.1321875000000001,0.14370370370370375,2.171299999997018],[0.12270833333333328,0.2,2.1880000000000024],[0.11322916666666671,0.25629629629629624,2.204599999997768],[0.0974999999999999,0.2646296296296296,2.224599999997764],[0.11416666666666657,0.30277777777777776,2.2408999999985113],[0.11510416666666666,0.2624074074074075,2.255500000000005],[0.11604166666666677,0.222037037037037,2.271399999998515],[0.10958333333333338,0.20777777777777787,2.2912999999970225],[0.10833333333333334,0.24574074074074082,2.307699999999258],[0.1423958333333334,0.23462962962962972,2.3227999999970237],[0.14656250000000004,0.21333333333333343,2.342099999997764],[0.18416666666666662,0.13851851851851843,2.3569999999999993],[0.20114583333333325,0.09203703703703713,2.3725000000000023],[0.21427083333333338,0.11074074074074065,2.3967999999970218],[0.21427083333333338,0.11074074074074065,2.423000000000002],[0.21052083333333324,0.07074074074074083,2.45189999999851],[0.21052083333333324,0.07074074074074083,2.4586999999992543],[0.26364583333333325,0.030740740740740784,2.4713999999985106],[0.3060416666666666,0.019259259259259216,2.488199999999253],[0.36177083333333326,0.006481481481481481,2.5075000000000003],[0.38822916666666674,-0.0653703703703704,2.521399999998515],[0.38125,-0.1175925925925926,2.538099999997769],[0.38312499999999994,-0.17444444444444443,2.5575000000000045],[0.39968750000000003,-0.19240740740740736,2.5715000000000003],[0.4209374999999999,-0.22722222222222221,2.588000000000001],[0.4421875,-0.262037037037037,2.604699999999255],[0.46427083333333335,-0.25,2.6233999999985116],[0.4410416666666668,-0.24370370370370376,2.637999999999998],[0.4493750000000001,-0.2535185185185185,2.6546999999992593],[0.4523958333333333,-0.25148148148148153,2.6720999999977693],[0.46541666666666665,-0.2564814814814815,2.687899999998514],[0.47843749999999996,-0.2614814814814815,2.704599999997768],[0.5092708333333335,-0.2675925925925926,2.721199999999257],[0.5053124999999999,-0.27740740740740744,2.7424999999999997],[0.5015625,-0.2733333333333334,2.758199999999256],[0.48458333333333337,-0.22314814814814815,2.773799999997024],[0.46885416666666657,-0.167037037037037,2.7878999999985083],[0.46885416666666657,-0.13518518518518519,2.8045999999977695],[0.44802083333333326,-0.11574074074074074,2.8212999999970236],[0.4271874999999999,-0.0962962962962963,2.8378999999985126],[0.41854166666666665,-0.03537037037037041,2.8545999999977667],[0.41072916666666665,-0.0338888888888888,2.8725000000000023],[0.39958333333333323,-0.025370370370370456,2.8878999999985098],[0.3877083333333334,-0.012037037037037037,2.9046999999992593],[0.36437499999999995,0.0012962962962963806,2.92119999999926],[0.35427083333333326,-0.03148148148148148,2.937899999998514],[0.36062500000000003,-0.07907407407407405,2.954599999997768],[0.365625,-0.11018518518518519,2.971199999999257],[0.38156249999999997,-0.13777777777777775,2.987899999998511],[0.3974999999999999,-0.1653703703703704,3.0045999999977653],[0.42125000000000007,-0.23444444444444448,3.0211999999992543],[0.44416666666666677,-0.24407407407407408,3.0378999999985083],[0.4540625000000001,-0.2581481481481481,3.054699999999258],[0.4639583333333334,-0.2722222222222222,3.0712999999970236],[0.5107291666666666,-0.32759259259259255,3.0878999999985126],[0.5575,-0.382962962962963,3.1045999999977667],[0.558125,-0.4007407407407407,3.1211999999992557],[0.55625,-0.3781481481481481,3.1378999999985098],[0.5525000000000001,-0.40685185185185185,3.154599999997764],[0.5313541666666666,-0.3925925925925926,3.171299999997018],[0.5282291666666665,-0.38925925925925925,3.1883999999985093],[0.5230208333333333,-0.3516666666666666,3.20489999999851],[0.5278125,-0.327962962962963,3.221199999999257],[0.5364583333333334,-0.32314814814814813,3.237899999998511],[0.5210416666666667,-0.3014814814814815,3.2545],[0.5056250000000001,-0.27981481481481485,3.271399999998515],[0.5169791666666667,-0.2977777777777778,3.28779999999702],[0.5184375,-0.33055555555555555,3.3045000000000044],[0.5086458333333332,-0.3109259259259259,3.3211999999992585],[0.5162499999999999,-0.33425925925925926,3.3378999999985126],[0.5047916666666665,-0.35351851851851845,3.3545000000000016],[0.49541666666666656,-0.40703703703703703,3.371299999997021],[0.47458333333333325,-0.43277777777777776,3.3877999999970214],[0.4527083333333332,-0.44222222222222224,3.4046999999992593],[0.45510416666666675,-0.4668518518518519,3.421299999997018],[0.4575000000000001,-0.49148148148148146,3.437899999998514],[0.4305208333333333,-0.4809259259259259,3.454599999997768],[0.4021874999999999,-0.4677777777777778,3.471199999999257],[0.3811458333333334,-0.4653703703703704,3.487899999998511],[0.3601041666666667,-0.46296296296296297,3.5045],[0.3334374999999999,-0.40425925925925926,3.5211999999992543],[0.3067708333333333,-0.3455555555555556,3.5378999999985083],[0.2998958333333334,-0.29018518518518516,3.5545999999977695],[0.2998958333333334,-0.29018518518518516,3.5715999999977655],[0.27999999999999997,-0.24314814814814817,3.5877999999970243],[0.26229166666666665,-0.19981481481481478,3.604699999999255],[0.2445833333333333,-0.15648148148148147,3.6211999999992557],[0.24770833333333328,-0.12018518518518514,3.6378999999985098],[0.24645833333333325,-0.08129629629629626,3.6544999999999987],[0.24645833333333325,-0.08129629629629626,3.671299999997018],[0.24010416666666667,-0.03629629629629634,3.687899999998514],[0.24260416666666676,-0.02111111111111107,3.704599999997768],[0.24114583333333334,-0.020370370370370372,3.721199999999257],[0.23968749999999991,-0.01962962962962967,3.737799999997023],[0.23770833333333338,-0.0668518518518519,3.757399999998512]]","[0.00029999999701857405,0.03750000000000142,0.04239999999850852,0.05779999999702312,0.07429999999702375,0.08879999999702193,0.10950000000000415,0.1255000000000024,0.1425999999977634,0.15479999999702443,0.1713999999985134,0.1880000000000024,0.20459999999776812,0.2212999999970222,0.2378999999985112,0.25469999999925363,0.27139999999851483,0.2880000000000038,0.30459999999776954,0.321399999998512,0.33800000000000097,0.3575999999977668,0.37459999999776983,0.389099999997768,0.4083999999985082,0.42249999999999943,0.4383999999985093,0.4550999999977634,0.4712999999970222,0.48799999999999955,0.5045999999977653,0.5215000000000032,0.5380000000000038,0.5546999999992579,0.5750000000000028,0.5910000000000011,0.6050999999977691,0.6215999999977697,0.6411999999992588,0.6553999999985081,0.6713999999985134,0.6880000000000024,0.7046999999992565,0.7213999999985106,0.7420000000000044,0.7582999999970212,0.7753999999985126,0.790699999999255,0.8050999999977648,0.8212999999970236,0.8378999999985126,0.8546999999992551,0.8715000000000046,0.8887999999970191,0.9052999999970197,0.921299999997018,0.9380000000000024,0.9545999999977681,0.97529999999702,0.9909999999999997,1.005500000000005,1.0213999999985148,1.0380000000000038,1.054699999999258,1.0712999999970236,1.088000000000001,1.1045999999977667,1.1212999999970208,1.1378999999985098,1.1547999999970244,1.171299999997018,1.187899999998514,1.2045999999977681,1.2212999999970222,1.2378999999985112,1.2546999999992536,1.2741999999992544,1.2885999999977642,1.3045999999977695,1.3215000000000003,1.338000000000001,1.3575999999977668,1.375799999997021,1.3928999999985123,1.4100000000000037,1.4255999999977647,1.4380999999977675,1.4547999999970216,1.4747999999970247,1.4880999999977647,1.5048999999985142,1.5280999999977638,1.5380000000000038,1.5549999999999997,1.5760000000000005,1.588099999997766,1.6048999999985085,1.6278999999985118,1.6378999999985098,1.6546999999992593,1.6713999999985134,1.687899999998514,1.7047999999970216,1.7213999999985106,1.741899999998509,1.7575999999977654,1.774099999997766,1.7880000000000038,1.8045999999977695,1.8216999999992538,1.8378999999985126,1.854699999999255,1.8765999999977652,1.8907999999970215,1.9067999999970198,1.9215000000000018,1.937899999998514,1.9575000000000031,1.9726999999992572,1.9878999999985112,2.0045999999977653,2.0212999999970194,2.038000000000004,2.054799999997023,2.072199999999256,2.088099999997766,2.1045999999977667,2.121299999997021,2.1388999999985145,2.1546999999992593,2.171299999997018,2.1880000000000024,2.204599999997768,2.224599999997764,2.2408999999985113,2.255500000000005,2.271399999998515,2.2912999999970225,2.307699999999258,2.3227999999970237,2.342099999997764,2.3569999999999993,2.3725000000000023,2.3967999999970218,2.423000000000002,2.45189999999851,2.4586999999992543,2.4713999999985106,2.488199999999253,2.5075000000000003,2.521399999998515,2.538099999997769,2.5575000000000045,2.5715000000000003,2.588000000000001,2.604699999999255,2.6233999999985116,2.637999999999998,2.6546999999992593,2.6720999999977693,2.687899999998514,2.704599999997768,2.721199999999257,2.7424999999999997,2.758199999999256,2.773799999997024,2.7878999999985083,2.8045999999977695,2.8212999999970236,2.8378999999985126,2.8545999999977667,2.8725000000000023,2.8878999999985098,2.9046999999992593,2.92119999999926,2.937899999998514,2.954599999997768,2.971199999999257,2.987899999998511,3.0045999999977653,3.0211999999992543,3.0378999999985083,3.054699999999258,3.0712999999970236,3.0878999999985126,3.1045999999977667,3.1211999999992557,3.1378999999985098,3.154599999997764,3.171299999997018,3.1883999999985093,3.20489999999851,3.221199999999257,3.237899999998511,3.2545,3.271399999998515,3.28779999999702,3.3045000000000044,3.3211999999992585,3.3378999999985126,3.3545000000000016,3.371299999997021,3.3877999999970214,3.4046999999992593,3.421299999997018,3.437899999998514,3.454599999997768,3.471199999999257,3.487899999998511,3.5045,3.5211999999992543,3.5378999999985083,3.5545999999977695,3.5715999999977655,3.5877999999970243,3.604699999999255,3.6211999999992557,3.6378999999985098,3.6544999999999987,3.671299999997018,3.687899999998514,3.704599999997768,3.721199999999257,3.737799999997023,3.757399999998512]","[1733130412081,1733130412112,1733130412117,1733130412132,1733130412149,1733130412163,1733130412184,1733130412200,1733130412217,1733130412229,1733130412246,1733130412262,1733130412279,1733130412296,1733130412312,1733130412329,1733130412346,1733130412362,1733130412379,1733130412396,1733130412412,1733130412432,1733130412449,1733130412464,1733130412483,1733130412497,1733130412513,1733130412530,1733130412546,1733130412562,1733130412579,1733130412596,1733130412612,1733130412629,1733130412649,1733130412665,1733130412680,1733130412696,1733130412716,1733130412730,1733130412746,1733130412762,1733130412779,1733130412796,1733130412816,1733130412833,1733130412850,1733130412865,1733130412879,1733130412896,1733130412912,1733130412929,1733130412946,1733130412963,1733130412980,1733130412996,1733130413012,1733130413029,1733130413050,1733130413065,1733130413080,1733130413096,1733130413112,1733130413129,1733130413146,1733130413162,1733130413179,1733130413196,1733130413212,1733130413229,1733130413246,1733130413262,1733130413279,1733130413296,1733130413312,1733130413329,1733130413349,1733130413363,1733130413379,1733130413396,1733130413412,1733130413432,1733130413450,1733130413467,1733130413484,1733130413500,1733130413513,1733130413529,1733130413549,1733130413563,1733130413579,1733130413603,1733130413612,1733130413629,1733130413650,1733130413663,1733130413679,1733130413702,1733130413712,1733130413729,1733130413746,1733130413762,1733130413779,1733130413796,1733130413816,1733130413832,1733130413849,1733130413862,1733130413879,1733130413896,1733130413912,1733130413929,1733130413951,1733130413965,1733130413981,1733130413996,1733130414012,1733130414032,1733130414047,1733130414062,1733130414079,1733130414096,1733130414112,1733130414129,1733130414147,1733130414162,1733130414179,1733130414196,1733130414213,1733130414229,1733130414246,1733130414262,1733130414279,1733130414299,1733130414315,1733130414330,1733130414346,1733130414366,1733130414382,1733130414397,1733130414417,1733130414431,1733130414447,1733130414471,1733130414498,1733130414526,1733130414533,1733130414546,1733130414563,1733130414582,1733130414596,1733130414613,1733130414632,1733130414646,1733130414662,1733130414679,1733130414698,1733130414712,1733130414729,1733130414747,1733130414762,1733130414779,1733130414796,1733130414817,1733130414833,1733130414848,1733130414862,1733130414879,1733130414896,1733130414912,1733130414929,1733130414947,1733130414962,1733130414979,1733130414996,1733130415012,1733130415029,1733130415046,1733130415062,1733130415079,1733130415096,1733130415112,1733130415129,1733130415146,1733130415162,1733130415179,1733130415196,1733130415212,1733130415229,1733130415246,1733130415263,1733130415279,1733130415296,1733130415312,1733130415329,1733130415346,1733130415362,1733130415379,1733130415396,1733130415412,1733130415429,1733130415446,1733130415462,1733130415479,1733130415496,1733130415512,1733130415529,1733130415546,1733130415562,1733130415579,1733130415596,1733130415612,1733130415629,1733130415646,1733130415662,1733130415679,1733130415696,1733130415712,1733130415729,1733130415746,1733130415762,1733130415779,1733130415796,1733130415812,1733130415832]","[[938.2,702.9],[938.2,702.9],[942.8,691.9],[982.9,690.7],[1020.3,686.9],[1044.8,677.4],[1057.7,672.2],[1045.7,664],[1058.7,661.6],[1058.7,661.6],[1064.2,670.8],[1068.1,681.2],[1071.4,693.5],[1064,657.9],[1051.8,624.1],[1048.1,596.2],[1058.5,572.7],[1046.2,568.7],[1042.4,553.6],[1027.1,529.7],[1023.3,518.6],[1026.2,487.4],[1005.8,459.7],[983.7,471.4],[962.5,485],[929.9,487.8],[904.3,490.4],[880,479.4],[880,479.4],[858.9,472.4],[851.3,464],[845,450.9],[846,440.7],[862.5,428.7],[879,416.7],[889,426.4],[885.1,443.3],[871.6,457.8],[856.2,472.4],[846.1,473.4],[846.1,473.4],[821.2,491.3],[805.2,514.5],[774.4,548],[750.9,578.5],[724,600.4],[707.1,610.2],[707.7,618.5],[680.5,617.7],[661.7,618],[632.7,636.5],[599.1,632.3],[555.3,627.5],[530.9,620.2],[527.5,610.4],[509.7,607.3],[480,586.5],[484.6,583.6],[511.6,571.1],[536.4,561],[572.7,558.3],[595.5,567.7],[618.3,577.1],[633.9,583.8],[624.3,592.7],[638.9,575.5],[653.5,558.3],[618.3,543],[591.1,549],[566.2,557.9],[546.5,576.1],[544,588.9],[544.7,591.6],[543.2,586.6],[546.4,583.2],[549.4,606.2],[552.4,629.2],[585.1,642.9],[617.8,656.6],[673,666.4],[706.9,658.4],[746.1,664.4],[777.2,679.1],[803.1,699.4],[822.9,719.9],[851.5,727.1],[851.5,727.1],[880.1,734.3],[880.1,734.3],[891.4,721.2],[900.7,711.7],[920.5,708.2],[920.5,708.2],[944.3,704],[944.3,704],[933,687],[933,687],[915.6,696.8],[915.6,696.8],[928.6,662.5],[928.6,662.5],[948.4,630.9],[948.4,630.9],[949.1,627],[940.3,615.4],[951.3,619.8],[964.3,620.6],[941.5,616],[924.2,608.6],[933.2,596.2],[953.2,558.4],[964.8,550.8],[975.7,540.3],[987,535],[1009.1,533.2],[1013.8,524.4],[1018.5,515.6],[1017.5,533.2],[1026.7,546.3],[1028.1,566.7],[1041.2,576.8],[1042.3,597.8],[1043.4,618.8],[1057.9,612.5],[1054.2,597.5],[1053.9,617],[1053.6,636.5],[1071.1,614.2],[1078.4,596.4],[1083.9,594.5],[1086.9,617.6],[1077.8,648],[1068.7,678.4],[1053.6,682.9],[1069.6,703.5],[1070.5,681.7],[1071.4,659.9],[1065.2,652.2],[1064,672.7],[1096.7,666.7],[1100.7,655.2],[1136.8,614.8],[1153.1,589.7],[1165.7,599.8],[1165.7,599.8],[1162.1,578.2],[1162.1,578.2],[1213.1,556.6],[1253.8,550.4],[1307.3,543.5],[1332.7,504.7],[1326,476.5],[1327.8,445.8],[1343.7,436.1],[1364.1,417.3],[1384.5,398.5],[1405.7,405],[1383.4,408.4],[1391.4,403.1],[1394.3,404.2],[1406.8,401.5],[1419.3,398.8],[1448.9,395.5],[1445.1,390.2],[1441.5,392.4],[1425.2,419.5],[1410.1,449.8],[1410.1,467],[1390.1,477.5],[1370.1,488],[1361.8,520.9],[1354.3,521.7],[1343.6,526.3],[1332.2,533.5],[1309.8,540.7],[1300.1,523],[1306.2,497.3],[1311,480.5],[1326.3,465.6],[1341.6,450.7],[1364.4,413.4],[1386.4,408.2],[1395.9,400.6],[1405.4,393],[1450.3,363.1],[1495.2,333.2],[1495.8,323.6],[1494,335.8],[1490.4,320.3],[1470.1,328],[1467.1,329.8],[1462.1,350.1],[1466.7,362.9],[1475,365.5],[1460.2,377.2],[1445.4,388.9],[1456.3,379.2],[1457.7,361.5],[1448.3,372.1],[1455.6,359.5],[1444.6,349.1],[1435.6,320.2],[1415.6,306.3],[1394.6,301.2],[1396.9,287.9],[1399.2,274.6],[1373.3,280.3],[1346.1,287.4],[1325.9,288.7],[1305.7,290],[1280.1,321.7],[1254.5,353.4],[1247.9,383.3],[1247.9,383.3],[1228.8,408.7],[1211.8,432.1],[1194.8,455.5],[1197.8,475.1],[1196.6,496.1],[1196.6,496.1],[1190.5,520.4],[1192.9,528.6],[1191.5,529],[1190.1,529.4],[1188.2,503.9]]","[0,0.37864299999999995]","[0.37864299999999995,0.37864299999999995]","[-0.37864299999999995,-0.37864299999999995]","[-0.37864299999999995,0]","[0,-0.37864299999999995]","[0.37864299999999995,-0.37864299999999995]","[0,0]","[0.37864299999999995,0]",0,0,0,0,1,2,Laptop,7,1,11,9
,,,,,,,,,,,,,,,,,,,,22,001,2024-12-02_17h06.13.279,Attention_exp_legacy,2023.1.0,Win32,60.24096386,,,,,,,,,,[0.041666666666666664],[0.3851851851851852],[1],[0],[0],[2.1144999999999996],"[""Option1_label""]",Option1_label,2,3.1291,"[[0.409375,0.387037037037037],[0.409375,0.387037037037037],[0.409375,0.387037037037037],[0.409375,0.387037037037037],[0.409375,0.387037037037037],[0.409375,0.387037037037037],[0.409375,0.387037037037037],[0.409375,0.387037037037037],[0.409375,0.387037037037037],[0.409375,0.387037037037037],[0.409375,0.387037037037037],[0.409375,0.387037037037037],[0.409375,0.387037037037037],[0.409375,0.387037037037037],[0.409375,0.387037037037037],[0.409375,0.387037037037037],[0.409375,0.387037037037037],[0.409375,0.387037037037037],[0.409375,0.387037037037037],[0.409375,0.387037037037037],[0.409375,0.387037037037037],[0.409375,0.387037037037037],[0.409375,0.387037037037037],[0.409375,0.387037037037037],[0.409375,0.387037037037037],[0.409375,0.387037037037037],[0.409375,0.387037037037037],[0.409375,0.387037037037037],[0.409375,0.387037037037037],[0.409375,0.387037037037037],[0.409375,0.387037037037037],[0.409375,0.387037037037037],[0.409375,0.387037037037037],[0.409375,0.387037037037037],[0.409375,0.387037037037037],[0.409375,0.387037037037037],[0.409375,0.387037037037037],[0.409375,0.387037037037037],[0.409375,0.387037037037037],[0.409375,0.387037037037037],[0.409375,0.387037037037037],[0.409375,0.387037037037037],[0.409375,0.387037037037037],[0.409375,0.387037037037037],[0.409375,0.387037037037037],[0.409375,0.387037037037037],[0.409375,0.387037037037037],[0.409375,0.387037037037037],[0.409375,0.387037037037037],[0.409375,0.387037037037037],[0.409375,0.387037037037037],[0.409375,0.387037037037037],[0.409375,0.387037037037037],[0.409375,0.387037037037037],[0.409375,0.387037037037037],[0.409375,0.387037037037037],[0.409375,0.387037037037037],[0.409375,0.387037037037037],[0.409375,0.387037037037037],[0.409375,0.387037037037037],[0.409375,0.387037037037037],[0.409375,0.387037037037037],[0.409375,0.387037037037037],[0.409375,0.387037037037037],[0.409375,0.387037037037037],[0.409375,0.387037037037037],[0.409375,0.387037037037037],[0.409375,0.387037037037037],[0.409375,0.387037037037037],[0.409375,0.387037037037037],[0.409375,0.387037037037037],[0.409375,0.387037037037037],[0.409375,0.387037037037037],[0.409375,0.387037037037037],[0.409375,0.387037037037037],[0.409375,0.387037037037037],[0.409375,0.387037037037037],[0.409375,0.387037037037037],[0.409375,0.387037037037037],[0.409375,0.387037037037037],[0.409375,0.387037037037037],[0.409375,0.387037037037037],[0.409375,0.387037037037037],[0.409375,0.387037037037037],[0.409375,0.387037037037037],[0.409375,0.387037037037037],[0.409375,0.387037037037037],[0.409375,0.387037037037037],[0.409375,0.387037037037037],[0.40520833333333334,0.387037037037037],[0.38645833333333335,0.37962962962962965],[0.3489583333333333,0.362962962962963],[0.3072916666666667,0.3592592592592593],[0.228125,0.3592592592592593],[0.18229166666666666,0.3592592592592593],[0.15,0.3592592592592593],[0.12604166666666666,0.3592592592592593],[0.10833333333333334,0.3592592592592593],[0.090625,0.3592592592592593],[0.07083333333333333,0.3592592592592593],[0.05416666666666667,0.3592592592592593],[0.03854166666666667,0.3611111111111111],[0.035416666666666666,0.3611111111111111],[0.030208333333333334,0.362962962962963],[0.030208333333333334,0.3648148148148148],[0.029166666666666667,0.3648148148148148],[0.029166666666666667,0.3648148148148148],[0.028125,0.36666666666666664],[0.028125,0.3685185185185185],[0.028125,0.37407407407407406],[0.028125,0.37407407407407406],[0.030208333333333334,0.37777777777777777],[0.03333333333333333,0.37962962962962965],[0.035416666666666666,0.3814814814814815],[0.035416666666666666,0.3814814814814815],[0.03854166666666667,0.38333333333333336],[0.03854166666666667,0.3851851851851852],[0.041666666666666664,0.3851851851851852],[0.041666666666666664,0.3851851851851852],[0.041666666666666664,0.3851851851851852],[0.041666666666666664,0.3851851851851852],[0.041666666666666664,0.3851851851851852],[0.041666666666666664,0.3851851851851852],[0.041666666666666664,0.3851851851851852],[0.041666666666666664,0.3851851851851852],[0.041666666666666664,0.3851851851851852],[0.041666666666666664,0.3851851851851852],[0.041666666666666664,0.3851851851851852],[0.041666666666666664,0.3851851851851852],[0.041666666666666664,0.3851851851851852],[0.041666666666666664,0.3851851851851852],[0.041666666666666664,0.3851851851851852],[0.041666666666666664,0.3851851851851852],[0.041666666666666664,0.3851851851851852],[0.041666666666666664,0.3851851851851852],[0.041666666666666664,0.3851851851851852],[0.041666666666666664,0.3851851851851852],[0.041666666666666664,0.3851851851851852],[0.041666666666666664,0.3851851851851852],[0.041666666666666664,0.3851851851851852],[0.041666666666666664,0.3851851851851852],[0.041666666666666664,0.3851851851851852],[0.041666666666666664,0.3851851851851852],[0.041666666666666664,0.3851851851851852],[0.041666666666666664,0.3851851851851852],[0.041666666666666664,0.3851851851851852],[0.041666666666666664,0.3851851851851852],[0.041666666666666664,0.3851851851851852],[0.041666666666666664,0.3851851851851852],[0.041666666666666664,0.3851851851851852],[0.041666666666666664,0.3851851851851852],[0.041666666666666664,0.3851851851851852],[0.041666666666666664,0.3851851851851852],[0.041666666666666664,0.3851851851851852],[0.041666666666666664,0.3851851851851852],[0.041666666666666664,0.3851851851851852],[0.041666666666666664,0.3851851851851852],[0.041666666666666664,0.3851851851851852],[0.041666666666666664,0.3851851851851852],[0.041666666666666664,0.3851851851851852],[0.041666666666666664,0.3851851851851852],[0.041666666666666664,0.3851851851851852],[0.041666666666666664,0.3851851851851852],[0.041666666666666664,0.3851851851851852],[0.041666666666666664,0.3851851851851852],[0.041666666666666664,0.3851851851851852],[0.041666666666666664,0.3851851851851852],[0.041666666666666664,0.3851851851851852],[0.041666666666666664,0.3851851851851852],[0.041666666666666664,0.3851851851851852],[0.041666666666666664,0.3851851851851852],[0.041666666666666664,0.3851851851851852],[0.041666666666666664,0.3851851851851852],[0.041666666666666664,0.3851851851851852],[0.041666666666666664,0.3851851851851852],[0.041666666666666664,0.3851851851851852],[0.041666666666666664,0.3851851851851852],[0.041666666666666664,0.3851851851851852],[0.041666666666666664,0.3851851851851852],[0.041666666666666664,0.3851851851851852],[0.041666666666666664,0.3851851851851852],[0.041666666666666664,0.3851851851851852],[0.041666666666666664,0.3851851851851852],[0.041666666666666664,0.3851851851851852],[0.041666666666666664,0.3851851851851852],[0.041666666666666664,0.3851851851851852],[0.041666666666666664,0.3851851851851852],[0.041666666666666664,0.3851851851851852],[0.041666666666666664,0.3851851851851852]]","[[-0.21458333333333332,0.5153703703703703],[-0.21458333333333332,0.5153703703703703],[-0.19395833333333337,0.5322222222222222],[-0.16822916666666668,0.5111111111111111],[-0.1486458333333334,0.4579629629629629],[-0.13218749999999999,0.4088888888888888],[-0.11135416666666664,0.3550000000000001],[-0.09520833333333331,0.302962962962963],[-0.0967708333333333,0.2975925925925927],[-0.08260416666666662,0.30481481481481487],[-0.05916666666666662,0.27685185185185185],[-0.04739583333333333,0.26777777777777784],[-0.035625000000000046,0.25870370370370377],[-0.035625000000000046,0.25870370370370377],[-0.03458333333333338,0.2946296296296297],[-0.04635416666666667,0.3411111111111112],[-0.06520833333333335,0.36425925925925934],[-0.07791666666666662,0.38796296296296295],[-0.0859375,0.40981481481481474],[-0.10322916666666669,0.45185185185185184],[-0.12614583333333335,0.44537037037037036],[-0.15208333333333332,0.4474074074074075],[-0.15874999999999997,0.39462962962962966],[-0.17302083333333335,0.3790740740740742],[-0.17677083333333338,0.35481481481481486],[-0.16770833333333332,0.3199999999999999],[-0.15916666666666662,0.330925925925926],[-0.14791666666666667,0.3431481481481481],[-0.13666666666666671,0.35537037037037034],[-0.14916666666666673,0.35111111111111115],[-0.14916666666666673,0.35111111111111115],[-0.17177083333333332,0.3827777777777779],[-0.20114583333333336,0.36814814814814806],[-0.24375,0.3587037037037038],[-0.27875,0.31203703703703706],[-0.32916666666666666,0.29314814814814805],[-0.32916666666666666,0.29314814814814805],[-0.37958333333333333,0.2742592592592593],[-0.3988541666666666,0.2462962962962963],[-0.4275,0.2222222222222222],[-0.47604166666666664,0.19000000000000003],[-0.4744791666666667,0.1655555555555555],[-0.4671875,0.1307407407407408],[-0.4670833333333333,0.17611111111111116],[-0.46697916666666667,0.24574074074074082],[-0.46760416666666665,0.3077777777777779],[-0.45770833333333333,0.34370370370370373],[-0.4328125,0.37111111111111106],[-0.4383333333333333,0.4185185185185185],[-0.44333333333333336,0.4601851851851852],[-0.3851041666666667,0.4844444444444445],[-0.36062500000000003,0.4875925925925925],[-0.34187500000000004,0.5011111111111112],[-0.2955208333333334,0.4935185185185185],[-0.2491666666666667,0.4859259259259259],[-0.184375,0.44611111111111107],[-0.11625000000000002,0.39018518518518525],[-0.06510416666666667,0.384074074074074],[-0.003958333333333286,0.3405555555555555],[0.059687499999999956,0.30833333333333335],[0.07999999999999995,0.30166666666666664],[0.07999999999999995,0.30166666666666664],[0.10229166666666671,0.30944444444444447],[0.12270833333333328,0.3290740740740742],[0.13250000000000003,0.3274074074074073],[0.15302083333333344,0.318888888888889],[0.15583333333333324,0.3501851851851852],[0.13812499999999991,0.4053703703703703],[0.12385416666666677,0.42370370370370364],[0.12239583333333333,0.41166666666666657],[0.12229166666666676,0.3714814814814815],[0.10239583333333328,0.39388888888888896],[0.09572916666666677,0.4125925925925925],[0.09093749999999995,0.41944444444444445],[0.11062500000000004,0.42055555555555557],[0.11958333333333329,0.42851851851851847],[0.12854166666666675,0.4364814814814816],[0.13864583333333325,0.43444444444444447],[0.15593750000000003,0.4148148148148148],[0.1556250000000001,0.44888888888888884],[0.15145833333333342,0.49981481481481477],[0.1775000000000001,0.46351851851851844],[0.20239583333333327,0.430925925925926],[0.21989583333333323,0.40481481481481485],[0.2037499999999999,0.42611111111111116],[0.18760416666666657,0.4257407407407407],[0.17145833333333324,0.42537037037037045],[0.15947916666666656,0.42888888888888893],[0.1388541666666666,0.4455555555555556],[0.11166666666666672,0.4262962962962964],[0.13666666666666671,0.33259259259259266],[0.13541666666666666,0.29074074074074074],[0.1319791666666667,0.259074074074074],[0.14802083333333324,0.1948148148148149],[0.16729166666666656,0.12222222222222222],[0.1865624999999999,0.0712962962962963],[0.1865624999999999,0.0712962962962963],[0.20989583333333334,-0.006481481481481481],[0.24145833333333327,-0.06129629629629634],[0.2730208333333332,-0.1161111111111111],[0.3159374999999999,-0.15833333333333333],[0.29625000000000007,-0.17240740740740745],[0.28187499999999993,-0.22370370370370374],[0.28187499999999993,-0.22370370370370374],[0.27395833333333336,-0.24759259259259256],[0.2601041666666667,-0.2742592592592593],[0.24479166666666666,-0.3148148148148148],[0.19479166666666667,-0.3333333333333333],[0.17854166666666677,-0.32333333333333336],[0.14406249999999995,-0.3566666666666667],[0.12552083333333333,-0.38925925925925925],[0.12552083333333333,-0.38925925925925925],[0.09937500000000009,-0.412962962962963],[0.07114583333333328,-0.38499999999999995],[0.058124999999999954,-0.36203703703703705],[0.058124999999999954,-0.36203703703703705],[0.046875,-0.35851851851851857],[0.02947916666666662,-0.3331481481481481],[0.019479166666666714,-0.3272222222222222],[0.046875,-0.33259259259259266],[0.04020833333333336,-0.3588888888888889],[0.04020833333333336,-0.3588888888888889],[0.05541666666666671,-0.36648148148148146],[0.07416666666666671,-0.3712962962962963],[0.10052083333333334,-0.38499999999999995],[0.11572916666666658,-0.3688888888888889],[0.12177083333333343,-0.3707407407407407],[0.12489583333333343,-0.3816666666666667],[0.12489583333333343,-0.3816666666666667],[0.12802083333333342,-0.38555555555555554],[0.14874999999999997,-0.39648148148148155],[0.14874999999999997,-0.39648148148148155],[0.1486458333333334,-0.3983333333333334],[0.1486458333333334,-0.3983333333333334],[0.18614583333333337,-0.372037037037037],[0.18614583333333337,-0.372037037037037],[0.16416666666666657,-0.3587037037037037],[0.15927083333333342,-0.33925925925925926],[0.15437500000000004,-0.3198148148148148],[0.15364583333333334,-0.3588888888888889],[0.17062499999999994,-0.3477777777777778],[0.18229166666666666,-0.33555555555555555],[0.18229166666666666,-0.33555555555555555],[0.19395833333333337,-0.32333333333333336],[0.1857291666666666,-0.29666666666666663],[0.1857291666666666,-0.29666666666666663],[0.19562499999999997,-0.2898148148148148],[0.19562499999999997,-0.2898148148148148],[0.19333333333333325,-0.3235185185185185],[0.19333333333333325,-0.3235185185185185],[0.22312500000000005,-0.31500000000000006],[0.22312500000000005,-0.31500000000000006],[0.1974999999999999,-0.27870370370370373],[0.20906250000000004,-0.3044444444444444],[0.2193749999999999,-0.28944444444444445],[0.2326041666666666,-0.30574074074074076],[0.2326041666666666,-0.30574074074074076],[0.2516666666666666,-0.3140740740740741],[0.2672916666666666,-0.3151851851851852],[0.26062500000000005,-0.3483333333333334],[0.2539583333333333,-0.3814814814814815],[0.23239583333333325,-0.38203703703703706],[0.22843749999999996,-0.3844444444444445],[0.2415625000000001,-0.4207407407407407],[0.21729166666666658,-0.39759259259259255],[0.22760416666666666,-0.43703703703703706],[0.22177083333333342,-0.4624074074074074],[0.20739583333333325,-0.4818518518518518],[0.1851041666666667,-0.4992592592592593],[0.18739583333333343,-0.492037037037037],[0.18468749999999995,-0.477962962962963],[0.16770833333333332,-0.4648148148148148],[0.1634375000000001,-0.4818518518518518],[0.16291666666666677,-0.46277777777777773],[0.16260416666666658,-0.44111111111111106],[0.1337500000000001,-0.41092592592592586],[0.07593750000000009,-0.3396296296296296],[0.02822916666666669,-0.2455555555555556],[-0.008124999999999953,-0.16074074074074077],[-0.04833333333333331,-0.1051851851851852],[-0.08354166666666671,-0.05648148148148148],[-0.1252083333333334,0.015555555555555513],[-0.16979166666666667,0.09037037037037028],[-0.19166666666666668,0.05259259259259255],[-0.21843750000000003,0.01648148148148144],[-0.24333333333333335,0.04611111111111107],[-0.23927083333333338,0.03462962962962971],[-0.23145833333333338,-0.01703703703703712],[-0.22718750000000001,-0.05870370370370368]]","[[-0.21458333333333332,0.5153703703703703,0.00010000000148835397],[-0.21458333333333332,0.5153703703703703,0.012600000001491196],[-0.19395833333333337,0.5322222222222222,0.02919999999925693],[-0.16822916666666668,0.5111111111111111,0.04580000000074591],[-0.1486458333333334,0.4579629629629629,0.06260000000148835],[-0.13218749999999999,0.4088888888888888,0.07910000000148898],[-0.11135416666666664,0.3550000000000001,0.09580000000074307],[-0.09520833333333331,0.302962962962963,0.1123999999985088],[-0.0967708333333333,0.2975925925925927,0.12910000000148614],[-0.08260416666666662,0.30481481481481487,0.14569999999925187],[-0.05916666666666662,0.27685185185185185,0.16239999999850596],[-0.04739583333333333,0.26777777777777784,0.1791000000014904],[-0.035625000000000046,0.25870370370370377,0.19919999999925153],[-0.035625000000000046,0.25870370370370377,0.21249999999999858],[-0.03458333333333338,0.2946296296296297,0.22919999999925267],[-0.04635416666666667,0.3411111111111112,0.24580000000074165],[-0.06520833333333335,0.36425925925925934,0.26249999999999574],[-0.07791666666666662,0.38796296296296295,0.2791000000014918],[-0.0859375,0.40981481481481474,0.295899999998511],[-0.10322916666666669,0.45185185185185184,0.313600000001486],[-0.12614583333333335,0.44537037037037036,0.32980000000074483],[-0.15208333333333332,0.4474074074074075,0.3458999999985082],[-0.15874999999999997,0.39462962962962966,0.3626000000014855],[-0.17302083333333335,0.3790740740740742,0.37919999999925125],[-0.17677083333333338,0.35481481481481486,0.39580000000074733],[-0.16770833333333332,0.3199999999999999,0.41669999999925267],[-0.15916666666666662,0.330925925925926,0.4321000000014905],[-0.14791666666666667,0.3431481481481481,0.4458000000007445],[-0.13666666666666671,0.35537037037037034,0.4624999999999986],[-0.14916666666666673,0.35111111111111115,0.47910000000148756],[-0.14916666666666673,0.35111111111111115,0.49589999999850676],[-0.17177083333333332,0.3827777777777779,0.5124999999999957],[-0.20114583333333336,0.36814814814814806,0.5291000000014918],[-0.24375,0.3587037037037038,0.5458000000007459],[-0.27875,0.31203703703703706,0.5623999999985116],[-0.32916666666666666,0.29314814814814805,0.579100000001489],[-0.32916666666666666,0.29314814814814805,0.5958999999985082],[-0.37958333333333333,0.2742592592592593,0.6124999999999972],[-0.3988541666666666,0.2462962962962963,0.6291000000014861],[-0.4275,0.2222222222222222,0.6458000000007473],[-0.47604166666666664,0.19000000000000003,0.6625000000000014],[-0.4744791666666667,0.1655555555555555,0.6791999999992555],[-0.4671875,0.1307407407407408,0.696399999998512],[-0.4670833333333333,0.17611111111111116,0.7126000000014869],[-0.46697916666666667,0.24574074074074082,0.7291000000014876],[-0.46760416666666665,0.3077777777777779,0.7458000000007416],[-0.45770833333333333,0.34370370370370373,0.7623999999985074],[-0.4328125,0.37111111111111106,0.7800000000000011],[-0.4383333333333333,0.4185185185185185,0.7959999999999994],[-0.44333333333333336,0.4601851851851852,0.8125],[-0.3851041666666667,0.4844444444444445,0.829100000001489],[-0.36062500000000003,0.4875925925925925,0.8458000000007431],[-0.34187500000000004,0.5011111111111112,0.8623999999985088],[-0.2955208333333334,0.4935185185185185,0.8791000000014861],[-0.2491666666666667,0.4859259259259259,0.8964999999999961],[-0.184375,0.44611111111111107,0.9125000000000014],[-0.11625000000000002,0.39018518518518525,0.9291000000014904],[-0.06510416666666667,0.384074074074074,0.9458999999985096],[-0.003958333333333286,0.3405555555555555,0.9626000000014869],[0.059687499999999956,0.30833333333333335,0.9791999999992527],[0.07999999999999995,0.30166666666666664,0.9993000000007441],[0.07999999999999995,0.30166666666666664,1.0124999999999957],[0.10229166666666671,0.30944444444444447,1.029199999999257],[0.12270833333333328,0.3290740740740742,1.0461000000014877],[0.13250000000000003,0.3274074074074073,1.0625],[0.15302083333333344,0.318888888888889,1.079199999999254],[0.15583333333333324,0.3501851851851852,1.1003000000007432],[0.13812499999999991,0.4053703703703703,1.115399999998509],[0.12385416666666677,0.42370370370370364,1.1325000000000003],[0.12239583333333333,0.41166666666666657,1.1461999999992543],[0.12229166666666676,0.3714814814814815,1.1628999999985083],[0.10239583333333328,0.39388888888888896,1.1791999999992555],[0.09572916666666677,0.4125925925925925,1.1968000000007422],[0.09093749999999995,0.41944444444444445,1.2124999999999986],[0.11062500000000004,0.42055555555555557,1.2291000000014876],[0.11958333333333329,0.42851851851851847,1.2458000000007416],[0.12854166666666675,0.4364814814814816,1.2623999999985074],[0.13864583333333325,0.43444444444444447,1.2791000000014918],[0.15593750000000003,0.4148148148148148,1.2971999999992505],[0.1556250000000001,0.44888888888888884,1.3126999999992535],[0.15145833333333342,0.49981481481481477,1.329199999999254],[0.1775000000000001,0.46351851851851844,1.345800000000743],[0.20239583333333327,0.430925925925926,1.363199999999253],[0.21989583333333323,0.40481481481481485,1.3791999999992512],[0.2037499999999999,0.42611111111111116,1.400500000000001],[0.18760416666666657,0.4257407407407407,1.415699999999255],[0.17145833333333324,0.42537037037037045,1.4296999999992508],[0.15947916666666656,0.42888888888888893,1.4458000000007445],[0.1388541666666666,0.4455555555555556,1.4623999999985102],[0.11166666666666672,0.4262962962962964,1.481499999999997],[0.13666666666666671,0.33259259259259266,1.4961999999992557],[0.13541666666666666,0.29074074074074074,1.5126000000014912],[0.1319791666666667,0.259074074074074,1.5334999999999965],[0.14802083333333324,0.1948148148148149,1.5483999999985087],[0.16729166666666656,0.12222222222222222,1.5636999999992511],[0.1865624999999999,0.0712962962962963,1.5793000000007424],[0.1865624999999999,0.0712962962962963,1.6004999999999967],[0.20989583333333334,-0.006481481481481481,1.6126000000014855],[0.24145833333333327,-0.06129629629629634,1.6293999999985118],[0.2730208333333332,-0.1161111111111111,1.6460000000000008],[0.3159374999999999,-0.15833333333333333,1.667199999999255],[0.29625000000000007,-0.17240740740740745,1.6820000000000022],[0.28187499999999993,-0.22370370370370374,1.697800000000747],[0.28187499999999993,-0.22370370370370374,1.715600000001487],[0.27395833333333336,-0.24759259259259256,1.7291999999992527],[0.2601041666666667,-0.2742592592592593,1.7475000000000023],[0.24479166666666666,-0.3148148148148148,1.7623999999985074],[0.19479166666666667,-0.3333333333333333,1.7824999999999989],[0.17854166666666677,-0.32333333333333336,1.8008000000007414],[0.14406249999999995,-0.3566666666666667,1.8168000000007467],[0.12552083333333333,-0.38925925925925925,1.832499999999996],[0.12552083333333333,-0.38925925925925925,1.8489999999999966],[0.09937500000000009,-0.412962962962963,1.8626999999992506],[0.07114583333333328,-0.38499999999999995,1.8818000000007444],[0.058124999999999954,-0.36203703703703705,1.8971000000014868],[0.058124999999999954,-0.36203703703703705,1.9159999999999968],[0.046875,-0.35851851851851857,1.929399999998509],[0.02947916666666662,-0.3331481481481481,1.946399999998512],[0.019479166666666714,-0.3272222222222222,1.9623999999985102],[0.046875,-0.33259259259259266,1.9791000000014876],[0.04020833333333336,-0.3588888888888889,2.001899999998507],[0.04020833333333336,-0.3588888888888889,2.0124999999999957],[0.05541666666666671,-0.36648148148148146,2.029100000001492],[0.07416666666666671,-0.3712962962962963,2.0456999999992505],[0.10052083333333334,-0.38499999999999995,2.0623999999985116],[0.11572916666666658,-0.3688888888888889,2.079199999999254],[0.12177083333333343,-0.3707407407407407,2.0971999999992548],[0.12489583333333343,-0.3816666666666667,2.1158999999985113],[0.12489583333333343,-0.3816666666666667,2.129100000001486],[0.12802083333333342,-0.38555555555555554,2.1458999999985053],[0.14874999999999997,-0.39648148148148155,2.1663000000007457],[0.14874999999999997,-0.39648148148148155,2.1918000000007467],[0.1486458333333334,-0.3983333333333334,2.201499999999996],[0.1486458333333334,-0.3983333333333334,2.2213999999985106],[0.18614583333333337,-0.372037037037037,2.2436000000014857],[0.18614583333333337,-0.372037037037037,2.2501000000014884],[0.16416666666666657,-0.3587037037037037,2.2624999999999957],[0.15927083333333342,-0.33925925925925926,2.279100000001492],[0.15437500000000004,-0.3198148148148148,2.2959999999999994],[0.15364583333333334,-0.3588888888888889,2.3123999999985116],[0.17062499999999994,-0.3477777777777778,2.329100000001489],[0.18229166666666666,-0.33555555555555555,2.3456999999992547],[0.18229166666666666,-0.33555555555555555,2.3626000000014855],[0.19395833333333337,-0.32333333333333336,2.3791999999992512],[0.1857291666666666,-0.29666666666666663,2.401699999999252],[0.1857291666666666,-0.29666666666666663,2.412399999998506],[0.19562499999999997,-0.2898148148148148,2.4291000000014904],[0.19562499999999997,-0.2898148148148148,2.4458000000007445],[0.19333333333333325,-0.3235185185185185,2.4624999999999986],[0.19333333333333325,-0.3235185185185185,2.4791000000014876],[0.22312500000000005,-0.31500000000000006,2.4958999999985068],[0.22312500000000005,-0.31500000000000006,2.5124999999999957],[0.1974999999999999,-0.27870370370370373,2.529199999999257],[0.20906250000000004,-0.3044444444444444,2.549199999999253],[0.2193749999999999,-0.28944444444444445,2.5634999999999977],[0.2326041666666666,-0.30574074074074076,2.579100000001489],[0.2326041666666666,-0.30574074074074076,2.595899999998508],[0.2516666666666666,-0.3140740740740741,2.612499999999997],[0.2672916666666666,-0.3151851851851852,2.629100000001486],[0.26062500000000005,-0.3483333333333334,2.6458000000007473],[0.2539583333333333,-0.3814814814814815,2.662399999998506],[0.23239583333333325,-0.38203703703703706,2.679000000000002],[0.22843749999999996,-0.3844444444444445,2.695699999999256],[0.2415625000000001,-0.4207407407407407,2.7123999999985102],[0.21729166666666658,-0.39759259259259255,2.7291999999992527],[0.22760416666666666,-0.43703703703703706,2.7456999999992533],[0.22177083333333342,-0.4624074074074074,2.7624999999999957],[0.20739583333333325,-0.4818518518518518,2.779199999999257],[0.1851041666666667,-0.4992592592592593,2.799899999998509],[0.18739583333333343,-0.492037037037037,2.813199999999256],[0.18468749999999995,-0.477962962962963,2.829100000001489],[0.16770833333333332,-0.4648148148148148,2.8456999999992547],[0.1634375000000001,-0.4818518518518518,2.862399999998509],[0.16291666666666677,-0.46277777777777773,2.878999999999998],[0.16260416666666658,-0.44111111111111106,2.8958000000007473],[0.1337500000000001,-0.41092592592592586,2.9125000000000014],[0.07593750000000009,-0.3396296296296296,2.9291000000014904],[0.02822916666666669,-0.2455555555555556,2.9458000000007445],[-0.008124999999999953,-0.16074074074074077,2.9623999999985102],[-0.04833333333333331,-0.1051851851851852,2.9791000000014876],[-0.08354166666666671,-0.05648148148148148,2.999300000000744],[-0.1252083333333334,0.015555555555555513,3.0159999999999982],[-0.16979166666666667,0.09037037037037028,3.0293999999985104],[-0.19166666666666668,0.05259259259259255,3.0456999999992505],[-0.21843750000000003,0.01648148148148144,3.0625],[-0.24333333333333335,0.04611111111111107,3.0796999999992565],[-0.23927083333333338,0.03462962962962971,3.095800000000743],[-0.23145833333333338,-0.01703703703703712,3.112399999998509],[-0.22718750000000001,-0.05870370370370368,3.129100000001486]]","[0.00010000000148835397,0.012600000001491196,0.02919999999925693,0.04580000000074591,0.06260000000148835,0.07910000000148898,0.09580000000074307,0.1123999999985088,0.12910000000148614,0.14569999999925187,0.16239999999850596,0.1791000000014904,0.19919999999925153,0.21249999999999858,0.22919999999925267,0.24580000000074165,0.26249999999999574,0.2791000000014918,0.295899999998511,0.313600000001486,0.32980000000074483,0.3458999999985082,0.3626000000014855,0.37919999999925125,0.39580000000074733,0.41669999999925267,0.4321000000014905,0.4458000000007445,0.4624999999999986,0.47910000000148756,0.49589999999850676,0.5124999999999957,0.5291000000014918,0.5458000000007459,0.5623999999985116,0.579100000001489,0.5958999999985082,0.6124999999999972,0.6291000000014861,0.6458000000007473,0.6625000000000014,0.6791999999992555,0.696399999998512,0.7126000000014869,0.7291000000014876,0.7458000000007416,0.7623999999985074,0.7800000000000011,0.7959999999999994,0.8125,0.829100000001489,0.8458000000007431,0.8623999999985088,0.8791000000014861,0.8964999999999961,0.9125000000000014,0.9291000000014904,0.9458999999985096,0.9626000000014869,0.9791999999992527,0.9993000000007441,1.0124999999999957,1.029199999999257,1.0461000000014877,1.0625,1.079199999999254,1.1003000000007432,1.115399999998509,1.1325000000000003,1.1461999999992543,1.1628999999985083,1.1791999999992555,1.1968000000007422,1.2124999999999986,1.2291000000014876,1.2458000000007416,1.2623999999985074,1.2791000000014918,1.2971999999992505,1.3126999999992535,1.329199999999254,1.345800000000743,1.363199999999253,1.3791999999992512,1.400500000000001,1.415699999999255,1.4296999999992508,1.4458000000007445,1.4623999999985102,1.481499999999997,1.4961999999992557,1.5126000000014912,1.5334999999999965,1.5483999999985087,1.5636999999992511,1.5793000000007424,1.6004999999999967,1.6126000000014855,1.6293999999985118,1.6460000000000008,1.667199999999255,1.6820000000000022,1.697800000000747,1.715600000001487,1.7291999999992527,1.7475000000000023,1.7623999999985074,1.7824999999999989,1.8008000000007414,1.8168000000007467,1.832499999999996,1.8489999999999966,1.8626999999992506,1.8818000000007444,1.8971000000014868,1.9159999999999968,1.929399999998509,1.946399999998512,1.9623999999985102,1.9791000000014876,2.001899999998507,2.0124999999999957,2.029100000001492,2.0456999999992505,2.0623999999985116,2.079199999999254,2.0971999999992548,2.1158999999985113,2.129100000001486,2.1458999999985053,2.1663000000007457,2.1918000000007467,2.201499999999996,2.2213999999985106,2.2436000000014857,2.2501000000014884,2.2624999999999957,2.279100000001492,2.2959999999999994,2.3123999999985116,2.329100000001489,2.3456999999992547,2.3626000000014855,2.3791999999992512,2.401699999999252,2.412399999998506,2.4291000000014904,2.4458000000007445,2.4624999999999986,2.4791000000014876,2.4958999999985068,2.5124999999999957,2.529199999999257,2.549199999999253,2.5634999999999977,2.579100000001489,2.595899999998508,2.612499999999997,2.629100000001486,2.6458000000007473,2.662399999998506,2.679000000000002,2.695699999999256,2.7123999999985102,2.7291999999992527,2.7456999999992533,2.7624999999999957,2.779199999999257,2.799899999998509,2.813199999999256,2.829100000001489,2.8456999999992547,2.862399999998509,2.878999999999998,2.8958000000007473,2.9125000000000014,2.9291000000014904,2.9458000000007445,2.9623999999985102,2.9791000000014876,2.999300000000744,3.0159999999999982,3.0293999999985104,3.0456999999992505,3.0625,3.0796999999992565,3.095800000000743,3.112399999998509,3.129100000001486]","[1733130416851,1733130416862,1733130416879,1733130416896,1733130416912,1733130416929,1733130416946,1733130416962,1733130416979,1733130416996,1733130417012,1733130417029,1733130417049,1733130417062,1733130417079,1733130417096,1733130417112,1733130417129,1733130417146,1733130417163,1733130417180,1733130417196,1733130417212,1733130417229,1733130417246,1733130417267,1733130417282,1733130417296,1733130417312,1733130417329,1733130417346,1733130417362,1733130417379,1733130417396,1733130417412,1733130417429,1733130417446,1733130417462,1733130417479,1733130417496,1733130417512,1733130417529,1733130417546,1733130417562,1733130417579,1733130417596,1733130417612,1733130417630,1733130417646,1733130417662,1733130417679,1733130417696,1733130417712,1733130417729,1733130417746,1733130417762,1733130417779,1733130417796,1733130417812,1733130417829,1733130417849,1733130417862,1733130417879,1733130417896,1733130417912,1733130417929,1733130417950,1733130417965,1733130417982,1733130417996,1733130418013,1733130418029,1733130418047,1733130418062,1733130418079,1733130418096,1733130418112,1733130418129,1733130418147,1733130418162,1733130418179,1733130418196,1733130418213,1733130418229,1733130418250,1733130418266,1733130418280,1733130418296,1733130418312,1733130418331,1733130418346,1733130418362,1733130418383,1733130418398,1733130418414,1733130418429,1733130418450,1733130418462,1733130418479,1733130418496,1733130418517,1733130418532,1733130418548,1733130418565,1733130418579,1733130418597,1733130418612,1733130418632,1733130418651,1733130418667,1733130418682,1733130418699,1733130418712,1733130418732,1733130418747,1733130418766,1733130418779,1733130418796,1733130418812,1733130418829,1733130418852,1733130418862,1733130418879,1733130418896,1733130418912,1733130418929,1733130418947,1733130418966,1733130418979,1733130418996,1733130419016,1733130419042,1733130419051,1733130419071,1733130419093,1733130419100,1733130419112,1733130419129,1733130419146,1733130419162,1733130419179,1733130419196,1733130419212,1733130419229,1733130419252,1733130419262,1733130419279,1733130419296,1733130419312,1733130419329,1733130419346,1733130419362,1733130419379,1733130419399,1733130419413,1733130419429,1733130419446,1733130419462,1733130419479,1733130419496,1733130419512,1733130419529,1733130419546,1733130419562,1733130419579,1733130419596,1733130419612,1733130419629,1733130419650,1733130419663,1733130419679,1733130419696,1733130419712,1733130419729,1733130419746,1733130419762,1733130419779,1733130419796,1733130419812,1733130419829,1733130419849,1733130419866,1733130419879,1733130419896,1733130419912,1733130419929,1733130419946,1733130419962,1733130419979]","[[754,818.3],[754,818.3],[773.8,827.4],[798.5,816],[817.3,787.3],[833.1,760.8],[853.1,731.7],[868.6,703.6],[867.1,700.7],[880.7,704.6],[903.2,689.5],[914.5,684.6],[925.8,679.7],[925.8,679.7],[926.8,699.1],[915.5,724.2],[897.4,736.7],[885.2,749.5],[877.5,761.3],[860.9,784],[838.9,780.5],[814,781.6],[807.6,753.1],[793.9,744.7],[790.3,731.6],[799,712.8],[807.2,718.7],[818,725.3],[828.8,731.9],[816.8,729.6],[816.8,729.6],[795.1,746.7],[766.9,738.8],[726,733.7],[692.4,708.5],[644,698.3],[644,698.3],[595.6,688.1],[577.1,673],[549.6,660],[503,642.6],[504.5,629.4],[511.5,610.6],[511.6,635.1],[511.7,672.7],[511.1,706.2],[520.6,725.6],[544.5,740.4],[539.2,766],[534.4,788.5],[590.3,801.6],[613.8,803.3],[631.8,810.6],[676.3,806.5],[720.8,802.4],[783,780.9],[848.4,750.7],[897.5,747.4],[956.2,723.9],[1017.3,706.5],[1036.8,702.9],[1036.8,702.9],[1058.2,707.1],[1077.8,717.7],[1087.2,716.8],[1106.9,712.2],[1109.6,729.1],[1092.6,758.9],[1078.9,768.8],[1077.5,762.3],[1077.4,740.6],[1058.3,752.7],[1051.9,762.8],[1047.3,766.5],[1066.2,767.1],[1074.8,771.4],[1083.4,775.7],[1093.1,774.6],[1109.7,764],[1109.4,782.4],[1105.4,809.9],[1130.4,790.3],[1154.3,772.7],[1171.1,758.6],[1155.6,770.1],[1140.1,769.9],[1124.6,769.7],[1113.1,771.6],[1093.3,780.6],[1067.2,770.2],[1091.2,719.6],[1090,697],[1086.7,679.9],[1102.1,645.2],[1120.6,606],[1139.1,578.5],[1139.1,578.5],[1161.5,536.5],[1191.8,506.9],[1222.1,477.3],[1263.3,454.5],[1244.4,446.9],[1230.6,419.2],[1230.6,419.2],[1223,406.3],[1209.7,391.9],[1195,370],[1147,360],[1131.4,365.4],[1098.3,347.4],[1080.5,329.8],[1080.5,329.8],[1055.4,317],[1028.3,332.1],[1015.8,344.5],[1015.8,344.5],[1005,346.4],[988.3,360.1],[978.7,363.3],[1005,360.4],[998.6,346.2],[998.6,346.2],[1013.2,342.1],[1031.2,339.5],[1056.5,332.1],[1071.1,340.8],[1076.9,339.8],[1079.9,333.9],[1079.9,333.9],[1082.9,331.8],[1102.8,325.9],[1102.8,325.9],[1102.7,324.9],[1102.7,324.9],[1138.7,339.1],[1138.7,339.1],[1117.6,346.3],[1112.9,356.8],[1108.2,367.3],[1107.5,346.2],[1123.8,352.2],[1135,358.8],[1135,358.8],[1146.2,365.4],[1138.3,379.8],[1138.3,379.8],[1147.8,383.5],[1147.8,383.5],[1145.6,365.3],[1145.6,365.3],[1174.2,369.9],[1174.2,369.9],[1149.6,389.5],[1160.7,375.6],[1170.6,383.7],[1183.3,374.9],[1183.3,374.9],[1201.6,370.4],[1216.6,369.8],[1210.2,351.9],[1203.8,334],[1183.1,333.7],[1179.3,332.4],[1191.9,312.8],[1168.6,325.3],[1178.5,304],[1172.9,290.3],[1159.1,279.8],[1137.7,270.4],[1139.9,274.3],[1137.3,281.9],[1121,289],[1116.9,279.8],[1116.4,290.1],[1116.1,301.8],[1088.4,318.1],[1032.9,356.6],[987.1,407.4],[952.2,453.2],[913.6,483.2],[879.8,509.5],[839.8,548.4],[797,588.8],[776,568.4],[750.3,548.9],[726.4,564.9],[730.3,558.7],[737.8,530.8],[741.9,508.3]]","[0,0.37864299999999995]","[0.37864299999999995,0.37864299999999995]","[-0.37864299999999995,-0.37864299999999995]","[-0.37864299999999995,0]","[0,-0.37864299999999995]","[0.37864299999999995,-0.37864299999999995]","[0,0]","[0.37864299999999995,0]",0,1,1,1,1,2,Laptop,13,7,11,1
