inst1_resp.keys,inst1_resp.rt,calibrationMouse.x,calibrationMouse.y,calibrationMouse.leftButton,calibrationMouse.midButton,calibrationMouse.rightButton,calibrationClick.x,calibrationClick.y,calibrationClick.leftButton,calibrationClick.midButton,calibrationClick.rightButton,trialsc.thisRepN,trialsc.thisTrialN,trialsc.thisN,trialsc.thisIndex,trialsc.ran,calibration_x,calibration_y,participant,session,date,expName,psychopyVersion,OS,frameRate,calibrationClick.clicked_name,ScreenRes_pixels,mouse_2.x,mouse_2.y,mouse_2.leftButton,mouse_2.midButton,mouse_2.rightButton,mouse_2.time,mouse_2.clicked_name,Camera_pixels,mouse.x,mouse.y,mouse.leftButton,mouse.midButton,mouse.rightButton,mouse.time,mouse.clicked_name,Choice,Trial,TrialDuration,MOUSE_GAZE,ET_GAZE,ET_GAZE_x_T,time,unixTime,ET_GAZE_NF,Loc_Option1_label,Loc_Option2_label,Loc_Cost_label,Loc_Qual_label,Loc_Option1_cost,Loc_Option2_cost,Loc_Option1_quality,Loc_Option2_quality,trials.thisRepN,trials.thisTrialN,trials.thisN,trials.thisIndex,trials.ran,Block,Device,cost1,qual1,cost2,qual2
space,3.8846,0.091666667,0.616666667,1,0,0,-0.003125,-0.653703704,1,0,0,0,0,0,9,1,0,-0.67,17,001,2024-12-02_12h29.34.008,Attention_exp_legacy,2023.1.0,Win32,60.24096386,,,,,,,,,,,,,,,,,,,,,,,,,,,,,,,,,,,,,,,,,,,,,
,,,,,,,-0.004166667,-0.342592593,1,0,0,0,1,1,10,1,0,-0.33,17,001,2024-12-02_12h29.34.008,Attention_exp_legacy,2023.1.0,Win32,60.24096386,,,,,,,,,,,,,,,,,,,,,,,,,,,,,,,,,,,,,,,,,,,,,
,,,,,,,-0.666666667,-0.659259259,1,0,0,0,2,2,0,1,-0.67,-0.67,17,001,2024-12-02_12h29.34.008,Attention_exp_legacy,2023.1.0,Win32,60.24096386,,,,,,,,,,,,,,,,,,,,,,,,,,,,,,,,,,,,,,,,,,,,,
,,,,,,,-0.328125,0.348148148,1,0,0,0,3,3,7,1,-0.33,0.33,17,001,2024-12-02_12h29.34.008,Attention_exp_legacy,2023.1.0,Win32,60.24096386,,,,,,,,,,,,,,,,,,,,,,,,,,,,,,,,,,,,,,,,,,,,,
,,,,,,,-0.326041667,-0.32962963,1,0,0,0,4,4,5,1,-0.33,-0.33,17,001,2024-12-02_12h29.34.008,Attention_exp_legacy,2023.1.0,Win32,60.24096386,calibration_square,,,,,,,,,,,,,,,,,,,,,,,,,,,,,,,,,,,,,,,,,,,,
,,,,,,,0.323958333,-0.7,1,0,0,0,5,5,14,1,0.33,-0.67,17,001,2024-12-02_12h29.34.008,Attention_exp_legacy,2023.1.0,Win32,60.24096386,,,,,,,,,,,,,,,,,,,,,,,,,,,,,,,,,,,,,,,,,,,,,
,,,,,,,0.65,-0.674074074,1,0,0,0,6,6,20,1,0.67,-0.67,17,001,2024-12-02_12h29.34.008,Attention_exp_legacy,2023.1.0,Win32,60.24096386,,,,,,,,,,,,,,,,,,,,,,,,,,,,,,,,,,,,,,,,,,,,,
,,,,,,,0.366666667,0.655555556,1,0,0,0,7,7,18,1,0.33,0.67,17,001,2024-12-02_12h29.34.008,Attention_exp_legacy,2023.1.0,Win32,60.24096386,,,,,,,,,,,,,,,,,,,,,,,,,,,,,,,,,,,,,,,,,,,,,
,,,,,,,-0.672916667,-0.35,1,0,0,0,8,8,1,1,-0.67,-0.33,17,001,2024-12-02_12h29.34.008,Attention_exp_legacy,2023.1.0,Win32,60.24096386,,,,,,,,,,,,,,,,,,,,,,,,,,,,,,,,,,,,,,,,,,,,,
,,,,,,,-0.354166667,-0.662962963,1,0,0,0,9,9,4,1,-0.33,-0.67,17,001,2024-12-02_12h29.34.008,Attention_exp_legacy,2023.1.0,Win32,60.24096386,,,,,,,,,,,,,,,,,,,,,,,,,,,,,,,,,,,,,,,,,,,,,
,,,,,,,-0.776041667,0.038888889,1,0,0,0,10,10,2,1,-0.67,0,17,001,2024-12-02_12h29.34.008,Attention_exp_legacy,2023.1.0,Win32,60.24096386,,,,,,,,,,,,,,,,,,,,,,,,,,,,,,,,,,,,,,,,,,,,,
,,,,,,,-0.3375,0.653703704,1,0,0,0,11,11,8,1,-0.33,0.67,17,001,2024-12-02_12h29.34.008,Attention_exp_legacy,2023.1.0,Win32,60.24096386,,,,,,,,,,,,,,,,,,,,,,,,,,,,,,,,,,,,,,,,,,,,,
,,,,,,,0.013541667,-0.001851852,1,0,0,0,12,12,11,1,0,0,17,001,2024-12-02_12h29.34.008,Attention_exp_legacy,2023.1.0,Win32,60.24096386,,,,,,,,,,,,,,,,,,,,,,,,,,,,,,,,,,,,,,,,,,,,,
,,,,,,,-0.676041667,0.333333333,1,0,0,0,13,13,3,1,-0.67,0.33,17,001,2024-12-02_12h29.34.008,Attention_exp_legacy,2023.1.0,Win32,60.24096386,calibration_square,,,,,,,,,,,,,,,,,,,,,,,,,,,,,,,,,,,,,,,,,,,,
,,,,,,,0.31875,0.314814815,1,0,0,0,14,14,17,1,0.33,0.33,17,001,2024-12-02_12h29.34.008,Attention_exp_legacy,2023.1.0,Win32,60.24096386,,,,,,,,,,,,,,,,,,,,,,,,,,,,,,,,,,,,,,,,,,,,,
,,,,,,,0.682291667,0.681481481,1,0,0,0,15,15,19,1,0.67,0.67,17,001,2024-12-02_12h29.34.008,Attention_exp_legacy,2023.1.0,Win32,60.24096386,,,,,,,,,,,,,,,,,,,,,,,,,,,,,,,,,,,,,,,,,,,,,
,,,,,,,0.004166667,0.32037037,1,0,0,0,16,16,12,1,0,0.33,17,001,2024-12-02_12h29.34.008,Attention_exp_legacy,2023.1.0,Win32,60.24096386,calibration_square,,,,,,,,,,,,,,,,,,,,,,,,,,,,,,,,,,,,,,,,,,,,
,,,,,,,0.344791667,-0.35,1,0,0,0,17,17,15,1,0.33,-0.33,17,001,2024-12-02_12h29.34.008,Attention_exp_legacy,2023.1.0,Win32,60.24096386,,,,,,,,,,,,,,,,,,,,,,,,,,,,,,,,,,,,,,,,,,,,,
,,,,,,,0.33125,0.012962963,1,0,0,0,18,18,16,1,0.33,0,17,001,2024-12-02_12h29.34.008,Attention_exp_legacy,2023.1.0,Win32,60.24096386,,,,,,,,,,,,,,,,,,,,,,,,,,,,,,,,,,,,,,,,,,,,,
,,,,,,,-0.31875,-0.014814815,1,0,0,0,19,19,6,1,-0.33,0,17,001,2024-12-02_12h29.34.008,Attention_exp_legacy,2023.1.0,Win32,60.24096386,,,,,,,,,,,,,,,,,,,,,,,,,,,,,,,,,,,,,,,,,,,,,
,,,,,,,-0.004166667,0.653703704,1,0,0,0,20,20,13,1,0,0.67,17,001,2024-12-02_12h29.34.008,Attention_exp_legacy,2023.1.0,Win32,60.24096386,,,,,,,,,,,,,,,,,,,,,,,,,,,,,,,,,,,,,,,,,,,,,
,,,,,,,,,,,,,,,,,,,17,001,2024-12-02_12h29.34.008,Attention_exp_legacy,2023.1.0,Win32,60.24096386,,"[1920,1080]",[-0.003125],[-0.4888888888888889],[1],[0],[0],[0.8606999999997242],"[""StartButton""]","[640,480]",[0.027083333333333334],[0.35185185185185186],[1],[0],[0],[1.987899999999911],"[""Option1_label""]",Option1_label,1,3.0117,"[[0.12708333333333333,0.046296296296296294],[0.12708333333333333,0.046296296296296294],[0.12708333333333333,0.046296296296296294],[0.12708333333333333,0.046296296296296294],[0.12708333333333333,0.046296296296296294],[0.12708333333333333,0.046296296296296294],[0.12708333333333333,0.046296296296296294],[0.12708333333333333,0.046296296296296294],[0.12708333333333333,0.046296296296296294],[0.12708333333333333,0.046296296296296294],[0.12708333333333333,0.046296296296296294],[0.12708333333333333,0.046296296296296294],[0.12708333333333333,0.046296296296296294],[0.12708333333333333,0.046296296296296294],[0.12708333333333333,0.046296296296296294],[0.12708333333333333,0.046296296296296294],[0.12708333333333333,0.046296296296296294],[0.12708333333333333,0.046296296296296294],[0.12708333333333333,0.046296296296296294],[0.12708333333333333,0.046296296296296294],[0.12708333333333333,0.046296296296296294],[0.12708333333333333,0.046296296296296294],[0.12708333333333333,0.046296296296296294],[0.12708333333333333,0.046296296296296294],[0.12708333333333333,0.046296296296296294],[0.12708333333333333,0.046296296296296294],[0.12708333333333333,0.046296296296296294],[0.12708333333333333,0.046296296296296294],[0.12708333333333333,0.046296296296296294],[0.12708333333333333,0.046296296296296294],[0.12708333333333333,0.046296296296296294],[0.12708333333333333,0.046296296296296294],[0.12708333333333333,0.046296296296296294],[0.12708333333333333,0.046296296296296294],[0.12708333333333333,0.046296296296296294],[0.12708333333333333,0.046296296296296294],[0.12708333333333333,0.046296296296296294],[0.12708333333333333,0.046296296296296294],[0.12708333333333333,0.046296296296296294],[0.12708333333333333,0.046296296296296294],[0.12708333333333333,0.046296296296296294],[0.12708333333333333,0.046296296296296294],[0.12708333333333333,0.046296296296296294],[0.12708333333333333,0.046296296296296294],[0.12708333333333333,0.046296296296296294],[0.12708333333333333,0.046296296296296294],[0.12708333333333333,0.046296296296296294],[0.12708333333333333,0.046296296296296294],[0.12708333333333333,0.046296296296296294],[0.12708333333333333,0.046296296296296294],[0.12708333333333333,0.046296296296296294],[0.12708333333333333,0.046296296296296294],[0.12708333333333333,0.046296296296296294],[0.12708333333333333,0.046296296296296294],[0.12708333333333333,0.046296296296296294],[0.12708333333333333,0.046296296296296294],[0.12708333333333333,0.046296296296296294],[0.12708333333333333,0.046296296296296294],[0.12708333333333333,0.046296296296296294],[0.12708333333333333,0.046296296296296294],[0.12708333333333333,0.046296296296296294],[0.12708333333333333,0.046296296296296294],[0.12708333333333333,0.046296296296296294],[0.12708333333333333,0.046296296296296294],[0.12708333333333333,0.046296296296296294],[0.12708333333333333,0.046296296296296294],[0.12708333333333333,0.046296296296296294],[0.12708333333333333,0.046296296296296294],[0.12708333333333333,0.046296296296296294],[0.12708333333333333,0.046296296296296294],[0.12708333333333333,0.046296296296296294],[0.12708333333333333,0.046296296296296294],[0.12708333333333333,0.046296296296296294],[0.12708333333333333,0.046296296296296294],[0.12708333333333333,0.046296296296296294],[0.12708333333333333,0.046296296296296294],[0.12708333333333333,0.046296296296296294],[0.12708333333333333,0.046296296296296294],[0.12708333333333333,0.046296296296296294],[0.12708333333333333,0.046296296296296294],[0.12708333333333333,0.046296296296296294],[0.12708333333333333,0.05555555555555555],[0.125,0.06666666666666667],[0.12291666666666666,0.07222222222222222],[0.12291666666666666,0.07777777777777778],[0.12083333333333333,0.08518518518518518],[0.11979166666666667,0.09814814814814815],[0.11875,0.10740740740740741],[0.11875,0.11851851851851852],[0.11875,0.12962962962962962],[0.11979166666666667,0.14444444444444443],[0.125,0.15925925925925927],[0.13125,0.17222222222222222],[0.14166666666666666,0.18518518518518517],[0.1625,0.2],[0.19375,0.21851851851851853],[0.23645833333333333,0.2351851851851852],[0.2760416666666667,0.2462962962962963],[0.31666666666666665,0.2574074074074074],[0.35208333333333336,0.26481481481481484],[0.37604166666666666,0.27037037037037037],[0.38229166666666664,0.2759259259259259],[0.384375,0.2759259259259259],[0.384375,0.2759259259259259],[0.384375,0.2759259259259259],[0.384375,0.2759259259259259],[0.384375,0.2759259259259259],[0.37604166666666666,0.2777777777777778],[0.34791666666666665,0.28703703703703703],[0.303125,0.29814814814814816],[0.23645833333333333,0.31296296296296294],[0.165625,0.3314814814814815],[0.08854166666666667,0.34629629629629627],[0.058333333333333334,0.34814814814814815],[0.03854166666666667,0.34814814814814815],[0.030208333333333334,0.35185185185185186],[0.028125,0.35185185185185186],[0.027083333333333334,0.35185185185185186],[0.027083333333333334,0.35185185185185186],[0.027083333333333334,0.35185185185185186],[0.027083333333333334,0.35185185185185186],[0.027083333333333334,0.35185185185185186],[0.027083333333333334,0.35185185185185186],[0.027083333333333334,0.35185185185185186],[0.027083333333333334,0.35185185185185186],[0.027083333333333334,0.35185185185185186],[0.027083333333333334,0.35185185185185186],[0.027083333333333334,0.35185185185185186],[0.027083333333333334,0.35185185185185186],[0.027083333333333334,0.35185185185185186],[0.027083333333333334,0.35185185185185186],[0.027083333333333334,0.35185185185185186],[0.027083333333333334,0.35185185185185186],[0.027083333333333334,0.35185185185185186],[0.027083333333333334,0.35185185185185186],[0.027083333333333334,0.35185185185185186],[0.027083333333333334,0.35185185185185186],[0.027083333333333334,0.35185185185185186],[0.027083333333333334,0.35185185185185186],[0.027083333333333334,0.35185185185185186],[0.027083333333333334,0.35185185185185186],[0.027083333333333334,0.35185185185185186],[0.027083333333333334,0.35185185185185186],[0.027083333333333334,0.35185185185185186],[0.027083333333333334,0.35185185185185186],[0.027083333333333334,0.35185185185185186],[0.027083333333333334,0.35185185185185186],[0.027083333333333334,0.35185185185185186],[0.027083333333333334,0.35185185185185186],[0.027083333333333334,0.35185185185185186],[0.027083333333333334,0.35185185185185186],[0.027083333333333334,0.35185185185185186],[0.027083333333333334,0.35185185185185186],[0.027083333333333334,0.35185185185185186],[0.027083333333333334,0.35185185185185186],[0.027083333333333334,0.35185185185185186],[0.027083333333333334,0.35185185185185186],[0.027083333333333334,0.35185185185185186],[0.027083333333333334,0.35185185185185186],[0.027083333333333334,0.35185185185185186],[0.027083333333333334,0.35185185185185186],[0.027083333333333334,0.35185185185185186],[0.027083333333333334,0.35185185185185186],[0.027083333333333334,0.35185185185185186],[0.027083333333333334,0.35185185185185186],[0.027083333333333334,0.35185185185185186],[0.027083333333333334,0.35185185185185186],[0.027083333333333334,0.35185185185185186],[0.027083333333333334,0.35185185185185186],[0.027083333333333334,0.35185185185185186],[0.027083333333333334,0.35185185185185186],[0.027083333333333334,0.35185185185185186],[0.027083333333333334,0.35185185185185186],[0.027083333333333334,0.35185185185185186],[0.027083333333333334,0.35185185185185186],[0.027083333333333334,0.35185185185185186],[0.027083333333333334,0.35185185185185186],[0.027083333333333334,0.35185185185185186],[0.027083333333333334,0.35185185185185186],[0.027083333333333334,0.35185185185185186],[0.027083333333333334,0.35185185185185186]]","[[0.15729166666666666,0.7918518518518519],[0.15729166666666666,0.7918518518518519],[0.1642708333333334,0.6727777777777777],[0.16083333333333344,0.6455555555555555],[0.12156250000000005,0.5868518518518518],[0.10104166666666667,0.6007407407407407],[0.09708333333333338,0.5694444444444444],[0.11500000000000009,0.5733333333333334],[0.09760416666666671,0.5542592592592592],[0.09697916666666657,0.5924074074074074],[0.07593750000000009,0.5122222222222222],[0.07447916666666667,0.5446296296296297],[0.0775000000000001,0.5009259259259259],[0.06083333333333331,0.4479629629629629],[0.07625000000000005,0.4368518518518518],[0.058854166666666666,0.37518518518518523],[0.035208333333333286,0.34092592592592597],[0.01552083333333331,0.3014814814814814],[0.02510416666666669,0.22981481481481486],[0.027499999999999976,0.22148148148148153],[0.04864583333333338,0.2542592592592592],[0.04104166666666664,0.21574074074074073],[0.030208333333333334,0.17703703703703708],[0.019791666666666666,0.14444444444444443],[0.019791666666666666,0.14444444444444443],[0.006458333333333381,0.10037037037037046],[0.006458333333333381,0.10037037037037046],[-0.00604166666666662,0.07740740740740733],[-0.01875,0.06092592592592588],[-0.04520833333333331,0.006666666666666709],[-0.06625000000000002,0.01055555555555564],[-0.08416666666666663,-0.06666666666666667],[-0.10385416666666672,-0.0705555555555556],[-0.1014583333333333,-0.10759259259259263],[-0.09343750000000005,-0.08333333333333333],[-0.07208333333333337,-0.05092592592592592],[-0.08364583333333328,-0.07462962962962966],[-0.07604166666666666,-0.10611111111111113],[-0.04500000000000005,-0.07240740740740745],[-0.02322916666666662,-0.009814814814814731],[-0.04208333333333331,-0.003888888888888931],[-0.021354166666666667,0.0003703703703704546],[-0.005937500000000048,-0.018703703703703747],[0.021979166666666692,-0.009814814814814731],[0.03333333333333333,-0.07166666666666664],[0.05499999999999995,-0.12074074074074072],[0.0896874999999999,-0.05907407407407403],[0.13562500000000005,-0.014629629629629588],[0.1814583333333334,-0.020740740740740823],[0.21614583333333334,-0.04092592592592597],[0.2700000000000001,-0.05703703703703706],[0.2894791666666668,-0.055185185185185205],[0.3160416666666668,-0.02962962962962963],[0.3342708333333334,-0.039074074074074115],[0.33093750000000005,-0.017407407407407365],[0.3232291666666666,-0.013518518518518435],[0.3056250000000001,-0.01629629629629621],[0.26666666666666666,0.011111111111111112],[0.20833333333333334,0.009444444444444486],[0.16958333333333328,0.01648148148148144],[0.14270833333333333,-0.006851851851851936],[0.11583333333333339,-0.0301851851851851],[0.0806250000000001,-0.009814814814814731],[-0.02000000000000005,-0.0242592592592593],[-0.09468749999999998,-0.0448148148148149],[-0.09468749999999998,-0.0448148148148149],[-0.17614583333333336,-0.062037037037037036],[-0.2169791666666666,-0.05351851851851848],[-0.26197916666666665,-0.10907407407407403],[-0.3141666666666667,-0.10203703703703708],[-0.3540625,-0.06888888888888887],[-0.40750000000000003,-0.04981481481481477],[-0.4609375,-0.030740740740740784],[-0.4997916666666667,-0.04722222222222222],[-0.49927083333333333,-0.018518518518518517],[-0.49875,0.010185185185185186],[-0.49593750000000003,0.04407407407407399],[-0.5217708333333333,0.020740740740740823],[-0.5388541666666666,0.020740740740740823],[-0.5329166666666667,0.013518518518518435],[-0.5415625,-0.03092592592592601],[-0.5478124999999999,-0.04055555555555551],[-0.5602083333333333,-0.016111111111111194],[-0.5859375,-0.0235185185185186],[-0.5511458333333333,0.010370370370370412],[-0.5163541666666667,0.04425925925925922],[-0.4764583333333333,0.036481481481481566],[-0.40031249999999996,0.0242592592592593],[-0.36875,0.09222222222222214],[-0.32781250000000006,0.0977777777777777],[-0.3003124999999999,0.08777777777777773],[-0.2794791666666666,0.13333333333333333],[-0.25677083333333334,0.16814814814814807],[-0.21322916666666672,0.14759259259259266],[-0.21104166666666668,0.09962962962962954],[-0.21260416666666668,0.013888888888888888],[-0.17781250000000004,0.013333333333333417],[-0.15052083333333333,0.0235185185185186],[-0.08322916666666665,-0.005740740740740783],[-0.08322916666666665,-0.005740740740740783],[-0.03458333333333338,-0.03314814814814811],[-0.03458333333333338,-0.03314814814814811],[0.028437499999999952,0.014629629629629588],[0.028437499999999952,0.014629629629629588],[0.11531250000000005,-0.03129629629629625],[0.11531250000000005,-0.03129629629629625],[0.2133333333333333,-0.10759259259259263],[0.2133333333333333,-0.10759259259259263],[0.2915625000000001,-0.1242592592592593],[0.2915625000000001,-0.1242592592592593],[0.3636458333333332,-0.15055555555555558],[0.3636458333333332,-0.15055555555555558],[0.43093750000000003,-0.14962962962962964],[0.43093750000000003,-0.14962962962962964],[0.44166666666666665,-0.21500000000000005],[0.4111458333333334,-0.22592592592592592],[0.3765625,-0.24722222222222223],[0.3601041666666667,-0.2383333333333333],[0.3462500000000001,-0.29000000000000004],[0.29635416666666664,-0.28055555555555556],[0.23958333333333334,-0.2640740740740741],[0.21135416666666676,-0.3037037037037037],[0.1892708333333334,-0.33370370370370367],[0.14697916666666658,-0.32037037037037036],[0.12947916666666662,-0.2918518518518519],[0.10041666666666677,-0.3037037037037037],[0.1359375,-0.37833333333333335],[0.15739583333333323,-0.44351851851851853],[0.21749999999999994,-0.5516666666666666],[0.29572916666666677,-0.6731481481481482],[0.34500000000000003,-0.7229629629629629],[0.3632291666666667,-0.7198148148148148],[0.35989583333333336,-0.727962962962963],[0.3841666666666666,-0.7914814814814815],[0.4521874999999999,-0.8538888888888889],[0.5159374999999999,-0.9048148148148148],[0.4953125,-0.8688888888888888],[0.4984375,-0.8444444444444444],[0.4397916666666667,-0.7527777777777778],[0.41437499999999994,-0.7051851851851852],[0.4096874999999999,-0.7192592592592593],[0.40177083333333335,-0.6627777777777777],[0.36697916666666663,-0.595],[0.39041666666666663,-0.5196296296296297],[0.3648958333333333,-0.4462962962962963],[0.35791666666666655,-0.41629629629629633],[0.37312500000000004,-0.40018518518518525],[0.3645833333333333,-0.3725925925925926],[0.3645833333333333,-0.3725925925925926],[0.3943749999999999,-0.3846296296296296],[0.3865624999999999,-0.37518518518518523],[0.38697916666666665,-0.3757407407407407],[0.40635416666666657,-0.412962962962963],[0.46729166666666655,-0.44351851851851853],[0.44479166666666664,-0.4594444444444445],[0.4222916666666668,-0.47537037037037033],[0.4066666666666668,-0.5007407407407407],[0.3927083333333333,-0.5259259259259259],[0.3814583333333334,-0.5522222222222222],[0.37947916666666665,-0.577962962962963],[0.3820833333333333,-0.5762962962962963],[0.3805208333333333,-0.5316666666666667],[0.3646874999999999,-0.522037037037037],[0.30750000000000005,-0.5140740740740741],[0.2765625,-0.49444444444444446],[0.24864583333333337,-0.47444444444444445],[0.24802083333333325,-0.4148148148148148],[0.2178124999999999,-0.35351851851851845],[0.1734375,-0.2844444444444445],[0.11802083333333328,-0.21962962962962967],[0.07208333333333337,-0.17481481481481478],[0.020937500000000022,-0.15851851851851856],[-0.042708333333333334,-0.1361111111111111],[-0.06145833333333333,-0.10203703703703708],[-0.07124999999999998,-0.06388888888888888],[-0.0765625,-0.04129629629629621],[-0.12083333333333333,-0.09685185185185187],[-0.12458333333333335,-0.08981481481481482],[-0.11572916666666669,-0.10944444444444448],[-0.11041666666666666,-0.05129629629629638],[-0.12083333333333333,0.008148148148148106]]","[[0.15729166666666666,0.7918518518518519,0.000200000000184275],[0.15729166666666666,0.7918518518518519,0.03740000000037469],[0.1642708333333334,0.6727777777777777,0.04510000000009029],[0.16083333333333344,0.6455555555555555,0.061700000000186606],[0.12156250000000005,0.5868518518518518,0.07860000000009393],[0.10104166666666667,0.6007407407407407,0.09510000000009455],[0.09708333333333338,0.5694444444444444,0.11180000000027945],[0.11500000000000009,0.5733333333333334,0.12840000000036866],[0.09760416666666671,0.5542592592592592,0.14540000000037168],[0.09697916666666657,0.5924074074074074,0.1618000000002766],[0.07593750000000009,0.5122222222222222,0.17840000000037293],[0.07447916666666667,0.5446296296296297,0.19530000000028025],[0.0775000000000001,0.5009259259259259,0.21180000000028087],[0.06083333333333331,0.4479629629629629,0.22840000000037008],[0.07625000000000005,0.4368518518518518,0.24510000000009313],[0.058854166666666666,0.37518518518518523,0.26490000000037384],[0.035208333333333286,0.34092592592592597,0.27870000000018536],[0.01552083333333331,0.3014814814814814,0.29540000000037026],[0.02510416666666669,0.22981481481481486,0.3118000000002823],[0.027499999999999976,0.22148148148148153,0.3290000000000006],[0.04864583333333338,0.2542592592592592,0.34499999999999886],[0.04104166666666664,0.21574074074074073,0.3638000000002819],[0.030208333333333334,0.17703703703703708,0.37840000000036866],[0.019791666666666666,0.14444444444444443,0.3951000000000917],[0.019791666666666666,0.14444444444444443,0.420200000000186],[0.006458333333333381,0.10037037037037046,0.43430000000027746],[0.006458333333333381,0.10037037037037046,0.445100000000096],[-0.00604166666666662,0.07740740740740733,0.4618000000002809],[-0.01875,0.06092592592592588,0.4784000000003701],[-0.04520833333333331,0.006666666666666709,0.49510000000009313],[-0.06625000000000002,0.01055555555555564,0.5117000000001823],[-0.08416666666666663,-0.06666666666666667,0.5284000000003743],[-0.10385416666666672,-0.0705555555555556,0.5451000000000903],[-0.1014583333333333,-0.10759259259259263,0.5618000000002823],[-0.09343750000000005,-0.08333333333333333,0.5784000000003715],[-0.07208333333333337,-0.05092592592592592,0.5952000000001831],[-0.08364583333333328,-0.07462962962962966,0.6117000000001838],[-0.07604166666666666,-0.10611111111111113,0.6284000000003687],[-0.04500000000000005,-0.07240740740740745,0.644999999999996],[-0.02322916666666662,-0.009814814814814731,0.6624000000003747],[-0.04208333333333331,-0.003888888888888931,0.6784999999999997],[-0.021354166666666667,0.0003703703703704546,0.695100000000096],[-0.005937500000000048,-0.018703703703703747,0.7117000000001852],[0.021979166666666692,-0.009814814814814731,0.7284000000003701],[0.03333333333333333,-0.07166666666666664,0.7449999999999974],[0.05499999999999995,-0.12074074074074072,0.7622000000001847],[0.0896874999999999,-0.05907407407407403,0.7784000000003743],[0.13562500000000005,-0.014629629629629588,0.7950000000000017],[0.1814583333333334,-0.020740740740740823,0.8117000000001866],[0.21614583333333334,-0.04092592592592597,0.8284000000003715],[0.2700000000000001,-0.05703703703703706,0.8451000000000946],[0.2894791666666668,-0.055185185185185205,0.8652000000001863],[0.3160416666666668,-0.02962962962962963,0.8787000000001868],[0.3342708333333334,-0.039074074074074115,0.8954000000003717],[0.33093750000000005,-0.017407407407407365,0.9119000000003723],[0.3232291666666666,-0.013518518518518435,0.9284999999999997],[0.3056250000000001,-0.01629629629629621,0.945100000000096],[0.26666666666666666,0.011111111111111112,0.9619999999999962],[0.20833333333333334,0.009444444444444486,0.9784000000003701],[0.16958333333333328,0.01648148148148144,0.9951000000000931],[0.14270833333333333,-0.006851851851851936,1.0117000000001823],[0.11583333333333339,-0.0301851851851851,1.0284000000003743],[0.0806250000000001,-0.009814814814814731,1.0453000000002817],[-0.02000000000000005,-0.0242592592592593,1.0657000000001844],[-0.09468749999999998,-0.0448148148148149,1.0827000000001874],[-0.09468749999999998,-0.0448148148148149,1.0949999999999989],[-0.17614583333333336,-0.062037037037037036,1.1118000000002795],[-0.2169791666666666,-0.05351851851851848,1.1284000000003687],[-0.26197916666666665,-0.10907407407407403,1.1451000000000917],[-0.3141666666666667,-0.10203703703703708,1.161700000000188],[-0.3540625,-0.06888888888888887,1.178400000000373],[-0.40750000000000003,-0.04981481481481477,1.1950000000000003],[-0.4609375,-0.030740740740740784,1.2117000000001852],[-0.4997916666666667,-0.04722222222222222,1.22840000000037],[-0.49927083333333333,-0.018518518518518517,1.2449999999999974],[-0.49875,0.010185185185185186,1.2654999999999959],[-0.49593750000000003,0.04407407407407399,1.2789000000003696],[-0.5217708333333333,0.020740740740740823,1.2951000000000903],[-0.5388541666666666,0.020740740740740823,1.3117000000001866],[-0.5329166666666667,0.013518518518518435,1.3283000000002758],[-0.5415625,-0.03092592592592601,1.3449999999999989],[-0.5478124999999999,-0.04055555555555551,1.365000000000002],[-0.5602083333333333,-0.016111111111111194,1.3791000000000935],[-0.5859375,-0.0235185185185186,1.395300000000276],[-0.5511458333333333,0.010370370370370412,1.4119000000003723],[-0.5163541666666667,0.04425925925925922,1.431400000000373],[-0.4764583333333333,0.036481481481481566,1.4452000000001846],[-0.40031249999999996,0.0242592592592593,1.4624999999999986],[-0.36875,0.09222222222222214,1.4787000000001882],[-0.32781250000000006,0.0977777777777777,1.4973000000002799],[-0.3003124999999999,0.08777777777777773,1.5119000000003737],[-0.2794791666666666,0.13333333333333333,1.5299000000003744],[-0.25677083333333334,0.16814814814814807,1.547900000000375],[-0.21322916666666672,0.14759259259259266,1.564],[-0.21104166666666668,0.09962962962962954,1.5784999999999982],[-0.21260416666666668,0.013888888888888888,1.5974999999999966],[-0.17781250000000004,0.013333333333333417,1.6119000000003751],[-0.15052083333333333,0.0235185185185186,1.6289999999999978],[-0.08322916666666665,-0.005740740740740783,1.6452000000001874],[-0.08322916666666665,-0.005740740740740783,1.6648000000002767],[-0.03458333333333338,-0.03314814814814811,1.6784999999999997],[-0.03458333333333338,-0.03314814814814811,1.6952000000001846],[0.028437499999999952,0.014629629629629588,1.7164000000003696],[0.028437499999999952,0.014629629629629588,1.72840000000037],[0.11531250000000005,-0.03129629629629625,1.7449999999999974],[0.11531250000000005,-0.03129629629629625,1.761800000000278],[0.2133333333333333,-0.10759259259259263,1.7783000000002787],[0.2133333333333333,-0.10759259259259263,1.7977000000001837],[0.2915625000000001,-0.1242592592592593,1.8119999999999976],[0.2915625000000001,-0.1242592592592593,1.8284999999999982],[0.3636458333333332,-0.15055555555555558,1.8523000000002767],[0.3636458333333332,-0.15055555555555558,1.8627000000001885],[0.43093750000000003,-0.14962962962962964,1.8787000000001868],[0.43093750000000003,-0.14962962962962964,1.9006000000000896],[0.44166666666666665,-0.21500000000000005,1.9122000000001833],[0.4111458333333334,-0.22592592592592592,1.9299999999999997],[0.3765625,-0.24722222222222223,1.9452000000001846],[0.3601041666666667,-0.2383333333333333,1.963900000000372],[0.3462500000000001,-0.29000000000000004,1.97840000000037],[0.29635416666666664,-0.28055555555555556,1.9951000000000931],[0.23958333333333334,-0.2640740740740741,2.0117000000001823],[0.21135416666666676,-0.3037037037037037,2.0283000000002787],[0.1892708333333334,-0.33370370370370367,2.0450000000000017],[0.14697916666666658,-0.32037037037037036,2.063100000000091],[0.12947916666666662,-0.2918518518518519,2.078300000000276],[0.10041666666666677,-0.3037037037037037,2.09560000000009],[0.1359375,-0.37833333333333335,2.1117000000001838],[0.15739583333333323,-0.44351851851851853,2.1284000000003687],[0.21749999999999994,-0.5516666666666666,2.144999999999996],[0.29572916666666677,-0.6731481481481482,2.1621000000000947],[0.34500000000000003,-0.7229629629629629,2.1783000000002772],[0.3632291666666667,-0.7198148148148148,2.1950000000000003],[0.35989583333333336,-0.727962962962963,2.211700000000185],[0.3841666666666666,-0.7914814814814815,2.22840000000037],[0.4521874999999999,-0.8538888888888889,2.2449999999999974],[0.5159374999999999,-0.9048148148148148,2.265200000000185],[0.4953125,-0.8688888888888888,2.281500000000001],[0.4984375,-0.8444444444444444,2.295499999999997],[0.4397916666666667,-0.7527777777777778,2.3117000000001866],[0.41437499999999994,-0.7051851851851852,2.3290000000000006],[0.4096874999999999,-0.7192592592592593,2.344999999999999],[0.40177083333333335,-0.6627777777777777,2.3621000000000905],[0.36697916666666663,-0.595,2.3784000000003687],[0.39041666666666663,-0.5196296296296297,2.394999999999996],[0.3648958333333333,-0.4462962962962963,2.411700000000188],[0.35791666666666655,-0.41629629629629633,2.428400000000373],[0.37312500000000004,-0.40018518518518525,2.4450000000000003],[0.3645833333333333,-0.3725925925925926,2.461700000000185],[0.3645833333333333,-0.3725925925925926,2.4783000000002815],[0.3943749999999999,-0.3846296296296296,2.4949999999999974],[0.3865624999999999,-0.37518518518518523,2.5117000000001823],[0.38697916666666665,-0.3757407407407407,2.5284000000003743],[0.40635416666666657,-0.412962962962963,2.5451000000000903],[0.46729166666666655,-0.44351851851851853,2.5629000000003685],[0.44479166666666664,-0.4594444444444445,2.578300000000276],[0.4222916666666668,-0.47537037037037033,2.594999999999999],[0.4066666666666668,-0.5007407407407407,2.6117000000001838],[0.3927083333333333,-0.5259259259259259,2.6284000000003687],[0.3814583333333334,-0.5522222222222222,2.6451000000000917],[0.37947916666666665,-0.577962962962963,2.664999999999999],[0.3820833333333333,-0.5762962962962963,2.6792000000001863],[0.3805208333333333,-0.5316666666666667,2.695100000000096],[0.3646874999999999,-0.522037037037037,2.711700000000185],[0.30750000000000005,-0.5140740740740741,2.7283000000002815],[0.2765625,-0.49444444444444446,2.7449999999999974],[0.24864583333333337,-0.47444444444444445,2.7647000000001825],[0.24802083333333325,-0.4148148148148148,2.7792000000001877],[0.2178124999999999,-0.35351851851851845,2.795800000000277],[0.1734375,-0.2844444444444445,2.8117000000001866],[0.11802083333333328,-0.21962962962962967,2.8284000000003715],[0.07208333333333337,-0.17481481481481478,2.844999999999999],[0.020937500000000022,-0.15851851851851856,2.864400000000373],[-0.042708333333333334,-0.1361111111111111,2.87830000000028],[-0.06145833333333333,-0.10203703703703708,2.895300000000276],[-0.07124999999999998,-0.06388888888888888,2.911700000000188],[-0.0765625,-0.04129629629629621,2.928400000000373],[-0.12083333333333333,-0.09685185185185187,2.948999999999998],[-0.12458333333333335,-0.08981481481481482,2.9646000000000896],[-0.11572916666666669,-0.10944444444444448,2.97840000000037],[-0.11041666666666666,-0.05129629629629638,2.9949999999999974],[-0.12083333333333333,0.008148148148148106,3.0117000000001823]]","[0.000200000000184275,0.03740000000037469,0.04510000000009029,0.061700000000186606,0.07860000000009393,0.09510000000009455,0.11180000000027945,0.12840000000036866,0.14540000000037168,0.1618000000002766,0.17840000000037293,0.19530000000028025,0.21180000000028087,0.22840000000037008,0.24510000000009313,0.26490000000037384,0.27870000000018536,0.29540000000037026,0.3118000000002823,0.3290000000000006,0.34499999999999886,0.3638000000002819,0.37840000000036866,0.3951000000000917,0.420200000000186,0.43430000000027746,0.445100000000096,0.4618000000002809,0.4784000000003701,0.49510000000009313,0.5117000000001823,0.5284000000003743,0.5451000000000903,0.5618000000002823,0.5784000000003715,0.5952000000001831,0.6117000000001838,0.6284000000003687,0.644999999999996,0.6624000000003747,0.6784999999999997,0.695100000000096,0.7117000000001852,0.7284000000003701,0.7449999999999974,0.7622000000001847,0.7784000000003743,0.7950000000000017,0.8117000000001866,0.8284000000003715,0.8451000000000946,0.8652000000001863,0.8787000000001868,0.8954000000003717,0.9119000000003723,0.9284999999999997,0.945100000000096,0.9619999999999962,0.9784000000003701,0.9951000000000931,1.0117000000001823,1.0284000000003743,1.0453000000002817,1.0657000000001844,1.0827000000001874,1.0949999999999989,1.1118000000002795,1.1284000000003687,1.1451000000000917,1.161700000000188,1.178400000000373,1.1950000000000003,1.2117000000001852,1.22840000000037,1.2449999999999974,1.2654999999999959,1.2789000000003696,1.2951000000000903,1.3117000000001866,1.3283000000002758,1.3449999999999989,1.365000000000002,1.3791000000000935,1.395300000000276,1.4119000000003723,1.431400000000373,1.4452000000001846,1.4624999999999986,1.4787000000001882,1.4973000000002799,1.5119000000003737,1.5299000000003744,1.547900000000375,1.564,1.5784999999999982,1.5974999999999966,1.6119000000003751,1.6289999999999978,1.6452000000001874,1.6648000000002767,1.6784999999999997,1.6952000000001846,1.7164000000003696,1.72840000000037,1.7449999999999974,1.761800000000278,1.7783000000002787,1.7977000000001837,1.8119999999999976,1.8284999999999982,1.8523000000002767,1.8627000000001885,1.8787000000001868,1.9006000000000896,1.9122000000001833,1.9299999999999997,1.9452000000001846,1.963900000000372,1.97840000000037,1.9951000000000931,2.0117000000001823,2.0283000000002787,2.0450000000000017,2.063100000000091,2.078300000000276,2.09560000000009,2.1117000000001838,2.1284000000003687,2.144999999999996,2.1621000000000947,2.1783000000002772,2.1950000000000003,2.211700000000185,2.22840000000037,2.2449999999999974,2.265200000000185,2.281500000000001,2.295499999999997,2.3117000000001866,2.3290000000000006,2.344999999999999,2.3621000000000905,2.3784000000003687,2.394999999999996,2.411700000000188,2.428400000000373,2.4450000000000003,2.461700000000185,2.4783000000002815,2.4949999999999974,2.5117000000001823,2.5284000000003743,2.5451000000000903,2.5629000000003685,2.578300000000276,2.594999999999999,2.6117000000001838,2.6284000000003687,2.6451000000000917,2.664999999999999,2.6792000000001863,2.695100000000096,2.711700000000185,2.7283000000002815,2.7449999999999974,2.7647000000001825,2.7792000000001877,2.795800000000277,2.8117000000001866,2.8284000000003715,2.844999999999999,2.864400000000373,2.87830000000028,2.895300000000276,2.911700000000188,2.928400000000373,2.948999999999998,2.9646000000000896,2.97840000000037,2.9949999999999974,3.0117000000001823]","[1733113811918,1733113811948,1733113811956,1733113811973,1733113811989,1733113812006,1733113812023,1733113812039,1733113812056,1733113812073,1733113812089,1733113812106,1733113812123,1733113812139,1733113812156,1733113812176,1733113812190,1733113812206,1733113812223,1733113812240,1733113812256,1733113812275,1733113812289,1733113812306,1733113812331,1733113812345,1733113812356,1733113812373,1733113812389,1733113812406,1733113812423,1733113812439,1733113812456,1733113812473,1733113812489,1733113812506,1733113812523,1733113812539,1733113812556,1733113812573,1733113812589,1733113812606,1733113812623,1733113812639,1733113812656,1733113812673,1733113812689,1733113812706,1733113812723,1733113812739,1733113812756,1733113812776,1733113812790,1733113812806,1733113812823,1733113812839,1733113812856,1733113812873,1733113812889,1733113812906,1733113812923,1733113812944,1733113812961,1733113812981,1733113812998,1733113813011,1733113813027,1733113813044,1733113813061,1733113813077,1733113813094,1733113813110,1733113813127,1733113813144,1733113813160,1733113813181,1733113813194,1733113813211,1733113813227,1733113813244,1733113813260,1733113813280,1733113813295,1733113813311,1733113813327,1733113813347,1733113813361,1733113813378,1733113813394,1733113813413,1733113813427,1733113813445,1733113813463,1733113813479,1733113813494,1733113813513,1733113813527,1733113813544,1733113813561,1733113813580,1733113813594,1733113813611,1733113813632,1733113813644,1733113813660,1733113813677,1733113813694,1733113813713,1733113813727,1733113813744,1733113813768,1733113813778,1733113813794,1733113813816,1733113813828,1733113813845,1733113813861,1733113813879,1733113813894,1733113813911,1733113813927,1733113813944,1733113813960,1733113813979,1733113813994,1733113814011,1733113814027,1733113814044,1733113814061,1733113814077,1733113814094,1733113814110,1733113814127,1733113814144,1733113814160,1733113814181,1733113814197,1733113814211,1733113814227,1733113814244,1733113814260,1733113814278,1733113814294,1733113814310,1733113814327,1733113814344,1733113814360,1733113814377,1733113814394,1733113814410,1733113814427,1733113814444,1733113814460,1733113814478,1733113814494,1733113814510,1733113814527,1733113814544,1733113814560,1733113814580,1733113814595,1733113814610,1733113814627,1733113814644,1733113814660,1733113814680,1733113814695,1733113814711,1733113814727,1733113814744,1733113814760,1733113814780,1733113814794,1733113814811,1733113814827,1733113814844,1733113814864,1733113814880,1733113814894,1733113814910,1733113814927]","[[1111,967.6],[1111,967.6],[1117.7,903.3],[1114.4,888.6],[1076.7,856.9],[1057,864.4],[1053.2,847.5],[1070.4,849.6],[1053.7,839.3],[1053.1,859.9],[1032.9,816.6],[1031.5,834.1],[1034.4,810.5],[1018.4,781.9],[1033.2,775.9],[1016.5,742.6],[993.8,724.1],[974.9,702.8],[984.1,664.1],[986.4,659.6],[1006.7,677.3],[999.4,656.5],[989,635.6],[979,618],[979,618],[966.2,594.2],[966.2,594.2],[954.2,581.8],[942,572.9],[916.6,543.6],[896.4,545.7],[879.2,504],[860.3,501.9],[862.6,481.9],[870.3,495],[890.8,512.5],[879.7,499.7],[887,482.7],[916.8,500.9],[937.7,534.7],[919.6,537.9],[939.5,540.2],[954.3,529.9],[981.1,534.7],[992,501.3],[1012.8,474.8],[1046.1,508.1],[1090.2,532.1],[1134.2,528.8],[1167.5,517.9],[1219.2,509.2],[1237.9,510.2],[1263.4,524],[1280.9,518.9],[1277.7,530.6],[1270.3,532.7],[1253.4,531.2],[1216,546],[1160,545.1],[1122.8,548.9],[1097,536.3],[1071.2,523.7],[1037.4,534.7],[940.8,526.9],[869.1,515.8],[869.1,515.8],[790.9,506.5],[751.7,511.1],[708.5,481.1],[658.4,484.9],[620.1,502.8],[568.8,513.1],[517.5,523.4],[480.2,514.5],[480.7,530],[481.2,545.5],[483.9,563.8],[459.1,551.2],[442.7,551.2],[448.4,547.3],[440.1,523.3],[434.1,518.1],[422.2,531.3],[397.5,527.3],[430.9,545.6],[464.3,563.9],[502.6,559.7],[575.7,553.1],[606,589.8],[645.3,592.8],[671.7,587.4],[691.7,612],[713.5,630.8],[755.3,619.7],[757.4,593.8],[755.9,547.5],[789.3,547.2],[815.5,552.7],[880.1,536.9],[880.1,536.9],[926.8,522.1],[926.8,522.1],[987.3,547.9],[987.3,547.9],[1070.7,523.1],[1070.7,523.1],[1164.8,481.9],[1164.8,481.9],[1239.9,472.9],[1239.9,472.9],[1309.1,458.7],[1309.1,458.7],[1373.7,459.2],[1373.7,459.2],[1384,423.9],[1354.7,418],[1321.5,406.5],[1305.7,411.3],[1292.4,383.4],[1244.5,388.5],[1190,397.4],[1162.9,376],[1141.7,359.8],[1101.1,367],[1084.3,382.4],[1056.4,376],[1090.5,335.7],[1111.1,300.5],[1168.8,242.1],[1243.9,176.5],[1291.2,149.6],[1308.7,151.3],[1305.5,146.9],[1328.8,112.6],[1394.1,78.9],[1455.3,51.4],[1435.5,70.8],[1438.5,84],[1382.2,133.5],[1357.8,159.2],[1353.3,151.6],[1345.7,182.1],[1312.3,218.7],[1334.8,259.4],[1310.3,299],[1303.6,315.2],[1318.2,323.9],[1310,338.8],[1310,338.8],[1338.6,332.3],[1331.1,337.4],[1331.5,337.1],[1350.1,317],[1408.6,300.5],[1387,291.9],[1365.4,283.3],[1350.4,269.6],[1337,256],[1326.2,241.8],[1324.3,227.9],[1326.8,228.8],[1325.3,252.9],[1310.1,258.1],[1255.2,262.4],[1225.5,273],[1198.7,283.8],[1198.1,316],[1169.1,349.1],[1126.5,386.4],[1073.3,421.4],[1029.2,445.6],[980.1,454.4],[919,466.5],[901,484.9],[891.6,505.5],[886.5,517.7],[844,487.7],[840.4,491.5],[848.9,480.9],[854,512.3],[844,544.4]]","[0,0.37864299999999995]","[0.37864299999999995,0.37864299999999995]","[-0.37864299999999995,0]","[-0.37864299999999995,-0.37864299999999995]","[0,0]","[0.37864299999999995,0]","[0,-0.37864299999999995]","[0.37864299999999995,-0.37864299999999995]",0,0,0,0,1,3,Laptop,11,9,9,1
,,,,,,,,,,,,,,,,,,,17,001,2024-12-02_12h29.34.008,Attention_exp_legacy,2023.1.0,Win32,60.24096386,,,,,,,,,,,[0.26875],[0.387037037037037],[1],[0],[0],[0.9318999999999065],"[""Option2_label""]",Option2_label,2,1.9497,"[[0.027083333333333334,0.35185185185185186],[0.027083333333333334,0.35185185185185186],[0.027083333333333334,0.35185185185185186],[0.027083333333333334,0.35185185185185186],[0.027083333333333334,0.35185185185185186],[0.027083333333333334,0.35185185185185186],[0.027083333333333334,0.35185185185185186],[0.027083333333333334,0.35185185185185186],[0.027083333333333334,0.35185185185185186],[0.027083333333333334,0.35185185185185186],[0.027083333333333334,0.35185185185185186],[0.027083333333333334,0.35185185185185186],[0.027083333333333334,0.35185185185185186],[0.027083333333333334,0.35185185185185186],[0.027083333333333334,0.35185185185185186],[0.027083333333333334,0.35185185185185186],[0.027083333333333334,0.35185185185185186],[0.027083333333333334,0.35185185185185186],[0.027083333333333334,0.35185185185185186],[0.027083333333333334,0.35185185185185186],[0.027083333333333334,0.35185185185185186],[0.027083333333333334,0.35185185185185186],[0.027083333333333334,0.35185185185185186],[0.027083333333333334,0.35185185185185186],[0.027083333333333334,0.35185185185185186],[0.027083333333333334,0.35185185185185186],[0.027083333333333334,0.35185185185185186],[0.027083333333333334,0.35185185185185186],[0.027083333333333334,0.35185185185185186],[0.027083333333333334,0.35185185185185186],[0.027083333333333334,0.35185185185185186],[0.027083333333333334,0.35185185185185186],[0.027083333333333334,0.35185185185185186],[0.03125,0.35185185185185186],[0.052083333333333336,0.35185185185185186],[0.08229166666666667,0.35185185185185186],[0.11458333333333333,0.35185185185185186],[0.14479166666666668,0.35185185185185186],[0.16666666666666666,0.3537037037037037],[0.184375,0.3592592592592593],[0.18854166666666666,0.362962962962963],[0.19166666666666668,0.36666666666666664],[0.19583333333333333,0.3685185185185185],[0.20208333333333334,0.37037037037037035],[0.21354166666666666,0.37407407407407406],[0.225,0.37777777777777777],[0.23541666666666666,0.37962962962962965],[0.24895833333333334,0.38333333333333336],[0.25625,0.38333333333333336],[0.26145833333333335,0.3851851851851852],[0.265625,0.387037037037037],[0.2677083333333333,0.387037037037037],[0.26875,0.387037037037037],[0.26875,0.387037037037037],[0.26875,0.387037037037037],[0.26875,0.387037037037037],[0.26875,0.387037037037037],[0.26875,0.387037037037037],[0.26875,0.387037037037037],[0.26875,0.387037037037037],[0.26875,0.387037037037037],[0.26875,0.387037037037037],[0.26875,0.387037037037037],[0.26875,0.387037037037037],[0.26875,0.387037037037037],[0.26875,0.387037037037037],[0.26875,0.387037037037037],[0.26875,0.387037037037037],[0.26875,0.387037037037037],[0.26875,0.387037037037037],[0.26875,0.387037037037037],[0.26875,0.387037037037037],[0.26875,0.387037037037037],[0.26875,0.387037037037037],[0.26875,0.387037037037037],[0.26875,0.387037037037037],[0.26875,0.387037037037037],[0.26875,0.387037037037037],[0.26875,0.387037037037037],[0.26875,0.387037037037037],[0.26875,0.387037037037037],[0.26875,0.387037037037037],[0.26875,0.387037037037037],[0.26875,0.387037037037037],[0.26875,0.387037037037037],[0.26875,0.387037037037037],[0.26875,0.387037037037037],[0.26875,0.387037037037037],[0.26875,0.387037037037037],[0.26875,0.387037037037037],[0.26875,0.387037037037037],[0.26875,0.387037037037037],[0.26875,0.387037037037037],[0.26875,0.387037037037037],[0.26875,0.387037037037037],[0.26875,0.387037037037037],[0.26875,0.387037037037037],[0.26875,0.387037037037037],[0.26875,0.387037037037037],[0.26875,0.387037037037037],[0.26875,0.387037037037037],[0.26875,0.387037037037037],[0.26875,0.387037037037037],[0.26875,0.387037037037037],[0.26875,0.387037037037037],[0.26875,0.387037037037037],[0.26875,0.387037037037037],[0.26875,0.387037037037037],[0.26875,0.387037037037037],[0.26875,0.387037037037037],[0.26875,0.387037037037037],[0.26875,0.387037037037037],[0.26875,0.387037037037037],[0.26875,0.387037037037037],[0.26875,0.387037037037037],[0.26875,0.387037037037037],[0.26875,0.387037037037037],[0.26875,0.387037037037037]]","[[-0.03729166666666662,0.5248148148148147],[-0.04541666666666669,0.49722222222222223],[-0.06156250000000003,0.4772222222222223],[-0.06312500000000003,0.5037037037037037],[-0.06583333333333338,0.4883333333333334],[-0.05666666666666664,0.5151851851851853],[-0.04989583333333331,0.5161111111111112],[-0.03322916666666664,0.5548148148148149],[-0.029999999999999954,0.5579629629629629],[-0.03177083333333333,0.4648148148148148],[-0.03177083333333333,0.4648148148148148],[-0.011458333333333333,0.39092592592592595],[0.002499999999999976,0.39759259259259266],[0.020729166666666642,0.3977777777777777],[0.036562500000000026,0.4046296296296296],[0.04468749999999998,0.3394444444444444],[0.04604166666666672,0.3014814814814814],[0.04781249999999997,0.28722222222222227],[0.025937499999999978,0.23555555555555563],[0.013854166666666619,0.1638888888888889],[0.016875000000000046,0.2264814814814814],[0.019895833333333356,0.2890740740740741],[0.027604166666666666,0.3098148148148147],[0.029375000000000047,0.3198148148148149],[0.034895833333333334,0.31444444444444436],[0.04812500000000005,0.381111111111111],[0.04812500000000005,0.381111111111111],[0.05489583333333338,0.40666666666666673],[0.08385416666666666,0.4198148148148149],[0.11031250000000009,0.41999999999999993],[0.13447916666666657,0.4492592592592593],[0.1556250000000001,0.41814814814814805],[0.16927083333333334,0.3685185185185185],[0.1814583333333334,0.30388888888888893],[0.17916666666666667,0.20777777777777787],[0.1775000000000001,0.17388888888888884],[0.18239583333333323,0.10185185185185185],[0.18468749999999995,0.02111111111111107],[0.16479166666666673,-0.04722222222222222],[0.15427083333333325,-0.1007407407407407],[0.15187499999999995,-0.13388888888888892],[0.1423958333333334,-0.14462962962962966],[0.13145833333333337,-0.09814814814814815],[0.12364583333333339,-0.07537037037037035],[0.0990624999999999,-0.03166666666666671],[0.06354166666666666,-0.0477777777777777],[-0.0140625,-0.06481481481481481],[-0.0068750000000000235,-0.041111111111111195],[-0.036249999999999956,-0.009629629629629714],[-0.06645833333333329,0.009444444444444486],[-0.10479166666666669,0.008148148148148106],[-0.10260416666666666,-0.03796296296296296],[-0.09145833333333328,-0.1227777777777778],[-0.09145833333333328,-0.1227777777777778],[-0.1172916666666667,-0.14777777777777779],[-0.15791666666666668,-0.15759259259259265],[-0.19197916666666662,-0.1544444444444444],[-0.1688541666666667,-0.13648148148148145],[-0.20177083333333337,-0.1479629629629629],[-0.19635416666666666,-0.1485185185185185],[-0.20249999999999999,-0.1294444444444444],[-0.17833333333333337,-0.17444444444444443],[-0.19468749999999999,-0.17462962962962966],[-0.20750000000000005,-0.1316666666666667],[-0.19822916666666662,-0.1427777777777778],[-0.1313541666666667,-0.1542592592592593],[-0.07520833333333338,-0.23351851851851857],[-0.04072916666666669,-0.28851851851851856],[0.0010416666666666667,-0.3055555555555556],[0.021145833333333287,-0.3383333333333333],[0.036666666666666715,-0.40055555555555555],[0.021875,-0.3987037037037037],[0.03947916666666664,-0.3992592592592593],[0.06156250000000003,-0.43],[0.06156250000000003,-0.43],[0.09854166666666657,-0.46648148148148144],[0.12541666666666676,-0.5401851851851852],[0.16416666666666657,-0.5611111111111111],[0.2029166666666666,-0.582037037037037],[0.20864583333333328,-0.6266666666666666],[0.23427083333333343,-0.6742592592592593],[0.2497916666666666,-0.7075925925925927],[0.26531250000000006,-0.740925925925926],[0.2828125,-0.772962962962963],[0.29229166666666656,-0.8179629629629629],[0.2951041666666666,-0.8603703703703705],[0.26510416666666664,-0.8572222222222222],[0.25010416666666657,-0.8150000000000001],[0.25416666666666665,-0.737037037037037],[0.2578125,-0.6759259259259259],[0.2908333333333334,-0.6927777777777778],[0.35010416666666655,-0.7140740740740741],[0.4069791666666667,-0.712037037037037],[0.42947916666666663,-0.7088888888888889],[0.44812500000000005,-0.6901851851851851],[0.4734375,-0.674074074074074],[0.5060416666666666,-0.7],[0.5214583333333332,-0.7466666666666667],[0.5214583333333332,-0.7466666666666667],[0.5178124999999999,-0.8290740740740741],[0.5178124999999999,-0.8290740740740741],[0.5275000000000001,-0.8877777777777778],[0.4748958333333334,-0.8761111111111112],[0.4103125000000001,-0.7855555555555556],[0.38427083333333345,-0.7287037037037037],[0.38427083333333345,-0.7287037037037037],[0.3538541666666667,-0.6722222222222223],[0.3538541666666667,-0.6722222222222223],[0.3445833333333333,-0.6672222222222223],[0.3445833333333333,-0.6672222222222223],[0.3288541666666667,-0.6459259259259259],[0.3288541666666667,-0.6459259259259259],[0.30802083333333335,-0.5609259259259259],[0.3003124999999999,-0.5094444444444445],[0.30489583333333337,-0.45981481481481484],[0.29093749999999996,-0.4324074074074074],[0.309375,-0.37518518518518523],[0.3397916666666667,-0.3968518518518519]]","[[-0.03729166666666662,0.5248148148148147,0.00010000000009569021],[-0.04541666666666669,0.49722222222222223,0.018100000000096372],[-0.06156250000000003,0.4772222222222223,0.036100000000097054],[-0.06312500000000003,0.5037037037037037,0.05260000000009768],[-0.06583333333333338,0.4883333333333334,0.0663999999999092],[-0.05666666666666664,0.5151851851851853,0.0831000000000941],[-0.04989583333333331,0.5161111111111112,0.09970000000019041],[-0.03322916666666664,0.5548148148148149,0.11639999999990636],[-0.029999999999999954,0.5579629629629629,0.13310000000009836],[-0.03177083333333333,0.4648148148148148,0.14989999999991],[-0.03177083333333333,0.4648148148148148,0.17289999999991323],[-0.011458333333333333,0.39092592592592595,0.18830000000028235],[0.002499999999999976,0.39759259259259266,0.20250000000000057],[0.020729166666666642,0.3977777777777777,0.21639999999990778],[0.036562500000000026,0.4046296296296296,0.23310000000009268],[0.04468749999999998,0.3394444444444444,0.24980000000028468],[0.04604166666666672,0.3014814814814814,0.26639999999991204],[0.04781249999999997,0.28722222222222227,0.28310000000009694],[0.025937499999999978,0.23555555555555563,0.29970000000018615],[0.013854166666666619,0.1638888888888889,0.31630000000028247],[0.016875000000000046,0.2264814814814814,0.3331000000000941],[0.019895833333333356,0.2890740740740741,0.3497000000001904],[0.027604166666666666,0.3098148148148147,0.36639999999990636],[0.029375000000000047,0.3198148148148149,0.38300000000000267],[0.034895833333333334,0.31444444444444436,0.39980000000028326],[0.04812500000000005,0.381111111111111,0.4163999999999106],[0.04812500000000005,0.381111111111111,0.4331000000000955],[0.05489583333333338,0.40666666666666673,0.44970000000019184],[0.08385416666666666,0.4198148148148149,0.4663999999999078],[0.11031250000000009,0.41999999999999993,0.4831000000000927],[0.13447916666666657,0.4492592592592593,0.499700000000189],[0.1556250000000001,0.41814814814814805,0.516399999999912],[0.16927083333333334,0.3685185185185185,0.5337000000001879],[0.1814583333333334,0.30388888888888893,0.5518000000002843],[0.17916666666666667,0.20777777777777787,0.5665000000000049],[0.1775000000000001,0.17388888888888884,0.5853000000002808],[0.18239583333333323,0.10185185185185185,0.6020000000000039],[0.18468749999999995,0.02111111111111107,0.616500000000002],[0.16479166666666673,-0.04722222222222222,0.6333000000002826],[0.15427083333333325,-0.1007407407407407,0.6543000000002834],[0.15187499999999995,-0.13388888888888892,0.6703000000002817],[0.1423958333333334,-0.14462962962962966,0.6841000000000932],[0.13145833333333337,-0.09814814814814815,0.6998999999999072],[0.12364583333333339,-0.07537037037037035,0.7183999999999102],[0.0990624999999999,-0.03166666666666671,0.7334999999999994],[0.06354166666666666,-0.0477777777777777,0.7498999999999114],[-0.0140625,-0.06481481481481481,0.7693000000002854],[-0.0068750000000000235,-0.041111111111111195,0.7848000000002813],[-0.036249999999999956,-0.009629629629629714,0.7998000000002818],[-0.06645833333333329,0.009444444444444486,0.8165000000000049],[-0.10479166666666669,0.008148148148148106,0.8390000000000057],[-0.10260416666666666,-0.03796296296296296,0.8520000000000039],[-0.09145833333333328,-0.1227777777777778,0.8683000000002821],[-0.09145833333333328,-0.1227777777777778,0.883200000000187],[-0.1172916666666667,-0.14777777777777779,0.8998000000002833],[-0.15791666666666668,-0.15759259259259265,0.9163999999999106],[-0.19197916666666662,-0.1544444444444444,0.9331000000000955],[-0.1688541666666667,-0.13648148148148145,0.952700000000192],[-0.20177083333333337,-0.1479629629629629,0.9663999999999078],[-0.19635416666666666,-0.1485185185185185,0.9831000000000927],[-0.20249999999999999,-0.1294444444444444,0.9998000000002847],[-0.17833333333333337,-0.17444444444444443,1.0163000000002853],[-0.19468749999999999,-0.17462962962962966,1.0373999999999128],[-0.20750000000000005,-0.1316666666666667,1.0538999999999064],[-0.19822916666666662,-0.1427777777777778,1.0673999999999069],[-0.1313541666666667,-0.1542592592592593,1.0830000000000055],[-0.07520833333333338,-0.23351851851851857,1.0997000000001904],[-0.04072916666666669,-0.28851851851851856,1.1163000000002796],[0.0010416666666666667,-0.3055555555555556,1.1331000000000984],[0.021145833333333287,-0.3383333333333333,1.1497000000001876],[0.036666666666666715,-0.40055555555555555,1.1663000000002839],[0.021875,-0.3987037037037037,1.1831000000000955],[0.03947916666666664,-0.3992592592592593,1.1998000000002804],[0.06156250000000003,-0.43,1.2172000000001901],[0.06156250000000003,-0.43,1.233000000000004],[0.09854166666666657,-0.46648148148148144,1.249700000000189],[0.12541666666666676,-0.5401851851851852,1.2673999999999097],[0.16416666666666657,-0.5611111111111111,1.2830000000000013],[0.2029166666666666,-0.582037037037037,1.2997000000001862],[0.20864583333333328,-0.6266666666666666,1.3163999999999092],[0.23427083333333343,-0.6742592592592593,1.333100000000094],[0.2497916666666666,-0.7075925925925927,1.3497000000001904],[0.26531250000000006,-0.740925925925926,1.3663000000002796],[0.2828125,-0.772962962962963,1.3830000000000027],[0.29229166666666656,-0.8179629629629629,1.399600000000099],[0.2951041666666666,-0.8603703703703705,1.4163999999999106],[0.26510416666666664,-0.8572222222222222,1.4342000000001889],[0.25010416666666657,-0.8150000000000001,1.4497000000001918],[0.25416666666666665,-0.737037037037037,1.4670000000000059],[0.2578125,-0.6759259259259259,1.483000000000004],[0.2908333333333334,-0.6927777777777778,1.499700000000189],[0.35010416666666655,-0.7140740740740741,1.516399999999912],[0.4069791666666667,-0.712037037037037,1.5330000000000013],[0.42947916666666663,-0.7088888888888889,1.5497000000001862],[0.44812500000000005,-0.6901851851851851,1.5663999999999092],[0.4734375,-0.674074074074074,1.5830000000000055],[0.5060416666666666,-0.7,1.5997000000001904],[0.5214583333333332,-0.7466666666666667,1.6173999999999111],[0.5214583333333332,-0.7466666666666667,1.6331000000000984],[0.5178124999999999,-0.8290740740740741,1.6498000000002833],[0.5178124999999999,-0.8290740740740741,1.6663999999999106],[0.5275000000000001,-0.8877777777777778,1.6831000000000955],[0.4748958333333334,-0.8761111111111112,1.703300000000283],[0.4103125000000001,-0.7855555555555556,1.7198000000002835],[0.38427083333333345,-0.7287037037037037,1.738200000000191],[0.38427083333333345,-0.7287037037037037,1.749700000000189],[0.3538541666666667,-0.6722222222222223,1.766399999999912],[0.3538541666666667,-0.6722222222222223,1.783100000000097],[0.3445833333333333,-0.6672222222222223,1.7998000000002818],[0.3445833333333333,-0.6672222222222223,1.8163999999999092],[0.3288541666666667,-0.6459259259259259,1.833100000000094],[0.3288541666666667,-0.6459259259259259,1.8497000000001904],[0.30802083333333335,-0.5609259259259259,1.8668999999999087],[0.3003124999999999,-0.5094444444444445,1.883200000000187],[0.30489583333333337,-0.45981481481481484,1.8998000000002833],[0.29093749999999996,-0.4324074074074074,1.9163000000002839],[0.309375,-0.37518518518518523,1.9331000000000955],[0.3397916666666667,-0.3968518518518519,1.9497000000001918]]","[0.00010000000009569021,0.018100000000096372,0.036100000000097054,0.05260000000009768,0.0663999999999092,0.0831000000000941,0.09970000000019041,0.11639999999990636,0.13310000000009836,0.14989999999991,0.17289999999991323,0.18830000000028235,0.20250000000000057,0.21639999999990778,0.23310000000009268,0.24980000000028468,0.26639999999991204,0.28310000000009694,0.29970000000018615,0.31630000000028247,0.3331000000000941,0.3497000000001904,0.36639999999990636,0.38300000000000267,0.39980000000028326,0.4163999999999106,0.4331000000000955,0.44970000000019184,0.4663999999999078,0.4831000000000927,0.499700000000189,0.516399999999912,0.5337000000001879,0.5518000000002843,0.5665000000000049,0.5853000000002808,0.6020000000000039,0.616500000000002,0.6333000000002826,0.6543000000002834,0.6703000000002817,0.6841000000000932,0.6998999999999072,0.7183999999999102,0.7334999999999994,0.7498999999999114,0.7693000000002854,0.7848000000002813,0.7998000000002818,0.8165000000000049,0.8390000000000057,0.8520000000000039,0.8683000000002821,0.883200000000187,0.8998000000002833,0.9163999999999106,0.9331000000000955,0.952700000000192,0.9663999999999078,0.9831000000000927,0.9998000000002847,1.0163000000002853,1.0373999999999128,1.0538999999999064,1.0673999999999069,1.0830000000000055,1.0997000000001904,1.1163000000002796,1.1331000000000984,1.1497000000001876,1.1663000000002839,1.1831000000000955,1.1998000000002804,1.2172000000001901,1.233000000000004,1.249700000000189,1.2673999999999097,1.2830000000000013,1.2997000000001862,1.3163999999999092,1.333100000000094,1.3497000000001904,1.3663000000002796,1.3830000000000027,1.399600000000099,1.4163999999999106,1.4342000000001889,1.4497000000001918,1.4670000000000059,1.483000000000004,1.499700000000189,1.516399999999912,1.5330000000000013,1.5497000000001862,1.5663999999999092,1.5830000000000055,1.5997000000001904,1.6173999999999111,1.6331000000000984,1.6498000000002833,1.6663999999999106,1.6831000000000955,1.703300000000283,1.7198000000002835,1.738200000000191,1.749700000000189,1.766399999999912,1.783100000000097,1.7998000000002818,1.8163999999999092,1.833100000000094,1.8497000000001904,1.8668999999999087,1.883200000000187,1.8998000000002833,1.9163000000002839,1.9331000000000955,1.9497000000001918]","[1733113815945,1733113815962,1733113815980,1733113815997,1733113816010,1733113816027,1733113816044,1733113816060,1733113816077,1733113816094,1733113816117,1733113816132,1733113816146,1733113816160,1733113816177,1733113816194,1733113816210,1733113816227,1733113816244,1733113816260,1733113816277,1733113816294,1733113816310,1733113816327,1733113816344,1733113816360,1733113816377,1733113816394,1733113816410,1733113816427,1733113816444,1733113816460,1733113816478,1733113816496,1733113816511,1733113816529,1733113816546,1733113816561,1733113816577,1733113816598,1733113816614,1733113816628,1733113816644,1733113816662,1733113816678,1733113816694,1733113816713,1733113816729,1733113816744,1733113816761,1733113816783,1733113816796,1733113816812,1733113816827,1733113816844,1733113816860,1733113816877,1733113816897,1733113816910,1733113816927,1733113816944,1733113816960,1733113816981,1733113816998,1733113817011,1733113817027,1733113817044,1733113817060,1733113817077,1733113817094,1733113817110,1733113817127,1733113817144,1733113817161,1733113817177,1733113817194,1733113817211,1733113817227,1733113817244,1733113817260,1733113817277,1733113817294,1733113817310,1733113817327,1733113817344,1733113817360,1733113817378,1733113817394,1733113817411,1733113817427,1733113817444,1733113817460,1733113817477,1733113817494,1733113817510,1733113817527,1733113817544,1733113817561,1733113817577,1733113817594,1733113817610,1733113817627,1733113817647,1733113817664,1733113817682,1733113817694,1733113817710,1733113817727,1733113817744,1733113817760,1733113817777,1733113817794,1733113817811,1733113817827,1733113817844,1733113817860,1733113817877,1733113817894]","[[924.2,823.4],[916.4,808.5],[900.9,797.7],[899.4,812],[896.8,803.7],[905.6,818.2],[912.1,818.7],[928.1,839.6],[931.2,841.3],[929.5,791],[929.5,791],[949,751.1],[962.4,754.7],[979.9,754.8],[995.1,758.5],[1002.9,723.3],[1004.2,702.8],[1005.9,695.1],[984.9,667.2],[973.3,628.5],[976.2,662.3],[979.1,696.1],[986.5,707.3],[988.2,712.7],[993.5,709.8],[1006.2,745.8],[1006.2,745.8],[1012.7,759.6],[1040.5,766.7],[1065.9,766.8],[1089.1,782.6],[1109.4,765.8],[1122.5,739],[1134.2,704.1],[1132,652.2],[1130.4,633.9],[1135.1,595],[1137.3,551.4],[1118.2,514.5],[1108.1,485.6],[1105.8,467.7],[1096.7,461.9],[1086.2,487],[1078.7,499.3],[1055.1,522.9],[1021,514.2],[946.5,505],[953.4,517.8],[925.2,534.8],[896.2,545.1],[859.4,544.4],[861.5,519.5],[872.2,473.7],[872.2,473.7],[847.4,460.2],[808.4,454.9],[775.7,456.6],[797.9,466.3],[766.3,460.1],[771.5,459.8],[765.6,470.1],[788.8,445.8],[773.1,445.7],[760.8,468.9],[769.7,462.9],[833.9,456.7],[887.8,413.9],[920.9,384.2],[961,375],[980.3,357.3],[995.2,323.7],[981,324.7],[997.9,324.4],[1019.1,307.8],[1019.1,307.8],[1054.6,288.1],[1080.4,248.3],[1117.6,237],[1154.8,225.7],[1160.3,201.6],[1184.9,175.9],[1199.8,157.9],[1214.7,139.9],[1231.5,122.6],[1240.6,98.3],[1243.3,75.4],[1214.5,77.1],[1200.1,99.9],[1204,142],[1207.5,175],[1239.2,165.9],[1296.1,154.4],[1350.7,155.5],[1372.3,157.2],[1390.2,167.3],[1414.5,176],[1445.8,162],[1460.6,136.8],[1460.6,136.8],[1457.1,92.3],[1457.1,92.3],[1466.4,60.6],[1415.9,66.9],[1353.9,115.8],[1328.9,146.5],[1328.9,146.5],[1299.7,177],[1299.7,177],[1290.8,179.7],[1290.8,179.7],[1275.7,191.2],[1275.7,191.2],[1255.7,237.1],[1248.3,264.9],[1252.7,291.7],[1239.3,306.5],[1257,337.4],[1286.2,325.7]]","[0,0.37864299999999995]","[0.37864299999999995,0.37864299999999995]","[-0.37864299999999995,0]","[-0.37864299999999995,-0.37864299999999995]","[0,0]","[0.37864299999999995,0]","[0,-0.37864299999999995]","[0.37864299999999995,-0.37864299999999995]",0,1,1,1,1,3,Laptop,5,5,13,7
,,,,,,,,,,,,,,,,,,,17,001,2024-12-02_12h29.34.008,Attention_exp_legacy,2023.1.0,Win32,60.24096386,,,,,,,,,,,[0.2604166666666667],[0.38333333333333336],[1],[0],[0],[1.2830000000000013],"[""Option2_label""]",Option2_label,3,2.2998,"[[0.2625,0.3851851851851852],[0.26145833333333335,0.38333333333333336],[0.26145833333333335,0.38333333333333336],[0.2604166666666667,0.38333333333333336],[0.2604166666666667,0.38333333333333336],[0.2604166666666667,0.38333333333333336],[0.2604166666666667,0.38333333333333336],[0.2604166666666667,0.38333333333333336],[0.2604166666666667,0.38333333333333336],[0.2604166666666667,0.38333333333333336],[0.2604166666666667,0.38333333333333336],[0.2604166666666667,0.38333333333333336],[0.2604166666666667,0.38333333333333336],[0.2604166666666667,0.38333333333333336],[0.2604166666666667,0.38333333333333336],[0.2604166666666667,0.38333333333333336],[0.2604166666666667,0.38333333333333336],[0.2604166666666667,0.38333333333333336],[0.2604166666666667,0.38333333333333336],[0.2604166666666667,0.38333333333333336],[0.2604166666666667,0.38333333333333336],[0.2604166666666667,0.38333333333333336],[0.2604166666666667,0.38333333333333336],[0.2604166666666667,0.38333333333333336],[0.2604166666666667,0.38333333333333336],[0.2604166666666667,0.38333333333333336],[0.2604166666666667,0.38333333333333336],[0.2604166666666667,0.38333333333333336],[0.2604166666666667,0.38333333333333336],[0.2604166666666667,0.38333333333333336],[0.2604166666666667,0.38333333333333336],[0.2604166666666667,0.38333333333333336],[0.2604166666666667,0.38333333333333336],[0.2604166666666667,0.38333333333333336],[0.2604166666666667,0.38333333333333336],[0.2604166666666667,0.38333333333333336],[0.2604166666666667,0.38333333333333336],[0.2604166666666667,0.38333333333333336],[0.2604166666666667,0.38333333333333336],[0.2604166666666667,0.38333333333333336],[0.2604166666666667,0.38333333333333336],[0.2604166666666667,0.38333333333333336],[0.2604166666666667,0.38333333333333336],[0.2604166666666667,0.38333333333333336],[0.2604166666666667,0.38333333333333336],[0.2604166666666667,0.38333333333333336],[0.2604166666666667,0.38333333333333336],[0.2604166666666667,0.38333333333333336],[0.2604166666666667,0.38333333333333336],[0.2604166666666667,0.38333333333333336],[0.2604166666666667,0.38333333333333336],[0.2604166666666667,0.38333333333333336],[0.2604166666666667,0.38333333333333336],[0.2604166666666667,0.38333333333333336],[0.2604166666666667,0.38333333333333336],[0.2604166666666667,0.38333333333333336],[0.2604166666666667,0.38333333333333336],[0.2604166666666667,0.38333333333333336],[0.2604166666666667,0.38333333333333336],[0.2604166666666667,0.38333333333333336],[0.2604166666666667,0.38333333333333336],[0.2604166666666667,0.38333333333333336],[0.2604166666666667,0.38333333333333336],[0.2604166666666667,0.38333333333333336],[0.2604166666666667,0.38333333333333336],[0.2604166666666667,0.38333333333333336],[0.2604166666666667,0.38333333333333336],[0.2604166666666667,0.38333333333333336],[0.2604166666666667,0.38333333333333336],[0.2604166666666667,0.38333333333333336],[0.2604166666666667,0.38333333333333336],[0.2604166666666667,0.38333333333333336],[0.2604166666666667,0.38333333333333336],[0.2604166666666667,0.38333333333333336],[0.2604166666666667,0.38333333333333336],[0.2604166666666667,0.38333333333333336],[0.2604166666666667,0.38333333333333336],[0.2604166666666667,0.38333333333333336],[0.2604166666666667,0.38333333333333336],[0.2604166666666667,0.38333333333333336],[0.2604166666666667,0.38333333333333336],[0.2604166666666667,0.38333333333333336],[0.2604166666666667,0.38333333333333336],[0.2604166666666667,0.38333333333333336],[0.2604166666666667,0.38333333333333336],[0.2604166666666667,0.38333333333333336],[0.2604166666666667,0.38333333333333336],[0.2604166666666667,0.38333333333333336],[0.2604166666666667,0.38333333333333336],[0.2604166666666667,0.38333333333333336],[0.2604166666666667,0.38333333333333336],[0.2604166666666667,0.38333333333333336],[0.2604166666666667,0.38333333333333336],[0.2604166666666667,0.38333333333333336],[0.2604166666666667,0.38333333333333336],[0.2604166666666667,0.38333333333333336],[0.2604166666666667,0.38333333333333336],[0.2604166666666667,0.38333333333333336],[0.2604166666666667,0.38333333333333336],[0.2604166666666667,0.38333333333333336],[0.2604166666666667,0.38333333333333336],[0.2604166666666667,0.38333333333333336],[0.2604166666666667,0.38333333333333336],[0.2604166666666667,0.38333333333333336],[0.2604166666666667,0.38333333333333336],[0.2604166666666667,0.38333333333333336],[0.2604166666666667,0.38333333333333336],[0.2604166666666667,0.38333333333333336],[0.2604166666666667,0.38333333333333336],[0.2604166666666667,0.38333333333333336],[0.2604166666666667,0.38333333333333336],[0.2604166666666667,0.38333333333333336],[0.2604166666666667,0.38333333333333336],[0.2604166666666667,0.38333333333333336],[0.2604166666666667,0.38333333333333336],[0.2604166666666667,0.38333333333333336],[0.2604166666666667,0.38333333333333336],[0.2604166666666667,0.38333333333333336],[0.2604166666666667,0.38333333333333336],[0.2604166666666667,0.38333333333333336],[0.2604166666666667,0.38333333333333336],[0.2604166666666667,0.38333333333333336],[0.2604166666666667,0.38333333333333336],[0.2604166666666667,0.38333333333333336],[0.2604166666666667,0.38333333333333336],[0.2604166666666667,0.38333333333333336],[0.2604166666666667,0.38333333333333336],[0.2604166666666667,0.38333333333333336],[0.2604166666666667,0.38333333333333336],[0.2604166666666667,0.38333333333333336],[0.2604166666666667,0.38333333333333336],[0.2604166666666667,0.38333333333333336],[0.2604166666666667,0.38333333333333336],[0.2604166666666667,0.38333333333333336],[0.2604166666666667,0.38333333333333336],[0.2604166666666667,0.38333333333333336],[0.2604166666666667,0.38333333333333336],[0.2604166666666667,0.38333333333333336],[0.2604166666666667,0.38333333333333336]]","[[0.2570833333333333,-0.30037037037037034],[0.26458333333333334,-0.2740740740740741],[0.28093750000000006,-0.28425925925925927],[0.2712500000000001,-0.25037037037037035],[0.26760416666666675,-0.22166666666666665],[0.2569791666666667,-0.1940740740740741],[0.2404166666666666,-0.14462962962962966],[0.21510416666666668,-0.14722222222222223],[0.22270833333333329,-0.13222222222222219],[0.20520833333333333,-0.15777777777777777],[0.2025000000000001,-0.18203703703703705],[0.20416666666666666,-0.20537037037037034],[0.20458333333333342,-0.22018518518518515],[0.21979166666666666,-0.259074074074074],[0.2181250000000001,-0.2537037037037037],[0.2259375000000001,-0.24296296296296294],[0.22041666666666657,-0.22259259259259256],[0.22958333333333342,-0.24611111111111106],[0.21947916666666673,-0.262037037037037],[0.18416666666666662,-0.27444444444444444],[0.13406250000000006,-0.2881481481481482],[0.090625,-0.29685185185185187],[0.03458333333333338,-0.3151851851851852],[-0.0296875,-0.3022222222222222],[-0.08645833333333333,-0.3207407407407407],[-0.1498958333333333,-0.35259259259259257],[-0.20697916666666671,-0.37166666666666665],[-0.2621875000000001,-0.3374074074074074],[-0.3110416666666667,-0.3162962962962963],[-0.31281249999999994,-0.29685185185185187],[-0.3307291666666667,-0.2607407407407408],[-0.32531249999999995,-0.28481481481481485],[-0.3259375,-0.23351851851851857],[-0.31833333333333336,-0.21351851851851855],[-0.30052083333333335,-0.21592592592592597],[-0.2760416666666667,-0.205],[-0.2608333333333333,-0.21333333333333332],[-0.25593750000000004,-0.2383333333333333],[-0.2529166666666666,-0.2212962962962963],[-0.2547916666666667,-0.2],[-0.2547916666666667,-0.2],[-0.24052083333333332,-0.19537037037037036],[-0.24052083333333332,-0.19537037037037036],[-0.26666666666666666,-0.19500000000000003],[-0.26666666666666666,-0.19500000000000003],[-0.2703125,-0.21425925925925923],[-0.2711458333333333,-0.26240740740740737],[-0.2711458333333333,-0.26240740740740737],[-0.28791666666666665,-0.26240740740740737],[-0.28791666666666665,-0.26240740740740737],[-0.3237499999999999,-0.26888888888888884],[-0.3180208333333333,-0.2698148148148148],[-0.3180208333333333,-0.2698148148148148],[-0.306875,-0.24055555555555552],[-0.294375,-0.24351851851851852],[-0.294375,-0.24351851851851852],[-0.28187500000000004,-0.24648148148148152],[-0.28635416666666663,-0.22296296296296292],[-0.25968749999999996,-0.16444444444444448],[-0.22749999999999998,-0.13333333333333333],[-0.20020833333333338,-0.09462962962962967],[-0.1578125,-0.09444444444444444],[-0.05510416666666664,-0.04611111111111107],[0.008958333333333356,0.0031481481481482323],[0.06156250000000003,0.059999999999999956],[0.06156250000000003,0.059999999999999956],[0.11166666666666672,0.1198148148148149],[0.11166666666666672,0.1198148148148149],[0.1646874999999999,0.14055555555555552],[0.22927083333333323,0.12240740740740745],[0.278125,0.11018518518518519],[0.3115624999999999,0.08499999999999996],[0.34708333333333335,0.08111111111111102],[0.3936458333333334,0.08407407407407404],[0.38166666666666677,0.04148148148148144],[0.35343749999999996,0.01703703703703712],[0.3333333333333333,-0.03592592592592588],[0.3321875000000001,-0.11648148148148144],[0.32479166666666665,-0.13370370370370369],[0.3228125000000001,-0.13851851851851854],[0.32937500000000003,-0.17777777777777778],[0.334375,-0.1948148148148148],[0.33489583333333334,-0.2140740740740741],[0.3243750000000001,-0.24018518518518517],[0.3316666666666668,-0.28648148148148145],[0.35520833333333335,-0.3509259259259259],[0.3888541666666666,-0.4103703703703704],[0.4002083333333334,-0.4418518518518519],[0.41604166666666675,-0.4868518518518518],[0.4318749999999999,-0.5318518518518518],[0.4391666666666666,-0.5424074074074073],[0.41218750000000004,-0.5555555555555556],[0.3914583333333333,-0.5468518518518519],[0.3835416666666667,-0.5372222222222223],[0.38958333333333334,-0.5112962962962964],[0.37312500000000004,-0.4557407407407408],[0.3537499999999999,-0.4648148148148148],[0.34520833333333345,-0.4485185185185185],[0.31583333333333335,-0.46833333333333327],[0.29052083333333345,-0.46166666666666667],[0.26614583333333336,-0.47129629629629627],[0.27802083333333344,-0.4896296296296296],[0.2919791666666666,-0.47537037037037033],[0.2931250000000001,-0.462037037037037],[0.26687500000000003,-0.46814814814814815],[0.2631249999999999,-0.5038888888888889],[0.2897916666666667,-0.49148148148148146],[0.3056250000000001,-0.5044444444444444],[0.33010416666666675,-0.45259259259259255],[0.35052083333333334,-0.4272222222222222],[0.38302083333333337,-0.3866666666666667],[0.41354166666666664,-0.33481481481481484],[0.41124999999999995,-0.35537037037037034],[0.4102083333333333,-0.38074074074074077],[0.4102083333333333,-0.38074074074074077],[0.42208333333333337,-0.37888888888888894],[0.44645833333333323,-0.38351851851851854],[0.4270833333333333,-0.35555555555555557],[0.40770833333333345,-0.32759259259259255],[0.39781250000000007,-0.3190740740740741],[0.38791666666666674,-0.31055555555555553],[0.3640625,-0.3024074074074074],[0.33958333333333335,-0.28129629629629627],[0.3497916666666666,-0.21888888888888886],[0.3454166666666666,-0.15796296296296297],[0.34104166666666674,-0.09703703703703699],[0.3133333333333333,-0.020555555555555598],[0.29177083333333326,0.03481481481481473],[0.25906250000000003,0.03481481481481473],[0.2267708333333334,0.004259259259259175],[0.1961458333333333,-0.011296296296296339],[0.1664583333333333,-0.025370370370370456],[0.14020833333333324,-0.03259259259259263],[0.10822916666666677,-0.06092592592592588],[0.10479166666666657,-0.0668518518518519],[0.06479166666666672,-0.11555555555555551],[0.04791666666666667,-0.18851851851851853],[0.05406249999999998,-0.19388888888888886],[0.06697916666666662,-0.1507407407407407]]","[[0.2570833333333333,-0.30037037037037034,0.000200000000184275],[0.26458333333333334,-0.2740740740740741,0.018899999999909767],[0.28093750000000006,-0.28425925925925927,0.033200000000185526],[0.2712500000000001,-0.25037037037037035,0.04989999999990857],[0.26760416666666675,-0.22166666666666665,0.06660000000009347],[0.2569791666666667,-0.1940740740740741,0.08320000000018268],[0.2404166666666666,-0.14462962962962966,0.09989999999990573],[0.21510416666666668,-0.14722222222222223,0.11650000000000205],[0.22270833333333329,-0.13222222222222219,0.13320000000018695],[0.20520833333333333,-0.15777777777777777,0.14980000000027616],[0.2025000000000001,-0.18203703703703705,0.1664999999999992],[0.20416666666666666,-0.20537037037037034,0.18310000000009552],[0.20458333333333342,-0.22018518518518515,0.19980000000028042],[0.21979166666666666,-0.259074074074074,0.21660000000009205],[0.2181250000000001,-0.2537037037037037,0.23310000000009268],[0.2259375000000001,-0.24296296296296294,0.2498999999999043],[0.22041666666666657,-0.22259259259259256,0.2696000000000893],[0.22958333333333342,-0.24611111111111106,0.28349999999999653],[0.21947916666666673,-0.262037037037037,0.29980000000028184],[0.18416666666666662,-0.27444444444444444,0.3164999999999978],[0.13406250000000006,-0.2881481481481482,0.3332000000001827],[0.090625,-0.29685185185185187,0.349800000000279],[0.03458333333333338,-0.3151851851851852,0.3678999999999064],[-0.0296875,-0.3022222222222222,0.38630000000027565],[-0.08645833333333333,-0.3207407407407407,0.40030000000027854],[-0.1498958333333333,-0.35259259259259257,0.4166000000000949],[-0.20697916666666671,-0.37166666666666665,0.4332000000001841],[-0.2621875000000001,-0.3374074074074074,0.44989999999990715],[-0.3110416666666667,-0.3162962962962963,0.46649999999999636],[-0.31281249999999994,-0.29685185185185187,0.48320000000018837],[-0.3307291666666667,-0.2607407407407408,0.4998999999999043],[-0.32531249999999995,-0.28481481481481485,0.5165000000000006],[-0.3259375,-0.23351851851851857,0.5332000000001855],[-0.31833333333333336,-0.21351851851851855,0.5498999999999086],[-0.30052083333333335,-0.21592592592592597,0.5675000000000026],[-0.2760416666666667,-0.205,0.5833000000002784],[-0.2608333333333333,-0.21333333333333332,0.599800000000279],[-0.25593750000000004,-0.2383333333333333,0.616500000000002],[-0.2529166666666666,-0.2212962962962963,0.633200000000187],[-0.2547916666666667,-0.2,0.6498000000002762],[-0.2547916666666667,-0.2,0.6666000000000949],[-0.24052083333333332,-0.19537037037037036,0.6832000000001841],[-0.24052083333333332,-0.19537037037037036,0.6998000000002804],[-0.26666666666666666,-0.19500000000000003,0.7164999999999964],[-0.26666666666666666,-0.19500000000000003,0.7332000000001884],[-0.2703125,-0.21425925925925923,0.7498999999999043],[-0.2711458333333333,-0.26240740740740737,0.7716000000000918],[-0.2711458333333333,-0.26240740740740737,0.7832000000001855],[-0.28791666666666665,-0.26240740740740737,0.7998000000002818],[-0.28791666666666665,-0.26240740740740737,0.8164999999999978],[-0.3237499999999999,-0.26888888888888884,0.8332000000001827],[-0.3180208333333333,-0.2698148148148148,0.855899999999906],[-0.3180208333333333,-0.2698148148148148,0.8666000000000906],[-0.306875,-0.24055555555555552,0.883200000000187],[-0.294375,-0.24351851851851852,0.9018000000002786],[-0.294375,-0.24351851851851852,0.9166000000000949],[-0.28187500000000004,-0.24648148148148152,0.9333999999999065],[-0.28635416666666663,-0.22296296296296292,0.9498000000002804],[-0.25968749999999996,-0.16444444444444448,0.9664999999999964],[-0.22749999999999998,-0.13333333333333333,0.9832000000001884],[-0.20020833333333338,-0.09462962962962967,0.9998999999999043],[-0.1578125,-0.09444444444444444,1.0165000000000006],[-0.05510416666666664,-0.04611111111111107,1.0332000000001855],[0.008958333333333356,0.0031481481481482323,1.0498000000002818],[0.06156250000000003,0.059999999999999956,1.0705000000000027],[0.06156250000000003,0.059999999999999956,1.0882000000001852],[0.11166666666666672,0.1198148148148149,1.1061000000000902],[0.11166666666666672,0.1198148148148149,1.116500000000002],[0.1646874999999999,0.14055555555555552,1.133200000000187],[0.22927083333333323,0.12240740740740745,1.1498999999999029],[0.278125,0.11018518518518519,1.1664999999999992],[0.3115624999999999,0.08499999999999996,1.183200000000184],[0.34708333333333335,0.08111111111111102,1.1998999999999072],[0.3936458333333334,0.08407407407407404,1.2164999999999964],[0.38166666666666677,0.04148148148148144,1.2332000000001884],[0.35343749999999996,0.01703703703703712,1.2498000000002776],[0.3333333333333333,-0.03592592592592588,1.2678000000002783],[0.3321875000000001,-0.11648148148148144,1.283700000000188],[0.32479166666666665,-0.13370370370370369,1.2998999999999086],[0.3228125000000001,-0.13851851851851854,1.3166000000000935],[0.32937500000000003,-0.17777777777777778,1.3332000000001827],[0.334375,-0.1948148148148148,1.349800000000279],[0.33489583333333334,-0.2140740740740741,1.3693000000002797],[0.3243750000000001,-0.24018518518518517,1.383200000000187],[0.3316666666666668,-0.28648148148148145,1.3998000000002762],[0.35520833333333335,-0.3509259259259259,1.4164999999999992],[0.3888541666666666,-0.4103703703703704,1.433200000000184],[0.4002083333333334,-0.4418518518518519,1.4498999999999072],[0.41604166666666675,-0.4868518518518518,1.466600000000092],[0.4318749999999999,-0.5318518518518518,1.4832000000001884],[0.4391666666666666,-0.5424074074074073,1.4998999999999043],[0.41218750000000004,-0.5555555555555556,1.5165000000000006],[0.3914583333333333,-0.5468518518518519,1.5331000000000898],[0.3835416666666667,-0.5372222222222223,1.5498000000002818],[0.38958333333333334,-0.5112962962962964,1.5677000000001868],[0.37312500000000004,-0.4557407407407408,1.5832000000001827],[0.3537499999999999,-0.4648148148148148,1.5998999999999057],[0.34520833333333345,-0.4485185185185185,1.6166000000000906],[0.31583333333333335,-0.46833333333333327,1.6331000000000913],[0.29052083333333345,-0.46166666666666667,1.6498999999999029],[0.26614583333333336,-0.47129629629629627,1.6676000000000926],[0.27802083333333344,-0.4896296296296296,1.6831000000000955],[0.2919791666666666,-0.47537037037037033,1.6998000000002804],[0.2931250000000001,-0.462037037037037,1.7164999999999964],[0.26687500000000003,-0.46814814814814815,1.7332000000001884],[0.2631249999999999,-0.5038888888888889,1.7498000000002776],[0.2897916666666667,-0.49148148148148146,1.7665000000000006],[0.3056250000000001,-0.5044444444444444,1.7832000000001855],[0.33010416666666675,-0.45259259259259255,1.7998000000002818],[0.35052083333333334,-0.4272222222222222,1.8164999999999978],[0.38302083333333337,-0.3866666666666667,1.8332000000001827],[0.41354166666666664,-0.33481481481481484,1.849800000000279],[0.41124999999999995,-0.35537037037037034,1.866500000000002],[0.4102083333333333,-0.38074074074074077,1.883200000000187],[0.4102083333333333,-0.38074074074074077,1.9001000000000943],[0.42208333333333337,-0.37888888888888894,1.916600000000095],[0.44645833333333323,-0.38351851851851854,1.9336000000000908],[0.4270833333333333,-0.35555555555555557,1.9498000000002804],[0.40770833333333345,-0.32759259259259255,1.9664999999999964],[0.39781250000000007,-0.3190740740740741,1.9832000000001884],[0.38791666666666674,-0.31055555555555553,1.9998999999999043],[0.3640625,-0.3024074074074074,2.0165000000000006],[0.33958333333333335,-0.28129629629629627,2.0332000000001855],[0.3497916666666666,-0.21888888888888886,2.0498999999999086],[0.3454166666666666,-0.15796296296296297,2.06730000000028],[0.34104166666666674,-0.09703703703703699,2.0832000000001827],[0.3133333333333333,-0.020555555555555598,2.1004999999999967],[0.29177083333333326,0.03481481481481473,2.116500000000002],[0.25906250000000003,0.03481481481481473,2.1333999999999094],[0.2267708333333334,0.004259259259259175,2.149800000000276],[0.1961458333333333,-0.011296296296296339,2.169300000000277],[0.1664583333333333,-0.025370370370370456,2.183200000000184],[0.14020833333333324,-0.03259259259259263,2.199899999999907],[0.10822916666666677,-0.06092592592592588,2.2163999999999078],[0.10479166666666657,-0.0668518518518519,2.2332000000001884],[0.06479166666666672,-0.11555555555555551,2.2498000000002776],[0.04791666666666667,-0.18851851851851853,2.266600000000089],[0.05406249999999998,-0.19388888888888886,2.28310000000009],[0.06697916666666662,-0.1507407407407407,2.299800000000282]]","[0.000200000000184275,0.018899999999909767,0.033200000000185526,0.04989999999990857,0.06660000000009347,0.08320000000018268,0.09989999999990573,0.11650000000000205,0.13320000000018695,0.14980000000027616,0.1664999999999992,0.18310000000009552,0.19980000000028042,0.21660000000009205,0.23310000000009268,0.2498999999999043,0.2696000000000893,0.28349999999999653,0.29980000000028184,0.3164999999999978,0.3332000000001827,0.349800000000279,0.3678999999999064,0.38630000000027565,0.40030000000027854,0.4166000000000949,0.4332000000001841,0.44989999999990715,0.46649999999999636,0.48320000000018837,0.4998999999999043,0.5165000000000006,0.5332000000001855,0.5498999999999086,0.5675000000000026,0.5833000000002784,0.599800000000279,0.616500000000002,0.633200000000187,0.6498000000002762,0.6666000000000949,0.6832000000001841,0.6998000000002804,0.7164999999999964,0.7332000000001884,0.7498999999999043,0.7716000000000918,0.7832000000001855,0.7998000000002818,0.8164999999999978,0.8332000000001827,0.855899999999906,0.8666000000000906,0.883200000000187,0.9018000000002786,0.9166000000000949,0.9333999999999065,0.9498000000002804,0.9664999999999964,0.9832000000001884,0.9998999999999043,1.0165000000000006,1.0332000000001855,1.0498000000002818,1.0705000000000027,1.0882000000001852,1.1061000000000902,1.116500000000002,1.133200000000187,1.1498999999999029,1.1664999999999992,1.183200000000184,1.1998999999999072,1.2164999999999964,1.2332000000001884,1.2498000000002776,1.2678000000002783,1.283700000000188,1.2998999999999086,1.3166000000000935,1.3332000000001827,1.349800000000279,1.3693000000002797,1.383200000000187,1.3998000000002762,1.4164999999999992,1.433200000000184,1.4498999999999072,1.466600000000092,1.4832000000001884,1.4998999999999043,1.5165000000000006,1.5331000000000898,1.5498000000002818,1.5677000000001868,1.5832000000001827,1.5998999999999057,1.6166000000000906,1.6331000000000913,1.6498999999999029,1.6676000000000926,1.6831000000000955,1.6998000000002804,1.7164999999999964,1.7332000000001884,1.7498000000002776,1.7665000000000006,1.7832000000001855,1.7998000000002818,1.8164999999999978,1.8332000000001827,1.849800000000279,1.866500000000002,1.883200000000187,1.9001000000000943,1.916600000000095,1.9336000000000908,1.9498000000002804,1.9664999999999964,1.9832000000001884,1.9998999999999043,2.0165000000000006,2.0332000000001855,2.0498999999999086,2.06730000000028,2.0832000000001827,2.1004999999999967,2.116500000000002,2.1333999999999094,2.149800000000276,2.169300000000277,2.183200000000184,2.199899999999907,2.2163999999999078,2.2332000000001884,2.2498000000002776,2.266600000000089,2.28310000000009,2.299800000000282]","[1733113818911,1733113818929,1733113818944,1733113818960,1733113818977,1733113818994,1733113819010,1733113819027,1733113819044,1733113819060,1733113819077,1733113819094,1733113819110,1733113819127,1733113819144,1733113819160,1733113819180,1733113819194,1733113819210,1733113819227,1733113819244,1733113819260,1733113819278,1733113819297,1733113819311,1733113819327,1733113819344,1733113819360,1733113819377,1733113819394,1733113819410,1733113819427,1733113819444,1733113819460,1733113819478,1733113819494,1733113819510,1733113819527,1733113819544,1733113819560,1733113819577,1733113819594,1733113819610,1733113819627,1733113819644,1733113819660,1733113819682,1733113819694,1733113819710,1733113819727,1733113819744,1733113819766,1733113819777,1733113819794,1733113819812,1733113819827,1733113819844,1733113819860,1733113819877,1733113819894,1733113819910,1733113819927,1733113819944,1733113819960,1733113819981,1733113819999,1733113820017,1733113820027,1733113820044,1733113820060,1733113820077,1733113820094,1733113820110,1733113820127,1733113820144,1733113820160,1733113820178,1733113820194,1733113820210,1733113820227,1733113820244,1733113820260,1733113820280,1733113820294,1733113820310,1733113820327,1733113820344,1733113820360,1733113820377,1733113820394,1733113820410,1733113820427,1733113820444,1733113820460,1733113820478,1733113820494,1733113820510,1733113820527,1733113820544,1733113820560,1733113820578,1733113820594,1733113820610,1733113820627,1733113820644,1733113820660,1733113820677,1733113820694,1733113820710,1733113820727,1733113820744,1733113820760,1733113820777,1733113820794,1733113820811,1733113820827,1733113820844,1733113820860,1733113820877,1733113820894,1733113820910,1733113820927,1733113820944,1733113820960,1733113820978,1733113820994,1733113821011,1733113821027,1733113821044,1733113821060,1733113821080,1733113821094,1733113821110,1733113821127,1733113821144,1733113821160,1733113821177,1733113821194,1733113821210]","[[1206.8,377.8],[1214,392],[1229.7,386.5],[1220.4,404.8],[1216.9,420.3],[1206.7,435.2],[1190.8,461.9],[1166.5,460.5],[1173.8,468.6],[1157,454.8],[1154.4,441.7],[1156,429.1],[1156.4,421.1],[1171,400.1],[1169.4,403],[1176.9,408.8],[1171.6,419.8],[1180.4,407.1],[1170.7,398.5],[1136.8,391.8],[1088.7,384.4],[1047,379.7],[993.2,369.8],[931.5,376.8],[877,366.8],[816.1,349.6],[761.3,339.3],[708.3,357.8],[661.4,369.2],[659.7,379.7],[642.5,399.2],[647.7,386.2],[647.1,413.9],[654.4,424.7],[671.5,423.4],[695,429.3],[709.6,424.8],[714.3,411.3],[717.2,420.5],[715.4,432],[715.4,432],[729.1,434.5],[729.1,434.5],[704,434.7],[704,434.7],[700.5,424.3],[699.7,398.3],[699.7,398.3],[683.6,398.3],[683.6,398.3],[649.2,394.8],[654.7,394.3],[654.7,394.3],[665.4,410.1],[677.4,408.5],[677.4,408.5],[689.4,406.9],[685.1,419.6],[710.7,451.2],[741.6,468],[767.8,488.9],[808.5,489],[907.1,515.1],[968.6,541.7],[1019.1,572.4],[1019.1,572.4],[1067.2,604.7],[1067.2,604.7],[1118.1,615.9],[1180.1,606.1],[1227,599.5],[1259.1,585.9],[1293.2,583.8],[1337.9,585.4],[1326.4,562.4],[1299.3,549.2],[1280,520.6],[1278.9,477.1],[1271.8,467.8],[1269.9,465.2],[1276.2,444],[1281,434.8],[1281.5,424.4],[1271.4,410.3],[1278.4,385.3],[1301,350.5],[1333.3,318.4],[1344.2,301.4],[1359.4,277.1],[1374.6,252.8],[1381.6,247.1],[1355.7,240],[1335.8,244.7],[1328.2,249.9],[1334,263.9],[1318.2,293.9],[1299.6,289],[1291.4,297.8],[1263.2,287.1],[1238.9,290.7],[1215.5,285.5],[1226.9,275.6],[1240.3,283.3],[1241.4,290.5],[1216.2,287.2],[1212.6,267.9],[1238.2,274.6],[1253.4,267.6],[1276.9,295.6],[1296.5,309.3],[1327.7,331.2],[1357,359.2],[1354.8,348.1],[1353.8,334.4],[1353.8,334.4],[1365.2,335.4],[1388.6,332.9],[1370,348],[1351.4,363.1],[1341.9,367.7],[1332.4,372.3],[1309.5,376.7],[1286,388.1],[1295.8,421.8],[1291.6,454.7],[1287.4,487.6],[1260.8,528.9],[1240.1,558.8],[1208.7,558.8],[1177.7,542.3],[1148.3,533.9],[1119.8,526.3],[1094.6,522.4],[1063.9,507.1],[1060.6,503.9],[1022.2,477.6],[1006,438.2],[1011.9,435.3],[1024.3,458.6]]","[0,0.37864299999999995]","[0.37864299999999995,0.37864299999999995]","[-0.37864299999999995,0]","[-0.37864299999999995,-0.37864299999999995]","[0,0]","[0.37864299999999995,0]","[0,-0.37864299999999995]","[0.37864299999999995,-0.37864299999999995]",0,2,2,2,1,3,Laptop,5,5,15,9
