inst1_resp.keys,inst1_resp.rt,calibrationMouse.x,calibrationMouse.y,calibrationMouse.leftButton,calibrationMouse.midButton,calibrationMouse.rightButton,calibrationClick.x,calibrationClick.y,calibrationClick.leftButton,calibrationClick.midButton,calibrationClick.rightButton,calibrationClick.clicked_name,trialsc.thisRepN,trialsc.thisTrialN,trialsc.thisN,trialsc.thisIndex,trialsc.ran,calibration_x,calibration_y,participant,session,date,expName,psychopyVersion,OS,frameRate,ScreenRes_pixels,Camera_pixels,mouse_2.x,mouse_2.y,mouse_2.leftButton,mouse_2.midButton,mouse_2.rightButton,mouse_2.time,mouse_2.clicked_name,mouse.x,mouse.y,mouse.leftButton,mouse.midButton,mouse.rightButton,mouse.time,mouse.clicked_name,Choice,Trial,TrialDuration,MOUSE_GAZE,ET_GAZE,ET_GAZE_x_T,time,unixTime,ET_GAZE_NF,Loc_Option1_label,Loc_Option2_label,Loc_Cost_label,Loc_Qual_label,Loc_Option1_cost,Loc_Option2_cost,Loc_Option1_quality,Loc_Option2_quality,trials.thisRepN,trials.thisTrialN,trials.thisN,trials.thisIndex,trials.ran,Block,Device,cost1,qual1,cost2,qual2
space,3.9803,0.055208333,-0.287037037,1,0,0,-0.671875,0.003703704,1,0,0,calibration_square,0,0,0,2,1,-0.67,0,13,001,2024-12-02_12h20.24.319,Attention_exp_legacy,2023.1.0,Win32,60.24096386,,,,,,,,,,,,,,,,,,,,,,,,,,,,,,,,,,,,,,,,,,,,
,,,,,,,-0.670833333,-0.67037037,1,0,0,calibration_square,0,1,1,0,1,-0.67,-0.67,13,001,2024-12-02_12h20.24.319,Attention_exp_legacy,2023.1.0,Win32,60.24096386,,,,,,,,,,,,,,,,,,,,,,,,,,,,,,,,,,,,,,,,,,,,
,,,,,,,-0.332291667,-0.659259259,1,0,0,,0,2,2,4,1,-0.33,-0.67,13,001,2024-12-02_12h20.24.319,Attention_exp_legacy,2023.1.0,Win32,60.24096386,,,,,,,,,,,,,,,,,,,,,,,,,,,,,,,,,,,,,,,,,,,,
,,,,,,,0.327083333,0.314814815,1,0,0,,0,3,3,17,1,0.33,0.33,13,001,2024-12-02_12h20.24.319,Attention_exp_legacy,2023.1.0,Win32,60.24096386,,,,,,,,,,,,,,,,,,,,,,,,,,,,,,,,,,,,,,,,,,,,
,,,,,,,-0.005208333,0.668518519,1,0,0,calibration_square,0,4,4,13,1,0,0.67,13,001,2024-12-02_12h20.24.319,Attention_exp_legacy,2023.1.0,Win32,60.24096386,,,,,,,,,,,,,,,,,,,,,,,,,,,,,,,,,,,,,,,,,,,,
,,,,,,,-0.339583333,0.342592593,1,0,0,,0,5,5,7,1,-0.33,0.33,13,001,2024-12-02_12h20.24.319,Attention_exp_legacy,2023.1.0,Win32,60.24096386,,,,,,,,,,,,,,,,,,,,,,,,,,,,,,,,,,,,,,,,,,,,
,,,,,,,0.66875,-0.674074074,1,0,0,calibration_square,0,6,6,20,1,0.67,-0.67,13,001,2024-12-02_12h20.24.319,Attention_exp_legacy,2023.1.0,Win32,60.24096386,,,,,,,,,,,,,,,,,,,,,,,,,,,,,,,,,,,,,,,,,,,,
,,,,,,,0.329166667,-0.338888889,1,0,0,calibration_square,0,7,7,15,1,0.33,-0.33,13,001,2024-12-02_12h20.24.319,Attention_exp_legacy,2023.1.0,Win32,60.24096386,,,,,,,,,,,,,,,,,,,,,,,,,,,,,,,,,,,,,,,,,,,,
,,,,,,,-0.325,0.012962963,1,0,0,,0,8,8,6,1,-0.33,0,13,001,2024-12-02_12h20.24.319,Attention_exp_legacy,2023.1.0,Win32,60.24096386,,,,,,,,,,,,,,,,,,,,,,,,,,,,,,,,,,,,,,,,,,,,
,,,,,,,0.003125,-0.32037037,1,0,0,calibration_square,0,9,9,10,1,0,-0.33,13,001,2024-12-02_12h20.24.319,Attention_exp_legacy,2023.1.0,Win32,60.24096386,,,,,,,,,,,,,,,,,,,,,,,,,,,,,,,,,,,,,,,,,,,,
,,,,,,,-0.666666667,-0.32962963,1,0,0,calibration_square,0,10,10,1,1,-0.67,-0.33,13,001,2024-12-02_12h20.24.319,Attention_exp_legacy,2023.1.0,Win32,60.24096386,,,,,,,,,,,,,,,,,,,,,,,,,,,,,,,,,,,,,,,,,,,,
,,,,,,,0.327083333,0.005555556,1,0,0,calibration_square,0,11,11,16,1,0.33,0,13,001,2024-12-02_12h20.24.319,Attention_exp_legacy,2023.1.0,Win32,60.24096386,,,,,,,,,,,,,,,,,,,,,,,,,,,,,,,,,,,,,,,,,,,,
,,,,,,,-0.010416667,0.333333333,1,0,0,,0,12,12,12,1,0,0.33,13,001,2024-12-02_12h20.24.319,Attention_exp_legacy,2023.1.0,Win32,60.24096386,,,,,,,,,,,,,,,,,,,,,,,,,,,,,,,,,,,,,,,,,,,,
,,,,,,,-0.003125,-0.664814815,1,0,0,calibration_square,0,13,13,9,1,0,-0.67,13,001,2024-12-02_12h20.24.319,Attention_exp_legacy,2023.1.0,Win32,60.24096386,,,,,,,,,,,,,,,,,,,,,,,,,,,,,,,,,,,,,,,,,,,,
,,,,,,,0.670833333,0.655555556,1,0,0,,0,14,14,19,1,0.67,0.67,13,001,2024-12-02_12h20.24.319,Attention_exp_legacy,2023.1.0,Win32,60.24096386,,,,,,,,,,,,,,,,,,,,,,,,,,,,,,,,,,,,,,,,,,,,
,,,,,,,-0.676041667,0.324074074,1,0,0,calibration_square,0,15,15,3,1,-0.67,0.33,13,001,2024-12-02_12h20.24.319,Attention_exp_legacy,2023.1.0,Win32,60.24096386,,,,,,,,,,,,,,,,,,,,,,,,,,,,,,,,,,,,,,,,,,,,
,,,,,,,0.320833333,0.674074074,1,0,0,calibration_square,0,16,16,18,1,0.33,0.67,13,001,2024-12-02_12h20.24.319,Attention_exp_legacy,2023.1.0,Win32,60.24096386,,,,,,,,,,,,,,,,,,,,,,,,,,,,,,,,,,,,,,,,,,,,
,,,,,,,-0.010416667,-0.001851852,1,0,0,,0,17,17,11,1,0,0,13,001,2024-12-02_12h20.24.319,Attention_exp_legacy,2023.1.0,Win32,60.24096386,,,,,,,,,,,,,,,,,,,,,,,,,,,,,,,,,,,,,,,,,,,,
,,,,,,,-0.33125,-0.324074074,1,0,0,calibration_square,0,18,18,5,1,-0.33,-0.33,13,001,2024-12-02_12h20.24.319,Attention_exp_legacy,2023.1.0,Win32,60.24096386,,,,,,,,,,,,,,,,,,,,,,,,,,,,,,,,,,,,,,,,,,,,
,,,,,,,-0.330208333,0.662962963,1,0,0,calibration_square,0,19,19,8,1,-0.33,0.67,13,001,2024-12-02_12h20.24.319,Attention_exp_legacy,2023.1.0,Win32,60.24096386,,,,,,,,,,,,,,,,,,,,,,,,,,,,,,,,,,,,,,,,,,,,
,,,,,,,0.320833333,-0.651851852,1,0,0,,0,20,20,14,1,0.33,-0.67,13,001,2024-12-02_12h20.24.319,Attention_exp_legacy,2023.1.0,Win32,60.24096386,,,,,,,,,,,,,,,,,,,,,,,,,,,,,,,,,,,,,,,,,,,,
,,,,,,,,,,,,,,,,,,,,13,001,2024-12-02_12h20.24.319,Attention_exp_legacy,2023.1.0,Win32,60.24096386,"[1920,1080]","[640,480]","[0.18020833333333333,0.18958333333333333,0.0010416666666666667]","[0.24074074074074073,0.2351851851851852,-0.4777777777777778]","[1,1,1]","[0,0,0]","[0,0,0]","[32.78049999999999,33.192600000000084,34.82490000000037]","[""StartButton""]",[0.3927083333333333],[0.34074074074074073],[1],[0],[0],[8.150000000000006],"[""Option2_label""]",Option2_label,1,9.1623,"[[0.07604166666666666,-0.14814814814814814],[0.07604166666666666,-0.14814814814814814],[0.07604166666666666,-0.14814814814814814],[0.07604166666666666,-0.14814814814814814],[0.07604166666666666,-0.14814814814814814],[0.07604166666666666,-0.14814814814814814],[0.07604166666666666,-0.14814814814814814],[0.07604166666666666,-0.14814814814814814],[0.07604166666666666,-0.14814814814814814],[0.07604166666666666,-0.14814814814814814],[0.07604166666666666,-0.14814814814814814],[0.07604166666666666,-0.14814814814814814],[0.07604166666666666,-0.14814814814814814],[0.07604166666666666,-0.14814814814814814],[0.07604166666666666,-0.14814814814814814],[0.07604166666666666,-0.14814814814814814],[0.07604166666666666,-0.14814814814814814],[0.07604166666666666,-0.14814814814814814],[0.07604166666666666,-0.14814814814814814],[0.07604166666666666,-0.14814814814814814],[0.07604166666666666,-0.14814814814814814],[0.07604166666666666,-0.14814814814814814],[0.07604166666666666,-0.14814814814814814],[0.07604166666666666,-0.14814814814814814],[0.07604166666666666,-0.14814814814814814],[0.07604166666666666,-0.14814814814814814],[0.07604166666666666,-0.14814814814814814],[0.07604166666666666,-0.14814814814814814],[0.07604166666666666,-0.14814814814814814],[0.07604166666666666,-0.14814814814814814],[0.07604166666666666,-0.14814814814814814],[0.07604166666666666,-0.14814814814814814],[0.07604166666666666,-0.14814814814814814],[0.07604166666666666,-0.14814814814814814],[0.07604166666666666,-0.14814814814814814],[0.07604166666666666,-0.14814814814814814],[0.07604166666666666,-0.14814814814814814],[0.07604166666666666,-0.14814814814814814],[0.07604166666666666,-0.14814814814814814],[0.07604166666666666,-0.14814814814814814],[0.07604166666666666,-0.14814814814814814],[0.07604166666666666,-0.14814814814814814],[0.07604166666666666,-0.14814814814814814],[0.07604166666666666,-0.14814814814814814],[0.07604166666666666,-0.14814814814814814],[0.07604166666666666,-0.14814814814814814],[0.07604166666666666,-0.14814814814814814],[0.07083333333333333,-0.14629629629629629],[0.065625,-0.14074074074074075],[0.06145833333333333,-0.1388888888888889],[0.058333333333333334,-0.13518518518518519],[0.058333333333333334,-0.13333333333333333],[0.057291666666666664,-0.13148148148148148],[0.05625,-0.13148148148148148],[0.05625,-0.13148148148148148],[0.05625,-0.13148148148148148],[0.05625,-0.13148148148148148],[0.05625,-0.13148148148148148],[0.05625,-0.13148148148148148],[0.05625,-0.13148148148148148],[0.05625,-0.13148148148148148],[0.05625,-0.13148148148148148],[0.05625,-0.13148148148148148],[0.05625,-0.13148148148148148],[0.05625,-0.13148148148148148],[0.05625,-0.13148148148148148],[0.05625,-0.13148148148148148],[0.05625,-0.13148148148148148],[0.05625,-0.13148148148148148],[0.05625,-0.13148148148148148],[0.05625,-0.13148148148148148],[0.05625,-0.13148148148148148],[0.05625,-0.13148148148148148],[0.05625,-0.13148148148148148],[0.05625,-0.13148148148148148],[0.05625,-0.13148148148148148],[0.057291666666666664,-0.12962962962962962],[0.057291666666666664,-0.12962962962962962],[0.058333333333333334,-0.12777777777777777],[0.06041666666666667,-0.12777777777777777],[0.06145833333333333,-0.1259259259259259],[0.0625,-0.1259259259259259],[0.06354166666666666,-0.1259259259259259],[0.065625,-0.1259259259259259],[0.06770833333333333,-0.1259259259259259],[0.06979166666666667,-0.12222222222222222],[0.07291666666666667,-0.12222222222222222],[0.075,-0.12037037037037036],[0.07916666666666666,-0.11851851851851852],[0.08020833333333334,-0.11851851851851852],[0.08333333333333333,-0.11666666666666667],[0.08333333333333333,-0.11666666666666667],[0.084375,-0.11666666666666667],[0.084375,-0.11666666666666667],[0.084375,-0.11666666666666667],[0.08541666666666667,-0.11666666666666667],[0.08541666666666667,-0.11666666666666667],[0.08541666666666667,-0.11666666666666667],[0.08541666666666667,-0.11666666666666667],[0.08541666666666667,-0.11666666666666667],[0.08541666666666667,-0.11666666666666667],[0.08541666666666667,-0.11666666666666667],[0.08541666666666667,-0.11666666666666667],[0.08541666666666667,-0.11666666666666667],[0.08541666666666667,-0.11666666666666667],[0.08541666666666667,-0.11666666666666667],[0.08541666666666667,-0.11666666666666667],[0.08541666666666667,-0.11666666666666667],[0.08541666666666667,-0.11666666666666667],[0.08541666666666667,-0.11666666666666667],[0.08541666666666667,-0.11666666666666667],[0.08541666666666667,-0.11666666666666667],[0.08541666666666667,-0.11666666666666667],[0.08541666666666667,-0.11666666666666667],[0.08541666666666667,-0.11666666666666667],[0.08541666666666667,-0.11666666666666667],[0.08541666666666667,-0.11666666666666667],[0.08541666666666667,-0.11666666666666667],[0.08541666666666667,-0.11666666666666667],[0.08541666666666667,-0.11666666666666667],[0.08541666666666667,-0.11666666666666667],[0.08541666666666667,-0.11666666666666667],[0.08541666666666667,-0.11666666666666667],[0.08541666666666667,-0.11666666666666667],[0.08541666666666667,-0.11666666666666667],[0.08541666666666667,-0.11666666666666667],[0.08541666666666667,-0.11666666666666667],[0.08541666666666667,-0.11666666666666667],[0.08541666666666667,-0.11666666666666667],[0.08541666666666667,-0.11666666666666667],[0.08541666666666667,-0.11666666666666667],[0.08541666666666667,-0.11666666666666667],[0.08541666666666667,-0.11666666666666667],[0.08541666666666667,-0.11666666666666667],[0.08541666666666667,-0.11666666666666667],[0.08541666666666667,-0.11666666666666667],[0.08541666666666667,-0.11666666666666667],[0.08541666666666667,-0.11666666666666667],[0.08541666666666667,-0.11666666666666667],[0.08541666666666667,-0.11666666666666667],[0.08541666666666667,-0.11666666666666667],[0.08541666666666667,-0.11666666666666667],[0.08541666666666667,-0.11666666666666667],[0.08541666666666667,-0.11666666666666667],[0.08541666666666667,-0.11666666666666667],[0.08541666666666667,-0.11666666666666667],[0.08541666666666667,-0.11666666666666667],[0.08541666666666667,-0.11666666666666667],[0.08541666666666667,-0.11666666666666667],[0.08541666666666667,-0.11666666666666667],[0.08541666666666667,-0.11666666666666667],[0.08541666666666667,-0.11666666666666667],[0.08541666666666667,-0.11666666666666667],[0.08541666666666667,-0.11666666666666667],[0.08541666666666667,-0.11666666666666667],[0.08541666666666667,-0.11666666666666667],[0.08541666666666667,-0.11666666666666667],[0.08541666666666667,-0.11666666666666667],[0.08541666666666667,-0.11666666666666667],[0.08541666666666667,-0.11666666666666667],[0.08541666666666667,-0.11666666666666667],[0.08541666666666667,-0.11666666666666667],[0.08541666666666667,-0.11666666666666667],[0.08541666666666667,-0.11666666666666667],[0.08541666666666667,-0.11666666666666667],[0.08541666666666667,-0.11666666666666667],[0.08541666666666667,-0.11666666666666667],[0.08541666666666667,-0.11666666666666667],[0.08541666666666667,-0.11666666666666667],[0.08541666666666667,-0.11666666666666667],[0.08541666666666667,-0.11666666666666667],[0.08541666666666667,-0.11666666666666667],[0.08541666666666667,-0.11666666666666667],[0.08541666666666667,-0.11666666666666667],[0.08541666666666667,-0.11666666666666667],[0.08541666666666667,-0.11666666666666667],[0.08541666666666667,-0.11666666666666667],[0.08541666666666667,-0.11666666666666667],[0.08541666666666667,-0.11666666666666667],[0.08541666666666667,-0.11666666666666667],[0.08541666666666667,-0.11666666666666667],[0.08541666666666667,-0.11666666666666667],[0.08541666666666667,-0.11666666666666667],[0.08541666666666667,-0.11666666666666667],[0.08541666666666667,-0.11666666666666667],[0.08541666666666667,-0.11666666666666667],[0.08541666666666667,-0.11666666666666667],[0.08541666666666667,-0.11666666666666667],[0.08541666666666667,-0.11666666666666667],[0.08541666666666667,-0.11666666666666667],[0.08541666666666667,-0.11666666666666667],[0.08541666666666667,-0.11666666666666667],[0.08541666666666667,-0.11666666666666667],[0.08541666666666667,-0.11666666666666667],[0.08541666666666667,-0.11666666666666667],[0.08541666666666667,-0.11666666666666667],[0.08541666666666667,-0.11666666666666667],[0.08541666666666667,-0.11666666666666667],[0.08541666666666667,-0.11666666666666667],[0.08541666666666667,-0.11666666666666667],[0.08541666666666667,-0.11666666666666667],[0.08541666666666667,-0.11666666666666667],[0.08541666666666667,-0.11666666666666667],[0.08541666666666667,-0.11666666666666667],[0.08541666666666667,-0.11666666666666667],[0.08541666666666667,-0.11666666666666667],[0.08541666666666667,-0.11666666666666667],[0.08541666666666667,-0.11666666666666667],[0.08541666666666667,-0.11666666666666667],[0.08541666666666667,-0.11666666666666667],[0.08541666666666667,-0.11666666666666667],[0.08541666666666667,-0.11666666666666667],[0.08541666666666667,-0.11666666666666667],[0.08541666666666667,-0.11666666666666667],[0.08645833333333333,-0.11666666666666667],[0.08645833333333333,-0.11666666666666667],[0.08645833333333333,-0.11666666666666667],[0.08645833333333333,-0.11666666666666667],[0.08645833333333333,-0.11666666666666667],[0.08645833333333333,-0.11666666666666667],[0.0875,-0.11666666666666667],[0.0875,-0.11666666666666667],[0.0875,-0.11666666666666667],[0.08854166666666667,-0.11666666666666667],[0.08958333333333333,-0.11481481481481481],[0.08958333333333333,-0.11481481481481481],[0.08958333333333333,-0.11481481481481481],[0.08958333333333333,-0.11481481481481481],[0.08958333333333333,-0.11481481481481481],[0.08958333333333333,-0.11481481481481481],[0.08958333333333333,-0.11481481481481481],[0.08958333333333333,-0.11481481481481481],[0.08958333333333333,-0.11481481481481481],[0.08958333333333333,-0.11481481481481481],[0.08958333333333333,-0.11481481481481481],[0.08958333333333333,-0.11481481481481481],[0.08958333333333333,-0.11481481481481481],[0.08958333333333333,-0.11481481481481481],[0.08958333333333333,-0.11481481481481481],[0.08958333333333333,-0.11481481481481481],[0.08958333333333333,-0.11481481481481481],[0.08958333333333333,-0.11481481481481481],[0.08958333333333333,-0.11481481481481481],[0.08958333333333333,-0.11481481481481481],[0.08958333333333333,-0.11481481481481481],[0.08958333333333333,-0.11481481481481481],[0.08958333333333333,-0.11481481481481481],[0.08958333333333333,-0.11481481481481481],[0.08958333333333333,-0.11481481481481481],[0.08958333333333333,-0.11481481481481481],[0.08958333333333333,-0.11481481481481481],[0.08958333333333333,-0.11481481481481481],[0.08958333333333333,-0.11481481481481481],[0.08958333333333333,-0.11481481481481481],[0.08958333333333333,-0.11481481481481481],[0.08958333333333333,-0.11481481481481481],[0.08958333333333333,-0.11481481481481481],[0.08958333333333333,-0.11481481481481481],[0.08958333333333333,-0.11481481481481481],[0.08958333333333333,-0.11481481481481481],[0.08958333333333333,-0.11481481481481481],[0.08958333333333333,-0.11481481481481481],[0.08958333333333333,-0.11481481481481481],[0.08958333333333333,-0.11481481481481481],[0.08958333333333333,-0.11481481481481481],[0.08958333333333333,-0.11481481481481481],[0.08958333333333333,-0.11481481481481481],[0.08958333333333333,-0.11481481481481481],[0.08958333333333333,-0.11481481481481481],[0.08958333333333333,-0.11481481481481481],[0.08958333333333333,-0.11481481481481481],[0.08958333333333333,-0.11481481481481481],[0.08958333333333333,-0.11481481481481481],[0.08958333333333333,-0.11481481481481481],[0.08958333333333333,-0.11481481481481481],[0.08958333333333333,-0.11481481481481481],[0.08958333333333333,-0.11481481481481481],[0.08958333333333333,-0.11481481481481481],[0.08958333333333333,-0.11481481481481481],[0.08958333333333333,-0.11481481481481481],[0.08958333333333333,-0.11481481481481481],[0.08958333333333333,-0.11481481481481481],[0.08958333333333333,-0.11481481481481481],[0.08958333333333333,-0.11481481481481481],[0.090625,-0.11481481481481481],[0.090625,-0.11481481481481481],[0.090625,-0.11481481481481481],[0.090625,-0.11481481481481481],[0.090625,-0.11481481481481481],[0.090625,-0.11481481481481481],[0.090625,-0.11481481481481481],[0.090625,-0.11481481481481481],[0.090625,-0.11481481481481481],[0.090625,-0.11481481481481481],[0.090625,-0.11481481481481481],[0.090625,-0.11481481481481481],[0.090625,-0.11481481481481481],[0.090625,-0.11481481481481481],[0.090625,-0.11481481481481481],[0.090625,-0.11481481481481481],[0.090625,-0.11481481481481481],[0.090625,-0.11481481481481481],[0.090625,-0.11481481481481481],[0.090625,-0.11481481481481481],[0.090625,-0.11481481481481481],[0.090625,-0.11481481481481481],[0.090625,-0.11481481481481481],[0.090625,-0.11481481481481481],[0.090625,-0.11481481481481481],[0.090625,-0.11481481481481481],[0.090625,-0.11481481481481481],[0.090625,-0.11481481481481481],[0.090625,-0.11481481481481481],[0.090625,-0.11481481481481481],[0.090625,-0.11481481481481481],[0.090625,-0.11481481481481481],[0.090625,-0.11481481481481481],[0.090625,-0.11481481481481481],[0.090625,-0.11481481481481481],[0.090625,-0.11481481481481481],[0.090625,-0.11481481481481481],[0.090625,-0.11481481481481481],[0.090625,-0.11481481481481481],[0.090625,-0.11481481481481481],[0.090625,-0.11481481481481481],[0.090625,-0.11481481481481481],[0.090625,-0.11481481481481481],[0.090625,-0.11481481481481481],[0.090625,-0.11481481481481481],[0.090625,-0.11481481481481481],[0.090625,-0.11481481481481481],[0.090625,-0.11481481481481481],[0.090625,-0.11481481481481481],[0.090625,-0.11481481481481481],[0.090625,-0.11481481481481481],[0.090625,-0.11481481481481481],[0.090625,-0.11481481481481481],[0.090625,-0.11481481481481481],[0.090625,-0.11481481481481481],[0.090625,-0.11481481481481481],[0.090625,-0.11481481481481481],[0.090625,-0.11481481481481481],[0.090625,-0.11481481481481481],[0.090625,-0.11481481481481481],[0.090625,-0.11481481481481481],[0.090625,-0.11481481481481481],[0.090625,-0.11481481481481481],[0.090625,-0.11481481481481481],[0.090625,-0.11481481481481481],[0.090625,-0.11481481481481481],[0.090625,-0.11481481481481481],[0.090625,-0.11481481481481481],[0.090625,-0.11481481481481481],[0.090625,-0.11481481481481481],[0.090625,-0.11481481481481481],[0.090625,-0.11481481481481481],[0.090625,-0.11481481481481481],[0.090625,-0.11481481481481481],[0.090625,-0.11481481481481481],[0.090625,-0.11481481481481481],[0.090625,-0.11481481481481481],[0.090625,-0.11481481481481481],[0.090625,-0.11481481481481481],[0.090625,-0.11481481481481481],[0.090625,-0.11481481481481481],[0.090625,-0.11481481481481481],[0.090625,-0.11481481481481481],[0.090625,-0.11481481481481481],[0.090625,-0.11481481481481481],[0.090625,-0.11481481481481481],[0.090625,-0.11481481481481481],[0.090625,-0.11481481481481481],[0.090625,-0.11481481481481481],[0.090625,-0.11481481481481481],[0.090625,-0.11481481481481481],[0.090625,-0.11481481481481481],[0.090625,-0.11481481481481481],[0.090625,-0.11481481481481481],[0.090625,-0.11481481481481481],[0.090625,-0.11481481481481481],[0.090625,-0.11481481481481481],[0.090625,-0.11481481481481481],[0.090625,-0.11481481481481481],[0.090625,-0.11481481481481481],[0.090625,-0.11481481481481481],[0.090625,-0.11481481481481481],[0.090625,-0.11481481481481481],[0.090625,-0.11481481481481481],[0.090625,-0.11481481481481481],[0.090625,-0.11481481481481481],[0.090625,-0.11481481481481481],[0.090625,-0.11481481481481481],[0.090625,-0.11481481481481481],[0.090625,-0.11481481481481481],[0.090625,-0.11481481481481481],[0.090625,-0.11481481481481481],[0.090625,-0.11481481481481481],[0.090625,-0.11481481481481481],[0.090625,-0.11481481481481481],[0.090625,-0.11481481481481481],[0.090625,-0.11481481481481481],[0.090625,-0.11481481481481481],[0.090625,-0.11481481481481481],[0.090625,-0.11481481481481481],[0.090625,-0.11481481481481481],[0.090625,-0.11481481481481481],[0.090625,-0.11481481481481481],[0.090625,-0.11481481481481481],[0.090625,-0.11481481481481481],[0.090625,-0.11481481481481481],[0.090625,-0.11481481481481481],[0.090625,-0.11481481481481481],[0.090625,-0.11481481481481481],[0.090625,-0.11481481481481481],[0.090625,-0.11481481481481481],[0.090625,-0.11481481481481481],[0.090625,-0.11481481481481481],[0.090625,-0.11481481481481481],[0.09270833333333334,-0.11481481481481481],[0.10104166666666667,-0.11481481481481481],[0.11354166666666667,-0.11481481481481481],[0.12395833333333334,-0.11666666666666667],[0.13333333333333333,-0.11851851851851852],[0.14479166666666668,-0.11851851851851852],[0.14791666666666667,-0.11851851851851852],[0.153125,-0.11851851851851852],[0.15729166666666666,-0.12037037037037036],[0.17708333333333334,-0.12037037037037036],[0.19270833333333334,-0.12037037037037036],[0.21041666666666667,-0.12037037037037036],[0.22708333333333333,-0.12037037037037036],[0.24270833333333333,-0.12037037037037036],[0.25416666666666665,-0.12037037037037036],[0.265625,-0.12037037037037036],[0.27708333333333335,-0.12037037037037036],[0.290625,-0.11296296296296296],[0.2989583333333333,-0.10925925925925926],[0.30625,-0.10555555555555556],[0.309375,-0.1037037037037037],[0.3177083333333333,-0.09814814814814815],[0.325,-0.09814814814814815],[0.3333333333333333,-0.09259259259259259],[0.34270833333333334,-0.08703703703703704],[0.346875,-0.08333333333333333],[0.35208333333333336,-0.07777777777777778],[0.35520833333333335,-0.07592592592592592],[0.35833333333333334,-0.07222222222222222],[0.3625,-0.06851851851851852],[0.3645833333333333,-0.06481481481481481],[0.36666666666666664,-0.06111111111111111],[0.36770833333333336,-0.05925925925925926],[0.36770833333333336,-0.05925925925925926],[0.36770833333333336,-0.05740740740740741],[0.36770833333333336,-0.05740740740740741],[0.36770833333333336,-0.05740740740740741],[0.36770833333333336,-0.05555555555555555],[0.36770833333333336,-0.053703703703703705],[0.36770833333333336,-0.05],[0.36770833333333336,-0.04814814814814815],[0.36770833333333336,-0.044444444444444446],[0.36666666666666664,-0.04259259259259259],[0.365625,-0.03888888888888889],[0.3645833333333333,-0.037037037037037035],[0.36354166666666665,-0.03518518518518519],[0.36354166666666665,-0.03148148148148148],[0.3625,-0.027777777777777776],[0.36041666666666666,-0.018518518518518517],[0.3572916666666667,-0.005555555555555556],[0.35520833333333335,0.011111111111111112],[0.35104166666666664,0.027777777777777776],[0.34791666666666665,0.044444444444444446],[0.346875,0.05925925925925926],[0.346875,0.07407407407407407],[0.346875,0.09074074074074075],[0.346875,0.10555555555555556],[0.35,0.12962962962962962],[0.35208333333333336,0.14444444444444443],[0.3541666666666667,0.1648148148148148],[0.3572916666666667,0.1814814814814815],[0.3625,0.20555555555555555],[0.36875,0.22962962962962963],[0.3729166666666667,0.2462962962962963],[0.3770833333333333,0.26481481481481484],[0.38125,0.2796296296296296],[0.38229166666666664,0.29259259259259257],[0.3854166666666667,0.3111111111111111],[0.3885416666666667,0.32592592592592595],[0.39166666666666666,0.3388888888888889],[0.3927083333333333,0.34074074074074073],[0.3927083333333333,0.34074074074074073],[0.3927083333333333,0.34074074074074073],[0.39479166666666665,0.34074074074074073],[0.39479166666666665,0.34074074074074073],[0.39479166666666665,0.34074074074074073],[0.39479166666666665,0.34074074074074073],[0.39479166666666665,0.34074074074074073],[0.39479166666666665,0.34074074074074073],[0.39479166666666665,0.34074074074074073],[0.39479166666666665,0.34074074074074073],[0.39479166666666665,0.34074074074074073],[0.39479166666666665,0.34074074074074073],[0.39479166666666665,0.34074074074074073],[0.39479166666666665,0.34074074074074073],[0.39479166666666665,0.34074074074074073],[0.39479166666666665,0.34074074074074073],[0.39479166666666665,0.34074074074074073],[0.39479166666666665,0.34074074074074073],[0.39479166666666665,0.34074074074074073],[0.39479166666666665,0.34074074074074073],[0.39479166666666665,0.34074074074074073],[0.39479166666666665,0.34074074074074073],[0.39479166666666665,0.34074074074074073],[0.39479166666666665,0.34074074074074073],[0.39479166666666665,0.34074074074074073],[0.39479166666666665,0.34074074074074073],[0.39479166666666665,0.34074074074074073],[0.39479166666666665,0.34074074074074073],[0.39479166666666665,0.34074074074074073],[0.39479166666666665,0.34074074074074073],[0.39479166666666665,0.34074074074074073],[0.39479166666666665,0.34074074074074073],[0.39479166666666665,0.34074074074074073],[0.39479166666666665,0.34074074074074073],[0.39479166666666665,0.34074074074074073],[0.39479166666666665,0.34074074074074073],[0.39479166666666665,0.34074074074074073],[0.39479166666666665,0.34074074074074073],[0.39479166666666665,0.34074074074074073],[0.39479166666666665,0.34074074074074073],[0.39479166666666665,0.34074074074074073],[0.39479166666666665,0.34074074074074073],[0.39479166666666665,0.34074074074074073],[0.39479166666666665,0.34074074074074073],[0.3927083333333333,0.34074074074074073],[0.390625,0.3388888888888889],[0.3885416666666667,0.337037037037037],[0.38645833333333335,0.337037037037037],[0.38645833333333335,0.3351851851851852],[0.3854166666666667,0.3333333333333333],[0.38333333333333336,0.3314814814814815],[0.38229166666666664,0.3314814814814815],[0.3802083333333333,0.3296296296296296],[0.3802083333333333,0.3277777777777778],[0.37916666666666665,0.3277777777777778],[0.378125,0.3277777777777778],[0.378125,0.3277777777777778],[0.378125,0.3277777777777778],[0.378125,0.3277777777777778],[0.378125,0.3277777777777778],[0.378125,0.3277777777777778]]","[[0.09864583333333338,0.4024074074074073],[0.09864583333333338,0.4024074074074073],[0.09864583333333338,0.4024074074074073],[0.11854166666666661,0.41518518518518527],[0.12374999999999996,0.4327777777777779],[0.13635416666666675,0.43796296296296294],[0.1421875,0.42740740740740735],[0.16208333333333325,0.42166666666666675],[0.18156249999999996,0.43629629629629635],[0.19208333333333344,0.47388888888888886],[0.19947916666666668,0.49611111111111106],[0.23083333333333325,0.4770370370370371],[0.2361458333333334,0.49000000000000005],[0.23052083333333329,0.48203703703703693],[0.23052083333333329,0.48203703703703693],[0.23562500000000006,0.4601851851851852],[0.23562500000000006,0.4601851851851852],[0.23427083333333343,0.46870370370370373],[0.24958333333333324,0.46333333333333343],[0.24958333333333324,0.46333333333333343],[0.25583333333333325,0.4631481481481482],[0.25583333333333325,0.4631481481481482],[0.2564583333333334,0.45333333333333325],[0.2564583333333334,0.45333333333333325],[0.28406250000000005,0.4390740740740741],[0.3116666666666667,0.42481481481481476],[0.3116666666666667,0.42481481481481476],[0.3090625000000001,0.4396296296296296],[0.2783333333333334,0.4385185185185184],[0.2617708333333333,0.472037037037037],[0.24520833333333342,0.5055555555555555],[0.24322916666666666,0.5122222222222222],[0.2224999999999999,0.5172222222222221],[0.21218750000000006,0.4946296296296297],[0.20750000000000005,0.4816666666666667],[0.17572916666666671,0.4596296296296297],[0.14395833333333338,0.43759259259259253],[0.12489583333333343,0.4433333333333333],[0.12489583333333343,0.4433333333333333],[0.14104166666666676,0.4579629629629629],[0.19416666666666677,0.4125925925925925],[0.2267708333333334,0.3816666666666667],[0.24385416666666657,0.3596296296296297],[0.2882291666666667,0.3592592592592593],[0.3171875,0.3764814814814814],[0.3459374999999999,0.3844444444444445],[0.4045833333333334,0.362962962962963],[0.4410416666666668,0.3562962962962963],[0.4292708333333332,0.32166666666666677],[0.4174999999999999,0.27981481481481485],[0.4018749999999999,0.2698148148148149],[0.4018749999999999,0.2698148148148149],[0.4148958333333333,0.25018518518518523],[0.41906249999999995,0.22370370370370363],[0.4101041666666667,0.1925925925925926],[0.3723958333333333,0.17796296296296302],[0.33489583333333334,0.1725925925925927],[0.28447916666666656,0.1816666666666667],[0.25625,0.17592592592592593],[0.2599999999999999,0.19888888888888884],[0.2769791666666668,0.21944444444444444],[0.23583333333333342,0.24074074074074073],[0.23583333333333342,0.24074074074074073],[0.1865624999999999,0.2572222222222222],[0.16770833333333332,0.2722222222222222],[0.14614583333333328,0.2838888888888888],[0.15333333333333338,0.27907407407407414],[0.1506249999999999,0.2935185185185185],[0.12843749999999995,0.31203703703703706],[0.11395833333333343,0.3198148148148149],[0.10927083333333343,0.31129629629629635],[0.12010416666666662,0.2933333333333333],[0.15395833333333328,0.27685185185185185],[0.18781249999999997,0.2603703703703704],[0.18895833333333342,0.26185185185185184],[0.1868750000000001,0.26370370370370366],[0.18479166666666677,0.2655555555555555],[0.20499999999999996,0.2448148148148149],[0.2367708333333333,0.22555555555555548],[0.24500000000000005,0.2403703703703703],[0.25322916666666656,0.2551851851851851],[0.2476041666666667,0.23259259259259263],[0.2476041666666667,0.23259259259259263],[0.2419791666666666,0.20999999999999996],[0.24739583333333334,0.2],[0.24270833333333333,0.20537037037037034],[0.24177083333333324,0.19444444444444445],[0.23250000000000004,0.21481481481481482],[0.22697916666666676,0.19981481481481478],[0.21760416666666677,0.20925925925925926],[0.22406249999999991,0.19537037037037036],[0.21166666666666673,0.16925925925925922],[0.184375,0.19240740740740736],[0.14260416666666675,0.23796296296296296],[0.06989583333333324,0.2796296296296296],[0.018437500000000048,0.2962962962962963],[-0.03083333333333336,0.3322222222222222],[-0.07177083333333331,0.3368518518518518],[-0.12385416666666664,0.368888888888889],[-0.18583333333333332,0.39537037037037037],[-0.25114583333333335,0.39648148148148155],[-0.29,0.4088888888888888],[-0.3288541666666667,0.4212962962962963],[-0.35812499999999997,0.4131481481481482],[-0.36291666666666667,0.39759259259259266],[-0.38260416666666663,0.3838888888888888],[-0.4022916666666667,0.3701851851851851],[-0.40677083333333336,0.33277777777777784],[-0.4171875,0.30685185185185193],[-0.43208333333333326,0.3066666666666667],[-0.44343750000000004,0.3274074074074073],[-0.44583333333333336,0.32685185185185184],[-0.4482291666666666,0.32629629629629636],[-0.45260416666666664,0.3472222222222222],[-0.46156250000000004,0.3668518518518519],[-0.4389583333333333,0.36574074074074076],[-0.4096874999999999,0.36129629629629634],[-0.41291666666666665,0.41462962962962957],[-0.4170833333333333,0.44166666666666665],[-0.4184375000000001,0.4474074074074075],[-0.43937499999999996,0.4477777777777777],[-0.4575000000000001,0.4801851851851851],[-0.4560416666666666,0.48407407407407405],[-0.47270833333333334,0.47981481481481486],[-0.489375,0.47555555555555545],[-0.5092708333333333,0.4861111111111111],[-0.5358333333333333,0.5],[-0.545,0.49425925925925923],[-0.5522916666666667,0.5146296296296295],[-0.5539583333333333,0.5050000000000001],[-0.5539583333333333,0.5050000000000001],[-0.5178125,0.5005555555555554],[-0.49604166666666666,0.4859259259259259],[-0.5347916666666667,0.522037037037037],[-0.5213541666666667,0.5196296296296297],[-0.5048958333333333,0.4964814814814815],[-0.5048958333333333,0.4964814814814815],[-0.5232291666666666,0.5085185185185186],[-0.5232291666666666,0.5085185185185186],[-0.5209375,0.5011111111111112],[-0.5209375,0.5011111111111112],[-0.5320833333333334,0.4922222222222221],[-0.5320833333333334,0.4922222222222221],[-0.5559375000000001,0.48555555555555563],[-0.5559375000000001,0.48555555555555563],[-0.5700000000000001,0.48555555555555563],[-0.5938541666666667,0.5231481481481481],[-0.5938541666666667,0.5231481481481481],[-0.596875,0.531111111111111],[-0.596875,0.531111111111111],[-0.5417708333333333,0.5007407407407407],[-0.5417708333333333,0.5007407407407407],[-0.5144791666666666,0.48037037037037034],[-0.5144791666666666,0.48037037037037034],[-0.4741666666666667,0.4992592592592593],[-0.4741666666666667,0.4992592592592593],[-0.41385416666666663,0.4781481481481482],[-0.41385416666666663,0.4781481481481482],[-0.40645833333333337,0.5040740740740741],[-0.40645833333333337,0.5040740740740741],[-0.381875,0.5085185185185186],[-0.381875,0.5085185185185186],[-0.3320833333333333,0.5014814814814814],[-0.2679166666666667,0.5020370370370371],[-0.2679166666666667,0.5020370370370371],[-0.2123958333333333,0.44833333333333336],[-0.2123958333333333,0.44833333333333336],[-0.18239583333333337,0.41444444444444434],[-0.18239583333333337,0.41444444444444434],[-0.16958333333333328,0.3966666666666668],[-0.16958333333333328,0.3966666666666668],[-0.16218750000000004,0.38796296296296295],[-0.1820833333333333,0.38685185185185184],[-0.18697916666666667,0.39203703703703713],[-0.15958333333333338,0.3696296296296297],[-0.13218749999999999,0.36018518518518516],[-0.13083333333333336,0.3616666666666666],[-0.1560416666666666,0.3435185185185185],[-0.18125,0.34666666666666673],[-0.19302083333333328,0.3685185185185185],[-0.19302083333333328,0.3685185185185185],[-0.1977083333333333,0.4051851851851851],[-0.20958333333333337,0.42407407407407405],[-0.21781250000000002,0.42981481481481487],[-0.23968750000000003,0.4381481481481482],[-0.24447916666666672,0.46296296296296297],[-0.253125,0.48333333333333334],[-0.2609375,0.4644444444444444],[-0.25656249999999997,0.45759259259259266],[-0.24593750000000003,0.44000000000000006],[-0.25427083333333333,0.4203703703703704],[-0.27541666666666664,0.40314814814814826],[-0.25885416666666666,0.387037037037037],[-0.23468749999999997,0.35796296296296287],[-0.22875000000000004,0.3616666666666666],[-0.21364583333333337,0.32259259259259265],[-0.22010416666666663,0.3042592592592592],[-0.2169791666666666,0.3272222222222223],[-0.21385416666666662,0.3501851851851852],[-0.21802083333333327,0.3987037037037036],[-0.2169791666666666,0.44074074074074077],[-0.18999999999999997,0.4292592592592592],[-0.1875,0.43870370370370365],[-0.19562499999999997,0.4692592592592592],[-0.18552083333333336,0.46703703703703714],[-0.2007291666666667,0.47074074074074085],[-0.18614583333333337,0.45092592592592595],[-0.1844791666666667,0.45444444444444443],[-0.1828125,0.4579629629629629],[-0.19427083333333334,0.46703703703703714],[-0.20572916666666666,0.47611111111111115],[-0.16916666666666663,0.47240740740740744],[-0.13541666666666666,0.4896296296296296],[-0.059895833333333336,0.43944444444444436],[0.00625,0.4142592592592593],[0.03208333333333328,0.39574074074074084],[0.057604166666666616,0.38425925925925924],[0.0912499999999999,0.34148148148148144],[0.15343749999999995,0.29666666666666675],[0.22072916666666675,0.2638888888888889],[0.2939583333333334,0.20629629629629626],[0.3029166666666666,0.15833333333333333],[0.30281250000000004,0.07981481481481485],[0.2490624999999999,0.058333333333333334],[0.2046875,0.01185185185185181],[0.20968749999999994,-0.006296296296296254],[0.21645833333333328,-0.03296296296296288],[0.23770833333333338,-0.03981481481481482],[0.23041666666666671,-0.04462962962962967],[0.2071875000000001,-0.06351851851851854],[0.18916666666666657,-0.07388888888888885],[0.18468749999999995,-0.0301851851851851],[0.18104166666666663,0.02962962962962963],[0.22583333333333327,0.0625925925925925],[0.27062499999999995,0.0955555555555556],[0.2883333333333333,0.11962962962962967],[0.2976041666666667,0.16277777777777774],[0.27791666666666665,0.1714814814814815],[0.2627083333333334,0.17314814814814813],[0.2882291666666667,0.15407407407407417],[0.30739583333333326,0.1579629629629629],[0.3089583333333332,0.15055555555555547],[0.31145833333333334,0.152962962962963],[0.3120833333333332,0.22777777777777777],[0.3210416666666667,0.28129629629629627],[0.3545833333333334,0.3494444444444445],[0.3788541666666667,0.41351851851851845],[0.4280208333333334,0.4618518518518518],[0.4727083333333333,0.5172222222222221],[0.5184375,0.5968518518518517],[0.559375,0.6698148148148149],[0.5818749999999999,0.702962962962963],[0.6144791666666668,0.7198148148148149],[0.5976041666666667,0.6825925925925926],[0.5723958333333333,0.6666666666666666],[0.5557291666666667,0.6316666666666667],[0.5505208333333333,0.577962962962963],[0.5195833333333333,0.5737037037037036],[0.4886458333333332,0.5694444444444444],[0.4270833333333333,0.5196296296296297],[0.3655208333333334,0.4698148148148149],[0.3553124999999999,0.48333333333333334],[0.3451041666666666,0.49685185185185177],[0.34437499999999993,0.46592592592592597],[0.34364583333333343,0.43499999999999994],[0.32687499999999997,0.4027777777777778],[0.2943749999999999,0.397037037037037],[0.2686458333333334,0.37666666666666665],[0.2686458333333334,0.37666666666666665],[0.24291666666666673,0.3562962962962963],[0.22552083333333334,0.37814814814814823],[0.21260416666666657,0.4016666666666666],[0.16687500000000005,0.3983333333333334],[0.12666666666666657,0.3948148148148149],[0.10260416666666666,0.4107407407407407],[0.043124999999999976,0.4557407407407408],[-0.016354166666666715,0.5007407407407407],[-0.049791666666666616,0.522037037037037],[-0.049791666666666616,0.522037037037037],[-0.06677083333333336,0.543148148148148],[-0.06677083333333336,0.543148148148148],[-0.06791666666666671,0.5385185185185184],[-0.06791666666666671,0.5385185185185184],[-0.08083333333333335,0.5394444444444444],[-0.08083333333333335,0.5394444444444444],[-0.07427083333333329,0.5081481481481481],[-0.07427083333333329,0.5081481481481481],[-0.02520833333333338,0.43629629629629635],[-0.02520833333333338,0.43629629629629635],[0.018333333333333358,0.3646296296296296],[0.018333333333333358,0.3646296296296296],[0.023958333333333335,0.35851851851851857],[0.023958333333333335,0.35851851851851857],[0.06656249999999998,0.3368518518518518],[0.06656249999999998,0.3368518518518518],[0.13645833333333332,0.26444444444444437],[0.13645833333333332,0.26444444444444437],[0.22458333333333325,0.21148148148148158],[0.22458333333333325,0.21148148148148158],[0.3051041666666668,0.13055555555555556],[0.3051041666666668,0.13055555555555556],[0.36354166666666665,0.10574074074074079],[0.36354166666666665,0.10574074074074079],[0.42427083333333326,0.05944444444444449],[0.4634375000000001,0.027407407407407325],[0.4232291666666666,0.046481481481481526],[0.38302083333333337,0.06555555555555552],[0.3963541666666667,0.05555555555555555],[0.41083333333333344,0.0257407407407407],[0.41083333333333344,0.0257407407407407],[0.39947916666666666,0.03351851851851856],[0.3390625,0.06518518518518526],[0.2931250000000001,0.09907407407407408],[0.2931250000000001,0.09907407407407408],[0.271875,0.10222222222222231],[0.25729166666666664,0.10425925925925918],[0.25729166666666664,0.10425925925925918],[0.24031250000000004,0.12259259259259268],[0.25729166666666664,0.10055555555555547],[0.25729166666666664,0.10055555555555547],[0.2755208333333333,0.09462962962962967],[0.27927083333333325,0.09462962962962967],[0.27927083333333325,0.09462962962962967],[0.27364583333333337,0.10129629629629638],[0.27364583333333337,0.10129629629629638],[0.27395833333333336,0.08296296296296288],[0.28968749999999993,0.05740740740740741],[0.28968749999999993,0.05740740740740741],[0.2989583333333333,0.039629629629629584],[0.25677083333333334,0.10462962962962963],[0.24635416666666668,0.09055555555555551],[0.2275000000000001,0.1242592592592593],[0.23989583333333328,0.12851851851851848],[0.24447916666666672,0.12555555555555548],[0.23177083333333334,0.1668518518518519],[0.22468750000000004,0.1648148148148148],[0.2211458333333333,0.18555555555555564],[0.2171875,0.16148148148148156],[0.22854166666666675,0.13759259259259252],[0.2525000000000001,0.07629629629629638],[0.2585416666666667,0.058703703703703786],[0.2647916666666667,0.05277777777777778],[0.2633333333333333,0.040740740740740744],[0.2617708333333333,0.062407407407407495],[0.2894791666666668,-0.019444444444444445],[0.2861458333333334,0.007962962962962878],[0.29635416666666664,0.0005555555555554713],[0.29739583333333336,0.010370370370370412],[0.3016666666666666,0.05018518518518523],[0.27458333333333323,0.08796296296296297],[0.2633333333333333,0.09666666666666675],[0.2522916666666667,0.050370370370370454],[0.22843749999999996,0.072037037037037],[0.2196875000000001,0.0544444444444444],[0.19760416666666672,0.0764814814814814],[0.18229166666666666,0.03425925925925926],[0.15145833333333342,0.011666666666666582],[0.12729166666666672,0.015555555555555513],[0.06489583333333329,0.03351851851851856],[0.05427083333333336,0.002777777777777778],[0.022291666666666644,0.034999999999999955],[-0.0016666666666666904,0.06277777777777774],[-0.03302083333333338,0.08907407407407411],[-0.05281250000000005,0.09740740740740746],[-0.07260416666666672,0.10574074074074079],[-0.10249999999999998,0.1455555555555556],[-0.14135416666666673,0.21592592592592597],[-0.15343749999999995,0.22111111111111106],[-0.14624999999999996,0.2],[-0.12999999999999995,0.1735185185185186],[-0.11375000000000005,0.147037037037037],[-0.10270833333333336,0.12518518518518523],[-0.09208333333333331,0.10222222222222231],[-0.09791666666666667,0.09703703703703699],[-0.1170833333333333,0.10444444444444441],[-0.08989583333333329,0.07277777777777769],[-0.07666666666666669,0.05722222222222218],[-0.057395833333333354,0.0485185185185186],[-0.04791666666666667,0.0485185185185186],[-0.08520833333333329,0.08518518518518518],[-0.12250000000000003,0.12185185185185177],[-0.13812500000000003,0.14592592592592585],[-0.15375000000000003,0.16999999999999993],[-0.16333333333333327,0.15240740740740732],[-0.17833333333333337,0.14129629629629623],[-0.18552083333333336,0.11666666666666667],[-0.2101041666666667,0.14074074074074075],[-0.23364583333333327,0.1485185185185186],[-0.24416666666666664,0.1418518518518519],[-0.1857291666666666,0.1294444444444444],[-0.12697916666666664,0.13277777777777786],[-0.09270833333333334,0.16296296296296298],[-0.05625,0.20500000000000007],[-0.01906249999999995,0.24592592592592585],[0.04208333333333331,0.2687037037037037],[0.06270833333333338,0.2975925925925927],[0.10031249999999996,0.29518518518518516],[0.12822916666666656,0.29444444444444445],[0.15208333333333332,0.29981481481481476],[0.15572916666666667,0.305925925925926],[0.16218750000000004,0.2742592592592593],[0.1814583333333334,0.23537037037037042],[0.19854166666666656,0.18462962962962973],[0.20416666666666666,0.17407407407407408],[0.20458333333333342,0.1625925925925925],[0.2189583333333334,0.18296296296296288],[0.24770833333333328,0.1698148148148149],[0.24500000000000005,0.21648148148148144],[0.24739583333333334,0.256111111111111],[0.23447916666666657,0.2818518518518519],[0.23166666666666677,0.3248148148148148],[0.2179166666666667,0.34962962962962957],[0.21375000000000005,0.37703703703703706],[0.21166666666666673,0.40796296296296286],[0.21458333333333332,0.44611111111111107],[0.2115624999999999,0.47962962962962963],[0.2085416666666667,0.5131481481481482],[0.23177083333333334,0.47907407407407415],[0.25729166666666664,0.4581481481481481],[0.2795833333333334,0.4035185185185185],[0.27843749999999995,0.37407407407407406],[0.2900000000000001,0.3449999999999999],[0.2900000000000001,0.30648148148148147],[0.2900000000000001,0.30648148148148147],[0.2764583333333334,0.2537037037037037],[0.26510416666666664,0.20759259259259263],[0.26749999999999996,0.14722222222222223],[0.2804166666666667,0.08037037037037033],[0.2660416666666668,0.06444444444444436],[0.2419791666666666,0.0507407407407407],[0.22541666666666677,0.06407407407407412],[0.22197916666666656,0.05814814814814811],[0.21197916666666666,0.058333333333333334],[0.20239583333333327,0.07407407407407407],[0.20541666666666672,0.1],[0.20239583333333327,0.10444444444444441],[0.2091666666666666,0.10796296296296289],[0.20833333333333334,0.10259259259259255],[0.22041666666666657,0.09722222222222222],[0.2669791666666666,0.07074074074074083],[0.2820833333333333,0.07037037037037037],[0.27291666666666664,0.072037037037037],[0.2557291666666667,0.07148148148148152],[0.2627083333333334,0.05222222222222231],[0.2696875000000001,0.03296296296296288],[0.30583333333333323,0.006111111111111027],[0.31187500000000007,0.012962962962962963],[0.3256249999999999,0.034444444444444486],[0.3393749999999999,0.05592592592592601],[0.296875,0.09833333333333337],[0.2855208333333332,0.11370370370370367],[0.3107291666666666,0.11907407407407399],[0.34395833333333337,0.12666666666666662],[0.34500000000000003,0.13111111111111104],[0.3460416666666667,0.13555555555555565],[0.3009375000000001,0.16888888888888898],[0.27614583333333326,0.16944444444444445],[0.23385416666666667,0.1896296296296296],[0.2189583333333334,0.1816666666666667],[0.22999999999999995,0.1527777777777778],[0.24791666666666667,0.1264814814814814],[0.24489583333333323,0.11370370370370367],[0.24187500000000003,0.10092592592592593],[0.2526041666666667,0.10037037037037046],[0.26281249999999995,0.09888888888888885],[0.3111458333333334,0.07962962962962963],[0.35947916666666657,0.060370370370370414],[0.40812499999999996,0.030555555555555555],[0.4036458333333333,0.02814814814814823],[0.40687499999999993,0.0507407407407407],[0.40354166666666674,0.07166666666666675],[0.40354166666666674,0.07166666666666675],[0.41531250000000003,0.0868518518518518],[0.42697916666666674,0.07592592592592592],[0.42979166666666657,0.06074074074074066],[0.44114583333333335,0.05],[0.43020833333333336,0.04333333333333329],[0.4097916666666668,0.03314814814814811],[0.3993750000000001,0.03296296296296288],[0.41468749999999993,0.03351851851851856],[0.42125000000000007,0.021481481481481525],[0.42781250000000004,0.009444444444444486],[0.4289583333333333,-0.013888888888888888],[0.43239583333333326,0.008148148148148106],[0.4405208333333334,0.03537037037037041],[0.43729166666666663,0.04592592592592584],[0.4340625000000001,0.05648148148148148],[0.4521874999999999,0.03555555555555564],[0.46041666666666664,-0.01777777777777782],[0.47843749999999996,0.010185185185185186],[0.4722916666666668,0.0020370370370370794],[0.4539583333333333,0.01518518518518527],[0.4337500000000001,0.013888888888888888],[0.44635416666666666,-0.03555555555555564],[0.4616666666666667,-0.07981481481481485],[0.4388541666666666,-0.0962962962962963],[0.41875,-0.11685185185185189],[0.4214583333333332,-0.08907407407407411],[0.42312500000000003,-0.0485185185185186],[0.37833333333333335,-0.06388888888888888],[0.3754166666666668,-0.08111111111111113],[0.3997916666666666,-0.11018518518518519],[0.42208333333333337,-0.11444444444444446],[0.39854166666666657,-0.08537037037037042],[0.3802083333333333,-0.06925925925925921],[0.3954166666666666,-0.059999999999999956],[0.40864583333333326,-0.08277777777777776],[0.3789583333333333,-0.09944444444444442],[0.3663541666666667,-0.09944444444444442],[0.3789583333333333,-0.13648148148148145],[0.37000000000000005,-0.12611111111111115],[0.3540625000000001,-0.10981481481481484],[0.3381249999999999,-0.09351851851851851],[0.334375,-0.09148148148148144],[0.33468749999999997,-0.06962962962962967],[0.30531249999999993,-0.07166666666666664],[0.2942708333333333,-0.038703703703703664],[0.27979166666666655,-0.028703703703703703],[0.26614583333333336,0.027222222222222307],[0.25270833333333326,0.04518518518518514],[0.25031249999999994,0.05981481481481473],[0.21572916666666658,0.04592592592592584],[0.18114583333333342,0.032037037037036954],[0.15666666666666676,0.029259259259259176],[0.11697916666666662,0.009074074074074031],[0.12614583333333323,0.026481481481481398],[0.12531249999999997,0.026666666666666623],[0.11958333333333329,0.03462962962962971],[0.10239583333333328,-0.01907407407407399],[0.09645833333333324,-0.023148148148148147],[0.041770833333333354,0.00851851851851856],[0.014479166666666644,-0.006481481481481481],[-0.012812499999999952,-0.021481481481481525],[-0.06135416666666664,-0.012037037037037037],[-0.027499999999999976,-0.03611111111111111],[-0.05541666666666671,-0.06185185185185181],[-0.07739583333333329,-0.06740740740740736],[-0.09229166666666669,-0.06703703703703702],[-0.06708333333333331,-0.08925925925925923],[-0.10364583333333334,-0.10444444444444441],[-0.09864583333333338,-0.16148148148148145],[-0.08624999999999995,-0.18648148148148147],[-0.10833333333333334,-0.19740740740740745],[-0.09020833333333336,-0.2690740740740741],[-0.09156249999999998,-0.26796296296296296],[-0.08916666666666669,-0.2985185185185185],[-0.13697916666666668,-0.32611111111111113],[-0.1414583333333333,-0.3685185185185185],[-0.1920833333333333,-0.39759259259259255],[-0.21656249999999996,-0.4131481481481482]]","[[0.09864583333333338,0.4024074074074073,0.00010000000008858478],[0.09864583333333338,0.4024074074074073,0.037100000000094724],[0.09864583333333338,0.4024074074074073,0.040600000000097225],[0.11854166666666661,0.41518518518518527,0.05739999999990175],[0.12374999999999996,0.4327777777777779,0.07399999999999807],[0.13635416666666675,0.43796296296296294,0.09060000000009438],[0.1421875,0.42740740740740735,0.10729999999981032],[0.16208333333333325,0.42166666666666675,0.12399999999999523],[0.18156249999999996,0.43629629629629635,0.14070000000018013],[0.19208333333333344,0.47388888888888886,0.15729999999980748],[0.19947916666666668,0.49611111111111106,0.17499999999999716],[0.23083333333333325,0.4770370370370371,0.1906000000000887],[0.2361458333333334,0.49000000000000005,0.20729999999981885],[0.23052083333333329,0.48203703703703693,0.22400000000000375],[0.23052083333333329,0.48203703703703693,0.24060000000008586],[0.23562500000000006,0.4601851851851852,0.2573999999999046],[0.23562500000000006,0.4601851851851852,0.2738999999999123],[0.23427083333333343,0.46870370370370373,0.2906000000000972],[0.24958333333333324,0.46333333333333343,0.3084999999999951],[0.24958333333333324,0.46333333333333343,0.32399999999999807],[0.25583333333333325,0.4631481481481482,0.3406000000000944],[0.25583333333333325,0.4631481481481482,0.3572999999998103],[0.2564583333333334,0.45333333333333325,0.37389999999990664],[0.2564583333333334,0.45333333333333325,0.39060000000009154],[0.28406250000000005,0.4390740740740741,0.4072999999998075],[0.3116666666666667,0.42481481481481476,0.42510000000008574],[0.3116666666666667,0.42481481481481476,0.4405000000000001],[0.3090625000000001,0.4396296296296296,0.45729999999981885],[0.2783333333333334,0.4385185185185184,0.4746000000000947],[0.2617708333333333,0.472037037037037,0.49049999999999727],[0.24520833333333342,0.5055555555555555,0.507299999999816],[0.24322916666666666,0.5122222222222222,0.5238999999999123],[0.2224999999999999,0.5172222222222221,0.5404999999999944],[0.21218750000000006,0.4946296296296297,0.5588999999999089],[0.20750000000000005,0.4816666666666667,0.5741000000000867],[0.17572916666666671,0.4596296296296297,0.5906000000000944],[0.14395833333333338,0.43759259259259253,0.6072000000001907],[0.12489583333333343,0.4433333333333333,0.6238999999999066],[0.12489583333333343,0.4433333333333333,0.6406000000000915],[0.14104166666666676,0.4579629629629629,0.6572999999998075],[0.19416666666666677,0.4125925925925925,0.6768999999999039],[0.2267708333333334,0.3816666666666667,0.6910000000000025],[0.24385416666666657,0.3596296296296297,0.707200000000185],[0.2882291666666667,0.3592592592592593,0.723899999999901],[0.3171875,0.3764814814814814,0.7404999999999973],[0.3459374999999999,0.3844444444444445,0.757299999999816],[0.4045833333333334,0.362962962962963,0.7738999999999123],[0.4410416666666668,0.3562962962962963,0.7927000000001811],[0.4292708333333332,0.32166666666666677,0.8073999999999018],[0.4174999999999999,0.27981481481481485,0.8241000000000867],[0.4018749999999999,0.2698148148148149,0.8444999999999965],[0.4018749999999999,0.2698148148148149,0.8576000000000903],[0.4148958333333333,0.25018518518518523,0.874100000000098],[0.41906249999999995,0.22370370370370363,0.8907000000001801],[0.4101041666666667,0.1925925925925926,0.9072000000001879],[0.3723958333333333,0.17796296296296302,0.9237999999998152],[0.33489583333333334,0.1725925925925927,0.9405000000000001],[0.28447916666666656,0.1816666666666667,0.9572999999998189],[0.25625,0.17592592592592593,0.9742999999998148],[0.2599999999999999,0.19888888888888884,0.9906000000000859],[0.2769791666666668,0.21944444444444444,1.0072000000001822],[0.23583333333333342,0.24074074074074073,1.0238999999999123],[0.23583333333333342,0.24074074074074073,1.0406000000000972],[0.1865624999999999,0.2572222222222222,1.0572999999998132],[0.16770833333333332,0.2722222222222222,1.0769999999999982],[0.14614583333333328,0.2838888888888888,1.0941000000000969],[0.15333333333333338,0.27907407407407414,1.1082000000001813],[0.1506249999999999,0.2935185185185185,1.1238999999999066],[0.12843749999999995,0.31203703703703706,1.1406000000000915],[0.11395833333333343,0.3198148148148149,1.1578999999999127],[0.10927083333333343,0.31129629629629635,1.1744999999999948],[0.12010416666666662,0.2933333333333333,1.1916000000000935],[0.15395833333333328,0.27685185185185185,1.207200000000185],[0.18781249999999997,0.2603703703703704,1.2241000000000923],[0.18895833333333342,0.26185185185185184,1.2406000000000859],[0.1868750000000001,0.26370370370370366,1.257899999999907],[0.18479166666666677,0.2655555555555555,1.2768999999999124],[0.20499999999999996,0.2448148148148149,1.2906000000000972],[0.2367708333333333,0.22555555555555548,1.3073999999999018],[0.24500000000000005,0.2403703703703703,1.323999999999998],[0.25322916666666656,0.2551851851851851,1.3455000000000013],[0.2476041666666667,0.23259259259259263,1.3607999999998128],[0.2476041666666667,0.23259259259259263,1.3739999999999952],[0.2419791666666666,0.20999999999999996,1.3907000000001801],[0.24739583333333334,0.2,1.4103999999999104],[0.24270833333333333,0.20537037037037034,1.4241000000000952],[0.24177083333333324,0.19444444444444445,1.4410000000000025],[0.23250000000000004,0.21481481481481482,1.457499999999996],[0.22697916666666676,0.19981481481481478,1.476899999999901],[0.21760416666666677,0.20925925925925926,1.491200000000191],[0.22406249999999991,0.19537037037037036,1.5096000000000913],[0.21166666666666673,0.16925925925925922,1.5238999999999123],[0.184375,0.19240740740740736,1.5436000000000973],[0.14260416666666675,0.23796296296296296,1.5600000000000023],[0.06989583333333324,0.2796296296296296,1.5772000000001896],[0.018437500000000048,0.2962962962962963,1.5907999999998168],[-0.03083333333333336,0.3322222222222222,1.6072000000001907],[-0.07177083333333331,0.3368518518518518,1.6238999999999066],[-0.12385416666666664,0.368888888888889,1.6406000000000915],[-0.18583333333333332,0.39537037037037037,1.6577000000001902],[-0.25114583333333335,0.39648148148148155,1.67479999999982],[-0.29,0.4088888888888888,1.6905000000000001],[-0.3288541666666667,0.4212962962962963,1.707200000000185],[-0.35812499999999997,0.4131481481481482,1.723899999999901],[-0.36291666666666667,0.39759259259259266,1.7406000000000859],[-0.38260416666666663,0.3838888888888888,1.7573999999999046],[-0.4022916666666667,0.3701851851851851,1.774000000000001],[-0.40677083333333336,0.33277777777777784,1.7904999999999944],[-0.4171875,0.30685185185185193,1.8072000000001793],[-0.43208333333333326,0.3066666666666667,1.8238999999999095],[-0.44343750000000004,0.3274074074074073,1.8406000000000944],[-0.44583333333333336,0.32685185185185184,1.858000000000004],[-0.4482291666666666,0.32629629629629636,1.875],[-0.45260416666666664,0.3472222222222222,1.890500000000003],[-0.46156250000000004,0.3668518518518519,1.9072000000001879],[-0.4389583333333333,0.36574074074074076,1.9238999999999038],[-0.4096874999999999,0.36129629629629634,1.9406000000000887],[-0.41291666666666665,0.41462962962962957,1.9572999999998189],[-0.4170833333333333,0.44166666666666665,1.9770000000000039],[-0.4184375000000001,0.4474074074074075,1.9906000000000859],[-0.43937499999999996,0.4477777777777777,2.007299999999816],[-0.4575000000000001,0.4801851851851851,2.0238999999999123],[-0.4560416666666666,0.48407407407407405,2.0406000000000972],[-0.47270833333333334,0.47981481481481486,2.0587000000001865],[-0.489375,0.47555555555555545,2.0748999999999],[-0.5092708333333333,0.4861111111111111,2.090500000000006],[-0.5358333333333333,0.5,2.1072000000001907],[-0.545,0.49425925925925923,2.1238999999999066],[-0.5522916666666667,0.5146296296296295,2.140500000000003],[-0.5539583333333333,0.5050000000000001,2.157200000000188],[-0.5539583333333333,0.5050000000000001,2.173899999999904],[-0.5178125,0.5005555555555554,2.1905],[-0.49604166666666666,0.4859259259259259,2.207200000000185],[-0.5347916666666667,0.522037037037037,2.223899999999901],[-0.5213541666666667,0.5196296296296297,2.240600000000086],[-0.5048958333333333,0.4964814814814815,2.257200000000182],[-0.5048958333333333,0.4964814814814815,2.2737999999998095],[-0.5232291666666666,0.5085185185185186,2.2906000000000972],[-0.5232291666666666,0.5085185185185186,2.3072000000001793],[-0.5209375,0.5011111111111112,2.3238999999999095],[-0.5209375,0.5011111111111112,2.3406000000000944],[-0.5320833333333334,0.4922222222222221,2.3572999999998103],[-0.5320833333333334,0.4922222222222221,2.3738999999999066],[-0.5559375000000001,0.48555555555555563,2.390500000000003],[-0.5559375000000001,0.48555555555555563,2.407200000000188],[-0.5700000000000001,0.48555555555555563,2.423799999999815],[-0.5938541666666667,0.5231481481481481,2.4456000000000984],[-0.5938541666666667,0.5231481481481481,2.457200000000185],[-0.596875,0.531111111111111,2.473899999999901],[-0.596875,0.531111111111111,2.490600000000086],[-0.5417708333333333,0.5007407407407407,2.507200000000182],[-0.5417708333333333,0.5007407407407407,2.524000000000001],[-0.5144791666666666,0.48037037037037034,2.5406000000000972],[-0.5144791666666666,0.48037037037037034,2.557299999999813],[-0.4741666666666667,0.4992592592592593,2.5738999999999095],[-0.4741666666666667,0.4992592592592593,2.5906000000000944],[-0.41385416666666663,0.4781481481481482,2.6072999999998103],[-0.41385416666666663,0.4781481481481482,2.6238999999999066],[-0.40645833333333337,0.5040740740740741,2.6406000000000915],[-0.40645833333333337,0.5040740740740741,2.6572999999998075],[-0.381875,0.5085185185185186,2.673899999999904],[-0.381875,0.5085185185185186,2.6906000000000887],[-0.3320833333333333,0.5014814814814814,2.707299999999819],[-0.2679166666666667,0.5020370370370371,2.7282999999998196],[-0.2679166666666667,0.5020370370370371,2.740600000000086],[-0.2123958333333333,0.44833333333333336,2.757299999999816],[-0.2123958333333333,0.44833333333333336,2.774000000000001],[-0.18239583333333337,0.41444444444444434,2.7906000000000972],[-0.18239583333333337,0.41444444444444434,2.8072000000001793],[-0.16958333333333328,0.3966666666666668,2.8238999999999095],[-0.16958333333333328,0.3966666666666668,2.840500000000006],[-0.16218750000000004,0.38796296296296295,2.8572000000001907],[-0.1820833333333333,0.38685185185185184,2.8761000000000934],[-0.18697916666666667,0.39203703703703713,2.8906000000000915],[-0.15958333333333338,0.3696296296296297,2.9072999999998075],[-0.13218749999999999,0.36018518518518516,2.923799999999815],[-0.13083333333333336,0.3616666666666666,2.9405],[-0.1560416666666666,0.3435185185185185,2.957499999999996],[-0.18125,0.34666666666666673,2.975399999999908],[-0.19302083333333328,0.3685185185185185,2.996299999999806],[-0.19302083333333328,0.3685185185185185,3.013899999999907],[-0.1977083333333333,0.4051851851851851,3.029100000000099],[-0.20958333333333337,0.42407407407407405,3.0444999999999993],[-0.21781250000000002,0.42981481481481487,3.0581000000000955],[-0.23968750000000003,0.4381481481481482,3.0738999999999095],[-0.24447916666666672,0.46296296296296297,3.0906000000000944],[-0.253125,0.48333333333333334,3.1072000000001907],[-0.2609375,0.4644444444444444,3.1238999999999066],[-0.25656249999999997,0.45759259259259266,3.1406000000000915],[-0.24593750000000003,0.44000000000000006,3.1572999999998075],[-0.25427083333333333,0.4203703703703704,3.173899999999904],[-0.27541666666666664,0.40314814814814826,3.1905],[-0.25885416666666666,0.387037037037037,3.207200000000185],[-0.23468749999999997,0.35796296296296287,3.2237999999998124],[-0.22875000000000004,0.3616666666666666,3.2404999999999973],[-0.21364583333333337,0.32259259259259265,3.257299999999816],[-0.22010416666666663,0.3042592592592592,3.2738999999999123],[-0.2169791666666666,0.3272222222222223,3.2904999999999944],[-0.21385416666666662,0.3501851851851852,3.3072000000001793],[-0.21802083333333327,0.3987037037037036,3.3238999999999095],[-0.2169791666666666,0.44074074074074077,3.3406000000000944],[-0.18999999999999997,0.4292592592592592,3.3572999999998103],[-0.1875,0.43870370370370365,3.3742999999998062],[-0.19562499999999997,0.4692592592592592,3.3906000000000915],[-0.18552083333333336,0.46703703703703714,3.407200000000188],[-0.2007291666666667,0.47074074074074085,3.423899999999904],[-0.18614583333333337,0.45092592592592595,3.4405],[-0.1844791666666667,0.45444444444444443,3.457299999999819],[-0.1828125,0.4579629629629629,3.4740000000000038],[-0.19427083333333334,0.46703703703703714,3.492700000000184],[-0.20572916666666666,0.47611111111111115,3.507200000000182],[-0.16916666666666663,0.47240740740740744,3.524000000000001],[-0.13541666666666666,0.4896296296296296,3.5443999999999107],[-0.059895833333333336,0.43944444444444436,3.560399999999902],[0.00625,0.4142592592592593,3.576799999999807],[0.03208333333333328,0.39574074074074084,3.590500000000006],[0.057604166666666616,0.38425925925925924,3.6072000000001907],[0.0912499999999999,0.34148148148148144,3.6238999999999066],[0.15343749999999995,0.29666666666666675,3.6406000000000915],[0.22072916666666675,0.2638888888888889,3.657200000000188],[0.2939583333333334,0.20629629629629626,3.676000000000002],[0.3029166666666666,0.15833333333333333,3.6906000000000887],[0.30281250000000004,0.07981481481481485,3.7071000000000964],[0.2490624999999999,0.058333333333333334,3.7241000000000923],[0.2046875,0.01185185185185181,3.743399999999909],[0.20968749999999994,-0.006296296296296254,3.757299999999816],[0.21645833333333328,-0.03296296296296288,3.7738999999999123],[0.23770833333333338,-0.03981481481481482,3.7904999999999944],[0.23041666666666671,-0.04462962962962967,3.807299999999813],[0.2071875000000001,-0.06351851851851854,3.8238999999999095],[0.18916666666666657,-0.07388888888888885,3.843700000000183],[0.18468749999999995,-0.0301851851851851,3.8596000000000856],[0.18104166666666663,0.02962962962962963,3.875],[0.22583333333333327,0.0625925925925925,3.890500000000003],[0.27062499999999995,0.0955555555555556,3.907200000000188],[0.2883333333333333,0.11962962962962967,3.923799999999815],[0.2976041666666667,0.16277777777777774,3.9405],[0.27791666666666665,0.1714814814814815,3.9617000000001923],[0.2627083333333334,0.17314814814814813,3.9767999999998125],[0.2882291666666667,0.15407407407407417,3.9904999999999973],[0.30739583333333326,0.1579629629629629,4.007200000000182],[0.3089583333333332,0.15055555555555547,4.023899999999912],[0.31145833333333334,0.152962962962963,4.040499999999994],[0.3120833333333332,0.22777777777777777,4.057399999999902],[0.3210416666666667,0.28129629629629627,4.0738999999999095],[0.3545833333333334,0.3494444444444445,4.090500000000006],[0.3788541666666667,0.41351851851851845,4.107200000000191],[0.4280208333333334,0.4618518518518518,4.123899999999907],[0.4727083333333333,0.5172222222222221,4.140500000000003],[0.5184375,0.5968518518518517,4.157200000000188],[0.559375,0.6698148148148149,4.173899999999904],[0.5818749999999999,0.702962962962963,4.1905],[0.6144791666666668,0.7198148148148149,4.207299999999819],[0.5976041666666667,0.6825925925925926,4.223899999999901],[0.5723958333333333,0.6666666666666666,4.244299999999811],[0.5557291666666667,0.6316666666666667,4.258799999999809],[0.5505208333333333,0.577962962962963,4.27670000000019],[0.5195833333333333,0.5737037037037036,4.290600000000097],[0.4886458333333332,0.5694444444444444,4.307200000000179],[0.4270833333333333,0.5196296296296297,4.3238999999999095],[0.3655208333333334,0.4698148148148149,4.340500000000006],[0.3553124999999999,0.48333333333333334,4.357200000000191],[0.3451041666666666,0.49685185185185177,4.373799999999818],[0.34437499999999993,0.46592592592592597,4.390500000000003],[0.34364583333333343,0.43499999999999994,4.407200000000188],[0.32687499999999997,0.4027777777777778,4.423799999999815],[0.2943749999999999,0.397037037037037,4.440600000000089],[0.2686458333333334,0.37666666666666665,4.457799999999807],[0.2686458333333334,0.37666666666666665,4.473799999999812],[0.24291666666666673,0.3562962962962963,4.490499999999997],[0.22552083333333334,0.37814814814814823,4.507200000000182],[0.21260416666666657,0.4016666666666666,4.523899999999912],[0.16687500000000005,0.3983333333333334,4.540499999999994],[0.12666666666666657,0.3948148148148149,4.557299999999813],[0.10260416666666666,0.4107407407407407,4.5738999999999095],[0.043124999999999976,0.4557407407407408,4.590500000000006],[-0.016354166666666715,0.5007407407407407,4.607200000000191],[-0.049791666666666616,0.522037037037037,4.623899999999907],[-0.049791666666666616,0.522037037037037,4.640500000000003],[-0.06677083333333336,0.543148148148148,4.6572999999998075],[-0.06677083333333336,0.543148148148148,4.673799999999815],[-0.06791666666666671,0.5385185185185184,4.6905],[-0.06791666666666671,0.5385185185185184,4.707200000000185],[-0.08083333333333335,0.5394444444444444,4.723899999999901],[-0.08083333333333335,0.5394444444444444,4.744600000000091],[-0.07427083333333329,0.5081481481481481,4.757100000000094],[-0.07427083333333329,0.5081481481481481,4.773899999999912],[-0.02520833333333338,0.43629629629629635,4.790499999999994],[-0.02520833333333338,0.43629629629629635,4.807200000000179],[0.018333333333333358,0.3646296296296296,4.8238999999999095],[0.018333333333333358,0.3646296296296296,4.840500000000006],[0.023958333333333335,0.35851851851851857,4.857200000000191],[0.023958333333333335,0.35851851851851857,4.873799999999818],[0.06656249999999998,0.3368518518518518,4.890500000000003],[0.06656249999999998,0.3368518518518518,4.907200000000188],[0.13645833333333332,0.26444444444444437,4.923799999999815],[0.13645833333333332,0.26444444444444437,4.9405],[0.22458333333333325,0.21148148148148158,4.957399999999907],[0.22458333333333325,0.21148148148148158,4.973899999999901],[0.3051041666666668,0.13055555555555556,4.990499999999997],[0.3051041666666668,0.13055555555555556,5.007200000000182],[0.36354166666666665,0.10574074074074079,5.023899999999912],[0.36354166666666665,0.10574074074074079,5.040499999999994],[0.42427083333333326,0.05944444444444449,5.057399999999902],[0.4634375000000001,0.027407407407407325,5.078500000000005],[0.4232291666666666,0.046481481481481526,5.093799999999817],[0.38302083333333337,0.06555555555555552,5.110200000000191],[0.3963541666666667,0.05555555555555555,5.1253999999999],[0.41083333333333344,0.0257407407407407,5.141399999999905],[0.41083333333333344,0.0257407407407407,5.1572999999998075],[0.39947916666666666,0.03351851851851856,5.17479999999982],[0.3390625,0.06518518518518526,5.1905],[0.2931250000000001,0.09907407407407408,5.210799999999807],[0.2931250000000001,0.09907407407407408,5.223899999999901],[0.271875,0.10222222222222231,5.240499999999997],[0.25729166666666664,0.10425925925925918,5.263100000000094],[0.25729166666666664,0.10425925925925918,5.273899999999912],[0.24031250000000004,0.12259259259259268,5.290499999999994],[0.25729166666666664,0.10055555555555547,5.3158999999999],[0.25729166666666664,0.10055555555555547,5.323799999999807],[0.2755208333333333,0.09462962962962967,5.340600000000094],[0.27927083333333325,0.09462962962962967,5.3629999999999995],[0.27927083333333325,0.09462962962962967,5.373899999999907],[0.27364583333333337,0.10129629629629638,5.390500000000003],[0.27364583333333337,0.10129629629629638,5.407200000000188],[0.27395833333333336,0.08296296296296288,5.423899999999904],[0.28968749999999993,0.05740740740740741,5.446299999999809],[0.28968749999999993,0.05740740740740741,5.457299999999819],[0.2989583333333333,0.039629629629629584,5.473899999999901],[0.25677083333333334,0.10462962962962963,5.490600000000086],[0.24635416666666668,0.09055555555555551,5.507200000000182],[0.2275000000000001,0.1242592592592593,5.5237999999998095],[0.23989583333333328,0.12851851851851848,5.540499999999994],[0.24447916666666672,0.12555555555555548,5.557200000000179],[0.23177083333333334,0.1668518518518519,5.5738999999999095],[0.22468750000000004,0.1648148148148148,5.590500000000006],[0.2211458333333333,0.18555555555555564,5.607200000000191],[0.2171875,0.16148148148148156,5.623899999999907],[0.22854166666666675,0.13759259259259252,5.6406000000000915],[0.2525000000000001,0.07629629629629638,5.657200000000188],[0.2585416666666667,0.058703703703703786,5.673799999999815],[0.2647916666666667,0.05277777777777778,5.6905],[0.2633333333333333,0.040740740740740744,5.707200000000185],[0.2617708333333333,0.062407407407407495,5.723899999999901],[0.2894791666666668,-0.019444444444444445,5.740600000000086],[0.2861458333333334,0.007962962962962878,5.757299999999816],[0.29635416666666664,0.0005555555555554713,5.7737999999998095],[0.29739583333333336,0.010370370370370412,5.790499999999994],[0.3016666666666666,0.05018518518518523,5.807899999999904],[0.27458333333333323,0.08796296296296297,5.824399999999912],[0.2633333333333333,0.09666666666666675,5.840500000000006],[0.2522916666666667,0.050370370370370454,5.857200000000191],[0.22843749999999996,0.072037037037037,5.873799999999818],[0.2196875000000001,0.0544444444444444,5.890500000000003],[0.19760416666666672,0.0764814814814814,5.907200000000188],[0.18229166666666666,0.03425925925925926,5.923899999999904],[0.15145833333333342,0.011666666666666582,5.940600000000089],[0.12729166666666672,0.015555555555555513,5.957200000000185],[0.06489583333333329,0.03351851851851856,5.973899999999901],[0.05427083333333336,0.002777777777777778,5.990600000000086],[0.022291666666666644,0.034999999999999955,6.007200000000182],[-0.0016666666666666904,0.06277777777777774,6.0237999999998095],[-0.03302083333333338,0.08907407407407411,6.040499999999994],[-0.05281250000000005,0.09740740740740746,6.057299999999813],[-0.07260416666666672,0.10574074074074079,6.073799999999807],[-0.10249999999999998,0.1455555555555556,6.090500000000006],[-0.14135416666666673,0.21592592592592597,6.107100000000088],[-0.15343749999999995,0.22111111111111106,6.123899999999907],[-0.14624999999999996,0.2,6.140500000000003],[-0.12999999999999995,0.1735185185185186,6.157200000000188],[-0.11375000000000005,0.147037037037037,6.173799999999815],[-0.10270833333333336,0.12518518518518523,6.1905],[-0.09208333333333331,0.10222222222222231,6.207200000000185],[-0.09791666666666667,0.09703703703703699,6.223799999999812],[-0.1170833333333333,0.10444444444444441,6.240600000000086],[-0.08989583333333329,0.07277777777777769,6.257799999999818],[-0.07666666666666669,0.05722222222222218,6.274600000000092],[-0.057395833333333354,0.0485185185185186,6.290499999999994],[-0.04791666666666667,0.0485185185185186,6.307100000000091],[-0.08520833333333329,0.08518518518518518,6.323799999999807],[-0.12250000000000003,0.12185185185185177,6.340600000000094],[-0.13812500000000003,0.14592592592592585,6.35729999999981],[-0.15375000000000003,0.16999999999999993,6.373799999999818],[-0.16333333333333327,0.15240740740740732,6.390500000000003],[-0.17833333333333337,0.14129629629629623,6.407100000000099],[-0.18552083333333336,0.11666666666666667,6.423799999999815],[-0.2101041666666667,0.14074074074074075,6.440600000000089],[-0.23364583333333327,0.1485185185185186,6.457200000000185],[-0.24416666666666664,0.1418518518518519,6.473799999999812],[-0.1857291666666666,0.1294444444444444,6.490499999999997],[-0.12697916666666664,0.13277777777777786,6.507200000000182],[-0.09270833333333334,0.16296296296296298,6.5237999999998095],[-0.05625,0.20500000000000007,6.540600000000097],[-0.01906249999999995,0.24592592592592585,6.557299999999813],[0.04208333333333331,0.2687037037037037,6.573799999999807],[0.06270833333333338,0.2975925925925927,6.590500000000006],[0.10031249999999996,0.29518518518518516,6.607200000000191],[0.12822916666666656,0.29444444444444445,6.623799999999818],[0.15208333333333332,0.29981481481481476,6.6403999999999],[0.15572916666666667,0.305925925925926,6.6572999999998075],[0.16218750000000004,0.2742592592592593,6.673899999999904],[0.1814583333333334,0.23537037037037042,6.6903999999999115],[0.19854166666666656,0.18462962962962973,6.707200000000185],[0.20416666666666666,0.17407407407407408,6.723799999999812],[0.20458333333333342,0.1625925925925925,6.740499999999997],[0.2189583333333334,0.18296296296296288,6.757200000000182],[0.24770833333333328,0.1698148148148149,6.7737999999998095],[0.24500000000000005,0.21648148148148144,6.790499999999994],[0.24739583333333334,0.256111111111111,6.807200000000179],[0.23447916666666657,0.2818518518518519,6.823799999999807],[0.23166666666666677,0.3248148148148148,6.844999999999999],[0.2179166666666667,0.34962962962962957,6.861000000000004],[0.21375000000000005,0.37703703703703706,6.877100000000098],[0.21166666666666673,0.40796296296296286,6.8903999999999],[0.21458333333333332,0.44611111111111107,6.907200000000188],[0.2115624999999999,0.47962962962962963,6.923799999999815],[0.2085416666666667,0.5131481481481482,6.9405],[0.23177083333333334,0.47907407407407415,6.957299999999819],[0.25729166666666664,0.4581481481481481,6.9758999999999105],[0.2795833333333334,0.4035185185185185,6.990600000000086],[0.27843749999999995,0.37407407407407406,7.007299999999816],[0.2900000000000001,0.3449999999999999,7.026100000000099],[0.2900000000000001,0.30648148148148147,7.04079999999982],[0.2900000000000001,0.30648148148148147,7.061299999999818],[0.2764583333333334,0.2537037037037037,7.08020000000019],[0.26510416666666664,0.20759259259259263,7.09260000000009],[0.26749999999999996,0.14722222222222223,7.10729999999981],[0.2804166666666667,0.08037037037037033,7.123899999999907],[0.2660416666666668,0.06444444444444436,7.144100000000094],[0.2419791666666666,0.0507407407407407,7.15739999999991],[0.22541666666666677,0.06407407407407412,7.174100000000095],[0.22197916666666656,0.05814814814814811,7.1907000000001915],[0.21197916666666666,0.058333333333333334,7.209000000000003],[0.20239583333333327,0.07407407407407407,7.223899999999901],[0.20541666666666672,0.1,7.240799999999808],[0.20239583333333327,0.10444444444444441,7.25970000000018],[0.2091666666666666,0.10796296296296289,7.273899999999912],[0.20833333333333334,0.10259259259259255,7.290600000000097],[0.22041666666666657,0.09722222222222222,7.307299999999813],[0.2669791666666666,0.07074074074074083,7.325500000000005],[0.2820833333333333,0.07037037037037037,7.340600000000094],[0.27291666666666664,0.072037037037037,7.35760000000009],[0.2557291666666667,0.07148148148148152,7.375500000000002],[0.2627083333333334,0.05222222222222231,7.39070000000018],[0.2696875000000001,0.03296296296296288,7.4072999999998075],[0.30583333333333323,0.006111111111111027,7.425399999999911],[0.31187500000000007,0.012962962962962963,7.440600000000089],[0.3256249999999999,0.034444444444444486,7.457999999999998],[0.3393749999999999,0.05592592592592601,7.475399999999908],[0.296875,0.09833333333333337,7.490600000000086],[0.2855208333333332,0.11370370370370367,7.507299999999816],[0.3107291666666666,0.11907407407407399,7.5237999999998095],[0.34395833333333337,0.12666666666666662,7.542399999999901],[0.34500000000000003,0.13111111111111104,7.557299999999813],[0.3460416666666667,0.13555555555555565,7.573799999999807],[0.3009375000000001,0.16888888888888898,7.590600000000094],[0.27614583333333326,0.16944444444444445,7.609200000000186],[0.23385416666666667,0.1896296296296296,7.623899999999907],[0.2189583333333334,0.1816666666666667,7.640799999999814],[0.22999999999999995,0.1527777777777778,7.661399999999901],[0.24791666666666667,0.1264814814814814,7.676000000000002],[0.24489583333333323,0.11370370370370367,7.690600000000089],[0.24187500000000003,0.10092592592592593,7.707299999999819],[0.2526041666666667,0.10037037037037046,7.725799999999808],[0.26281249999999995,0.09888888888888885,7.740700000000189],[0.3111458333333334,0.07962962962962963,7.757399999999905],[0.35947916666666657,0.060370370370370414,7.773899999999912],[0.40812499999999996,0.030555555555555555,7.792500000000004],[0.4036458333333333,0.02814814814814823,7.807299999999813],[0.40687499999999993,0.0507407407407407,7.8238999999999095],[0.40354166666666674,0.07166666666666675,7.842500000000001],[0.40354166666666674,0.07166666666666675,7.857500000000002],[0.41531250000000003,0.0868518518518518,7.874100000000098],[0.42697916666666674,0.07592592592592592,7.89239999999991],[0.42979166666666657,0.06074074074074066,7.9072999999998075],[0.44114583333333335,0.05,7.923899999999904],[0.43020833333333336,0.04333333333333329,7.940600000000089],[0.4097916666666668,0.03314814814814811,7.961399999999912],[0.3993750000000001,0.03296296296296288,7.9767999999998125],[0.41468749999999993,0.03351851851851856,7.990600000000086],[0.42125000000000007,0.021481481481481525,8.007299999999816],[0.42781250000000004,0.009444444444444486,8.025999999999996],[0.4289583333333333,-0.013888888888888888,8.040700000000186],[0.43239583333333326,0.008148148148148106,8.057399999999902],[0.4405208333333334,0.03537037037037041,8.076700000000187],[0.43729166666666663,0.04592592592592584,8.090600000000094],[0.4340625000000001,0.05648148148148148,8.107399999999913],[0.4521874999999999,0.03555555555555564,8.125799999999813],[0.46041666666666664,-0.01777777777777782,8.140600000000092],[0.47843749999999996,0.010185185185185186,8.157200000000188],[0.4722916666666668,0.0020370370370370794,8.173799999999815],[0.4539583333333333,0.01518518518518527,8.190700000000191],[0.4337500000000001,0.013888888888888888,8.207200000000185],[0.44635416666666666,-0.03555555555555564,8.223799999999812],[0.4616666666666667,-0.07981481481481485,8.243200000000186],[0.4388541666666666,-0.0962962962962963,8.257700000000185],[0.41875,-0.11685185185185189,8.27379999999981],[0.4214583333333332,-0.08907407407407411,8.290399999999906],[0.42312500000000003,-0.0485185185185186,8.30710000000009],[0.37833333333333335,-0.06388888888888888,8.323799999999807],[0.3754166666666668,-0.08111111111111113,8.340500000000006],[0.3997916666666666,-0.11018518518518519,8.35720000000019],[0.42208333333333337,-0.11444444444444446,8.373799999999818],[0.39854166666666657,-0.08537037037037042,8.3903999999999],[0.3802083333333333,-0.06925925925925921,8.4071000000001],[0.3954166666666666,-0.059999999999999956,8.423700000000181],[0.40864583333333326,-0.08277777777777776,8.440399999999912],[0.3789583333333333,-0.09944444444444442,8.457100000000096],[0.3663541666666667,-0.09944444444444442,8.473899999999901],[0.3789583333333333,-0.13648148148148145,8.490499999999997],[0.37000000000000005,-0.12611111111111115,8.507100000000094],[0.3540625000000001,-0.10981481481481484,8.52379999999981],[0.3381249999999999,-0.09351851851851851,8.540499999999994],[0.334375,-0.09148148148148144,8.55710000000009],[0.33468749999999997,-0.06962962962962967,8.573799999999807],[0.30531249999999993,-0.07166666666666664,8.590500000000006],[0.2942708333333333,-0.038703703703703664,8.60720000000019],[0.27979166666666655,-0.028703703703703703,8.623700000000184],[0.26614583333333336,0.027222222222222307,8.6403999999999],[0.25270833333333326,0.04518518518518514,8.657200000000188],[0.25031249999999994,0.05981481481481473,8.673799999999815],[0.21572916666666658,0.04592592592592584,8.6905],[0.18114583333333342,0.032037037037036954,8.707100000000096],[0.15666666666666676,0.029259259259259176,8.723700000000179],[0.11697916666666662,0.009074074074074031,8.740499999999997],[0.12614583333333323,0.026481481481481398,8.757299999999816],[0.12531249999999997,0.026666666666666623,8.77379999999981],[0.11958333333333329,0.03462962962962971,8.790399999999906],[0.10239583333333328,-0.01907407407407399,8.80710000000009],[0.09645833333333324,-0.023148148148148147,8.823799999999807],[0.041770833333333354,0.00851851851851856,8.840399999999903],[0.014479166666666644,-0.006481481481481481,8.858100000000093],[-0.012812499999999952,-0.021481481481481525,8.874399999999909],[-0.06135416666666664,-0.012037037037037037,8.893],[-0.027499999999999976,-0.03611111111111111,8.907299999999807],[-0.05541666666666671,-0.06185185185185181,8.924100000000095],[-0.07739583333333329,-0.06740740740740736,8.940600000000089],[-0.09229166666666669,-0.06703703703703702,8.960700000000188],[-0.06708333333333331,-0.08925925925925923,8.977100000000092],[-0.10364583333333334,-0.10444444444444441,8.99170000000018],[-0.09864583333333338,-0.16148148148148145,9.010100000000094],[-0.08624999999999995,-0.18648148148148147,9.0243999999999],[-0.10833333333333334,-0.19740740740740745,9.04079999999982],[-0.09020833333333336,-0.2690740740740741,9.060799999999816],[-0.09156249999999998,-0.26796296296296296,9.076100000000096],[-0.08916666666666669,-0.2985185185185185,9.090399999999903],[-0.13697916666666668,-0.32611111111111113,9.10720000000019],[-0.1414583333333333,-0.3685185185185185,9.123799999999818],[-0.1920833333333333,-0.39759259259259255,9.140500000000003],[-0.21656249999999996,-0.4131481481481482,9.162299999999817]]","[0.00010000000008858478,0.037100000000094724,0.040600000000097225,0.05739999999990175,0.07399999999999807,0.09060000000009438,0.10729999999981032,0.12399999999999523,0.14070000000018013,0.15729999999980748,0.17499999999999716,0.1906000000000887,0.20729999999981885,0.22400000000000375,0.24060000000008586,0.2573999999999046,0.2738999999999123,0.2906000000000972,0.3084999999999951,0.32399999999999807,0.3406000000000944,0.3572999999998103,0.37389999999990664,0.39060000000009154,0.4072999999998075,0.42510000000008574,0.4405000000000001,0.45729999999981885,0.4746000000000947,0.49049999999999727,0.507299999999816,0.5238999999999123,0.5404999999999944,0.5588999999999089,0.5741000000000867,0.5906000000000944,0.6072000000001907,0.6238999999999066,0.6406000000000915,0.6572999999998075,0.6768999999999039,0.6910000000000025,0.707200000000185,0.723899999999901,0.7404999999999973,0.757299999999816,0.7738999999999123,0.7927000000001811,0.8073999999999018,0.8241000000000867,0.8444999999999965,0.8576000000000903,0.874100000000098,0.8907000000001801,0.9072000000001879,0.9237999999998152,0.9405000000000001,0.9572999999998189,0.9742999999998148,0.9906000000000859,1.0072000000001822,1.0238999999999123,1.0406000000000972,1.0572999999998132,1.0769999999999982,1.0941000000000969,1.1082000000001813,1.1238999999999066,1.1406000000000915,1.1578999999999127,1.1744999999999948,1.1916000000000935,1.207200000000185,1.2241000000000923,1.2406000000000859,1.257899999999907,1.2768999999999124,1.2906000000000972,1.3073999999999018,1.323999999999998,1.3455000000000013,1.3607999999998128,1.3739999999999952,1.3907000000001801,1.4103999999999104,1.4241000000000952,1.4410000000000025,1.457499999999996,1.476899999999901,1.491200000000191,1.5096000000000913,1.5238999999999123,1.5436000000000973,1.5600000000000023,1.5772000000001896,1.5907999999998168,1.6072000000001907,1.6238999999999066,1.6406000000000915,1.6577000000001902,1.67479999999982,1.6905000000000001,1.707200000000185,1.723899999999901,1.7406000000000859,1.7573999999999046,1.774000000000001,1.7904999999999944,1.8072000000001793,1.8238999999999095,1.8406000000000944,1.858000000000004,1.875,1.890500000000003,1.9072000000001879,1.9238999999999038,1.9406000000000887,1.9572999999998189,1.9770000000000039,1.9906000000000859,2.007299999999816,2.0238999999999123,2.0406000000000972,2.0587000000001865,2.0748999999999,2.090500000000006,2.1072000000001907,2.1238999999999066,2.140500000000003,2.157200000000188,2.173899999999904,2.1905,2.207200000000185,2.223899999999901,2.240600000000086,2.257200000000182,2.2737999999998095,2.2906000000000972,2.3072000000001793,2.3238999999999095,2.3406000000000944,2.3572999999998103,2.3738999999999066,2.390500000000003,2.407200000000188,2.423799999999815,2.4456000000000984,2.457200000000185,2.473899999999901,2.490600000000086,2.507200000000182,2.524000000000001,2.5406000000000972,2.557299999999813,2.5738999999999095,2.5906000000000944,2.6072999999998103,2.6238999999999066,2.6406000000000915,2.6572999999998075,2.673899999999904,2.6906000000000887,2.707299999999819,2.7282999999998196,2.740600000000086,2.757299999999816,2.774000000000001,2.7906000000000972,2.8072000000001793,2.8238999999999095,2.840500000000006,2.8572000000001907,2.8761000000000934,2.8906000000000915,2.9072999999998075,2.923799999999815,2.9405,2.957499999999996,2.975399999999908,2.996299999999806,3.013899999999907,3.029100000000099,3.0444999999999993,3.0581000000000955,3.0738999999999095,3.0906000000000944,3.1072000000001907,3.1238999999999066,3.1406000000000915,3.1572999999998075,3.173899999999904,3.1905,3.207200000000185,3.2237999999998124,3.2404999999999973,3.257299999999816,3.2738999999999123,3.2904999999999944,3.3072000000001793,3.3238999999999095,3.3406000000000944,3.3572999999998103,3.3742999999998062,3.3906000000000915,3.407200000000188,3.423899999999904,3.4405,3.457299999999819,3.4740000000000038,3.492700000000184,3.507200000000182,3.524000000000001,3.5443999999999107,3.560399999999902,3.576799999999807,3.590500000000006,3.6072000000001907,3.6238999999999066,3.6406000000000915,3.657200000000188,3.676000000000002,3.6906000000000887,3.7071000000000964,3.7241000000000923,3.743399999999909,3.757299999999816,3.7738999999999123,3.7904999999999944,3.807299999999813,3.8238999999999095,3.843700000000183,3.8596000000000856,3.875,3.890500000000003,3.907200000000188,3.923799999999815,3.9405,3.9617000000001923,3.9767999999998125,3.9904999999999973,4.007200000000182,4.023899999999912,4.040499999999994,4.057399999999902,4.0738999999999095,4.090500000000006,4.107200000000191,4.123899999999907,4.140500000000003,4.157200000000188,4.173899999999904,4.1905,4.207299999999819,4.223899999999901,4.244299999999811,4.258799999999809,4.27670000000019,4.290600000000097,4.307200000000179,4.3238999999999095,4.340500000000006,4.357200000000191,4.373799999999818,4.390500000000003,4.407200000000188,4.423799999999815,4.440600000000089,4.457799999999807,4.473799999999812,4.490499999999997,4.507200000000182,4.523899999999912,4.540499999999994,4.557299999999813,4.5738999999999095,4.590500000000006,4.607200000000191,4.623899999999907,4.640500000000003,4.6572999999998075,4.673799999999815,4.6905,4.707200000000185,4.723899999999901,4.744600000000091,4.757100000000094,4.773899999999912,4.790499999999994,4.807200000000179,4.8238999999999095,4.840500000000006,4.857200000000191,4.873799999999818,4.890500000000003,4.907200000000188,4.923799999999815,4.9405,4.957399999999907,4.973899999999901,4.990499999999997,5.007200000000182,5.023899999999912,5.040499999999994,5.057399999999902,5.078500000000005,5.093799999999817,5.110200000000191,5.1253999999999,5.141399999999905,5.1572999999998075,5.17479999999982,5.1905,5.210799999999807,5.223899999999901,5.240499999999997,5.263100000000094,5.273899999999912,5.290499999999994,5.3158999999999,5.323799999999807,5.340600000000094,5.3629999999999995,5.373899999999907,5.390500000000003,5.407200000000188,5.423899999999904,5.446299999999809,5.457299999999819,5.473899999999901,5.490600000000086,5.507200000000182,5.5237999999998095,5.540499999999994,5.557200000000179,5.5738999999999095,5.590500000000006,5.607200000000191,5.623899999999907,5.6406000000000915,5.657200000000188,5.673799999999815,5.6905,5.707200000000185,5.723899999999901,5.740600000000086,5.757299999999816,5.7737999999998095,5.790499999999994,5.807899999999904,5.824399999999912,5.840500000000006,5.857200000000191,5.873799999999818,5.890500000000003,5.907200000000188,5.923899999999904,5.940600000000089,5.957200000000185,5.973899999999901,5.990600000000086,6.007200000000182,6.0237999999998095,6.040499999999994,6.057299999999813,6.073799999999807,6.090500000000006,6.107100000000088,6.123899999999907,6.140500000000003,6.157200000000188,6.173799999999815,6.1905,6.207200000000185,6.223799999999812,6.240600000000086,6.257799999999818,6.274600000000092,6.290499999999994,6.307100000000091,6.323799999999807,6.340600000000094,6.35729999999981,6.373799999999818,6.390500000000003,6.407100000000099,6.423799999999815,6.440600000000089,6.457200000000185,6.473799999999812,6.490499999999997,6.507200000000182,6.5237999999998095,6.540600000000097,6.557299999999813,6.573799999999807,6.590500000000006,6.607200000000191,6.623799999999818,6.6403999999999,6.6572999999998075,6.673899999999904,6.6903999999999115,6.707200000000185,6.723799999999812,6.740499999999997,6.757200000000182,6.7737999999998095,6.790499999999994,6.807200000000179,6.823799999999807,6.844999999999999,6.861000000000004,6.877100000000098,6.8903999999999,6.907200000000188,6.923799999999815,6.9405,6.957299999999819,6.9758999999999105,6.990600000000086,7.007299999999816,7.026100000000099,7.04079999999982,7.061299999999818,7.08020000000019,7.09260000000009,7.10729999999981,7.123899999999907,7.144100000000094,7.15739999999991,7.174100000000095,7.1907000000001915,7.209000000000003,7.223899999999901,7.240799999999808,7.25970000000018,7.273899999999912,7.290600000000097,7.307299999999813,7.325500000000005,7.340600000000094,7.35760000000009,7.375500000000002,7.39070000000018,7.4072999999998075,7.425399999999911,7.440600000000089,7.457999999999998,7.475399999999908,7.490600000000086,7.507299999999816,7.5237999999998095,7.542399999999901,7.557299999999813,7.573799999999807,7.590600000000094,7.609200000000186,7.623899999999907,7.640799999999814,7.661399999999901,7.676000000000002,7.690600000000089,7.707299999999819,7.725799999999808,7.740700000000189,7.757399999999905,7.773899999999912,7.792500000000004,7.807299999999813,7.8238999999999095,7.842500000000001,7.857500000000002,7.874100000000098,7.89239999999991,7.9072999999998075,7.923899999999904,7.940600000000089,7.961399999999912,7.9767999999998125,7.990600000000086,8.007299999999816,8.025999999999996,8.040700000000186,8.057399999999902,8.076700000000187,8.090600000000094,8.107399999999913,8.125799999999813,8.140600000000092,8.157200000000188,8.173799999999815,8.190700000000191,8.207200000000185,8.223799999999812,8.243200000000186,8.257700000000185,8.27379999999981,8.290399999999906,8.30710000000009,8.323799999999807,8.340500000000006,8.35720000000019,8.373799999999818,8.3903999999999,8.4071000000001,8.423700000000181,8.440399999999912,8.457100000000096,8.473899999999901,8.490499999999997,8.507100000000094,8.52379999999981,8.540499999999994,8.55710000000009,8.573799999999807,8.590500000000006,8.60720000000019,8.623700000000184,8.6403999999999,8.657200000000188,8.673799999999815,8.6905,8.707100000000096,8.723700000000179,8.740499999999997,8.757299999999816,8.77379999999981,8.790399999999906,8.80710000000009,8.823799999999807,8.840399999999903,8.858100000000093,8.874399999999909,8.893,8.907299999999807,8.924100000000095,8.940600000000089,8.960700000000188,8.977100000000092,8.99170000000018,9.010100000000094,9.0243999999999,9.04079999999982,9.060799999999816,9.076100000000096,9.090399999999903,9.10720000000019,9.123799999999818,9.140500000000003,9.162299999999817]","[1733113320713,1733113320743,1733113320746,1733113320763,1733113320780,1733113320796,1733113320813,1733113320830,1733113320846,1733113320863,1733113320881,1733113320896,1733113320913,1733113320930,1733113320946,1733113320963,1733113320980,1733113320996,1733113321014,1733113321030,1733113321046,1733113321063,1733113321080,1733113321096,1733113321113,1733113321131,1733113321146,1733113321163,1733113321180,1733113321196,1733113321213,1733113321230,1733113321246,1733113321265,1733113321280,1733113321296,1733113321313,1733113321330,1733113321346,1733113321363,1733113321383,1733113321397,1733113321413,1733113321430,1733113321446,1733113321463,1733113321480,1733113321498,1733113321513,1733113321530,1733113321550,1733113321563,1733113321580,1733113321596,1733113321613,1733113321630,1733113321646,1733113321663,1733113321680,1733113321696,1733113321713,1733113321730,1733113321746,1733113321763,1733113321783,1733113321800,1733113321814,1733113321830,1733113321846,1733113321864,1733113321880,1733113321897,1733113321913,1733113321930,1733113321946,1733113321964,1733113321983,1733113321996,1733113322013,1733113322030,1733113322051,1733113322067,1733113322080,1733113322096,1733113322116,1733113322130,1733113322147,1733113322163,1733113322183,1733113322197,1733113322215,1733113322230,1733113322249,1733113322266,1733113322283,1733113322296,1733113322313,1733113322330,1733113322346,1733113322364,1733113322381,1733113322396,1733113322413,1733113322430,1733113322446,1733113322463,1733113322480,1733113322496,1733113322513,1733113322530,1733113322546,1733113322564,1733113322581,1733113322596,1733113322613,1733113322630,1733113322646,1733113322663,1733113322683,1733113322696,1733113322713,1733113322730,1733113322746,1733113322764,1733113322781,1733113322796,1733113322813,1733113322830,1733113322846,1733113322863,1733113322880,1733113322896,1733113322913,1733113322930,1733113322946,1733113322963,1733113322980,1733113322996,1733113323013,1733113323030,1733113323046,1733113323063,1733113323080,1733113323096,1733113323113,1733113323130,1733113323151,1733113323163,1733113323180,1733113323196,1733113323213,1733113323230,1733113323246,1733113323263,1733113323280,1733113323296,1733113323313,1733113323330,1733113323346,1733113323363,1733113323380,1733113323396,1733113323413,1733113323434,1733113323446,1733113323463,1733113323480,1733113323496,1733113323513,1733113323530,1733113323546,1733113323563,1733113323582,1733113323596,1733113323613,1733113323630,1733113323646,1733113323663,1733113323681,1733113323702,1733113323720,1733113323735,1733113323750,1733113323764,1733113323780,1733113323796,1733113323813,1733113323830,1733113323846,1733113323863,1733113323880,1733113323896,1733113323913,1733113323930,1733113323946,1733113323963,1733113323980,1733113323996,1733113324013,1733113324030,1733113324046,1733113324063,1733113324080,1733113324096,1733113324113,1733113324130,1733113324146,1733113324163,1733113324180,1733113324198,1733113324213,1733113324230,1733113324250,1733113324266,1733113324282,1733113324296,1733113324313,1733113324330,1733113324346,1733113324363,1733113324382,1733113324396,1733113324413,1733113324430,1733113324449,1733113324463,1733113324480,1733113324496,1733113324513,1733113324530,1733113324549,1733113324565,1733113324581,1733113324596,1733113324613,1733113324630,1733113324646,1733113324667,1733113324683,1733113324696,1733113324713,1733113324730,1733113324746,1733113324763,1733113324780,1733113324796,1733113324813,1733113324830,1733113324846,1733113324863,1733113324880,1733113324896,1733113324913,1733113324930,1733113324950,1733113324965,1733113324982,1733113324996,1733113325013,1733113325030,1733113325046,1733113325063,1733113325080,1733113325096,1733113325113,1733113325130,1733113325146,1733113325164,1733113325180,1733113325196,1733113325213,1733113325230,1733113325246,1733113325263,1733113325280,1733113325296,1733113325313,1733113325330,1733113325346,1733113325363,1733113325380,1733113325396,1733113325413,1733113325430,1733113325450,1733113325463,1733113325480,1733113325496,1733113325513,1733113325530,1733113325546,1733113325563,1733113325580,1733113325596,1733113325613,1733113325630,1733113325646,1733113325663,1733113325680,1733113325696,1733113325713,1733113325730,1733113325746,1733113325763,1733113325784,1733113325800,1733113325816,1733113325831,1733113325847,1733113325863,1733113325881,1733113325896,1733113325917,1733113325930,1733113325946,1733113325969,1733113325980,1733113325996,1733113326022,1733113326030,1733113326046,1733113326069,1733113326080,1733113326096,1733113326113,1733113326130,1733113326152,1733113326163,1733113326180,1733113326196,1733113326213,1733113326230,1733113326246,1733113326263,1733113326280,1733113326296,1733113326313,1733113326330,1733113326346,1733113326363,1733113326380,1733113326396,1733113326413,1733113326430,1733113326446,1733113326463,1733113326480,1733113326496,1733113326514,1733113326530,1733113326546,1733113326563,1733113326580,1733113326596,1733113326613,1733113326630,1733113326646,1733113326663,1733113326680,1733113326696,1733113326713,1733113326730,1733113326746,1733113326763,1733113326780,1733113326796,1733113326813,1733113326830,1733113326846,1733113326863,1733113326880,1733113326896,1733113326913,1733113326930,1733113326946,1733113326964,1733113326980,1733113326996,1733113327013,1733113327030,1733113327046,1733113327063,1733113327080,1733113327096,1733113327113,1733113327130,1733113327146,1733113327163,1733113327180,1733113327196,1733113327213,1733113327230,1733113327246,1733113327263,1733113327280,1733113327296,1733113327313,1733113327330,1733113327346,1733113327363,1733113327380,1733113327396,1733113327413,1733113327430,1733113327446,1733113327463,1733113327480,1733113327496,1733113327513,1733113327530,1733113327551,1733113327567,1733113327583,1733113327596,1733113327613,1733113327630,1733113327646,1733113327663,1733113327682,1733113327696,1733113327713,1733113327732,1733113327747,1733113327767,1733113327786,1733113327798,1733113327813,1733113327830,1733113327850,1733113327863,1733113327880,1733113327896,1733113327915,1733113327930,1733113327947,1733113327965,1733113327980,1733113327996,1733113328013,1733113328031,1733113328046,1733113328063,1733113328081,1733113328096,1733113328113,1733113328131,1733113328146,1733113328164,1733113328181,1733113328196,1733113328213,1733113328230,1733113328248,1733113328263,1733113328280,1733113328296,1733113328315,1733113328330,1733113328347,1733113328367,1733113328382,1733113328396,1733113328413,1733113328432,1733113328446,1733113328463,1733113328480,1733113328498,1733113328513,1733113328530,1733113328548,1733113328563,1733113328580,1733113328598,1733113328613,1733113328630,1733113328646,1733113328667,1733113328683,1733113328696,1733113328713,1733113328732,1733113328747,1733113328763,1733113328782,1733113328796,1733113328813,1733113328832,1733113328846,1733113328863,1733113328880,1733113328896,1733113328913,1733113328930,1733113328949,1733113328963,1733113328980,1733113328996,1733113329013,1733113329030,1733113329046,1733113329063,1733113329080,1733113329096,1733113329113,1733113329130,1733113329146,1733113329163,1733113329180,1733113329196,1733113329213,1733113329230,1733113329246,1733113329263,1733113329280,1733113329296,1733113329313,1733113329330,1733113329346,1733113329363,1733113329380,1733113329396,1733113329413,1733113329430,1733113329446,1733113329463,1733113329480,1733113329496,1733113329513,1733113329530,1733113329546,1733113329564,1733113329580,1733113329599,1733113329613,1733113329630,1733113329646,1733113329667,1733113329683,1733113329697,1733113329716,1733113329730,1733113329747,1733113329767,1733113329782,1733113329796,1733113329813,1733113329830,1733113329846,1733113329868]","[[1054.7,757.3],[1054.7,757.3],[1054.7,757.3],[1073.8,764.2],[1078.8,773.7],[1090.9,776.5],[1096.5,770.8],[1115.6,767.7],[1134.3,775.6],[1144.4,795.9],[1151.5,807.9],[1181.6,797.6],[1186.7,804.6],[1181.3,800.3],[1181.3,800.3],[1186.2,788.5],[1186.2,788.5],[1184.9,793.1],[1199.6,790.2],[1199.6,790.2],[1205.6,790.1],[1205.6,790.1],[1206.2,784.8],[1206.2,784.8],[1232.7,777.1],[125