inst1_resp.keys,inst1_resp.rt,calibrationMouse.x,calibrationMouse.y,calibrationMouse.leftButton,calibrationMouse.midButton,calibrationMouse.rightButton,calibrationClick.x,calibrationClick.y,calibrationClick.leftButton,calibrationClick.midButton,calibrationClick.rightButton,trialsc.thisRepN,trialsc.thisTrialN,trialsc.thisN,trialsc.thisIndex,trialsc.ran,calibration_x,calibration_y,participant,session,date,expName,psychopyVersion,OS,frameRate,calibrationClick.clicked_name,ScreenRes_pixels,mouse_2.x,mouse_2.y,mouse_2.leftButton,mouse_2.midButton,mouse_2.rightButton,mouse_2.time,mouse_2.clicked_name,Camera_pixels,mouse.x,mouse.y,mouse.leftButton,mouse.midButton,mouse.rightButton,mouse.time,mouse.clicked_name,Choice,Trial,TrialDuration,MOUSE_GAZE,ET_GAZE,ET_GAZE_x_T,time,unixTime,ET_GAZE_NF,Loc_Option1_label,Loc_Option2_label,Loc_Cost_label,Loc_Qual_label,Loc_Option1_cost,Loc_Option2_cost,Loc_Option1_quality,Loc_Option2_quality,trials.thisRepN,trials.thisTrialN,trials.thisN,trials.thisIndex,trials.ran,Block,Device,cost1,qual1,cost2,qual2
space,1.8685,-0.398958333,0.262962963,1,0,0,-0.676041667,0.007407407,0,0,0,0,0,0,2,1,-0.67,0,49,001,2024-12-02_13h06.39.836,Attention_exp_legacy,2023.1.0,Win32,59.88023952,,,,,,,,,,,,,,,,,,,,,,,,,,,,,,,,,,,,,,,,,,,,,
,,,,,,,0.339583333,0.007407407,1,0,0,0,1,1,16,1,0.33,0,49,001,2024-12-02_13h06.39.836,Attention_exp_legacy,2023.1.0,Win32,59.88023952,calibration_square,,,,,,,,,,,,,,,,,,,,,,,,,,,,,,,,,,,,,,,,,,,,
,,,,,,,-0.341666667,0.694444444,1,0,0,0,2,2,8,1,-0.33,0.67,49,001,2024-12-02_13h06.39.836,Attention_exp_legacy,2023.1.0,Win32,59.88023952,,,,,,,,,,,,,,,,,,,,,,,,,,,,,,,,,,,,,,,,,,,,,
,,,,,,,0.007291667,-0.659259259,1,0,0,0,3,3,9,1,0,-0.67,49,001,2024-12-02_13h06.39.836,Attention_exp_legacy,2023.1.0,Win32,59.88023952,,,,,,,,,,,,,,,,,,,,,,,,,,,,,,,,,,,,,,,,,,,,,
,,,,,,,0.002083333,0.694444444,1,0,0,0,4,4,13,1,0,0.67,49,001,2024-12-02_13h06.39.836,Attention_exp_legacy,2023.1.0,Win32,59.88023952,,,,,,,,,,,,,,,,,,,,,,,,,,,,,,,,,,,,,,,,,,,,,
,,,,,,,0.333333333,-0.672222222,1,0,0,0,5,5,14,1,0.33,-0.67,49,001,2024-12-02_13h06.39.836,Attention_exp_legacy,2023.1.0,Win32,59.88023952,calibration_square,,,,,,,,,,,,,,,,,,,,,,,,,,,,,,,,,,,,,,,,,,,,
,,,,,,,-0.671875,-0.32037037,1,0,0,0,6,6,1,1,-0.67,-0.33,49,001,2024-12-02_13h06.39.836,Attention_exp_legacy,2023.1.0,Win32,59.88023952,calibration_square,,,,,,,,,,,,,,,,,,,,,,,,,,,,,,,,,,,,,,,,,,,,
,,,,,,,-0.68125,-0.661111111,1,0,0,0,7,7,0,1,-0.67,-0.67,49,001,2024-12-02_13h06.39.836,Attention_exp_legacy,2023.1.0,Win32,59.88023952,,,,,,,,,,,,,,,,,,,,,,,,,,,,,,,,,,,,,,,,,,,,,
,,,,,,,0.672916667,-0.675925926,1,0,0,0,8,8,20,1,0.67,-0.67,49,001,2024-12-02_13h06.39.836,Attention_exp_legacy,2023.1.0,Win32,59.88023952,calibration_square,,,,,,,,,,,,,,,,,,,,,,,,,,,,,,,,,,,,,,,,,,,,
,,,,,,,-0.3375,0.338888889,1,0,0,0,9,9,7,1,-0.33,0.33,49,001,2024-12-02_13h06.39.836,Attention_exp_legacy,2023.1.0,Win32,59.88023952,calibration_square,,,,,,,,,,,,,,,,,,,,,,,,,,,,,,,,,,,,,,,,,,,,
,,,,,,,-0.016666667,0.361111111,1,0,0,0,10,10,12,1,0,0.33,49,001,2024-12-02_13h06.39.836,Attention_exp_legacy,2023.1.0,Win32,59.88023952,,,,,,,,,,,,,,,,,,,,,,,,,,,,,,,,,,,,,,,,,,,,,
,,,,,,,-0.671875,0.351851852,1,0,0,0,11,11,3,1,-0.67,0.33,49,001,2024-12-02_13h06.39.836,Attention_exp_legacy,2023.1.0,Win32,59.88023952,,,,,,,,,,,,,,,,,,,,,,,,,,,,,,,,,,,,,,,,,,,,,
,,,,,,,-0.004166667,0.003703704,1,0,0,0,12,12,11,1,0,0,49,001,2024-12-02_13h06.39.836,Attention_exp_legacy,2023.1.0,Win32,59.88023952,calibration_square,,,,,,,,,,,,,,,,,,,,,,,,,,,,,,,,,,,,,,,,,,,,
,,,,,,,-0.352083333,-0.325925926,1,0,0,0,13,13,5,1,-0.33,-0.33,49,001,2024-12-02_13h06.39.836,Attention_exp_legacy,2023.1.0,Win32,59.88023952,,,,,,,,,,,,,,,,,,,,,,,,,,,,,,,,,,,,,,,,,,,,,
,,,,,,,0.33125,0.674074074,1,0,0,0,14,14,18,1,0.33,0.67,49,001,2024-12-02_13h06.39.836,Attention_exp_legacy,2023.1.0,Win32,59.88023952,calibration_square,,,,,,,,,,,,,,,,,,,,,,,,,,,,,,,,,,,,,,,,,,,,
,,,,,,,0.678125,0.687037037,1,0,0,0,15,15,19,1,0.67,0.67,49,001,2024-12-02_13h06.39.836,Attention_exp_legacy,2023.1.0,Win32,59.88023952,,,,,,,,,,,,,,,,,,,,,,,,,,,,,,,,,,,,,,,,,,,,,
,,,,,,,-0.325,-0.642592593,1,0,0,0,16,16,4,1,-0.33,-0.67,49,001,2024-12-02_13h06.39.836,Attention_exp_legacy,2023.1.0,Win32,59.88023952,,,,,,,,,,,,,,,,,,,,,,,,,,,,,,,,,,,,,,,,,,,,,
,,,,,,,0.301041667,0.327777778,1,0,0,0,17,17,17,1,0.33,0.33,49,001,2024-12-02_13h06.39.836,Attention_exp_legacy,2023.1.0,Win32,59.88023952,,,,,,,,,,,,,,,,,,,,,,,,,,,,,,,,,,,,,,,,,,,,,
,,,,,,,-0.332291667,0.007407407,1,0,0,0,18,18,6,1,-0.33,0,49,001,2024-12-02_13h06.39.836,Attention_exp_legacy,2023.1.0,Win32,59.88023952,calibration_square,,,,,,,,,,,,,,,,,,,,,,,,,,,,,,,,,,,,,,,,,,,,
,,,,,,,0.334375,-0.338888889,1,0,0,0,19,19,15,1,0.33,-0.33,49,001,2024-12-02_13h06.39.836,Attention_exp_legacy,2023.1.0,Win32,59.88023952,calibration_square,,,,,,,,,,,,,,,,,,,,,,,,,,,,,,,,,,,,,,,,,,,,
,,,,,,,0.0125,-0.318518519,1,0,0,0,20,20,10,1,0,-0.33,49,001,2024-12-02_13h06.39.836,Attention_exp_legacy,2023.1.0,Win32,59.88023952,,,,,,,,,,,,,,,,,,,,,,,,,,,,,,,,,,,,,,,,,,,,,
,,,,,,,,,,,,,,,,,,,49,001,2024-12-02_13h06.39.836,Attention_exp_legacy,2023.1.0,Win32,59.88023952,,"[1920,1080]",[0.0125],[-0.49444444444444446],[1],[0],[0],[0.7796000000005634],"[""StartButton""]","[640,480]",[0.005208333333333333],[0.15],[1],[0],[0],[3.4917000000001863],"[""Option1_label""]",Option1_label,1,4.5122,"[[0.035416666666666666,-0.4759259259259259],[0.035416666666666666,-0.4759259259259259],[0.035416666666666666,-0.4759259259259259],[0.035416666666666666,-0.4759259259259259],[0.035416666666666666,-0.4759259259259259],[0.035416666666666666,-0.4759259259259259],[0.035416666666666666,-0.4759259259259259],[0.035416666666666666,-0.4759259259259259],[0.035416666666666666,-0.4759259259259259],[0.035416666666666666,-0.4759259259259259],[0.035416666666666666,-0.4759259259259259],[0.035416666666666666,-0.4759259259259259],[0.035416666666666666,-0.4759259259259259],[0.035416666666666666,-0.4759259259259259],[0.035416666666666666,-0.4759259259259259],[0.035416666666666666,-0.4759259259259259],[0.035416666666666666,-0.4759259259259259],[0.035416666666666666,-0.4759259259259259],[0.035416666666666666,-0.4759259259259259],[0.035416666666666666,-0.4759259259259259],[0.035416666666666666,-0.4759259259259259],[0.035416666666666666,-0.4759259259259259],[0.035416666666666666,-0.4759259259259259],[0.035416666666666666,-0.4759259259259259],[0.035416666666666666,-0.4759259259259259],[0.035416666666666666,-0.4759259259259259],[0.035416666666666666,-0.4759259259259259],[0.035416666666666666,-0.4759259259259259],[0.035416666666666666,-0.4759259259259259],[0.035416666666666666,-0.4759259259259259],[0.035416666666666666,-0.4759259259259259],[0.035416666666666666,-0.4759259259259259],[0.035416666666666666,-0.4759259259259259],[0.035416666666666666,-0.4759259259259259],[0.035416666666666666,-0.4759259259259259],[0.035416666666666666,-0.4759259259259259],[0.035416666666666666,-0.4759259259259259],[0.035416666666666666,-0.4759259259259259],[0.035416666666666666,-0.4759259259259259],[0.035416666666666666,-0.4759259259259259],[0.035416666666666666,-0.4759259259259259],[0.035416666666666666,-0.4759259259259259],[0.036458333333333336,-0.4740740740740741],[0.03854166666666667,-0.45925925925925926],[0.040625,-0.43703703703703706],[0.046875,-0.3925925925925926],[0.04895833333333333,-0.3592592592592593],[0.051041666666666666,-0.32407407407407407],[0.05416666666666667,-0.28888888888888886],[0.057291666666666664,-0.2518518518518518],[0.059375,-0.2111111111111111],[0.0625,-0.18333333333333332],[0.06458333333333334,-0.1537037037037037],[0.06770833333333333,-0.10740740740740741],[0.06875,-0.0962962962962963],[0.06979166666666667,-0.06851851851851852],[0.07395833333333333,-0.022222222222222223],[0.075,0.005555555555555556],[0.07708333333333334,0.03333333333333333],[0.07916666666666666,0.05555555555555555],[0.08020833333333334,0.07407407407407407],[0.08125,0.1],[0.08333333333333333,0.12037037037037036],[0.08333333333333333,0.14074074074074075],[0.08333333333333333,0.1425925925925926],[0.08333333333333333,0.15],[0.08333333333333333,0.15555555555555556],[0.08333333333333333,0.16666666666666666],[0.08333333333333333,0.17592592592592593],[0.08333333333333333,0.1814814814814815],[0.08333333333333333,0.18518518518518517],[0.08333333333333333,0.18703703703703703],[0.08333333333333333,0.19074074074074074],[0.08333333333333333,0.19074074074074074],[0.08333333333333333,0.1925925925925926],[0.08333333333333333,0.1925925925925926],[0.08333333333333333,0.1925925925925926],[0.08333333333333333,0.1925925925925926],[0.08333333333333333,0.1925925925925926],[0.08333333333333333,0.1925925925925926],[0.08333333333333333,0.1925925925925926],[0.08333333333333333,0.1925925925925926],[0.08333333333333333,0.1925925925925926],[0.08333333333333333,0.1925925925925926],[0.08333333333333333,0.1925925925925926],[0.08333333333333333,0.1925925925925926],[0.08333333333333333,0.1925925925925926],[0.08333333333333333,0.1925925925925926],[0.08333333333333333,0.1925925925925926],[0.08333333333333333,0.1925925925925926],[0.08333333333333333,0.1925925925925926],[0.08333333333333333,0.1925925925925926],[0.08333333333333333,0.1925925925925926],[0.08333333333333333,0.1925925925925926],[0.08333333333333333,0.1925925925925926],[0.08333333333333333,0.1925925925925926],[0.08333333333333333,0.1925925925925926],[0.08333333333333333,0.1925925925925926],[0.08333333333333333,0.1925925925925926],[0.08333333333333333,0.1925925925925926],[0.08333333333333333,0.1925925925925926],[0.08333333333333333,0.1925925925925926],[0.08333333333333333,0.1925925925925926],[0.08333333333333333,0.1925925925925926],[0.08333333333333333,0.1925925925925926],[0.08333333333333333,0.1925925925925926],[0.08333333333333333,0.1925925925925926],[0.08333333333333333,0.1925925925925926],[0.08333333333333333,0.1925925925925926],[0.08333333333333333,0.1925925925925926],[0.08333333333333333,0.1925925925925926],[0.08333333333333333,0.1925925925925926],[0.08333333333333333,0.1925925925925926],[0.08333333333333333,0.1925925925925926],[0.08333333333333333,0.1925925925925926],[0.08333333333333333,0.1925925925925926],[0.08333333333333333,0.1925925925925926],[0.08333333333333333,0.1925925925925926],[0.08333333333333333,0.1925925925925926],[0.08333333333333333,0.1925925925925926],[0.08333333333333333,0.1925925925925926],[0.08333333333333333,0.1925925925925926],[0.08333333333333333,0.1925925925925926],[0.08333333333333333,0.1925925925925926],[0.08333333333333333,0.1925925925925926],[0.08333333333333333,0.1925925925925926],[0.08333333333333333,0.1925925925925926],[0.08333333333333333,0.1925925925925926],[0.08333333333333333,0.1925925925925926],[0.08333333333333333,0.1925925925925926],[0.08333333333333333,0.1925925925925926],[0.08333333333333333,0.1925925925925926],[0.08333333333333333,0.1925925925925926],[0.08333333333333333,0.1925925925925926],[0.08333333333333333,0.1925925925925926],[0.08333333333333333,0.1925925925925926],[0.08333333333333333,0.1925925925925926],[0.08333333333333333,0.1925925925925926],[0.08333333333333333,0.1925925925925926],[0.08333333333333333,0.1925925925925926],[0.08333333333333333,0.1925925925925926],[0.08333333333333333,0.1925925925925926],[0.08333333333333333,0.1925925925925926],[0.08333333333333333,0.1925925925925926],[0.08333333333333333,0.1925925925925926],[0.08333333333333333,0.1925925925925926],[0.08333333333333333,0.1925925925925926],[0.08333333333333333,0.1925925925925926],[0.08333333333333333,0.1925925925925926],[0.08333333333333333,0.1925925925925926],[0.08333333333333333,0.1925925925925926],[0.08333333333333333,0.1925925925925926],[0.08333333333333333,0.1925925925925926],[0.08333333333333333,0.1925925925925926],[0.08333333333333333,0.1925925925925926],[0.08333333333333333,0.1925925925925926],[0.08333333333333333,0.1925925925925926],[0.08333333333333333,0.1925925925925926],[0.08333333333333333,0.1925925925925926],[0.08333333333333333,0.1925925925925926],[0.08333333333333333,0.1925925925925926],[0.08333333333333333,0.1925925925925926],[0.08333333333333333,0.1925925925925926],[0.08333333333333333,0.19444444444444445],[0.08229166666666667,0.19444444444444445],[0.08125,0.19444444444444445],[0.07708333333333334,0.19074074074074074],[0.07395833333333333,0.18703703703703703],[0.071875,0.18333333333333332],[0.06875,0.17962962962962964],[0.06354166666666666,0.17592592592592593],[0.059375,0.17037037037037037],[0.05416666666666667,0.16666666666666666],[0.04791666666666667,0.16111111111111112],[0.042708333333333334,0.1574074074074074],[0.03854166666666667,0.15555555555555556],[0.035416666666666666,0.15555555555555556],[0.030208333333333334,0.15185185185185185],[0.025,0.15],[0.021875,0.15],[0.020833333333333332,0.15],[0.01875,0.15],[0.01875,0.15],[0.01875,0.15],[0.017708333333333333,0.15],[0.015625,0.15],[0.014583333333333334,0.15],[0.0125,0.15],[0.010416666666666666,0.15],[0.008333333333333333,0.15],[0.007291666666666667,0.15],[0.00625,0.15],[0.00625,0.15],[0.005208333333333333,0.15],[0.005208333333333333,0.15],[0.005208333333333333,0.15],[0.005208333333333333,0.15],[0.005208333333333333,0.15],[0.005208333333333333,0.15],[0.005208333333333333,0.15],[0.005208333333333333,0.15],[0.005208333333333333,0.15],[0.005208333333333333,0.15],[0.005208333333333333,0.15],[0.005208333333333333,0.15],[0.005208333333333333,0.15],[0.005208333333333333,0.15],[0.005208333333333333,0.15],[0.005208333333333333,0.15],[0.005208333333333333,0.15],[0.005208333333333333,0.15],[0.005208333333333333,0.15],[0.005208333333333333,0.15],[0.005208333333333333,0.15],[0.005208333333333333,0.15],[0.005208333333333333,0.15],[0.005208333333333333,0.15],[0.005208333333333333,0.15],[0.005208333333333333,0.15],[0.005208333333333333,0.15],[0.005208333333333333,0.15],[0.005208333333333333,0.15],[0.005208333333333333,0.15],[0.005208333333333333,0.15],[0.005208333333333333,0.15],[0.005208333333333333,0.15],[0.005208333333333333,0.15],[0.005208333333333333,0.15],[0.005208333333333333,0.15],[0.005208333333333333,0.15],[0.005208333333333333,0.15],[0.005208333333333333,0.15],[0.005208333333333333,0.15],[0.005208333333333333,0.15],[0.005208333333333333,0.15],[0.005208333333333333,0.15],[0.005208333333333333,0.15],[0.005208333333333333,0.15],[0.005208333333333333,0.15],[0.005208333333333333,0.15],[0.005208333333333333,0.15],[0.005208333333333333,0.15],[0.005208333333333333,0.15],[0.005208333333333333,0.15],[0.005208333333333333,0.15],[0.005208333333333333,0.15],[0.005208333333333333,0.15],[0.005208333333333333,0.15],[0.005208333333333333,0.15],[0.005208333333333333,0.15],[0.005208333333333333,0.15],[0.005208333333333333,0.15],[0.005208333333333333,0.15],[0.005208333333333333,0.15],[0.005208333333333333,0.15],[0.005208333333333333,0.15],[0.005208333333333333,0.15],[0.005208333333333333,0.15],[0.005208333333333333,0.15],[0.005208333333333333,0.15],[0.005208333333333333,0.15],[0.005208333333333333,0.15],[0.005208333333333333,0.15],[0.005208333333333333,0.15],[0.005208333333333333,0.15],[0.005208333333333333,0.15],[0.005208333333333333,0.15],[0.005208333333333333,0.15],[0.005208333333333333,0.15],[0.005208333333333333,0.15],[0.005208333333333333,0.15]]","[[-0.0328125,0.31240740740740747],[-0.0328125,0.31240740740740747],[-0.0328125,0.31240740740740747],[-0.026979166666666644,0.27685185185185185],[-0.024270833333333287,0.23370370370370377],[-0.021562500000000047,0.1905555555555555],[-0.012083333333333357,0.15648148148148147],[0.0048958333333333805,0.11370370370370367],[0.002499999999999976,0.09907407407407408],[0.0037500000000000237,0.08259259259259263],[0.019479166666666714,0.06222222222222226],[0.019479166666666714,0.06222222222222226],[0.03739583333333331,0.04092592592592597],[0.058958333333333356,0.021481481481481525],[0.06479166666666672,0.010740740740740657],[0.06291666666666665,0.006851851851851936],[0.06104166666666669,0.002962962962963005],[0.07770833333333324,-0.018518518518518517],[0.08687500000000009,-0.03129629629629625],[0.09458333333333328,-0.03370370370370379],[0.09864583333333338,-0.03425925925925926],[0.08833333333333329,-0.02370370370370362],[0.07385416666666676,-0.006296296296296254],[0.04114583333333333,0.015000000000000043],[0.01114583333333338,0.027037037037037078],[0.010520833333333358,0.055000000000000084],[0.006979166666666714,0.08648148148148156],[-0.010312499999999976,0.10907407407407403],[-0.027604166666666666,0.1316666666666667],[-0.043437500000000046,0.14388888888888898],[-0.0609375,0.16351851851851842],[-0.057500000000000044,0.16518518518518527],[-0.052083333333333336,0.1609259259259259],[-0.03968750000000002,0.13499999999999995],[-0.004791666666666691,0.1264814814814814],[0.002395833333333286,0.11129629629629634],[0.028125,0.09518518518518514],[0.028958333333333287,0.07888888888888893],[0.029791666666666692,0.0625925925925925],[0.034895833333333334,0.049629629629629544],[0.03291666666666669,0.027407407407407325],[0.028125,0.02833333333333325],[0.025312499999999953,0.03351851851851856],[0.03145833333333338,0.04592592592592584],[0.015208333333333357,0.057037037037036956],[0.015312500000000047,0.08092592592592601],[-0.010312499999999976,0.10092592592592593],[-0.014583333333333334,0.1557407407407408],[-0.01229166666666662,0.19611111111111107],[-0.019166666666666644,0.24092592592592596],[-0.007187499999999976,0.26740740740740737],[-0.009791666666666643,0.25277777777777777],[-0.014374999999999952,0.2338888888888888],[-0.025937499999999978,0.2711111111111111],[-0.028854166666666715,0.30037037037037045],[-0.03270833333333331,0.28944444444444434],[-0.02645833333333331,0.27981481481481485],[-0.02645833333333331,0.27981481481481485],[-0.019687499999999976,0.2548148148148149],[-0.035208333333333286,0.23574074074074067],[-0.024062500000000025,0.21814814814814806],[-0.03572916666666662,0.16703703703703712],[-0.036562500000000026,0.14074074074074075],[-0.025520833333333333,0.15092592592592594],[-0.025520833333333333,0.15092592592592594],[-0.002812500000000047,0.0933333333333333],[-0.002812500000000047,0.0933333333333333],[0.007604166666666619,0.06185185185185181],[0.007604166666666619,0.06185185185185181],[-0.00458333333333331,0.06870370370370374],[-0.00458333333333331,0.06870370370370374],[0.0021875000000000236,0.060370370370370414],[0.0021875000000000236,0.060370370370370414],[-0.007291666666666667,0.059999999999999956],[-0.007291666666666667,0.059999999999999956],[0.01416666666666669,0.05981481481481473],[0.010625000000000048,0.04425925925925922],[0.019791666666666666,0.0824074074074074],[0.033958333333333354,0.11592592592592597],[0.03760416666666669,0.10555555555555556],[0.03927083333333338,0.12074074074074083],[0.03145833333333338,0.12685185185185185],[0.04020833333333336,0.1205555555555556],[0.04708333333333338,0.10851851851851856],[0.06843750000000005,0.061666666666666585],[0.08468749999999996,0.042407407407407366],[0.10416666666666667,0.029259259259259176],[0.11979166666666667,0.02111111111111107],[0.1304166666666667,0.017592592592592594],[0.14364583333333342,0.029259259259259176],[0.14739583333333334,0.06185185185185181],[0.15145833333333342,0.07759259259259255],[0.15552083333333327,0.0933333333333333],[0.15145833333333342,0.08796296296296297],[0.1515625,0.09888888888888885],[0.14385416666666656,0.14296296296296304],[0.13614583333333338,0.18703703703703703],[0.12083333333333333,0.20999999999999996],[0.10552083333333329,0.23296296296296287],[0.08833333333333329,0.2627777777777777],[0.08145833333333338,0.24574074074074082],[0.08458333333333339,0.22962962962962963],[0.10427083333333324,0.21444444444444435],[0.11114583333333337,0.20870370370370378],[0.11802083333333328,0.202962962962963],[0.12531249999999997,0.16722222222222213],[0.13416666666666663,0.125],[0.14874999999999997,0.08907407407407411],[0.16333333333333327,0.05314814814814823],[0.1772916666666667,0.004629629629629629],[0.19052083333333342,-0.025],[0.20666666666666675,-0.04981481481481477],[0.20625,-0.07555555555555557],[0.21197916666666666,-0.06888888888888887],[0.21687500000000004,-0.06370370370370367],[0.20947916666666658,-0.07148148148148152],[0.20052083333333334,-0.0727777777777778],[0.20645833333333338,-0.056296296296296254],[0.2109375,-0.044444444444444446],[0.21989583333333323,-0.04314814814814806],[0.2283333333333334,-0.035740740740740656],[0.22218749999999995,-0.021851851851851768],[0.21604166666666677,-0.007962962962962878],[0.21875,0.0001851851851852273],[0.2205208333333334,0.00851851851851856],[0.23187499999999991,0.007407407407407408],[0.23302083333333337,0.001851851851851852],[0.22177083333333342,-0.009999999999999959],[0.22208333333333338,-0.0294444444444444],[0.22374999999999995,-0.027407407407407325],[0.21708333333333343,-0.029814814814814856],[0.22041666666666657,-0.03148148148148148],[0.21916666666666676,-0.010740740740740657],[0.20197916666666677,0.014814814814814815],[0.1865624999999999,0.041666666666666664],[0.18947916666666675,0.05907407407407403],[0.1820833333333333,0.0962962962962963],[0.1977083333333333,0.11388888888888889],[0.20322916666666657,0.14370370370370375],[0.18416666666666662,0.16944444444444445],[0.1734375,0.19962962962962955],[0.14541666666666658,0.2131481481481482],[0.12197916666666657,0.20425925925925917],[0.10979166666666676,0.19166666666666668],[0.10208333333333333,0.18407407407407403],[0.07197916666666657,0.18574074074074065],[0.05687500000000002,0.16814814814814807],[0.01604166666666664,0.18111111111111103],[-0.024791666666666618,0.19407407407407398],[-0.04833333333333331,0.19814814814814816],[-0.06854166666666663,0.2094444444444445],[-0.07552083333333333,0.22888888888888892],[-0.08250000000000005,0.24833333333333338],[-0.08885416666666662,0.26888888888888896],[-0.09968750000000005,0.2844444444444445],[-0.11302083333333333,0.290925925925926],[-0.11781250000000003,0.3109259259259259],[-0.11479166666666671,0.3161111111111112],[-0.1094791666666667,0.3101851851851852],[-0.10979166666666665,0.3131481481481482],[-0.11343749999999998,0.3088888888888888],[-0.10093749999999997,0.31074074074074065],[-0.08843749999999997,0.31259259259259253],[-0.0890625,0.32018518518518513],[-0.07104166666666671,0.277962962962963],[-0.05645833333333338,0.26370370370370366],[-0.05499999999999995,0.26962962962962966],[-0.02791666666666662,0.20611111111111102],[-0.003125,0.1537037037037037],[0.014479166666666644,0.13259259259259262],[0.03208333333333328,0.11148148148148157],[0.03208333333333328,0.11148148148148157],[0.041979166666666616,0.07037037037037037],[0.051145833333333356,0.019444444444444445],[0.0743750000000001,-0.03259259259259263],[0.07385416666666676,-0.04092592592592597],[0.08333333333333333,-0.06796296296296295],[0.10104166666666667,-0.1235185185185185],[0.10104166666666667,-0.1235185185185185],[0.08645833333333333,-0.10685185185185184],[0.07781250000000005,-0.08277777777777776],[0.06906249999999996,-0.11629629629629631],[0.06604166666666664,-0.13962962962962958],[0.06604166666666664,-0.13962962962962958],[0.06958333333333329,-0.152962962962963],[0.08104166666666662,-0.17240740740740745],[0.08104166666666662,-0.17240740740740745],[0.0678124999999999,-0.1764814814814815],[0.0678124999999999,-0.1764814814814815],[0.060000000000000026,-0.19722222222222222],[0.060000000000000026,-0.19722222222222222],[0.049791666666666616,-0.20425925925925928],[0.049791666666666616,-0.20425925925925928],[0.04874999999999995,-0.2140740740740741],[0.04874999999999995,-0.2140740740740741],[0.04874999999999995,-0.22000000000000003],[0.043124999999999976,-0.22555555555555556],[0.06072916666666662,-0.19796296296296292],[0.07000000000000005,-0.1714814814814815],[0.06739583333333338,-0.15981481481481483],[0.057604166666666616,-0.13222222222222219],[0.058229166666666644,-0.1014814814814815],[0.058541666666666714,-0.04796296296296292],[0.06687500000000005,-0.024814814814814772],[0.05927083333333331,-0.002962962962963005],[0.04562499999999995,0.03981481481481482],[0.051770833333333384,0.07462962962962955],[0.05677083333333333,0.08796296296296297],[0.05583333333333336,0.09351851851851851],[0.06322916666666671,0.11296296296296296],[0.07062499999999995,0.13240740740740742],[0.07145833333333323,0.1198148148148149],[0.07229166666666677,0.10722222222222218],[0.06770833333333333,0.11851851851851852],[0.07177083333333342,0.13259259259259262],[0.08395833333333323,0.13296296296296287],[0.07604166666666666,0.13351851851851856],[0.058333333333333334,0.1449999999999999],[0.05354166666666664,0.16518518518518527],[0.05239583333333329,0.16407407407407412],[0.04614583333333329,0.15500000000000008],[0.044270833333333336,0.1427777777777778],[0.03760416666666669,0.0955555555555556],[0.04885416666666664,0.0868518518518518],[0.058541666666666714,0.06462962962962959],[0.05479166666666669,0.01574074074074074],[0.051041666666666666,-0.03314814814814811],[0.07677083333333339,-0.09000000000000004],[0.08114583333333343,-0.13148148148148148],[0.0859375,-0.17259259259259258],[0.09583333333333334,-0.20574074074074078],[0.10958333333333338,-0.23055555555555557],[0.128125,-0.22037037037037038],[0.10593750000000005,-0.22000000000000003],[0.0853125000000001,-0.20611111111111113],[0.06489583333333329,-0.20129629629629628],[0.044479166666666715,-0.19648148148148153],[0.042812500000000024,-0.1698148148148148],[0.03250000000000005,-0.16425925925925924],[0.022500000000000023,-0.15388888888888894],[0.0125,-0.14351851851851852],[0.0010416666666666667,-0.08629629629629634],[-0.02322916666666662,-0.02833333333333325],[-0.016145833333333335,-0.0257407407407407],[-0.009062500000000048,-0.023148148148148147],[0.012916666666666642,0.0035185185185184764],[0.03604166666666669,0.025925925925925925],[0.011562500000000024,0.029259259259259176],[0.012916666666666642,0.04407407407407399],[0.008020833333333382,0.07685185185185185],[0.007500000000000047,0.1175925925925926],[0.012187500000000047,0.12296296296296293],[0.021145833333333287,0.11074074074074065],[0.02645833333333331,0.1014814814814814],[0.036354166666666646,0.1014814814814814],[0.03958333333333333,0.12333333333333338],[0.03739583333333331,0.16574074074074074],[0.03760416666666669,0.2024074074074073],[0.04375,0.22018518518518515],[0.049583333333333354,0.23703703703703705],[0.051041666666666666,0.24592592592592585],[0.04604166666666672,0.2448148148148149],[0.049583333333333354,0.26055555555555565],[0.05770833333333331,0.28277777777777785],[0.06124999999999995,0.2957407407407408],[0.05625,0.31240740740740747],[0.05552083333333328,0.3127777777777777],[0.05677083333333333,0.318888888888889],[0.050729166666666714,0.3168518518518519],[0.04114583333333333,0.3151851851851853],[0.04052083333333331,0.30240740740740735]]","[[-0.0328125,0.31240740740740747,0.000299999999811007],[-0.0328125,0.31240740740740747,0.041499999999999204],[-0.0328125,0.31240740740740747,0.04570000000018126],[-0.026979166666666644,0.27685185185185185,0.06270000000018427],[-0.024270833333333287,0.23370370370370377,0.07940000000036918],[-0.021562500000000047,0.1905555555555555,0.09549999999999415],[-0.012083333333333357,0.15648148148148147,0.11229999999981288],[0.0048958333333333805,0.11370370370370367,0.12979999999981118],[0.002499999999999976,0.09907407407407408,0.14890000000036707],[0.0037500000000000237,0.08259259259259263,0.16590000000037008],[0.019479166666666714,0.06222222222222226,0.18270000000018172],[0.019479166666666714,0.06222222222222226,0.19579999999981368],[0.03739583333333331,0.04092592592592597,0.21220000000018047],[0.058958333333333356,0.021481481481481525,0.2289999999999992],[0.06479166666666672,0.010740740740740657,0.24549999999999983],[0.06291666666666665,0.006851851851851936,0.2644999999999982],[0.06104166666666669,0.002962962962963005,0.27890000000036963],[0.07770833333333324,-0.018518518518518517,0.29560000000055453],[0.08687500000000009,-0.03129629629629625,0.3122000000001819],[0.09458333333333328,-0.03370370370370379,0.3289999999999935],[0.09864583333333338,-0.03425925925925926,0.34549999999999415],[0.08833333333333329,-0.02370370370370362,0.36460000000055715],[0.07385416666666676,-0.006296296296296254,0.3826000000005578],[0.04114583333333333,0.015000000000000043,0.3981000000005537],[0.01114583333333338,0.027037037037037078,0.4142999999998125],[0.010520833333333358,0.055000000000000084,0.4289000000003682],[0.006979166666666714,0.08648148148148156,0.4456000000005531],[-0.010312499999999976,0.10907407407407403,0.46290000000036713],[-0.027604166666666666,0.1316666666666667,0.47890000000037247],[-0.043437500000000046,0.14388888888888898,0.4956000000005574],[-0.0609375,0.16351851851851842,0.5122999999998115],[-0.057500000000000044,0.16518518518518527,0.5309999999999988],[-0.052083333333333336,0.1609259259259259,0.5482999999998128],[-0.03968750000000002,0.13499999999999995,0.5662999999998135],[-0.004791666666666691,0.1264814814814814,0.5826000000005536],[0.002395833333333286,0.11129629629629634,0.5977999999998076],[0.028125,0.09518518518518514,0.6122999999998129],[0.028958333333333287,0.07888888888888893,0.628900000000371],[0.029791666666666692,0.0625925925925925,0.6454999999999984],[0.034895833333333334,0.049629629629629544,0.66229999999981],[0.03291666666666669,0.027407407407407325,0.6789999999999949],[0.028125,0.02833333333333325,0.6956000000005531],[0.025312499999999953,0.03351851851851856,0.7151000000005538],[0.03145833333333338,0.04592592592592584,0.7291000000005567],[0.015208333333333357,0.057037037037036956,0.7457999999998108],[0.015312500000000047,0.08092592592592601,0.7654000000003691],[-0.010312499999999976,0.10092592592592593,0.7817999999998122],[-0.014583333333333334,0.1557407407407408,0.795799999999808],[-0.01229166666666662,0.19611111111111107,0.8122999999998086],[-0.019166666666666644,0.24092592592592596,0.8321000000005583],[-0.007187499999999976,0.26740740740740737,0.8477999999998076],[-0.009791666666666643,0.25277777777777777,0.8624999999999972],[-0.014374999999999952,0.2338888888888888,0.8834000000003712],[-0.025937499999999978,0.2711111111111111,0.8994000000003695],[-0.028854166666666715,0.30037037037037045,0.91440000000037],[-0.03270833333333331,0.28944444444444434,0.9291000000005525],[-0.02645833333333331,0.27981481481481485,0.9499999999999957],[-0.02645833333333331,0.27981481481481485,0.9624000000003718],[-0.019687499999999976,0.2548148148148149,0.9792999999998102],[-0.035208333333333286,0.23574074074074067,0.9959000000003684],[-0.024062500000000025,0.21814814814814806,1.0151000000005581],[-0.03572916666666662,0.16703703703703712,1.029100000000554],[-0.036562500000000026,0.14074074074074075,1.046100000000557],[-0.025520833333333333,0.15092592592592594,1.070999999999998],[-0.025520833333333333,0.15092592592592594,1.079499999999996],[-0.002812500000000047,0.0933333333333333,1.0957999999998123],[-0.002812500000000047,0.0933333333333333,1.1124000000003704],[0.007604166666666619,0.06185185185185181,1.134400000000369],[0.007604166666666619,0.06185185185185181,1.145900000000367],[-0.00458333333333331,0.06870370370370374,1.1627000000001857],[-0.00458333333333331,0.06870370370370374,1.178999999999995],[0.0021875000000000236,0.060370370370370414,1.201100000000558],[0.0021875000000000236,0.060370370370370414,1.2124000000003718],[-0.007291666666666667,0.059999999999999956,1.2289000000003725],[-0.007291666666666667,0.059999999999999956,1.2456000000005574],[0.01416666666666669,0.05981481481481473,1.262400000000369],[0.010625000000000048,0.04425925925925922,1.2789000000003696],[0.019791666666666666,0.0824074074074074,1.2956000000005545],[0.033958333333333354,0.11592592592592597,1.3157999999998111],[0.03760416666666669,0.10555555555555556,1.3324000000003693],[0.03927083333333338,0.12074074074074083,1.3484999999999943],[0.03145833333333338,0.12685185185185185,1.3651000000005524],[0.04020833333333336,0.1205555555555556,1.3796000000005577],[0.04708333333333338,0.10851851851851856,1.3957000000001827],[0.06843750000000005,0.061666666666666585,1.4122000000001833],[0.08468749999999996,0.042407407407407366,1.4289000000003682],[0.10416666666666667,0.029259259259259176,1.4454999999999956],[0.11979166666666667,0.02111111111111107,1.4622999999998072],[0.1304166666666667,0.017592592592592594,1.4789000000003725],[0.14364583333333342,0.029259259259259176,1.4956000000005574],[0.14739583333333334,0.06185185185185181,1.5144000000003714],[0.15145833333333342,0.07759259259259255,1.5289000000003696],[0.15552083333333327,0.0933333333333333,1.5457000000001813],[0.15145833333333342,0.08796296296296297,1.5646000000005529],[0.1515625,0.09888888888888885,1.5791000000005582],[0.14385416666666656,0.14296296296296304,1.5956000000005588],[0.13614583333333338,0.18703703703703703,1.6121000000005523],[0.12083333333333333,0.20999999999999996,1.6289999999999978],[0.10552083333333329,0.23296296296296287,1.6454999999999984],[0.08833333333333329,0.2627777777777777,1.6646000000005543],[0.08145833333333338,0.24574074074074082,1.6787999999998107],[0.08458333333333339,0.22962962962962963,1.6954999999999956],[0.10427083333333324,0.21444444444444435,1.7124000000003718],[0.11114583333333337,0.20870370370370378,1.7294000000003678],[0.11802083333333328,0.202962962962963,1.7457999999998108],[0.12531249999999997,0.16722222222222213,1.7624999999999957],[0.13416666666666663,0.125,1.7811000000005563],[0.14874999999999997,0.08907407407407411,1.7956000000005545],[0.16333333333333327,0.05314814814814823,1.8122000000001819],[0.1772916666666667,0.004629629629629629,1.830999999999996],[0.19052083333333342,-0.025,1.8454999999999941],[0.20666666666666675,-0.04981481481481477,1.8624000000003704],[0.20625,-0.07555555555555557,1.8791000000005553],[0.21197916666666666,-0.06888888888888887,1.895600000000556],[0.21687500000000004,-0.06370370370370367,1.91229999999981],[0.20947916666666658,-0.07148148148148152,1.9289000000003682],[0.20052083333333334,-0.0727777777777778,1.9454999999999956],[0.20645833333333338,-0.056296296296296254,1.9644000000003672],[0.2109375,-0.044444444444444446,1.9789000000003725],[0.21989583333333323,-0.04314814814814806,1.9956000000005574],[0.2283333333333334,-0.035740740740740656,2.0122000000001847],[0.22218749999999995,-0.021851851851851768,2.0289000000003696],[0.21604166666666677,-0.007962962962962878,2.045799999999808],[0.21875,0.0001851851851852273,2.0622999999998086],[0.2205208333333334,0.00851851851851856,2.079499999999996],[0.23187499999999991,0.007407407407407408,2.095600000000559],[0.23302083333333337,0.001851851851851852,2.112299999999813],[0.22177083333333342,-0.009999999999999959,2.128900000000371],[0.22208333333333338,-0.0294444444444444,2.145600000000556],[0.22374999999999995,-0.027407407407407325,2.1649000000003724],[0.21708333333333343,-0.029814814814814856,2.1792000000001863],[0.22041666666666657,-0.03148148148148148,2.195600000000553],[0.21916666666666676,-0.010740740740740657,2.2122000000001805],[0.20197916666666677,0.014814814814814815,2.2289000000003725],[0.1865624999999999,0.041666666666666664,2.245999999999995],[0.18947916666666675,0.05907407407407403,2.2622999999998115],[0.1820833333333333,0.0962962962962963,2.280999999999999],[0.1977083333333333,0.11388888888888889,2.2956000000005545],[0.20322916666666657,0.14370370370370375,2.312100000000555],[0.18416666666666662,0.16944444444444445,2.328900000000367],[0.1734375,0.19962962962962955,2.3457000000001855],[0.14541666666666658,0.2131481481481482,2.3627000000001814],[0.12197916666666657,0.20425925925925917,2.3787999999998135],[0.10979166666666676,0.19166666666666668,2.395600000000556],[0.10208333333333333,0.18407407407407403,2.4121000000005566],[0.07197916666666657,0.18574074074074065,2.428900000000368],[0.05687500000000002,0.16814814814814807,2.445600000000553],[0.01604166666666664,0.18111111111111103,2.464400000000367],[-0.024791666666666618,0.19407407407407398,2.478799999999808],[-0.04833333333333331,0.19814814814814816,2.495799999999811],[-0.06854166666666663,0.2094444444444445,2.5144000000003714],[-0.07552083333333333,0.22888888888888892,2.5289999999999964],[-0.08250000000000005,0.24833333333333338,2.546400000000368],[-0.08885416666666662,0.26888888888888896,2.5657000000001844],[-0.09968750000000005,0.2844444444444445,2.5792999999998116],[-0.11302083333333333,0.290925925925926,2.595600000000559],[-0.11781250000000003,0.3109259259259259,2.6121000000005523],[-0.11479166666666671,0.3161111111111112,2.628900000000371],[-0.1094791666666667,0.3101851851851852,2.6457000000001827],[-0.10979166666666665,0.3131481481481482,2.664999999999999],[-0.11343749999999998,0.3088888888888888,2.6812999999998084],[-0.10093749999999997,0.31074074074074065,2.695600000000553],[-0.08843749999999997,0.31259259259259253,2.7121000000005537],[-0.0890625,0.32018518518518513,2.73140000000037],[-0.07104166666666671,0.277962962962963,2.7477999999998133],[-0.05645833333333338,0.26370370370370366,2.765100000000558],[-0.05499999999999995,0.26962962962962966,2.7832000000001855],[-0.02791666666666662,0.20611111111111102,2.7974999999999994],[-0.003125,0.1537037037037037,2.8125],[0.014479166666666644,0.13259259259259262,2.829100000000558],[0.03208333333333328,0.11148148148148157,2.849200000000181],[0.03208333333333328,0.11148148148148157,2.8624000000003704],[0.041979166666666616,0.07037037037037037,2.8791000000005553],[0.051145833333333356,0.019444444444444445,2.895600000000556],[0.0743750000000001,-0.03259259259259263,2.9157999999998125],[0.07385416666666676,-0.04092592592592597,2.9304000000003683],[0.08333333333333333,-0.06796296296296295,2.9457999999998137],[0.10104166666666667,-0.1235185185185185,2.9682999999998074],[0.10104166666666667,-0.1235185185185185,2.978999999999999],[0.08645833333333333,-0.10685185185185184,2.995799999999811],[0.07781250000000005,-0.08277777777777776,3.0122999999998115],[0.06906249999999996,-0.11629629629629631,3.0322999999998075],[0.06604166666666664,-0.13962962962962958,3.052100000000557],[0.06604166666666664,-0.13962962962962958,3.062799999999811],[0.06958333333333329,-0.152962962962963,3.079100000000558],[0.08104166666666662,-0.17240740740740745,3.1036000000005544],[0.08104166666666662,-0.17240740740740745,3.112200000000186],[0.0678124999999999,-0.1764814814814815,3.129200000000182],[0.0678124999999999,-0.1764814814814815,3.145600000000556],[0.060000000000000026,-0.19722222222222222,3.1676000000005544],[0.060000000000000026,-0.19722222222222222,3.178999999999995],[0.049791666666666616,-0.20425925925925928,3.195900000000371],[0.049791666666666616,-0.20425925925925928,3.2122000000001805],[0.04874999999999995,-0.2140740740740741,3.232600000000552],[0.04874999999999995,-0.2140740740740741,3.2455],[0.04874999999999995,-0.22000000000000003,3.262400000000369],[0.043124999999999976,-0.22555555555555556,3.280999999999999],[0.06072916666666662,-0.19796296296296292,3.295799999999808],[0.07000000000000005,-0.1714814814814815,3.314600000000553],[0.06739583333333338,-0.15981481481481483,3.3289999999999935],[0.057604166666666616,-0.13222222222222219,3.345499999999994],[0.058229166666666644,-0.1014814814814815,3.3659999999999997],[0.058541666666666714,-0.04796296296296292,3.381999999999998],[0.06687500000000005,-0.024814814814814772,3.397700000000185],[0.05927083333333331,-0.002962962962963005,3.4127000000001857],[0.04562499999999995,0.03981481481481482,3.428999999999995],[0.051770833333333384,0.07462962962962955,3.44570000000018],[0.05677083333333333,0.08796296296296297,3.4656000000005562],[0.05583333333333336,0.09351851851851851,3.482700000000186],[0.06322916666666671,0.11296296296296296,3.4989000000003685],[0.07062499999999995,0.13240740740740742,3.5149000000003667],[0.07145833333333323,0.1198148148148149,3.5289000000003696],[0.07229166666666677,0.10722222222222218,3.547600000000557],[0.06770833333333333,0.11851851851851852,3.5647999999998135],[0.07177083333333342,0.13259259259259262,3.580999999999996],[0.08395833333333323,0.13296296296296287,3.595499999999994],[0.07604166666666666,0.13351851851851856,3.614600000000557],[0.058333333333333334,0.1449999999999999,3.628900000000371],[0.05354166666666664,0.16518518518518527,3.6454999999999984],[0.05239583333333329,0.16407407407407412,3.664700000000181],[0.04614583333333329,0.15500000000000008,3.6791000000005525],[0.044270833333333336,0.1427777777777778,3.695600000000553],[0.03760416666666669,0.0955555555555556,3.7146000000005586],[0.04885416666666664,0.0868518518518518,3.728799999999808],[0.058541666666666714,0.06462962962962959,3.7456000000005574],[0.05479166666666669,0.01574074074074074,3.7659999999999982],[0.051041666666666666,-0.03314814814814811,3.7816000000005587],[0.07677083333333339,-0.09000000000000004,3.797299999999808],[0.08114583333333343,-0.13148148148148148,3.8142000000001843],[0.0859375,-0.17259259259259258,3.828900000000367],[0.09583333333333334,-0.20574074074074078,3.8454000000003674],[0.10958333333333338,-0.23055555555555557,3.8624000000003704],[0.128125,-0.22037037037037038,3.881600000000553],[0.10593750000000005,-0.22000000000000003,3.8984999999999985],[0.0853125000000001,-0.20611111111111113,3.91590000000037],[0.06489583333333329,-0.20129629629629628,3.9312000000001817],[0.044479166666666715,-0.19648148148148153,3.9457999999998137],[0.042812500000000024,-0.1698148148148148,3.965400000000372],[0.03250000000000005,-0.16425925925925924,3.9824999999999946],[0.022500000000000023,-0.15388888888888894,3.9977999999998133],[0.0125,-0.14351851851851852,4.014799999999809],[0.0010416666666666667,-0.08629629629629634,4.02890000000037],[-0.02322916666666662,-0.02833333333333325,4.04540000000037],[-0.016145833333333335,-0.0257407407407407,4.062299999999809],[-0.009062500000000048,-0.023148148148148147,4.0789999999999935],[0.012916666666666642,0.0035185185185184764,4.095400000000367],[0.03604166666666669,0.025925925925925925,4.112200000000186],[0.011562500000000024,0.029259259259259176,4.128900000000371],[0.012916666666666642,0.04407407407407399,4.148100000000554],[0.008020833333333382,0.07685185185185185,4.16590000000037],[0.007500000000000047,0.1175925925925926,4.1815],[0.012187500000000047,0.12296296296296293,4.195600000000553],[0.021145833333333287,0.11074074074074065,4.212100000000554],[0.02645833333333331,0.1014814814814814,4.228799999999808],[0.036354166666666646,0.1014814814814814,4.2485],[0.03958333333333333,0.12333333333333338,4.2659000000003715],[0.03739583333333331,0.16574074074074074,4.2819999999999965],[0.03760416666666669,0.2024074074074073,4.297900000000368],[0.04375,0.22018518518518515,4.31470000000018],[0.049583333333333354,0.23703703703703705,4.328900000000367],[0.051041666666666666,0.24592592592592585,4.345499999999994],[0.04604166666666672,0.2448148148148149,4.362900000000366],[0.049583333333333354,0.26055555555555565,4.379299999999809],[0.05770833333333331,0.28277777777777785,4.395600000000556],[0.06124999999999995,0.2957407407407408,4.412100000000557],[0.05625,0.31240740740740747,4.428900000000368],[0.05552083333333328,0.3127777777777777,4.445400000000369],[0.05677083333333333,0.318888888888889,4.464700000000185],[0.050729166666666714,0.3168518518518519,4.4809999999999945],[0.04114583333333333,0.3151851851851853,4.4955],[0.04052083333333331,0.30240740740740735,4.512200000000185]]","[0.000299999999811007,0.041499999999999204,0.04570000000018126,0.06270000000018427,0.07940000000036918,0.09549999999999415,0.11229999999981288,0.12979999999981118,0.14890000000036707,0.16590000000037008,0.18270000000018172,0.19579999999981368,0.21220000000018047,0.2289999999999992,0.24549999999999983,0.2644999999999982,0.27890000000036963,0.29560000000055453,0.3122000000001819,0.3289999999999935,0.34549999999999415,0.36460000000055715,0.3826000000005578,0.3981000000005537,0.4142999999998125,0.4289000000003682,0.4456000000005531,0.46290000000036713,0.47890000000037247,0.4956000000005574,0.5122999999998115,0.5309999999999988,0.5482999999998128,0.5662999999998135,0.5826000000005536,0.5977999999998076,0.6122999999998129,0.628900000000371,0.6454999999999984,0.66229999999981,0.6789999999999949,0.6956000000005531,0.7151000000005538,0.7291000000005567,0.7457999999998108,0.7654000000003691,0.7817999999998122,0.795799999999808,0.8122999999998086,0.8321000000005583,0.8477999999998076,0.8624999999999972,0.8834000000003712,0.8994000000003695,0.91440000000037,0.9291000000005525,0.9499999999999957,0.9624000000003718,0.9792999999998102,0.9959000000003684,1.0151000000005581,1.029100000000554,1.046100000000557,1.070999999999998,1.079499999999996,1.0957999999998123,1.1124000000003704,1.134400000000369,1.145900000000367,1.1627000000001857,1.178999999999995,1.201100000000558,1.2124000000003718,1.2289000000003725,1.2456000000005574,1.262400000000369,1.2789000000003696,1.2956000000005545,1.3157999999998111,1.3324000000003693,1.3484999999999943,1.3651000000005524,1.3796000000005577,1.3957000000001827,1.4122000000001833,1.4289000000003682,1.4454999999999956,1.4622999999998072,1.4789000000003725,1.4956000000005574,1.5144000000003714,1.5289000000003696,1.5457000000001813,1.5646000000005529,1.5791000000005582,1.5956000000005588,1.6121000000005523,1.6289999999999978,1.6454999999999984,1.6646000000005543,1.6787999999998107,1.6954999999999956,1.7124000000003718,1.7294000000003678,1.7457999999998108,1.7624999999999957,1.7811000000005563,1.7956000000005545,1.8122000000001819,1.830999999999996,1.8454999999999941,1.8624000000003704,1.8791000000005553,1.895600000000556,1.91229999999981,1.9289000000003682,1.9454999999999956,1.9644000000003672,1.9789000000003725,1.9956000000005574,2.0122000000001847,2.0289000000003696,2.045799999999808,2.0622999999998086,2.079499999999996,2.095600000000559,2.112299999999813,2.128900000000371,2.145600000000556,2.1649000000003724,2.1792000000001863,2.195600000000553,2.2122000000001805,2.2289000000003725,2.245999999999995,2.2622999999998115,2.280999999999999,2.2956000000005545,2.312100000000555,2.328900000000367,2.3457000000001855,2.3627000000001814,2.3787999999998135,2.395600000000556,2.4121000000005566,2.428900000000368,2.445600000000553,2.464400000000367,2.478799999999808,2.495799999999811,2.5144000000003714,2.5289999999999964,2.546400000000368,2.5657000000001844,2.5792999999998116,2.595600000000559,2.6121000000005523,2.628900000000371,2.6457000000001827,2.664999999999999,2.6812999999998084,2.695600000000553,2.7121000000005537,2.73140000000037,2.7477999999998133,2.765100000000558,2.7832000000001855,2.7974999999999994,2.8125,2.829100000000558,2.849200000000181,2.8624000000003704,2.8791000000005553,2.895600000000556,2.9157999999998125,2.9304000000003683,2.9457999999998137,2.9682999999998074,2.978999999999999,2.995799999999811,3.0122999999998115,3.0322999999998075,3.052100000000557,3.062799999999811,3.079100000000558,3.1036000000005544,3.112200000000186,3.129200000000182,3.145600000000556,3.1676000000005544,3.178999999999995,3.195900000000371,3.2122000000001805,3.232600000000552,3.2455,3.262400000000369,3.280999999999999,3.295799999999808,3.314600000000553,3.3289999999999935,3.345499999999994,3.3659999999999997,3.381999999999998,3.397700000000185,3.4127000000001857,3.428999999999995,3.44570000000018,3.4656000000005562,3.482700000000186,3.4989000000003685,3.5149000000003667,3.5289000000003696,3.547600000000557,3.5647999999998135,3.580999999999996,3.595499999999994,3.614600000000557,3.628900000000371,3.6454999999999984,3.664700000000181,3.6791000000005525,3.695600000000553,3.7146000000005586,3.728799999999808,3.7456000000005574,3.7659999999999982,3.7816000000005587,3.797299999999808,3.8142000000001843,3.828900000000367,3.8454000000003674,3.8624000000003704,3.881600000000553,3.8984999999999985,3.91590000000037,3.9312000000001817,3.9457999999998137,3.965400000000372,3.9824999999999946,3.9977999999998133,4.014799999999809,4.02890000000037,4.04540000000037,4.062299999999809,4.0789999999999935,4.095400000000367,4.112200000000186,4.128900000000371,4.148100000000554,4.16590000000037,4.1815,4.195600000000553,4.212100000000554,4.228799999999808,4.2485,4.2659000000003715,4.2819999999999965,4.297900000000368,4.31470000000018,4.328900000000367,4.345499999999994,4.362900000000366,4.379299999999809,4.395600000000556,4.412100000000557,4.428900000000368,4.445400000000369,4.464700000000185,4.4809999999999945,4.4955,4.512200000000185]","[1733116040864,1733116040898,1733116040902,1733116040919,1733116040935,1733116040952,1733116040973,1733116040990,1733116041009,1733116041026,1733116041043,1733116041056,1733116041073,1733116041089,1733116041106,1733116041125,1733116041139,1733116041156,1733116041173,1733116041189,1733116041206,1733116041225,1733116041243,1733116041259,1733116041275,1733116041289,1733116041306,1733116041323,1733116041339,1733116041356,1733116041373,1733116041391,1733116041409,1733116041427,1733116041443,1733116041458,1733116041473,1733116041489,1733116041506,1733116041523,1733116041540,1733116041556,1733116041576,1733116041590,1733116041606,1733116041626,1733116041642,1733116041656,1733116041673,1733116041693,1733116041708,1733116041723,1733116041744,1733116041760,1733116041775,1733116041790,1733116041811,1733116041823,1733116041840,1733116041856,1733116041876,1733116041890,1733116041907,1733116041932,1733116041940,1733116041956,1733116041973,1733116041995,1733116042006,1733116042023,1733116042039,1733116042062,1733116042073,1733116042090,1733116042106,1733116042123,1733116042139,1733116042156,1733116042176,1733116042193,1733116042209,1733116042226,1733116042240,1733116042256,1733116042273,1733116042289,1733116042306,1733116042323,1733116042339,1733116042356,1733116042375,1733116042389,1733116042406,1733116042425,1733116042440,1733116042456,1733116042473,1733116042489,1733116042506,1733116042525,1733116042539,1733116042556,1733116042573,1733116042590,1733116042606,1733116042623,1733116042642,1733116042656,1733116042673,1733116042692,1733116042706,1733116042723,1733116042740,1733116042756,1733116042773,1733116042789,1733116042806,1733116042825,1733116042839,1733116042856,1733116042873,1733116042889,1733116042906,1733116042923,1733116042940,1733116042956,1733116042973,1733116042989,1733116043006,1733116043025,1733116043040,1733116043056,1733116043073,1733116043089,1733116043107,1733116043123,1733116043142,1733116043156,1733116043173,1733116043189,1733116043206,1733116043223,1733116043239,1733116043256,1733116043273,1733116043289,1733116043306,1733116043325,1733116043339,1733116043356,1733116043375,1733116043390,1733116043407,1733116043426,1733116043440,1733116043456,1733116043473,1733116043489,1733116043506,1733116043525,1733116043542,1733116043556,1733116043573,1733116043592,1733116043608,1733116043626,1733116043644,1733116043658,1733116043673,1733116043690,1733116043710,1733116043723,1733116043740,1733116043756,1733116043776,1733116043791,1733116043806,1733116043829,1733116043839,1733116043856,1733116043873,1733116043893,1733116043913,1733116043923,1733116043940,1733116043964,1733116043973,1733116043990,1733116044006,1733116044028,1733116044040,1733116044056,1733116044073,1733116044093,1733116044106,1733116044123,1733116044141,1733116044156,1733116044175,1733116044190,1733116044206,1733116044226,1733116044243,1733116044258,1733116044273,1733116044290,1733116044306,1733116044326,1733116044343,1733116044360,1733116044375,1733116044389,1733116044408,1733116044425,1733116044441,1733116044456,1733116044475,1733116044489,1733116044506,1733116044525,1733116044540,1733116044556,1733116044575,1733116044589,1733116044606,1733116044626,1733116044642,1733116044658,1733116044675,1733116044689,1733116044706,1733116044723,1733116044742,1733116044759,1733116044776,1733116044792,1733116044806,1733116044826,1733116044843,1733116044858,1733116044875,1733116044889,1733116044906,1733116044923,1733116044939,1733116044956,1733116044973,1733116044989,1733116045009,1733116045026,1733116045042,1733116045056,1733116045073,1733116045089,1733116045109,1733116045126,1733116045142,1733116045158,1733116045175,1733116045189,1733116045206,1733116045223,1733116045240,1733116045256,1733116045273,1733116045289,1733116045306,1733116045325,1733116045341,1733116045356,1733116045373]","[[928.5,708.7],[928.5,708.7],[928.5,708.7],[934.1,689.5],[936.7,666.2],[939.3,642.9],[948.4,624.5],[964.7,601.4],[962.4,593.5],[963.6,584.6],[978.7,573.6],[978.7,573.6],[995.9,562.1],[1016.6,551.6],[1022.2,545.8],[1020.4,543.7],[1018.6,541.6],[1034.6,530],[1043.4,523.1],[1050.8,521.8],[1054.7,521.5],[1044.8,527.2],[1030.9,536.6],[999.5,548.1],[970.7,554.6],[970.1,569.7],[966.7,586.7],[950.1,598.9],[933.5,611.1],[918.3,617.7],[901.5,628.3],[904.8,629.2],[910,626.9],[921.9,612.9],[955.4,608.3],[962.3,600.1],[987,591.4],[987.8,582.6],[988.6,573.8],[993.5,566.8],[991.6,554.8],[987,555.3],[984.3,558.1],[990.2,564.8],[974.6,570.8],[974.7,583.7],[950.1,594.5],[946,624.1],[948.2,645.9],[941.6,670.1],[953.1,684.4],[950.6,676.5],[946.2,666.3],[935.1,686.4],[932.3,702.2],[928.6,696.3],[934.6,691.1],[934.6,691.1],[941.1,677.6],[926.2,667.3],[936.9,657.8],[925.7,630.2],[924.9,616],[935.5,621.5],[935.5,621.5],[957.3,590.4],[957.3,590.4],[967.3,573.4],[967.3,573.4],[955.6,577.1],[955.6,577.1],[962.1,572.6],[962.1,572.6],[953,572.4],[953,572.4],[973.6,572.3],[970.2,563.9],[979,584.5],[992.6,602.6],[996.1,597],[997.7,605.2],[990.2,608.5],[998.6,605.1],[1005.2,598.6],[1025.7,573.3],[1041.3,562.9],[1060,555.8],[1075,551.4],[1085.2,549.5],[1097.9,555.8],[1101.5,573.4],[1105.4,581.9],[1109.3,590.4],[1105.4,587.5],[1105.5,593.4],[1098.1,617.2],[1090.7,641],[1076,653.4],[1061.3,665.8],[1044.8,681.9],[1038.2,672.7],[1041.2,664],[1060.1,655.8],[1066.7,652.7],[1073.3,649.6],[1080.3,630.3],[1088.8,607.5],[1102.8,588.1],[1116.8,568.7],[1130.2,542.5],[1142.9,526.5],[1158.4,513.1],[1158,499.2],[1163.5,502.8],[1168.2,505.6],[1161.1,501.4],[1152.5,500.7],[1158.2,509.6],[1162.5,516],[1171.1,516.7],[1179.2,520.7],[1173.3,528.2],[1167.4,535.7],[1170,540.1],[1171.7,544.6],[1182.6,544],[1183.7,541],[1172.9,534.6],[1173.2,524.1],[1174.8,525.2],[1168.4,523.9],[1171.6,523],[1170.4,534.2],[1153.9,548],[1139.1,562.5],[1141.9,571.9],[1134.8,592],[1149.8,601.5],[1155.1,617.6],[1136.8,631.5],[1126.5,647.8],[1099.6,655.1],[1077.1,650.3],[1065.4,643.5],[1058,639.4],[1029.1,640.3],[1014.6,630.8],[975.4,637.8],[936.2,644.8],[913.6,647],[894.2,653.1],[887.5,663.6],[880.8,674.1],[874.7,685.2],[864.3,693.6],[851.5,697.1],[846.9,707.9],[849.8,710.7],[854.9,707.5],[854.6,709.1],[851.1,706.8],[863.1,707.8],[875.1,708.8],[874.5,712.9],[891.8,690.1],[905.8,682.4],[907.2,685.6],[933.2,651.3],[957,623],[973.9,611.6],[990.8,600.2],[990.8,600.2],[1000.3,578],[1009.1,550.5],[1031.4,522.4],[1030.9,517.9],[1040,503.3],[1057,473.3],[1057,473.3],[1043,482.3],[1034.7,495.3],[1026.3,477.2],[1023.4,464.6],[1023.4,464.6],[1026.8,457.4],[1037.8,446.9],[1037.8,446.9],[1025.1,444.7],[1025.1,444.7],[1017.6,433.5],[1017.6,433.5],[1007.8,429.7],[1007.8,429.7],[1006.8,424.4],[1006.8,424.4],[1006.8,421.2],[1001.4,418.2],[1018.3,433.1],[1027.2,447.4],[1024.7,453.7],[1015.3,468.6],[1015.9,485.2],[1016.2,514.1],[1024.2,526.6],[1016.9,538.4],[1003.8,561.5],[1009.7,580.3],[1014.5,587.5],[1013.6,590.5],[1020.7,601],[1027.8,611.5],[1028.6,604.7],[1029.4,597.9],[1025,604],[1028.9,611.6],[1040.6,611.8],[1033,612.1],[1016,618.3],[1011.4,629.2],[1010.3,628.6],[1004.3,623.7],[1002.5,617.1],[996.1,591.6],[1006.9,586.9],[1016.2,574.9],[1012.6,548.5],[1009,522.1],[1033.7,491.4],[1037.9,469],[1042.5,446.8],[1052,428.9],[1065.2,415.5],[1083,421],[1061.7,421.2],[1041.9,428.7],[1022.3,431.3],[1002.7,433.9],[1001.1,448.3],[991.2,451.3],[981.6,456.9],[972,462.5],[961,493.4],[937.7,524.7],[944.5,526.1],[951.3,527.5],[972.4,541.9],[994.6,554],[971.1,555.8],[972.4,563.8],[967.7,581.5],[967.2,603.5],[971.7,606.4],[980.3,599.8],[985.4,594.8],[994.9,594.8],[998,606.6],[995.9,629.5],[996.1,649.3],[1002,658.9],[1007.6,668],[1009,672.8],[1004.2,672.2],[1007.6,680.7],[1015.4,692.7],[1018.8,699.7],[1014,708.7],[1013.3,708.9],[1014.5,712.2],[1008.7,711.1],[999.5,710.2],[998.9,703.3]]","[0,0.151169218]","[0.151169218,0.151169218]","[-0.151169218,-0.151169218]","[-0.151169218,0]","[0,-0.151169218]","[0.151169218,-0.151169218]","[0,0]","[0.151169218,0]",0,0,0,0,1,3,Smartphone,11,9,9,1
,,,,,,,,,,,,,,,,,,,49,001,2024-12-02_13h06.39.836,Attention_exp_legacy,2023.1.0,Win32,59.88023952,,,,,,,,,,,[0.030208333333333334],[0.13333333333333333],[1],[0],[0],[2.581600000000556],"[""Option1_label""]",Option1_label,2,3.6039,"[[0.005208333333333333,0.15],[0.005208333333333333,0.15],[0.005208333333333333,0.15],[0.005208333333333333,0.15],[0.005208333333333333,0.15],[0.005208333333333333,0.15],[0.005208333333333333,0.15],[0.005208333333333333,0.15],[0.005208333333333333,0.15],[0.005208333333333333,0.15],[0.005208333333333333,0.15],[0.005208333333333333,0.15],[0.005208333333333333,0.15],[0.005208333333333333,0.15],[0.005208333333333333,0.15],[0.005208333333333333,0.15],[0.005208333333333333,0.15],[0.005208333333333333,0.15],[0.005208333333333333,0.15],[0.005208333333333333,0.15],[0.005208333333333333,0.15],[0.005208333333333333,0.15],[0.005208333333333333,0.15],[0.005208333333333333,0.15],[0.005208333333333333,0.15],[0.005208333333333333,0.15],[0.005208333333333333,0.15],[0.005208333333333333,0.15],[0.005208333333333333,0.15],[0.005208333333333333,0.15],[0.005208333333333333,0.15],[0.005208333333333333,0.15],[0.005208333333333333,0.15],[0.005208333333333333,0.15],[0.005208333333333333,0.15],[0.005208333333333333,0.15],[0.005208333333333333,0.15],[0.005208333333333333,0.15],[0.005208333333333333,0.15],[0.005208333333333333,0.15],[0.005208333333333333,0.15],[0.005208333333333333,0.15],[0.005208333333333333,0.15],[0.005208333333333333,0.15],[0.005208333333333333,0.15],[0.005208333333333333,0.15],[0.005208333333333333,0.15],[0.005208333333333333,0.15],[0.005208333333333333,0.15],[0.005208333333333333,0.15],[0.005208333333333333,0.15],[0.00625,0.15185185185185185],[0.01875,0.15185185185185185],[0.028125,0.15185185185185185],[0.0375,0.15185185185185185],[0.046875,0.15185185185185185],[0.06145833333333333,0.15185185185185185],[0.07291666666666667,0.15185185185185185],[0.08333333333333333,0.15185185185185185],[0.09270833333333334,0.15185185185185185],[0.10833333333333334,0.15185185185185185],[0.125,0.1537037037037037],[0.14270833333333333,0.1537037037037037],[0.16354166666666667,0.1537037037037037],[0.18020833333333333,0.1537037037037037],[0.19479166666666667,0.15925925925925927],[0.19583333333333333,0.15925925925925927],[0.19583333333333333,0.15925925925925927],[0.19583333333333333,0.15925925925925927],[0.19583333333333333,0.15925925925925927],[0.19583333333333333,0.15925925925925927],[0.19583333333333333,0.15925925925925927],[0.19583333333333333,0.15925925925925927],[0.19583333333333333,0.15925925925925927],[0.19583333333333333,0.15925925925925927],[0.19583333333333333,0.15925925925925927],[0.19583333333333333,0.15925925925925927],[0.19583333333333333,0.15925925925925927],[0.19583333333333333,0.15925925925925927],[0.19583333333333333,0.15925925925925927],[0.19583333333333333,0.15925925925925927],[0.196875,0.15925925925925927],[0.19583333333333333,0.15925925925925927],[0.190625,0.15555555555555556],[0.178125,0.14814814814814814],[0.16354166666666667,0.1425925925925926],[0.15,0.1388888888888889],[0.13541666666666666,0.13518518518518519],[0.11875,0.13148148148148148],[0.1125,0.13148148148148148],[0.10104166666666667,0.1259259259259259],[0.08645833333333333,0.12407407407407407],[0.07291666666666667,0.12407407407407407],[0.0625,0.12407407407407407],[0.05625,0.12407407407407407],[0.052083333333333336,0.12407407407407407],[0.03958333333333333,0.1259259259259259],[0.029166666666666667,0.12777777777777777],[0.017708333333333333,0.13518518518518519],[0.009375,0.14074074074074075],[0.003125,0.1425925925925926],[-0.0010416666666666667,0.14444444444444443],[-0.005208333333333333,0.14629629629629629],[-0.005208333333333333,0.14629629629629629],[-0.005208333333333333,0.14629629629629629],[-0.005208333333333333,0.14629629629629629],[-0.00625,0.14814814814814814],[-0.00625,0.14814814814814814],[-0.00625,0.14814814814814814],[-0.00625,0.14814814814814814],[-0.00625,0.14814814814814814],[-0.00625,0.14814814814814814],[-0.00625,0.14814814814814814],[-0.00625,0.14814814814814814],[-0.00625,0.14814814814814814],[-0.00625,0.14814814814814814],[-0.00625,0.14814814814814814],[-0.00625,0.14814814814814814],[-0.00625,0.14814814814814814],[-0.00625,0.14814814814814814],[-0.00625,0.14814814814814814],[-0.00625,0.14814814814814814],[-0.00625,0.14814814814814814],[-0.00625,0.15],[-0.004166666666666667,0.1537037037037037],[0.0010416666666666667,0.1537037037037037],[0.005208333333333333,0.1537037037037037],[0.011458333333333333,0.15555555555555556],[0.019791666666666666,0.15555555555555556],[0.03333333333333333,0.15555555555555556],[0.057291666666666664,0.15555555555555556],[0.090625,0.15555555555555556],[0.10416666666666667,0.15555555555555556],[0.11145833333333334,0.15555555555555556],[0.115625,0.15555555555555556],[0.11666666666666667,0.15555555555555556],[0.11666666666666667,0.15555555555555556],[0.11666666666666667,0.15555555555555556],[0.11666666666666667,0.15555555555555556],[0.11666666666666667,0.15555555555555556],[0.11666666666666667,0.15555555555555556],[0.11666666666666667,0.15555555555555556],[0.10729166666666666,0.1537037037037037],[0.08541666666666667,0.14814814814814814],[0.05416666666666667,0.1388888888888889],[0.03854166666666667,0.13518518518518519],[0.03125,0.13333333333333333],[0.030208333333333334,0.13333333333333333],[0.030208333333333334,0.13333333333333333],[0.030208333333333334,0.13333333333333333],[0.030208333333333334,0.13333333333333333],[0.030208333333333334,0.13333333333333333],[0.030208333333333334,0.13333333333333333],[0.030208333333333334,0.13333333333333333],[0.030208333333333334,0.13333333333333333],[0.030208333333333334,0.13333333333333333],[0.030208333333333334,0.13333333333333333],[0.030208333333333334,0.13333333333333333],[0.030208333333333334,0.13333333333333333],[0.030208333333333334,0.13333333333333333],[0.030208333333333334,0.13333333333333333],[0.030208333333333334,0.13333333333333333],[0.030208333333333334,0.13333333333333333],[0.030208333333333334,0.13333333333333333],[0.030208333333333334,0.13333333333333333],[0.030208333333333334,0.13333333333333333],[0.030208333333333334,0.13333333333333333],[0.030208333333333334,0.13333333333333333],[0.030208333333333334,0.13333333333333333],[0.030208333333333334,0.13333333333333333],[0.030208333333333334,0.13333333333333333],[0.030208333333333334,0.13333333333333333],[0.030208333333333334,0.13333333333333333],[0.030208333333333334,0.13333333333333333],[0.030208333333333334,0.13333333333333333],[0.030208333333333334,0.13333333333333333],[0.030208333333333334,0.13333333333333333],[0.030208333333333334,0.13333333333333333],[0.030208333333333334,0.13333333333333333],[0.030208333333333334,0.13333333333333333],[0.030208333333333334,0.13333333333333333],[0.030208333333333334,0.13333333333333333],[0.030208333333333334,0.13333333333333333],[0.030208333333333334,0.13333333333333333],[0.030208333333333334,0.13333333333333333],[0.030208333333333334,0.13333333333333333],[0.030208333333333334,0.13333333333333333],[0.030208333333333334,0.13333333333333333],[0.030208333333333334,0.13333333333333333],[0.030208333333333334,0.13333333333333333],[0.030208333333333334,0.13333333333333333],[0.030208333333333334,0.13333333333333333],[0.030208333333333334,0.13333333333333333],[0.030208333333333334,0.13333333333333333],[0.030208333333333334,0.13333333333333333],[0.030208333333333334,0.13333333333333333],[0.030208333333333334,0.13333333333333333],[0.030208333333333334,0.13333333333333333],[0.030208333333333334,0.13333333333333333],[0.030208333333333334,0.13333333333333333],[0.030208333333333334,0.13333333333333333],[0.030208333333333334,0.13333333333333333],[0.030208333333333334,0.13333333333333333],[0.030208333333333334,0.13333333333333333],[0.030208333333333334,0.13333333333333333],[0.030208333333333334,0.13333333333333333],[0.030208333333333334,0.13333333333333333],[0.030208333333333334,0.13333333333333333],[0.030208333333333334,0.13333333333333333],[0.030208333333333334,0.13333333333333333],[0.030208333333333334,0.13333333333333333],[0.030208333333333334,0.13333333333333333],[0.030208333333333334,0.13333333333333333],[0.030208333333333334,0.13333333333333333]]","[[-0.05,0.11944444444444445],[-0.04083333333333338,0.0801851851851851],[-0.04624999999999998,0.062407407407407495],[-0.042499999999999954,0.04277777777777782],[-0.03572916666666662,0.0242592592592593],[-0.028958333333333287,0.005740740740740783],[-0.005624999999999976,-0.0031481481481482323],[0.007291666666666667,-0.004444444444444402],[0.02645833333333331,-0.01703703703703712],[0.049687500000000044,-0.032777777777777864],[0.058958333333333356,-0.056851851851851834],[0.06635416666666671,-0.06148148148148146],[0.07416666666666671,-0.052222222222222205],[0.08197916666666671,-0.04296296296296305],[0.09010416666666667,-0.05851851851851856],[0.09822916666666662,-0.07407407407407407],[0.09322916666666667,-0.08277777777777776],[0.09864583333333338,-0.09907407407407408],[0.09166666666666666,-0.0933333333333333],[0.08468749999999996,-0.08759259259259261],[0.07520833333333338,-0.08574074074074076],[0.07458333333333324,-0.08370370370370368],[0.08406250000000005,-0.10129629629629627],[0.09354166666666662,-0.11888888888888886],[0.09104166666666676,-0.10444444444444441],[0.09333333333333324,-0.10907407407407403],[0.07645833333333343,-0.060370370370370414],[0.059583333333333384,-0.011666666666666582],[0.05437500000000005,0.020555555555555598],[0.04916666666666671,0.05277777777777778],[0.03093750000000005,0.10185185185185185],[0.01270833333333338,0.15092592592592594],[-0.01270833333333338,0.20259259259259255],[-0.04645833333333336,0.23185185185185195],[-0.07458333333333336,0.247037037037037],[-0.10520833333333333,0.2640740740740741],[-0.10249999999999998,0.24759259259259267],[-0.09979166666666663,0.23111111111111102],[-0.10593750000000005,0.2101851851851852],[-0.11208333333333335,0.18925925925925935],[-0.10489583333333338,0.14944444444444452],[-0.09770833333333329,0.10962962962962972],[-0.08125,0.08555555555555563],[-0.05645833333333338,0.0838888888888888],[-0.03718750000000005,0.07537037037037045],[-0.02020833333333331,0.08407407407407404],[-0.011562500000000024,0.07833333333333325],[-0.00947916666666669,0.06148148148148157],[0.010520833333333358,0.04888888888888885],[0.030520833333333285,0.03629629629629634],[0.06052083333333336,0.030000000000000086],[0.0962500000000001,0.03555555555555564],[0.09812500000000005,0.012592592592592508],[0.09812500000000005,0.012592592592592508],[0.1,-0.010370370370370412],[0.09677083333333343,-0.03537037037037041],[0.09677083333333343,-0.03537037037037041],[0.10520833333333333,-0.06592592592592597],[0.09802083333333324,-0.08462962962962961],[0.09458333333333328,-0.08981481481481482],[0.08250000000000005,-0.07962962962962963],[0.07041666666666657,-0.06944444444444445],[0.05499999999999995,-0.05555555555555555],[0.03927083333333338,-0.06870370370370374],[0.02958333333333331,-0.07407407407407407],[0.02958333333333331,-0.07407407407407407],[0.043020833333333286,-0.08555555555555554],[0.043020833333333286,-0.08555555555555554],[0.057291666666666664,-0.06259259259259262],[0.03135416666666669,-0.006296296296296254],[0.01416666666666669,0.034074074074074034],[0.003125,0.06759259259259259],[-0.016770833333333356,0.10481481481481486],[-0.05,0.15],[-0.08770833333333337,0.1911111111111112],[-0.11875,0.22166666666666676],[-0.13187500000000002,0.24666666666666676],[-0.1701041666666666,0.30574074074074076],[-0.1985416666666667,0.3392592592592593],[-0.1984375,0.3449999999999999],[-0.17124999999999999,0.32222222222222224],[-0.15031249999999996,0.330925925925926],[-0.11510416666666666,0.282037037037037],[-0.07562500000000003,0.23037037037037034],[-0.036145833333333384,0.1787037037037037],[-0.012395833333333309,0.12222222222222222],[0.004062499999999977,0.06944444444444445],[0.051041666666666666,0.007962962962962878],[0.0834374999999999,-0.04888888888888885],[0.0834374999999999,-0.04888888888888885],[0.09958333333333323,-0.10611111111111113],[0.09958333333333323,-0.10611111111111113],[0.11531250000000005,-0.14462962962962966],[0.11531250000000005,-0.14462962962962966],[0.1334374999999999,-0.22111111111111106],[0.1334374999999999,-0.22111111111111106],[0.13604166666666656,-0.25407407407407406],[0.13604166666666656,-0.25407407407407406],[0.14104166666666676,-0.2581481481481481],[0.14104166666666676,-0.2581481481481481],[0.16260416666666658,-0.2581481481481481],[0.18468749999999995,-0.2361111111111111],[0.18499999999999991,-0.2131481481481482],[0.15677083333333333,-0.2094444444444445],[0.1570833333333333,-0.2140740740740741],[0.1736458333333334,-0.2183333333333333],[0.1727083333333333,-0.21277777777777773],[0.15395833333333328,-0.18777777777777774],[0.15260416666666668,-0.1257407407407407],[0.16447916666666676,-0.1287037037037037],[0.15979166666666675,-0.13574074074074077],[0.1404166666666666,-0.11333333333333331],[0.15010416666666657,-0.0955555555555556],[0.15041666666666675,-0.06388888888888888],[0.13677083333333329,-0.028518518518518478],[0.12645833333333342,0.0005555555555554713],[0.10697916666666671,0.02962962962962963],[0.09593749999999991,0.05925925925925926],[0.07374999999999995,0.028703703703703703],[0.06635416666666671,0.06611111111111119],[0.058958333333333356,0.10351851851851848],[0.05270833333333336,0.1051851851851851],[0.04645833333333336,0.10685185185185193],[0.050520833333333334,0.1],[0.049687500000000044,0.06796296296296304],[0.049687500000000044,0.06796296296296304],[0.04635416666666667,0.049629629629629544],[0.04708333333333338,0.030000000000000086],[0.06291666666666665,0.00851851851851856],[0.08489583333333334,0.016666666666666666],[0.08552083333333324,-0.012222222222222264],[0.06906249999999996,-0.04888888888888885],[0.06927083333333334,-0.07074074074074072],[0.07520833333333338,-0.08333333333333333],[0.07510416666666657,-0.09370370370370375],[0.08416666666666663,-0.08648148148148146],[0.09239583333333339,-0.08666666666666668],[0.09937500000000009,-0.08814814814814818],[0.10114583333333324,-0.09685185185185187],[0.08677083333333328,-0.10925925925925926],[0.07239583333333334,-0.12166666666666665],[0.08541666666666667,-0.12629629629629627],[0.08541666666666667,-0.12629629629629627],[0.09249999999999996,-0.12481481481481477],[0.08802083333333334,-0.1440740740740741],[0.09093749999999995,-0.15962962962962962],[0.08958333333333333,-0.1675925925925926],[0.07697916666666677,-0.1794444444444444],[0.06156250000000003,-0.18870370370370365],[0.04468749999999998,-0.20907407407407402],[0.0328125,-0.21814814814814817],[0.020833333333333332,-0.22740740740740742],[-0.0036458333333333334,-0.22981481481481486],[0.011666666666666714,-0.23111111111111113],[0.00604166666666662,-0.22759259259259254],[0.00604166666666662,-0.22759259259259254],[-0.008854166666666666,-0.2338888888888889],[-0.013750000000000047,-0.23018518518518521],[-0.007395833333333357,-0.22259259259259256],[-0.002916666666666619,-0.1940740740740741],[0.00302083333333331,-0.1544444444444444],[0.0036458333333333334,-0.13629629629629633],[0.002708333333333357,-0.11703703703703702],[-0.0020833333333333333,-0.13481481481481483],[-0.04072916666666669,-0.15981481481481483],[-0.03989583333333328,-0.18351851851851855],[-0.03208333333333328,-0.20870370370370367],[-0.03718750000000005,-0.24129629629629631],[-0.04229166666666669,-0.27388888888888885],[-0.03135416666666669,-0.30537037037037035],[-0.02041666666666669,-0.3368518518518518],[-0.02958333333333331,-0.3544444444444444],[-0.03708333333333336,-0.37296296296296294],[-0.035625000000000046,-0.34944444444444445],[-0.035625000000000046,-0.34944444444444445],[-0.034166666666666616,-0.32592592592592595],[-0.034166666666666616,-0.3085185185185186],[-0.034166666666666616,-0.2911111111111111],[-0.035520833333333356,-0.23944444444444446],[-0.04135416666666671,-0.10259259259259255],[-0.06135416666666664,0.012222222222222264],[-0.0421875,0.18555555555555564],[-0.009583333333333381,0.3651851851851853],[0.024583333333333356,0.537962962962963],[0.05677083333333333,0.7012962962962964],[0.07468750000000005,0.8688888888888889],[0.08989583333333329,1.0546296296296296],[0.0974999999999999,1.2166666666666666],[0.0974999999999999,1.2166666666666666],[0.1040625000000001,1.3407407407407408],[0.10666666666666676,1.3590740740740743],[0.10958333333333338,1.3116666666666665],[0.07333333333333343,1.2057407407407406],[0.06218750000000005,1.086296296296296],[0.049583333333333354,0.9733333333333332],[0.035416666666666666,0.8603703703703705],[0.035520833333333356,0.7431481481481481],[0.03135416666666669,0.6192592592592592],[0.03260416666666662,0.5331481481481481],[0.03916666666666669,0.44814814814814813],[0.05,0.3648148148148148],[0.065625,0.3494444444444445],[0.08125,0.334074074074074],[0.08010416666666677,0.32685185185185184],[0.07385416666666676,0.29666666666666675],[0.08520833333333329,0.2692592592592592],[0.0818749999999999,0.2449999999999999],[0.0734375,0.2351851851851852],[0.0671875,0.21129629629629634],[0.0671875,0.21129629629629634],[0.0743750000000001,0.1566666666666667],[0.0743750000000001,0.1566666666666667],[0.07385416666666676,0.13333333333333333],[0.08177083333333333,0.1448148148148149]]","[[-0.05,0.11944444444444445,0.000099999999626732],[-0.04083333333333338,0.0801851851851851,0.016799999999811632],[-0.04624999999999998,0.062407407407407495,0.03350000000000364],[-0.042499999999999954,0.04277777777777782,0.05179999999981533],[-0.03572916666666662,0.0242592592592593,0.06879999999981834],[-0.028958333333333287,0.005740740740740783,0.0835000000000008],[-0.005624999999999976,-0.0031481481481482323,0.09989999999944388],[0.007291666666666667,-0.004444444444444402,0.11629999999981777],[0.02645833333333331,-0.01703703703703712,0.1355000000000004],[0.049687500000000044,-0.032777777777777864,0.14999999999999858],[0.058958333333333356,-0.056851851851851834,0.16629999999981493],[0.06635416666666671,-0.06148148148148146,0.18309999999962656],[0.07416666666666671,-0.052222222222222205,0.20250000000000057],[0.08197916666666671,-0.04296296296296305,0.21889999999944365],[0.09010416666666667,-0.05851851851851856,0.237599999999631],[0.09822916666666662,-0.07407407407407407,0.25369999999925597],[0.09322916666666667,-0.08277777777777776,0.2690999999996322],[0.09864583333333338,-0.09907407407407408,0.2852999999998147],[0.09166666666666666,-0.0933333333333333,0.300099999999631],[0.08468749999999996,-0.08759259259259261,0.31639999999944024],[0.07520833333333338,-0.08574074074074076,0.3332999999998165],[0.07458333333333324,-0.08370370370370368,0.3496999999992596],[0.08406250000000005,-0.10129629629629627,0.3663999999994445],[0.09354166666666662,-0.11888888888888886,0.38300000000000267],[0.09104166666666676,-0.10444444444444441,0.4000999999996324],[0.09333333333333324,-0.10907407407407403,0.41639999999944166],[0.07645833333333343,-0.060370370370370414,0.43539999999944],[0.059583333333333384,-0.011666666666666582,0.45000000000000284],[0.05437500000000005,0.020555555555555598,0.4663999999994459],[0.04916666666666671,0.05277777777777778,0.4837999999998175],[0.03093750000000005,0.10185185185185185,0.4996999999992582],[0.01270833333333338,0.15092592592592594,0.5165999999996274],[-0.01270833333333338,0.20259259259259255,0.5337999999998146],[-0.04645833333333336,0.23185185185185195,0.552500000000002],[-0.07458333333333336,0.247037037037037,0.570099999999627],[-0.10520833333333333,0.2640740740740741,0.5870000000000033],[-0.10249999999999998,0.24759259259259267,0.6035000000000039],[-0.09979166666666663,0.23111111111111102,0.6190999999996265],[-0.10593750000000005,0.2101851851851852,0.6356999999992539],[-0.11208333333333335,0.18925925925925935,0.6502999999998167],[-0.10489583333333338,0.14944444444444452,0.6667999999998173],[-0.09770833333333329,0.10962962962962972,0.6835000000000022],[-0.08125,0.08555555555555563,0.6997999999998186],[-0.05645833333333338,0.0838888888888888,0.7168999999994412],[-0.03718750000000005,0.07537037037037045,0.7364999999999995],[-0.02020833333333331,0.08407407407407404,0.753399999999445],[-0.011562500000000024,0.07833333333333325,0.7687999999998141],[-0.00947916666666669,0.06148148148148157,0.7832999999998123],[0.010520833333333358,0.04888888888888885,0.7998999999994396],[0.030520833333333285,0.03629629629629634,0.8166999999992584],[0.06052083333333336,0.030000000000000086,0.8355000000000032],[0.0962500000000001,0.03555555555555564,0.8536999999992574],[0.09812500000000005,0.012592592592592508,0.8700999999996313],[0.09812500000000005,0.012592592592592508,0.8832999999998137],[0.1,-0.010370370370370412,0.9000999999996324],[0.09677083333333343,-0.03537037037037041,0.9220999999996309],[0.09677083333333343,-0.03537037037037041,0.9333999999994447],[0.10520833333333333,-0.06592592592592597,0.9498999999994453],[0.09802083333333324,-0.08462962962962961,0.9665999999996302],[0.09458333333333328,-0.08981481481481482,0.9872999999998129],[0.08250000000000005,-0.07962962962962963,1.0027999999998158],[0.07041666666666657,-0.06944444444444445,1.0190999999996322],[0.05499999999999995,-0.05555555555555555,1.0375999999996282],[0.03927083333333338,-0.06870370370370374,1.0526999999992555],[0.02958333333333331,-0.07407407407407407,1.071299999999816],[0.02958333333333331,-0.07407407407407407,1.1551999999992546],[0.043020833333333286,-0.08555555555555554,1.1596999999992548],[0.043020833333333286,-0.08555555555555554,1.1673999999994393],[0.057291666666666664,-0.06259259259259262,1.1829999999999998],[0.03135416666666669,-0.006296296296296254,1.1995999999996272],[0.01416666666666669,0.034074074074074034,1.216299999999812],[0.003125,0.06759259259259259,1.2331999999992576],[-0.016770833333333356,0.10481481481481486,1.2495999999996315],[-0.05,0.15,1.2662999999998164],[-0.08770833333333337,0.1911111111111112,1.2828999999994437],[-0.11875,0.22166666666666676,1.2995999999996286],[-0.13187500000000002,0.24666666666666676,1.3162999999998135],[-0.1701041666666666,0.30574074074074076,1.3330999999996322],[-0.1985416666666667,0.3392592592592593,1.3495999999996258],[-0.1984375,0.3449999999999999,1.3663999999994445],[-0.17124999999999999,0.32222222222222224,1.3828999999994451],[-0.15031249999999996,0.330925925925926,1.4021999999992545],[-0.11510416666666666,0.282037037037037,1.4164999999999992],[-0.07562500000000003,0.23037037037037034,1.4357999999998157],[-0.036145833333333384,0.1787037037037037,1.4531999999992564],[-0.012395833333333309,0.12222222222222222,1.4665000000000035],[0.004062499999999977,0.06944444444444445,1.4830999999996308],[0.051041666666666666,0.007962962962962878,1.5025999999996316],[0.0834374999999999,-0.04888888888888885,1.5215000000000032],[0.0834374999999999,-0.04888888888888885,1.5332999999998123],[0.09958333333333323,-0.10611111111111113,1.5498999999994396],[0.09958333333333323,-0.10611111111111113,1.569799999999816],[0.11531250000000005,-0.14462962962962966,1.5830999999996322],[0.11531250000000005,-0.14462962962962966,1.5997999999998171],[0.1334374999999999,-0.22111111111111106,1.6220999999996266],[0.1334374999999999,-0.22111111111111106,1.633499999999998],[0.13604166666666656,-0.25407407407407406,1.649899999999441],[0.13604166666666656,-0.25407407407407406,1.6664999999999992],[0.14104166666666676,-0.2581481481481481,1.6887999999998158],[0.14104166666666676,-0.2581481481481481,1.6998999999994453],[0.16260416666666658,-0.2581481481481481,1.716399999999446],[0.18468749999999995,-0.2361111111111111,1.7352999999998175],[0.18499999999999991,-0.2131481481481482,1.7498999999994425],[0.15677083333333333,-0.2094444444444445,1.766399999999443],[0.1570833333333333,-0.2140740740740741,1.7830000000000013],[0.1736458333333334,-0.2183333333333333,1.7996999999992553],[0.1727083333333333,-0.21277777777777773,1.8193999999994404],[0.15395833333333328,-0.18777777777777774,1.8328999999994409],[0.15260416666666668,-0.1257407407407407,1.8495999999996258],[0.16447916666666676,-0.1287037037037037,1.8662999999998178],[0.15979166666666675,-0.13574074074074077,1.8828999999994451],[0.1404166666666666,-0.11333333333333331,1.89959999999963],[0.15010416666666657,-0.0955555555555556,1.916299999999815],[0.15041666666666675,-0.06388888888888888,1.9351999999992557],[0.13677083333333329,-0.028518518518518478,1.9495000000000005],[0.12645833333333342,0.0005555555555554713,1.9661999999992545],[0.10697916666666671,0.02962962962962963,1.983000000000004],[0.09593749999999991,0.05925925925925926,1.9995999999996315],[0.07374999999999995,0.028703703703703703,2.016199999999259],[0.06635416666666671,0.06611111111111119,2.0332999999998123],[0.058958333333333356,0.10351851851851848,2.0495999999996286],[0.05270833333333336,0.1051851851851851,2.066199999999256],[0.04645833333333336,0.10685185185185193,2.0829999999999984],[0.050520833333333334,0.1,2.102499999999999],[0.049687500000000044,0.06796296296296304,2.116500000000002],[0.049687500000000044,0.06796296296296304,2.1330999999996294],[0.04635416666666667,0.049629629629629544,2.1497999999998143],[0.04708333333333338,0.030000000000000086,2.168699999999255],[0.06291666666666665,0.00851851851851856,2.1830999999996266],[0.08489583333333334,0.016666666666666666,2.200000000000003],[0.08552083333333324,-0.012222222222222264,2.219999999999999],[0.06906249999999996,-0.04888888888888885,2.236299999999815],[0.06927083333333334,-0.07074074074074072,2.2528999999994426],[0.07520833333333338,-0.08333333333333333,2.2695999999996275],[0.07510416666666657,-0.09370370370370375,2.2860000000000014],[0.08416666666666663,-0.08648148148148146,2.3001999999992577],[0.09239583333333339,-0.08666666666666668,2.3162999999998135],[0.09937500000000009,-0.08814814814814818,2.3332999999998165],[0.10114583333333324,-0.09685185185185187,2.349499999999999],[0.08677083333333328,-0.10925925925925926,2.3662999999998178],[0.07239583333333334,-0.12166666666666665,2.3830000000000027],[0.08541666666666667,-0.12629629629629627,2.39959999999963],[0.08541666666666667,-0.12629629629629627,2.4191999999992575],[0.09249999999999996,-0.12481481481481477,2.4331999999992533],[0.08802083333333334,-0.1440740740740741,2.4515999999996296],[0.09093749999999995,-0.15962962962962962,2.4665000000000035],[0.08958333333333333,-0.1675925925925926,2.485799999999813],[0.07697916666666677,-0.1794444444444444,2.5001999999992535],[0.06156250000000003,-0.18870370370370365,2.5162999999998164],[0.04468749999999998,-0.20907407407407402,2.5328999999994437],[0.0328125,-0.21814814814814817,2.5501999999992577],[0.020833333333333332,-0.22740740740740742,2.5663999999994402],[-0.0036458333333333334,-0.22981481481481486,2.582899999999441],[0.011666666666666714,-0.23111111111111113,2.599899999999444],[0.00604166666666662,-0.22759259259259254,2.6163999999994445],[0.00604166666666662,-0.22759259259259254,2.634399999999445],[-0.008854166666666666,-0.2338888888888889,2.64959999999963],[-0.013750000000000047,-0.23018518518518521,2.6661999999992574],[-0.007395833333333357,-0.22259259259259256,2.6828999999994423],[-0.002916666666666619,-0.1940740740740741,2.699599999999627],[0.00302083333333331,-0.1544444444444444,2.716299999999812],[0.0036458333333333334,-0.13629629629629633,2.733299999999815],[0.002708333333333357,-0.11703703703703702,2.7495999999996315],[-0.0020833333333333333,-0.13481481481481483,2.7662999999998164],[-0.04072916666666669,-0.15981481481481483,2.7845000000000013],[-0.03989583333333328,-0.18351851851851855,2.8015000000000043],[-0.03208333333333328,-0.20870370370370367,2.816799999999816],[-0.03718750000000005,-0.24129629629629631,2.832899999999441],[-0.04229166666666669,-0.27388888888888885,2.8495999999996258],[-0.03135416666666669,-0.30537037037037035,2.866199999999253],[-0.02041666666666669,-0.3368518518518518,2.882899999999445],[-0.02958333333333331,-0.3544444444444444,2.90259999999963],[-0.03708333333333336,-0.37296296296296294,2.916299999999815],[-0.035625000000000046,-0.34944444444444445,2.9328999999994423],[-0.035625000000000046,-0.34944444444444445,2.949599999999627],[-0.034166666666666616,-0.32592592592592595,2.966299999999812],[-0.034166666666666616,-0.3085185185185186,2.983000000000004],[-0.034166666666666616,-0.2911111111111111,2.9995999999996315],[-0.035520833333333356,-0.23944444444444446,3.016199999999259],[-0.04135416666666671,-0.10259259259259255,3.0328999999994437],[-0.06135416666666664,0.012222222222222264,3.0495999999996286],[-0.0421875,0.18555555555555564,3.066199999999256],[-0.009583333333333381,0.3651851851851853,3.082899999999441],[0.024583333333333356,0.537962962962963,3.0996999999992596],[0.05677083333333333,0.7012962962962964,3.116199999999253],[0.07468750000000005,0.8688888888888889,3.1332999999998137],[0.08989583333333329,1.0546296296296296,3.14959999999963],[0.0974999999999999,1.2166666666666666,3.166299999999815],[0.0974999999999999,1.2166666666666666,3.1828999999994423],[0.1040625000000001,1.3407407407407408,3.199599999999627],[0.10666666666666676,1.3590740740740743,3.2161999999992545],[0.10958333333333338,1.3116666666666665,3.233000000000004],[0.07333333333333343,1.2057407407407406,3.2495999999996315],[0.06218750000000005,1.086296296296296,3.266399999999443],[0.049583333333333354,0.9733333333333332,3.2830000000000013],[0.035416666666666666,0.8603703703703705,3.299500000000002],[0.035520833333333356,0.7431481481481481,3.3190000000000026],[0.03135416666666669,0.6192592592592592,3.333199999999259],[0.03260416666666662,0.5331481481481481,3.3495999999996258],[0.03916666666666669,0.44814814814814813,3.366199999999253],[0.05,0.3648148148148148,3.382899999999445],[0.065625,0.3494444444444445,3.39959999999963],[0.08125,0.334074074074074,3.4161999999992574],[0.08010416666666677,0.32685185185185184,3.4328999999994423],[0.07385416666666676,0.29666666666666675,3.449599999999627],[0.08520833333333329,0.2692592592592592,3.4661999999992545],[0.0818749999999999,0.2449999999999999,3.4828999999994394],[0.0734375,0.2351851851851852,3.4995999999996315],[0.0671875,0.21129629629629634,3.516199999999259],[0.0671875,0.21129629629629634,3.5330000000000013],[0.0743750000000001,0.1566666666666667,3.5496999999992553],[0.0743750000000001,0.1566666666666667,3.5662999999998135],[0.07385416666666676,0.13333333333333333,3.582899999999441],[0.08177083333333333,0.1448148148148149,3.6038999999994417]]","[0.000099999999626732,0.016799999999811632,0.03350000000000364,0.05179999999981533,0.06879999999981834,0.0835000000000008,0.09989999999944388,0.11629999999981777,0.1355000000000004,0.14999999999999858,0.16629999999981493,0.18309999999962656,0.20250000000000057,0.21889999999944365,0.237599999999631,0.25369999999925597,0.2690999999996322,0.2852999999998147,0.300099999999631,0.31639999999944024,0.3332999999998165,0.3496999999992596,0.3663999999994445,0.38300000000000267,0.4000999999996324,0.41639999999944166,0.43539999999944,0.45000000000000284,0.4663999999994459,0.4837999999998175,0.4996999999992582,0.5165999999996274,0.5337999999998146,0.552500000000002,0.570099999999627,0.5870000000000033,0.6035000000000039,0.6190999999996265,0.6356999999992539,0.6502999999998167,0.6667999999998173,0.6835000000000022,0.6997999999998186,0.7168999999994412,0.7364999999999995,0.753399999999445,0.7687999999998141,0.7832999999998123,0.7998999999994396,0.8166999999992584,0.8355000000000032,0.8536999999992574,0.8700999999996313,0.8832999999998137,0.9000999999996324,0.9220999999996309,0.9333999999994447,0.9498999999994453,0.9665999999996302,0.9872999999998129,1.0027999999998158,1.0190999999996322,1.0375999999996282,1.0526999999992555,1.071299999999816,1.1551999999992546,1.1596999999992548,1.1673999999994393,1.1829999999999998,1.1995999999996272,1.216299999999812,1.2331999999992576,1.2495999999996315,1.2662999999998164,1.2828999999994437,1.2995999999996286,1.3162999999998135,1.3330999999996322,1.3495999999996258,1.3663999999994445,1.3828999999994451,1.4021999999992545,1.4164999999999992,1.4357999999998157,1.4531999999992564,1.4665000000000035,1.4830999999996308,1.5025999999996316,1.5215000000000032,1.5332999999998123,1.5498999999994396,1.569799999999816,1.5830999999996322,1.5997999999998171,1.6220999999996266,1.633499999999998,1.649899999999441,1.6664999999999992,1.6887999999998158,1.6998999999994453,1.716399999999446,1.7352999999998175,1.7498999999994425,1.766399999999443,1.7830000000000013,1.7996999999992553,1.8193999999994404,1.8328999999994409,1.8495999999996258,1.8662999999998178,1.8828999999994451,1.89959999999963,1.916299999999815,1.9351999999992557,1.9495000000000005,1.9661999999992545,1.983000000000004,1.9995999999996315,2.016199999999259,2.0332999999998123,2.0495999999996286,2.066199999999256,2.0829999999999984,2.102499999999999,2.116500000000002,2.1330999999996294,2.1497999999998143,2.168699999999255,2.1830999999996266,2.200000000000003,2.219999999999999,2.236299999999815,2.2528999999994426,2.2695999999996275,2.2860000000000014,2.3001999999992577,2.3162999999998135,2.3332999999998165,2.349499999999999,2.3662999999998178,2.3830000000000027,2.39959999999963,2.4191999999992575,2.4331999999992533,2.4515999999996296,2.4665000000000035,2.485799999999813,2.5001999999992535,2.5162999999998164,2.5328999999994437,2.5501999999992577,2.5663999999994402,2.582899999999441,2.599899999999444,2.6163999999994445,2.634399999999445,2.64959999999963,2.6661999999992574,2.6828999999994423,2.699599999999627,2.716299999999812,2.733299999999815,2.7495999999996315,2.7662999999998164,2.7845000000000013,2.8015000000000043,2.816799999999816,2.832899999999441,2.8495999999996258,2.866199999999253,2.882899999999445,2.90259999999963,2.916299999999815,2.9328999999994423,2.949599999999627,2.966299999999812,2.983000000000004,2.9995999999996315,3.016199999999259,3.0328999999994437,3.0495999999996286,3.066199999999256,3.082899999999441,3.0996999999992596,3.116199999999253,3.1332999999998137,3.14959999999963,3.166299999999815,3.1828999999994423,3.199599999999627,3.2161999999992545,3.233000000000004,3.2495999999996315,3.266399999999443,3.2830000000000013,3.299500000000002,3.3190000000000026,3.333199999999259,3.3495999999996258,3.366199999999253,3.382899999999445,3.39959999999963,3.4161999999992574,3.4328999999994423,3.449599999999627,3.4661999999992545,3.4828999999994394,3.4995999999996315,3.516199999999259,3.5330000000000013,3.5496999999992553,3.5662999999998135,3.582899999999441,3.6038999999994417]","[1733116046391,1733116046406,1733116046423,1733116046441,1733116046458,1733116046473,1733116046489,1733116046506,1733116046525,1733116046540,1733116046556,1733116046573,1733116046592,1733116046609,1733116046627,1733116046643,1733116046659,1733116046675,1733116046690,1733116046706,1733116046723,1733116046739,1733116046756,1733116046773,1733116046790,1733116046806,1733116046825,1733116046840,1733116046856,1733116046873,1733116046889,1733116046906,1733116046923,1733116046942,1733116046960,1733116046977,1733116046993,1733116047009,1733116047025,1733116047040,1733116047056,1733116047073,1733116047089,1733116047107,1733116047126,1733116047143,1733116047158,1733116047173,1733116047189,1733116047206,1733116047225,1733116047243,1733116047260,1733116047273,1733116047290,1733116047312,1733116047323,1733116047340,1733116047356,1733116047377,1733116047392,1733116047409,1733116047427,1733116047442,1733116047461,1733116047545,1733116047549,1733116047557,1733116047573,1733116047589,1733116047606,1733116047623,1733116047639,1733116047656,1733116047673,1733116047689,1733116047706,1733116047723,1733116047739,1733116047756,1733116047773,1733116047792,1733116047806,1733116047825,1733116047843,1733116047856,1733116047873,1733116047892,1733116047911,1733116047923,1733116047940,1733116047959,1733116047973,1733116047989,1733116048012,1733116048023,1733116048040,1733116048056,1733116048078,1733116048089,1733116048106,1733116048125,1733116048139,1733116048156,1733116048173,1733116048189,1733116048209,1733116048223,1733116048239,1733116048256,1733116048273,1733116048289,1733116048306,1733116048325,1733116048339,1733116048356,1733116048373,1733116048389,1733116048406,1733116048423,1733116048439,1733116048456,1733116048473,1733116048492,1733116048506,1733116048523,1733116048539,1733116048558,1733116048573,1733116048590,1733116048610,1733116048626,1733116048643,1733116048659,1733116048676,1733116048690,1733116048706,1733116048723,1733116048739,1733116048756,1733116048773,1733116048789,1733116048809,1733116048823,1733116048841,1733116048856,1733116048875,1733116048890,1733116048906,1733116048923,1733116048940,1733116048956,1733116048973,1733116048989,1733116049006,1733116049024,1733116049039,1733116049056,1733116049073,1733116049089,1733116049106,1733116049123,1733116049139,1733116049156,1733116049174,1733116049191,1733116049206,1733116049223,1733116049239,1733116049256,1733116049273,1733116049292,1733116049306,1733116049323,1733116049339,1733116049356,1733116049373,1733116049389,1733116049406,1733116049423,1733116049439,1733116049456,1733116049472,1733116049489,1733116049506,1733116049523,1733116049539,1733116049556,1733116049573,1733116049589,1733116049606,1733116049623,1733116049639,1733116049656,1733116049673,1733116049689,1733116049709,1733116049723,1733116049739,1733116049756,1733116049773,1733116049789,1733116049806,1733116049823,1733116049839,1733116049856,1733116049873,1733116049889,1733116049906,1733116049923,1733116049939,1733116049956,1733116049973,1733116049994]","[[912,604.5],[920.8,583.3],[915.6,573.7],[919.2,563.1],[925.7,553.1],[932.2,543.1],[954.6,538.3],[967,537.6],[985.4,530.8],[1007.7,522.3],[1016.6,509.3],[1023.7,506.8],[1031.2,511.8],[1038.7,516.8],[1046.5,508.4],[1054.3,500],[1049.5,495.3],[1054.7,486.5],[1048,489.6],[1041.3,492.7],[1032.2,493.7],[1031.6,494.8],[1040.7,485.3],[1049.8,475.8],[1047.4,483.6],[1049.6,481.1],[1033.4,507.4],[1017.2,533.7],[1012.2,551.1],[1007.2,568.5],[989.7,595],[972.2,621.5],[947.8,649.4],[915.4,665.2],[888.4,673.4],[859,682.6],[861.6,673.7],[864.2,664.8],[858.3,653.5],[852.4,642.2],[859.3,620.7],[866.2,599.2],[882,586.2],[905.8,585.3],[924.3,580.7],[940.6,585.4],[948.9,582.3],[950.9,573.2],[970.1,566.4],[989.3,559.6],[1018.1,556.2],[1052.4,559.2],[1054.2,546.8],[1054.2,546.8],[1056,534.4],[1052.9,520.9],[1052.9,520.9],[1061,504.4],[1054.1,494.3],[1050.8,491.5],[1039.2,497],[1027.6,502.5],[1012.8,510],[997.7,502.9],[988.4,500],[988.4,500],[1001.3,493.8],[1001.3,493.8],[1015,506.2],[990.1,536.6],[973.6,558.4],[963,576.5],[943.9,596.6],[912,621],[875.8,643.2],[846,659.7],[833.4,673.2],[796.7,705.1],[769.4,723.2],[769.5,726.3],[795.6,714],[815.7,718.7],[849.5,692.3],[887.4,664.4],[925.3,636.5],[948.1,606],[963.9,577.5],[1009,544.3],[1040.1,513.6],[1040.1,513.6],[1055.6,482.7],[1055.6,482.7],[1070.7,461.9],[1070.7,461.9],[1088.1,420.6],[1088.1,420.6],[1090.6,402.8],[1090.6,402.8],[1095.4,400.6],[1095.4,400.6],[1116.1,400.6],[1137.3,412.5],[1137.6,424.9],[1110.5,426.9],[1110.8,424.4],[1126.7,422.1],[1125.8,425.1],[1107.8,438.6],[1106.5,472.1],[1117.9,470.5],[1113.4,466.7],[1094.8,478.8],[1104.1,488.4],[1104.4,505.5],[1091.3,524.6],[1081.4,540.3],[1062.7,556],[1052.1,572],[1030.8,555.5],[1023.7,575.7],[1016.6,595.9],[1010.6,596.8],[1004.6,597.7],[1008.5,594],[1007.7,576.7],[1007.7,576.7],[1004.5,566.8],[1005.2,556.2],[1020.4,544.6],[1041.5,549],[1042.1,533.4],[1026.3,513.6],[1026.5,501.8],[1032.2,495],[1032.1,489.4],[1040.8,493.3],[1048.7,493.2],[1055.4,492.4],[1057.1,487.7],[1043.3,481],[1029.5,474.3],[1042,471.8],[1042,471.8],[1048.8,472.6],[1044.5,462.2],[1047.3,453.8],[1046,449.5],[1033.9,443.1],[1019.1,438.1],[1002.9,427.1],[991.5,422.2],[980,417.2],[956.5,415.9],[971.2,415.2],[965.8,417.1],[965.8,417.1],[951.5,413.7],[946.8,415.7],[952.9,419.8],[957.2,435.2],[962.9,456.6],[963.5,466.4],[962.6,476.8],[958,467.2],[920.9,453.7],[921.7,440.9],[929.2,427.3],[924.3,409.7],[919.4,392.1],[929.9,375.1],[940.4,358.1],[931.6,348.6],[924.4,338.6],[925.8,351.3],[925.8,351.3],[927.2,364],[927.2,373.4],[927.2,382.8],[925.9,410.7],[920.3,484.6],[901.1,546.6],[919.5,640.2],[950.8,737.2],[983.6,830.5],[1014.5,918.7],[1031.7,1009.2],[1046.3,1109.5],[1053.6,1197],[1053.6,1197],[1059.9,1264],[1062.4,1273.9],[1065.2,1248.3],[1030.4,1191.1],[1019.7,1126.6],[1007.6,1065.6],[994,1004.6],[994.1,941.3],[990.1,874.4],[991.3,827.9],[997.6,782],[1008,737],[1023,728.7],[1038,720.4],[1036.9,716.5],[1030.9,700.2],[1041.8,685.4],[1038.6,672.3],[1030.5,667],[1024.5,654.1],[1024.5,654.1],[1031.4,624.6],[1031.4,624.6],[1030.9,612],[1038.5,618.2]]","[0,0.151169218]","[0.151169218,0.151169218]","[-0.151169218,-0.151169218]","[-0.151169218,0]","[0,-0.151169218]","[0.151169218,-0.151169218]","[0,0]","[0.151169218,0]",0,1,1,1,1,3,Smartphone,5,5,13,7
