inst1_resp.keys,inst1_resp.rt,calibrationMouse.x,calibrationMouse.y,calibrationMouse.leftButton,calibrationMouse.midButton,calibrationMouse.rightButton,calibrationClick.x,calibrationClick.y,calibrationClick.leftButton,calibrationClick.midButton,calibrationClick.rightButton,trialsc.thisRepN,trialsc.thisTrialN,trialsc.thisN,trialsc.thisIndex,trialsc.ran,calibration_x,calibration_y,participant,session,date,expName,psychopyVersion,OS,frameRate,calibrationClick.clicked_name,ScreenRes_pixels,Camera_pixels,mouse_2.x,mouse_2.y,mouse_2.leftButton,mouse_2.midButton,mouse_2.rightButton,mouse_2.time,mouse_2.clicked_name,mouse.x,mouse.y,mouse.leftButton,mouse.midButton,mouse.rightButton,mouse.time,mouse.clicked_name,Choice,Trial,TrialDuration,MOUSE_GAZE,ET_GAZE,ET_GAZE_x_T,time,unixTime,ET_GAZE_NF,Loc_Option1_label,Loc_Option2_label,Loc_Cost_label,Loc_Qual_label,Loc_Option1_cost,Loc_Option2_cost,Loc_Option1_quality,Loc_Option2_quality,trials.thisRepN,trials.thisTrialN,trials.thisN,trials.thisIndex,trials.ran,Block,Device,cost1,qual1,cost2,qual2
space,2.8243,-1,-0.998148148,1,0,0,-1,-0.998148148,0,0,0,0,0,0,11,1,0,0,34,001,2024-12-02_13h02.25.576,Attention_exp_legacy,2023.1.0,Win32,60.24096386,,,,,,,,,,,,,,,,,,,,,,,,,,,,,,,,,,,,,,,,,,,,,
,,,,,,,-1,-0.998148148,0,0,0,0,1,1,8,1,-0.33,0.67,34,001,2024-12-02_13h02.25.576,Attention_exp_legacy,2023.1.0,Win32,60.24096386,,,,,,,,,,,,,,,,,,,,,,,,,,,,,,,,,,,,,,,,,,,,,
,,,,,,,-1,-0.998148148,0,0,0,0,2,2,2,1,-0.67,0,34,001,2024-12-02_13h02.25.576,Attention_exp_legacy,2023.1.0,Win32,60.24096386,,,,,,,,,,,,,,,,,,,,,,,,,,,,,,,,,,,,,,,,,,,,,
,,,,,,,-1,-0.998148148,0,0,0,0,3,3,15,1,0.33,-0.33,34,001,2024-12-02_13h02.25.576,Attention_exp_legacy,2023.1.0,Win32,60.24096386,,,,,,,,,,,,,,,,,,,,,,,,,,,,,,,,,,,,,,,,,,,,,
,,,,,,,-1,-0.998148148,0,0,0,0,4,4,19,1,0.67,0.67,34,001,2024-12-02_13h02.25.576,Attention_exp_legacy,2023.1.0,Win32,60.24096386,,,,,,,,,,,,,,,,,,,,,,,,,,,,,,,,,,,,,,,,,,,,,
,,,,,,,-1,-0.998148148,0,0,0,0,5,5,13,1,0,0.67,34,001,2024-12-02_13h02.25.576,Attention_exp_legacy,2023.1.0,Win32,60.24096386,,,,,,,,,,,,,,,,,,,,,,,,,,,,,,,,,,,,,,,,,,,,,
,,,,,,,-1,-0.998148148,0,0,0,0,6,6,20,1,0.67,-0.67,34,001,2024-12-02_13h02.25.576,Attention_exp_legacy,2023.1.0,Win32,60.24096386,,,,,,,,,,,,,,,,,,,,,,,,,,,,,,,,,,,,,,,,,,,,,
,,,,,,,-1,-0.998148148,0,0,0,0,7,7,9,1,0,-0.67,34,001,2024-12-02_13h02.25.576,Attention_exp_legacy,2023.1.0,Win32,60.24096386,,,,,,,,,,,,,,,,,,,,,,,,,,,,,,,,,,,,,,,,,,,,,
,,,,,,,-1,-0.998148148,0,0,0,0,8,8,1,1,-0.67,-0.33,34,001,2024-12-02_13h02.25.576,Attention_exp_legacy,2023.1.0,Win32,60.24096386,,,,,,,,,,,,,,,,,,,,,,,,,,,,,,,,,,,,,,,,,,,,,
,,,,,,,-1,-0.998148148,0,0,0,0,9,9,7,1,-0.33,0.33,34,001,2024-12-02_13h02.25.576,Attention_exp_legacy,2023.1.0,Win32,60.24096386,,,,,,,,,,,,,,,,,,,,,,,,,,,,,,,,,,,,,,,,,,,,,
,,,,,,,-1,-0.998148148,0,0,0,0,10,10,10,1,0,-0.33,34,001,2024-12-02_13h02.25.576,Attention_exp_legacy,2023.1.0,Win32,60.24096386,,,,,,,,,,,,,,,,,,,,,,,,,,,,,,,,,,,,,,,,,,,,,
,,,,,,,-1,-0.998148148,0,0,0,0,11,11,16,1,0.33,0,34,001,2024-12-02_13h02.25.576,Attention_exp_legacy,2023.1.0,Win32,60.24096386,,,,,,,,,,,,,,,,,,,,,,,,,,,,,,,,,,,,,,,,,,,,,
,,,,,,,-0.332291667,0.012962963,1,0,0,0,12,12,6,1,-0.33,0,34,001,2024-12-02_13h02.25.576,Attention_exp_legacy,2023.1.0,Win32,60.24096386,,,,,,,,,,,,,,,,,,,,,,,,,,,,,,,,,,,,,,,,,,,,,
,,,,,,,0.335416667,-0.67037037,1,0,0,0,13,13,14,1,0.33,-0.67,34,001,2024-12-02_13h02.25.576,Attention_exp_legacy,2023.1.0,Win32,60.24096386,calibration_square,,,,,,,,,,,,,,,,,,,,,,,,,,,,,,,,,,,,,,,,,,,,
,,,,,,,-0.340625,-0.346296296,1,0,0,0,14,14,5,1,-0.33,-0.33,34,001,2024-12-02_13h02.25.576,Attention_exp_legacy,2023.1.0,Win32,60.24096386,,,,,,,,,,,,,,,,,,,,,,,,,,,,,,,,,,,,,,,,,,,,,
,,,,,,,-0.679166667,0.32962963,1,0,0,0,15,15,3,1,-0.67,0.33,34,001,2024-12-02_13h02.25.576,Attention_exp_legacy,2023.1.0,Win32,60.24096386,calibration_square,,,,,,,,,,,,,,,,,,,,,,,,,,,,,,,,,,,,,,,,,,,,
,,,,,,,-0.325,-0.672222222,1,0,0,0,16,16,4,1,-0.33,-0.67,34,001,2024-12-02_13h02.25.576,Attention_exp_legacy,2023.1.0,Win32,60.24096386,calibration_square,,,,,,,,,,,,,,,,,,,,,,,,,,,,,,,,,,,,,,,,,,,,
,,,,,,,0.333333333,0.683333333,1,0,0,0,17,17,18,1,0.33,0.67,34,001,2024-12-02_13h02.25.576,Attention_exp_legacy,2023.1.0,Win32,60.24096386,,,,,,,,,,,,,,,,,,,,,,,,,,,,,,,,,,,,,,,,,,,,,
,,,,,,,0.335416667,0.325925926,1,0,0,0,18,18,17,1,0.33,0.33,34,001,2024-12-02_13h02.25.576,Attention_exp_legacy,2023.1.0,Win32,60.24096386,calibration_square,,,,,,,,,,,,,,,,,,,,,,,,,,,,,,,,,,,,,,,,,,,,
,,,,,,,-0.682291667,-0.677777778,1,0,0,0,19,19,0,1,-0.67,-0.67,34,001,2024-12-02_13h02.25.576,Attention_exp_legacy,2023.1.0,Win32,60.24096386,,,,,,,,,,,,,,,,,,,,,,,,,,,,,,,,,,,,,,,,,,,,,
,,,,,,,0.002083333,0.338888889,1,0,0,0,20,20,12,1,0,0.33,34,001,2024-12-02_13h02.25.576,Attention_exp_legacy,2023.1.0,Win32,60.24096386,calibration_square,,,,,,,,,,,,,,,,,,,,,,,,,,,,,,,,,,,,,,,,,,,,
,,,,,,,,,,,,,,,,,,,34,001,2024-12-02_13h02.25.576,Attention_exp_legacy,2023.1.0,Win32,60.24096386,,"[1920,1080]","[640,480]",[-0.027083333333333334],[-0.4925925925925926],[1],[0],[0],[1.596799999999817],"[""StartButton""]",[0.5229166666666667],[0.5462962962962963],[1],[0],[0],[4.257099999999625],"[""Option2_label""]",Option2_label,1,5.2822,"[[-0.06041666666666667,-0.4888888888888889],[-0.06041666666666667,-0.4888888888888889],[-0.06041666666666667,-0.4888888888888889],[-0.06041666666666667,-0.4888888888888889],[-0.06041666666666667,-0.4888888888888889],[-0.06041666666666667,-0.4888888888888889],[-0.06041666666666667,-0.4888888888888889],[-0.06041666666666667,-0.4888888888888889],[-0.06041666666666667,-0.4888888888888889],[-0.06041666666666667,-0.4888888888888889],[-0.06041666666666667,-0.4888888888888889],[-0.06041666666666667,-0.4888888888888889],[-0.06041666666666667,-0.4888888888888889],[-0.06041666666666667,-0.4888888888888889],[-0.06041666666666667,-0.4888888888888889],[-0.06041666666666667,-0.4888888888888889],[-0.06041666666666667,-0.4888888888888889],[-0.06041666666666667,-0.4888888888888889],[-0.06041666666666667,-0.4888888888888889],[-0.06041666666666667,-0.4888888888888889],[-0.06041666666666667,-0.4888888888888889],[-0.06041666666666667,-0.4888888888888889],[-0.06041666666666667,-0.4888888888888889],[-0.06041666666666667,-0.4888888888888889],[-0.06041666666666667,-0.4888888888888889],[-0.06041666666666667,-0.4888888888888889],[-0.06041666666666667,-0.4888888888888889],[-0.06041666666666667,-0.4888888888888889],[-0.06041666666666667,-0.4888888888888889],[-0.06041666666666667,-0.4888888888888889],[-0.06041666666666667,-0.4888888888888889],[-0.06041666666666667,-0.4888888888888889],[-0.06041666666666667,-0.4888888888888889],[-0.06041666666666667,-0.4888888888888889],[-0.06041666666666667,-0.4888888888888889],[-0.06041666666666667,-0.4888888888888889],[-0.06041666666666667,-0.4888888888888889],[-0.06041666666666667,-0.4888888888888889],[-0.06041666666666667,-0.4888888888888889],[-0.06041666666666667,-0.4888888888888889],[-0.06041666666666667,-0.4888888888888889],[-0.06041666666666667,-0.4888888888888889],[-0.06041666666666667,-0.4888888888888889],[-0.06041666666666667,-0.4888888888888889],[-0.0625,-0.49074074074074076],[-0.06354166666666666,-0.49074074074074076],[-0.06458333333333334,-0.4925925925925926],[-0.065625,-0.4925925925925926],[-0.06666666666666667,-0.4925925925925926],[-0.06666666666666667,-0.4925925925925926],[-0.06770833333333333,-0.4925925925925926],[-0.06770833333333333,-0.4925925925925926],[-0.06770833333333333,-0.4925925925925926],[-0.06770833333333333,-0.4925925925925926],[-0.06875,-0.47962962962962963],[-0.0625,-0.4462962962962963],[-0.04479166666666667,-0.37222222222222223],[-0.03854166666666667,-0.34629629629629627],[-0.020833333333333332,-0.2722222222222222],[-0.014583333333333334,-0.2518518518518518],[0.0020833333333333333,-0.2],[0.00625,-0.18518518518518517],[0.014583333333333334,-0.1574074074074074],[0.01875,-0.14629629629629629],[0.029166666666666667,-0.1111111111111111],[0.03125,-0.10185185185185185],[0.03333333333333333,-0.08148148148148149],[0.034375,-0.06851851851851852],[0.036458333333333336,-0.06481481481481481],[0.036458333333333336,-0.06481481481481481],[0.036458333333333336,-0.06481481481481481],[0.036458333333333336,-0.06481481481481481],[0.036458333333333336,-0.06481481481481481],[0.036458333333333336,-0.06481481481481481],[0.036458333333333336,-0.06481481481481481],[0.036458333333333336,-0.06481481481481481],[0.036458333333333336,-0.06481481481481481],[0.036458333333333336,-0.06481481481481481],[0.036458333333333336,-0.06481481481481481],[0.036458333333333336,-0.06481481481481481],[0.036458333333333336,-0.06481481481481481],[0.036458333333333336,-0.06481481481481481],[0.036458333333333336,-0.06481481481481481],[0.036458333333333336,-0.06481481481481481],[0.036458333333333336,-0.06481481481481481],[0.036458333333333336,-0.06481481481481481],[0.036458333333333336,-0.06481481481481481],[0.036458333333333336,-0.06481481481481481],[0.036458333333333336,-0.06481481481481481],[0.036458333333333336,-0.06481481481481481],[0.036458333333333336,-0.06481481481481481],[0.036458333333333336,-0.06481481481481481],[0.036458333333333336,-0.06111111111111111],[0.0375,-0.05740740740740741],[0.04375,-0.05185185185185185],[0.042708333333333334,-0.05],[0.042708333333333334,-0.03518518518518519],[0.04375,-0.027777777777777776],[0.04375,-0.014814814814814815],[0.04375,-0.014814814814814815],[0.04375,-0.014814814814814815],[0.04375,-0.014814814814814815],[0.04375,-0.014814814814814815],[0.04375,-0.014814814814814815],[0.04375,-0.014814814814814815],[0.04375,-0.012962962962962963],[0.04479166666666667,-0.011111111111111112],[0.04479166666666667,-0.011111111111111112],[0.04479166666666667,-0.009259259259259259],[0.04479166666666667,-0.003703703703703704],[0.04479166666666667,0],[0.04479166666666667,0.005555555555555556],[0.04479166666666667,0.014814814814814815],[0.04583333333333333,0.024074074074074074],[0.04583333333333333,0.03148148148148148],[0.046875,0.03888888888888889],[0.046875,0.04814814814814815],[0.04895833333333333,0.06666666666666667],[0.051041666666666666,0.08148148148148149],[0.052083333333333336,0.09814814814814815],[0.05416666666666667,0.11481481481481481],[0.058333333333333334,0.13333333333333333],[0.06041666666666667,0.1537037037037037],[0.06354166666666666,0.17407407407407408],[0.065625,0.2],[0.06875,0.23333333333333334],[0.071875,0.2759259259259259],[0.07604166666666666,0.31296296296296294],[0.07708333333333334,0.35],[0.078125,0.3925925925925926],[0.078125,0.412962962962963],[0.078125,0.42777777777777776],[0.078125,0.4425925925925926],[0.078125,0.46111111111111114],[0.078125,0.4777777777777778],[0.078125,0.4962962962962963],[0.078125,0.5092592592592593],[0.078125,0.5203703703703704],[0.078125,0.5277777777777778],[0.078125,0.5333333333333333],[0.078125,0.5351851851851852],[0.078125,0.5370370370370371],[0.078125,0.5370370370370371],[0.078125,0.5370370370370371],[0.078125,0.5370370370370371],[0.078125,0.5370370370370371],[0.078125,0.5370370370370371],[0.078125,0.5370370370370371],[0.078125,0.5370370370370371],[0.078125,0.5370370370370371],[0.078125,0.5388888888888889],[0.078125,0.5388888888888889],[0.078125,0.5388888888888889],[0.08020833333333334,0.5425925925925926],[0.084375,0.5444444444444444],[0.090625,0.5444444444444444],[0.1,0.5462962962962963],[0.11875,0.5462962962962963],[0.14375,0.5462962962962963],[0.18020833333333333,0.5462962962962963],[0.22291666666666668,0.5462962962962963],[0.26875,0.5462962962962963],[0.3145833333333333,0.5462962962962963],[0.36354166666666665,0.5462962962962963],[0.3770833333333333,0.5462962962962963],[0.41354166666666664,0.5351851851851852],[0.43333333333333335,0.5296296296296297],[0.453125,0.524074074074074],[0.46875,0.5203703703703704],[0.4791666666666667,0.5185185185185185],[0.48541666666666666,0.5166666666666667],[0.4875,0.5166666666666667],[0.4895833333333333,0.5166666666666667],[0.490625,0.5148148148148148],[0.490625,0.5148148148148148],[0.490625,0.5148148148148148],[0.490625,0.5148148148148148],[0.490625,0.5148148148148148],[0.490625,0.5148148148148148],[0.490625,0.5148148148148148],[0.490625,0.5148148148148148],[0.490625,0.5148148148148148],[0.490625,0.5148148148148148],[0.490625,0.5148148148148148],[0.49166666666666664,0.5148148148148148],[0.4875,0.5111111111111111],[0.47604166666666664,0.5055555555555555],[0.45208333333333334,0.4981481481481482],[0.38333333333333336,0.49444444444444446],[0.328125,0.4888888888888889],[0.27708333333333335,0.4888888888888889],[0.23125,0.4888888888888889],[0.19375,0.4888888888888889],[0.16666666666666666,0.4888888888888889],[0.14791666666666667,0.49074074074074076],[0.13854166666666667,0.4925925925925926],[0.13125,0.49444444444444446],[0.12708333333333333,0.4962962962962963],[0.12083333333333333,0.4981481481481482],[0.11666666666666667,0.4981481481481482],[0.1125,0.4981481481481482],[0.1125,0.4981481481481482],[0.1125,0.4981481481481482],[0.1125,0.4981481481481482],[0.1125,0.4981481481481482],[0.1125,0.4981481481481482],[0.1125,0.4981481481481482],[0.1125,0.4981481481481482],[0.1125,0.4981481481481482],[0.1125,0.4981481481481482],[0.1125,0.4981481481481482],[0.1125,0.4981481481481482],[0.1125,0.4981481481481482],[0.1125,0.4981481481481482],[0.1125,0.4981481481481482],[0.1125,0.4981481481481482],[0.1125,0.4981481481481482],[0.1125,0.4981481481481482],[0.1125,0.4981481481481482],[0.1125,0.4981481481481482],[0.1125,0.4981481481481482],[0.1125,0.4981481481481482],[0.1125,0.4981481481481482],[0.1125,0.4981481481481482],[0.1125,0.4981481481481482],[0.1125,0.4981481481481482],[0.1125,0.4981481481481482],[0.1125,0.4981481481481482],[0.1125,0.4981481481481482],[0.1125,0.4981481481481482],[0.1125,0.4981481481481482],[0.11770833333333333,0.5037037037037037],[0.13854166666666667,0.5055555555555555],[0.16875,0.512962962962963],[0.29583333333333334,0.5444444444444444],[0.321875,0.5462962962962963],[0.34270833333333334,0.5462962962962963],[0.3875,0.5462962962962963],[0.415625,0.5462962962962963],[0.4375,0.5462962962962963],[0.45416666666666666,0.5462962962962963],[0.46979166666666666,0.5462962962962963],[0.484375,0.5462962962962963],[0.49895833333333334,0.5462962962962963],[0.5114583333333333,0.5462962962962963],[0.5177083333333333,0.5462962962962963],[0.5208333333333334,0.5462962962962963],[0.5229166666666667,0.5462962962962963],[0.5229166666666667,0.5462962962962963],[0.5229166666666667,0.5462962962962963],[0.5229166666666667,0.5462962962962963],[0.5229166666666667,0.5462962962962963],[0.5229166666666667,0.5462962962962963],[0.5229166666666667,0.5462962962962963],[0.5229166666666667,0.5462962962962963],[0.5229166666666667,0.5462962962962963],[0.5229166666666667,0.5462962962962963],[0.5229166666666667,0.5462962962962963],[0.5229166666666667,0.5462962962962963],[0.5229166666666667,0.5462962962962963],[0.5229166666666667,0.5462962962962963],[0.5229166666666667,0.5462962962962963],[0.5229166666666667,0.5462962962962963],[0.5229166666666667,0.5462962962962963],[0.5229166666666667,0.5462962962962963],[0.5229166666666667,0.5462962962962963],[0.5229166666666667,0.5462962962962963],[0.5229166666666667,0.5462962962962963],[0.5229166666666667,0.5462962962962963],[0.5229166666666667,0.5462962962962963],[0.5229166666666667,0.5462962962962963],[0.5229166666666667,0.5462962962962963],[0.5229166666666667,0.5462962962962963],[0.5229166666666667,0.5462962962962963],[0.5229166666666667,0.5462962962962963],[0.5229166666666667,0.5462962962962963],[0.5229166666666667,0.5462962962962963],[0.5229166666666667,0.5462962962962963],[0.5229166666666667,0.5462962962962963],[0.5229166666666667,0.5462962962962963],[0.5229166666666667,0.5462962962962963],[0.5229166666666667,0.5462962962962963],[0.5229166666666667,0.5462962962962963],[0.5229166666666667,0.5462962962962963],[0.5229166666666667,0.5462962962962963],[0.5229166666666667,0.5462962962962963],[0.5229166666666667,0.5462962962962963],[0.5229166666666667,0.5462962962962963],[0.5229166666666667,0.5462962962962963],[0.5229166666666667,0.5462962962962963],[0.5229166666666667,0.5462962962962963],[0.5229166666666667,0.5462962962962963],[0.5229166666666667,0.5462962962962963],[0.5229166666666667,0.5462962962962963],[0.5229166666666667,0.5462962962962963],[0.5229166666666667,0.5462962962962963],[0.5229166666666667,0.5462962962962963],[0.5229166666666667,0.5462962962962963],[0.5229166666666667,0.5462962962962963],[0.5229166666666667,0.5462962962962963],[0.5229166666666667,0.5462962962962963],[0.5229166666666667,0.5462962962962963],[0.5229166666666667,0.5462962962962963],[0.5229166666666667,0.5462962962962963],[0.5229166666666667,0.5462962962962963],[0.5229166666666667,0.5462962962962963],[0.5229166666666667,0.5462962962962963],[0.5229166666666667,0.5462962962962963],[0.5229166666666667,0.5462962962962963],[0.5229166666666667,0.5462962962962963],[0.5229166666666667,0.5462962962962963],[0.5229166666666667,0.5462962962962963],[0.5229166666666667,0.5462962962962963],[0.5229166666666667,0.5462962962962963],[0.5229166666666667,0.5462962962962963],[0.5229166666666667,0.5462962962962963]]","[[-0.3508333333333333,0.5542592592592592],[-0.3508333333333333,0.5542592592592592],[-0.39479166666666665,0.5468518518518518],[-0.39479166666666665,0.5468518518518518],[-0.43333333333333335,0.5333333333333333],[-0.43333333333333335,0.5333333333333333],[-0.47,0.519074074074074],[-0.47,0.519074074074074],[-0.5140625,0.5287037037037037],[-0.5140625,0.5287037037037037],[-0.5782291666666667,0.5192592592592592],[-0.5782291666666667,0.5192592592592592],[-0.6083333333333333,0.5201851851851852],[-0.6083333333333333,0.5201851851851852],[-0.651875,0.5475925925925926],[-0.651875,0.5475925925925926],[-0.6904166666666666,0.5803703703703703],[-0.6904166666666666,0.5803703703703703],[-0.720625,0.5275925925925925],[-0.720625,0.5275925925925925],[-0.765,0.5162962962962963],[-0.765,0.5162962962962963],[-0.7946875,0.5101851851851852],[-0.7946875,0.5101851851851852],[-0.8096875,0.5022222222222223],[-0.8096875,0.5022222222222223],[-0.8198958333333334,0.4540740740740742],[-0.8198958333333334,0.4540740740740742],[-0.8109375,0.42481481481481476],[-0.8109375,0.42481481481481476],[-0.7696875,0.4068518518518519],[-0.7696875,0.4068518518518519],[-0.7469791666666666,0.3851851851851852],[-0.7469791666666666,0.3851851851851852],[-0.7216666666666666,0.3514814814814814],[-0.7216666666666666,0.3514814814814814],[-0.7184375000000001,0.3587037037037038],[-0.7184375000000001,0.3587037037037038],[-0.7115625,0.38574074074074066],[-0.7115625,0.38574074074074066],[-0.6802083333333333,0.3966666666666668],[-0.6802083333333333,0.3966666666666668],[-0.6496875000000001,0.4118518518518518],[-0.6496875000000001,0.4118518518518518],[-0.6234375,0.42888888888888893],[-0.6234375,0.42888888888888893],[-0.61375,0.4449999999999999],[-0.61375,0.4449999999999999],[-0.6358333333333334,0.44648148148148153],[-0.6358333333333334,0.44648148148148153],[-0.6041666666666666,0.44944444444444454],[-0.6041666666666666,0.44944444444444454],[-0.5795833333333333,0.45555555555555555],[-0.5795833333333333,0.45555555555555555],[-0.5297916666666667,0.4564814814814815],[-0.5297916666666667,0.4564814814814815],[-0.4744791666666667,0.4351851851851852],[-0.4744791666666667,0.4351851851851852],[-0.4305208333333333,0.3931481481481481],[-0.4305208333333333,0.3931481481481481],[-0.390625,0.37592592592592594],[-0.390625,0.37592592592592594],[-0.34916666666666674,0.3544444444444444],[-0.34916666666666674,0.3544444444444444],[-0.2921875,0.33722222222222226],[-0.2921875,0.33722222222222226],[-0.23572916666666663,0.3587037037037038],[-0.23572916666666663,0.3587037037037038],[-0.14729166666666665,0.3333333333333333],[-0.14729166666666665,0.3333333333333333],[-0.15499999999999994,0.33907407407407414],[-0.15499999999999994,0.33907407407407414],[-0.18010416666666665,0.38203703703703695],[-0.18010416666666665,0.38203703703703695],[-0.18010416666666665,0.38203703703703695],[-0.18010416666666665,0.38203703703703695],[-0.23531249999999998,0.405925925925926],[-0.23531249999999998,0.405925925925926],[-0.2782291666666667,0.41648148148148145],[-0.2782291666666667,0.41648148148148145],[-0.3051041666666666,0.4631481481481482],[-0.3051041666666666,0.4631481481481482],[-0.33864583333333337,0.4901851851851853],[-0.33864583333333337,0.4901851851851853],[-0.37875000000000003,0.5037037037037037],[-0.37875000000000003,0.5037037037037037],[-0.4258333333333333,0.522962962962963],[-0.4258333333333333,0.522962962962963],[-0.48843749999999997,0.5466666666666667],[-0.48843749999999997,0.5466666666666667],[-0.5710416666666667,0.6166666666666667],[-0.5710416666666667,0.6166666666666667],[-0.6234375,0.6618518518518518],[-0.6234375,0.6618518518518518],[-0.6085416666666668,0.6648148148148149],[-0.6085416666666668,0.6648148148148149],[-0.5894791666666667,0.6885185185185184],[-0.5894791666666667,0.6885185185185184],[-0.5496875,0.6755555555555555],[-0.5496875,0.6755555555555555],[-0.5120833333333333,0.6753703703703705],[-0.5120833333333333,0.6753703703703705],[-0.5120833333333333,0.6753703703703705],[-0.46604166666666663,0.6664814814814815],[-0.46604166666666663,0.6664814814814815],[-0.45499999999999996,0.6838888888888888],[-0.45499999999999996,0.6838888888888888],[-0.41000000000000003,0.6553703703703704],[-0.41000000000000003,0.6553703703703704],[-0.3429166666666667,0.6046296296296296],[-0.3429166666666667,0.6046296296296296],[-0.28072916666666664,0.5733333333333334],[-0.28072916666666664,0.5733333333333334],[-0.2046875,0.5042592592592592],[-0.2046875,0.5042592592592592],[-0.15458333333333332,0.4412962962962962],[-0.15458333333333332,0.4412962962962962],[-0.09093749999999995,0.3683333333333333],[-0.09093749999999995,0.3683333333333333],[-0.06208333333333336,0.2920370370370371],[-0.07208333333333337,0.2594444444444445],[-0.04083333333333338,0.18629629629629635],[0.002916666666666619,0.1227777777777777],[0.03166666666666664,0.07796296296296301],[0.022812499999999975,0.06777777777777783],[0.06833333333333323,-0.01185185185185181],[0.07062499999999995,-0.011481481481481566],[0.05656249999999995,-0.014259259259259343],[0.03833333333333329,-0.012222222222222264],[0.033958333333333354,0.01907407407407399],[0.07072916666666676,-0.003703703703703704],[0.009583333333333381,0.07370370370370362],[-0.03343750000000002,0.12611111111111115],[-0.06020833333333329,0.07666666666666662],[-0.04739583333333333,0.005000000000000084],[-0.09447916666666671,0.014259259259259343],[-0.09302083333333329,-0.045740740740740825],[-0.09822916666666662,-0.08462962962962961],[-0.08354166666666671,-0.14351851851851852],[-0.08354166666666671,-0.14351851851851852],[-0.0625,-0.21388888888888888],[-0.06333333333333328,-0.27740740740740744],[-0.03781249999999995,-0.3520370370370371],[-0.05270833333333336,-0.35648148148148145],[-0.08510416666666672,-0.2953703703703704],[-0.11749999999999995,-0.23425925925925925],[-0.11625000000000002,-0.2383333333333333],[-0.10770833333333331,-0.24370370370370376],[-0.1688541666666667,-0.14907407407407408],[-0.23083333333333336,-0.053703703703703705],[-0.31697916666666665,0.08444444444444449],[-0.3061458333333333,0.07981481481481485],[-0.2984375,0.1205555555555556],[-0.24802083333333336,0.06370370370370367],[-0.23072916666666668,0.05351851851851848],[-0.19041666666666662,0.04222222222222214],[-0.16156250000000003,0.05388888888888893],[-0.18406250000000005,0.10481481481481486],[-0.10531250000000002,-0.014074074074074116],[-0.05541666666666671,-0.09166666666666666],[0.011770833333333286,-0.20055555555555557],[0.008229166666666643,-0.16814814814814816],[0.03854166666666667,-0.24314814814814817],[0.06656249999999998,-0.29074074074074074],[0.08406250000000005,-0.3485185185185185],[0.11031250000000009,-0.38740740740740737],[0.10270833333333323,-0.4388888888888889],[0.11875,-0.4859259259259259],[0.0953125,-0.4662962962962963],[0.15145833333333342,-0.5116666666666667],[0.18218750000000009,-0.5603703703703704],[0.2085416666666667,-0.6144444444444445],[0.2195833333333333,-0.5733333333333334],[0.2306250000000001,-0.5322222222222222],[0.2704166666666666,-0.51],[0.2664583333333333,-0.4746296296296296],[0.2671875,-0.432962962962963],[0.22625000000000003,-0.4359259259259259],[0.19947916666666668,-0.4559259259259259],[0.090625,-0.39962962962962967],[0.019583333333333286,-0.3588888888888889],[-0.03187500000000002,-0.3175925925925926],[-0.1310416666666666,-0.3198148148148148],[-0.1920833333333333,-0.3492592592592593],[-0.2609375,-0.3418518518518519],[-0.2700000000000001,-0.35537037037037034],[-0.24989583333333332,-0.36259259259259263],[-0.18687499999999999,-0.3405555555555555],[-0.11687500000000005,-0.32833333333333337],[-0.03239583333333336,-0.3551851851851852],[0.03291666666666669,-0.3844444444444445],[0.08499999999999991,-0.4020370370370371],[0.08499999999999991,-0.4020370370370371],[0.18458333333333338,-0.42314814814814816],[0.24479166666666666,-0.39759259259259255],[0.3054166666666667,-0.4087037037037037],[0.2738541666666668,-0.3618518518518518],[0.24229166666666657,-0.31500000000000006],[0.20114583333333325,-0.22611111111111115],[0.20114583333333325,-0.22611111111111115],[0.12822916666666656,-0.1685185185185185],[0.12822916666666656,-0.1685185185185185],[0.04656250000000005,-0.1257407407407407],[-0.02510416666666669,-0.049629629629629544],[-0.103125,0.014259259259259343],[-0.17354166666666668,0.025185185185185227],[-0.24270833333333333,0.016666666666666666],[-0.3266666666666667,0.06888888888888897],[-0.3451041666666666,0.01796296296296305],[-0.3788541666666667,0.03462962962962971],[-0.38729166666666665,-0.01592592592592597],[-0.3866666666666667,-0.0001851851851852273],[-0.36770833333333336,0.010370370370370412],[-0.35270833333333335,-0.007407407407407408],[-0.33572916666666663,-0.022592592592592678],[-0.33572916666666663,-0.022592592592592678],[-0.3485416666666667,-0.0025925925925925505],[-0.30791666666666667,-0.015000000000000043],[-0.2789583333333333,0.0005555555555554713],[-0.2711458333333333,0.05129629629629638],[-0.2107291666666666,-0.014814814814814815],[-0.16604166666666664,-0.055740740740740785],[-0.10572916666666667,-0.11407407407407412],[-0.05479166666666669,-0.15611111111111114],[0.008958333333333356,-0.17111111111111107],[0.06645833333333329,-0.18407407407407403],[0.13895833333333343,-0.21574074074074073],[0.16062500000000005,-0.2037037037037037],[0.16062500000000005,-0.2037037037037037],[0.2107291666666666,-0.24259259259259258],[0.2107291666666666,-0.24259259259259258],[0.24645833333333325,-0.2783333333333334],[0.24645833333333325,-0.2783333333333334],[0.22541666666666677,-0.24370370370370376],[0.1618750000000001,-0.18055555555555555],[0.1618750000000001,-0.18055555555555555],[0.13729166666666662,-0.1905555555555555],[0.13729166666666662,-0.1905555555555555],[0.1125,-0.19685185185185186],[0.1125,-0.19685185185185186],[0.11135416666666677,-0.21092592592592588],[0.11135416666666677,-0.21092592592592588],[0.07510416666666657,-0.18648148148148147],[0.07510416666666657,-0.18648148148148147],[0.10416666666666667,-0.19037037037037038],[0.10416666666666667,-0.19037037037037038],[0.13145833333333337,-0.20388888888888893],[0.13145833333333337,-0.20388888888888893],[0.1430208333333333,-0.2351851851851852],[0.1430208333333333,-0.2351851851851852],[0.16895833333333338,-0.25629629629629624],[0.17156250000000003,-0.24611111111111106],[0.21729166666666658,-0.2640740740740741],[0.24333333333333323,-0.222037037037037],[0.2693749999999999,-0.17999999999999997],[0.2693749999999999,-0.17999999999999997],[0.2209374999999999,-0.1537037037037037],[0.18979166666666672,-0.15314814814814812],[0.15479166666666658,-0.14592592592592596],[0.1493750000000001,-0.16518518518518516],[0.09802083333333324,-0.12388888888888884],[0.04666666666666662,-0.09592592592592594],[0.09375,-0.1983333333333334],[0.13489583333333333,-0.31851851851851853],[0.13833333333333328,-0.4131481481481482],[0.14177083333333323,-0.5077777777777778],[0.17645833333333344,-0.5822222222222222],[0.23322916666666677,-0.674074074074074],[0.23822916666666671,-0.7083333333333334],[0.21281249999999996,-0.7177777777777778],[0.24812500000000004,-0.7894444444444445],[0.2991666666666667,-0.8722222222222222],[0.2484375,-0.8353703703703704],[0.20302083333333343,-0.7811111111111111],[0.1953125,-0.7694444444444445],[0.18947916666666675,-0.7518518518518519],[0.19114583333333332,-0.7416666666666667],[0.1859375,-0.7201851851851852],[0.17114583333333327,-0.7131481481481482],[0.1658333333333334,-0.7172222222222222],[0.15906250000000005,-0.702962962962963],[0.14770833333333327,-0.6774074074074075],[0.18250000000000005,-0.6935185185185185],[0.21729166666666658,-0.7096296296296296],[0.22000000000000006,-0.7042592592592593],[0.23635416666666675,-0.7150000000000001],[0.2556250000000001,-0.7051851851851852],[0.28177083333333336,-0.7066666666666667],[0.3290625000000001,-0.7022222222222222],[0.36687500000000006,-0.6866666666666666],[0.3754166666666668,-0.6638888888888889],[0.3728125000000001,-0.6412962962962964],[0.38729166666666665,-0.6233333333333334],[0.40895833333333326,-0.6261111111111112],[0.44979166666666665,-0.6124074074074074],[0.45281250000000006,-0.5816666666666667],[0.4539583333333333,-0.5585185185185185],[0.45510416666666675,-0.5353703703703704],[0.4322916666666667,-0.5153703703703704],[0.3931250000000001,-0.5096296296296297],[0.3832291666666668,-0.5111111111111111],[0.3787499999999999,-0.5081481481481481],[0.3455208333333334,-0.4742592592592593],[0.31145833333333334,-0.44222222222222224],[0.2711458333333333,-0.4257407407407407],[0.23489583333333333,-0.3888888888888889],[0.19760416666666672,-0.36500000000000005],[0.11177083333333329,-0.28351851851851856],[0.028541666666666642,-0.2131481481481482],[-0.03833333333333329,-0.12851851851851848],[-0.10260416666666666,-0.0242592592592593],[-0.18020833333333333,0.07759259259259255],[-0.21020833333333327,0.11851851851851852],[-0.24656250000000005,0.18203703703703694],[-0.29020833333333335,0.24888888888888885],[-0.315625,0.28851851851851845]]","[[-0.3508333333333333,0.5542592592592592,0.00020000000019138042],[-0.3508333333333333,0.5542592592592592,0.04070000000018581],[-0.39479166666666665,0.5468518518518518,0.06279999999981101],[-0.39479166666666665,0.5468518518518518,0.07010000000056493],[-0.43333333333333335,0.5333333333333333,0.09600000000000364],[-0.43333333333333335,0.5333333333333333,0.10379999999982203],[-0.47,0.519074074074074,0.13110000000055777],[-0.47,0.519074074074074,0.1414000000003739],[-0.5140625,0.5287037037037037,0.16440000000037003],[-0.5140625,0.5287037037037037,0.1712999999998175],[-0.5782291666666667,0.5192592592592592,0.19599999999999795],[-0.5782291666666667,0.5192592592592592,0.2039000000003739],[-0.6083333333333333,0.5201851851851852,0.2292999999998102],[-0.6083333333333333,0.5201851851851852,0.23799999999999955],[-0.651875,0.5475925925925926,0.26410000000055334],[-0.651875,0.5475925925925926,0.27220000000018274],[-0.6904166666666666,0.5803703703703703,0.29779999999981044],[-0.6904166666666666,0.5803703703703703,0.30540000000037537],[-0.720625,0.5275925925925925,0.3307999999998117],[-0.720625,0.5275925925925925,0.33920000000019],[-0.765,0.5162962962962963,0.36270000000018854],[-0.765,0.5162962962962963,0.36979999999981317],[-0.7946875,0.5101851851851852,0.39610000000055834],[-0.7946875,0.5101851851851852,0.4044000000003791],[-0.8096875,0.5022222222222223,0.42929999999981305],[-0.8096875,0.5022222222222223,0.43870000000018194],[-0.8198958333333334,0.4540740740740742,0.46429999999980964],[-0.8198958333333334,0.4540740740740742,0.47070000000019263],[-0.8109375,0.42481481481481476,0.49610000000056687],[-0.8109375,0.42481481481481476,0.5032999999998111],[-0.7696875,0.4068518518518519,0.5292000000001877],[-0.7696875,0.4068518518518519,0.5382999999998219],[-0.7469791666666666,0.3851851851851852,0.5627000000001914],[-0.7469791666666666,0.3851851851851852,0.5702000000001846],[-0.7216666666666666,0.3514814814814814,0.5977999999998218],[-0.7216666666666666,0.3514814814814814,0.6042000000001906],[-0.7184375000000001,0.3587037037037038,0.6315000000000026],[-0.7184375000000001,0.3587037037037038,0.6417000000001849],[-0.7115625,0.38574074074074066,0.6642999999998125],[-0.7115625,0.38574074074074066,0.6709000000003726],[-0.6802083333333333,0.3966666666666668,0.6976000000005627],[-0.6802083333333333,0.3966666666666668,0.7041000000005653],[-0.6496875000000001,0.4118518518518518,0.7292999999998102],[-0.6496875000000001,0.4118518518518518,0.7377000000001885],[-0.6234375,0.42888888888888893,0.7674000000003787],[-0.6234375,0.42888888888888893,0.7741000000005585],[-0.61375,0.4449999999999999,0.7977000000001908],[-0.61375,0.4449999999999999,0.8045000000000044],[-0.6358333333333334,0.44648148148148153,0.8339000000003693],[-0.6358333333333334,0.44648148148148153,0.8416000000005539],[-0.6041666666666666,0.44944444444444454,0.8642999999998153],[-0.6041666666666666,0.44944444444444454,0.8712999999998203],[-0.5795833333333333,0.45555555555555555,0.8961000000005583],[-0.5795833333333333,0.45555555555555555,0.9035000000000082],[-0.5297916666666667,0.4564814814814815,0.9351000000005598],[-0.5297916666666667,0.4564814814814815,0.942600000000553],[-0.4744791666666667,0.4351851851851852,0.964500000000001],[-0.4744791666666667,0.4351851851851852,0.972400000000377],[-0.4305208333333333,0.3931481481481481,1.0005000000000024],[-0.4305208333333333,0.3931481481481481,1.007600000000565],[-0.390625,0.37592592592592594,1.0314000000003745],[-0.390625,0.37592592592592594,1.041299999999822],[-0.34916666666666674,0.3544444444444444,1.0672999999998183],[-0.34916666666666674,0.3544444444444444,1.074299999999809],[-0.2921875,0.33722222222222226,1.097700000000188],[-0.2921875,0.33722222222222226,1.105000000000004],[-0.23572916666666663,0.3587037037037038,1.1354000000003737],[-0.23572916666666663,0.3587037037037038,1.143799999999814],[-0.14729166666666665,0.3333333333333333,1.1642999999998125],[-0.14729166666666665,0.3333333333333333,1.1712000000001836],[-0.15499999999999994,0.33907407407407414,1.195999999999998],[-0.15499999999999994,0.33907407407407414,1.2032000000001943],[-0.18010416666666665,0.38203703703703695,1.230900000000375],[-0.18010416666666665,0.38203703703703695,1.2407999999998083],[-0.18010416666666665,0.38203703703703695,1.245100000000562],[-0.18010416666666665,0.38203703703703695,1.2644000000003786],[-0.23531249999999998,0.405925925925926,1.2960000000000065],[-0.23531249999999998,0.405925925925926,1.3032000000001887],[-0.2782291666666667,0.41648148148148145,1.3294000000003763],[-0.2782291666666667,0.41648148148148145,1.3414999999999964],[-0.3051041666666666,0.4631481481481482,1.3642999999998153],[-0.3051041666666666,0.4631481481481482,1.3712999999998203],[-0.33864583333333337,0.4901851851851853,1.3961000000005583],[-0.33864583333333337,0.4901851851851853,1.4037999999998192],[-0.37875000000000003,0.5037037037037037,1.429299999999813],[-0.37875000000000003,0.5037037037037037,1.4387999999998158],[-0.4258333333333333,0.522962962962963,1.4641000000005562],[-0.4258333333333333,0.522962962962963,1.4707999999998123],[-0.48843749999999997,0.5466666666666667,1.4959999999999951],[-0.48843749999999997,0.5466666666666667,1.5032999999998111],[-0.5710416666666667,0.6166666666666667,1.5292999999998216],[-0.5710416666666667,0.6166666666666667,1.547299999999808],[-0.6234375,0.6618518518518518,1.5657999999998111],[-0.6234375,0.6618518518518518,1.5736000000005532],[-0.6085416666666668,0.6648148148148149,1.5979000000003794],[-0.6085416666666668,0.6648148148148149,1.6072999999998103],[-0.5894791666666667,0.6885185185185184,1.6366000000005556],[-0.5894791666666667,0.6885185185185184,1.644700000000185],[-0.5496875,0.6755555555555555,1.6661000000005544],[-0.5496875,0.6755555555555555,1.6741000000005641],[-0.5120833333333333,0.6753703703703705,1.7007999999998162],[-0.5120833333333333,0.6753703703703705,1.7092000000001946],[-0.5120833333333333,0.6753703703703705,1.716600000000554],[-0.46604166666666663,0.6664814814814815,1.75060000000056],[-0.46604166666666663,0.6664814814814815,1.757600000000565],[-0.45499999999999996,0.6838888888888888,1.7844999999999942],[-0.45499999999999996,0.6838888888888888,1.7914999999999992],[-0.41000000000000003,0.6553703703703704,1.8187999999998112],[-0.41000000000000003,0.6553703703703704,1.8269999999999982],[-0.3429166666666667,0.6046296296296296,1.8527000000001834],[-0.3429166666666667,0.6046296296296296,1.8624999999999972],[-0.28072916666666664,0.5733333333333334,1.87860000000056],[-0.28072916666666664,0.5733333333333334,1.8952999999998212],[-0.2046875,0.5042592592592592,1.9180000000000064],[-0.2046875,0.5042592592592592,1.9289000000003682],[-0.15458333333333332,0.4412962962962962,1.945400000000376],[-0.15458333333333332,0.4412962962962962,1.9621000000005608],[-0.09093749999999995,0.3683333333333333,1.9834000000003726],[-0.09093749999999995,0.3683333333333333,1.9952999999998156],[-0.06208333333333336,0.2920370370370371,2.0120000000000005],[-0.07208333333333337,0.2594444444444445,2.0319999999999965],[-0.04083333333333338,0.18629629629629635,2.0486000000005617],[0.002916666666666619,0.1227777777777777,2.0632999999998134],[0.03166666666666664,0.07796296296296301,2.0787000000001825],[0.022812499999999975,0.06777777777777783,2.097799999999822],[0.06833333333333323,-0.01185185185185181,2.1119999999999948],[0.07062499999999995,-0.011481481481481566,2.129299999999816],[0.05656249999999995,-0.014259259259259343,2.145400000000379],[0.03833333333333329,-0.012222222222222264,2.16440000000037],[0.033958333333333354,0.01907407407407399,2.1787999999998107],[0.07072916666666676,-0.003703703703703704,2.1974000000003713],[0.009583333333333381,0.07370370370370362,2.2119000000003695],[-0.03343750000000002,0.12611111111111115,2.2311000000005663],[-0.06020833333333329,0.07666666666666662,2.2480000000000047],[-0.04739583333333333,0.005000000000000084,2.262100000000558],[-0.09447916666666671,0.014259259259259343,2.2786000000005657],[-0.09302083333333329,-0.045740740740740825,2.297600000000557],[-0.09822916666666662,-0.08462962962962961,2.3119999999999976],[-0.08354166666666671,-0.14351851851851852,2.3287000000001825],[-0.08354166666666671,-0.14351851851851852,2.34829999999981],[-0.0625,-0.21388888888888888,2.3621000000005665],[-0.06333333333333328,-0.27740740740740744,2.37860000000056],[-0.03781249999999995,-0.3520370370370371,2.3952000000001874],[-0.05270833333333336,-0.35648148148148145,2.4119000000003723],[-0.08510416666666672,-0.2953703703703704,2.4284999999999997],[-0.11749999999999995,-0.23425925925925925,2.445100000000565],[-0.11625000000000002,-0.2383333333333333,2.4619000000003695],[-0.10770833333333331,-0.24370370370370376,2.478499999999997],[-0.1688541666666667,-0.14907407407407408,2.4952999999998156],[-0.23083333333333336,-0.053703703703703705,2.511799999999809],[-0.31697916666666665,0.08444444444444449,2.530900000000372],[-0.3061458333333333,0.07981481481481485,2.5494999999999948],[-0.2984375,0.1205555555555556,2.5655],[-0.24802083333333336,0.06370370370370367,2.5827000000001874],[-0.23072916666666668,0.05351851851851848,2.59829999999981],[-0.19041666666666662,0.04222222222222214,2.613200000000191],[-0.16156250000000003,0.05388888888888893,2.6287999999998135],[-0.18406250000000005,0.10481481481481486,2.6497000000001805],[-0.10531250000000002,-0.014074074074074116,2.664500000000004],[-0.05541666666666671,-0.09166666666666666,2.678600000000557],[0.011770833333333286,-0.20055555555555557,2.6952999999998184],[0.008229166666666643,-0.16814814814814816,2.7139999999999986],[0.03854166666666667,-0.24314814814814817,2.7286000000005544],[0.06656249999999998,-0.29074074074074074,2.7464999999999975],[0.08406250000000005,-0.3485185185185185,2.7652999999998116],[0.11031250000000009,-0.38740740740740737,2.780299999999812],[0.10270833333333323,-0.4388888888888889,2.7954000000003703],[0.11875,-0.4859259259259259,2.811900000000378],[0.0953125,-0.4662962962962963,2.832299999999819],[0.15145833333333342,-0.5116666666666667,2.8479000000003794],[0.18218750000000009,-0.5603703703703704,2.8621000000005665],[0.2085416666666667,-0.6144444444444445,2.880799999999809],[0.2195833333333333,-0.5733333333333334,2.895400000000379],[0.2306250000000001,-0.5322222222222222,2.912000000000006],[0.2704166666666666,-0.51,2.928600000000557],[0.2664583333333333,-0.4746296296296296,2.9452000000001846],[0.2671875,-0.432962962962963,2.9619000000003695],[0.22625000000000003,-0.4359259259259259,2.9804000000003725],[0.19947916666666668,-0.4559259259259259,2.995100000000562],[0.090625,-0.39962962962962967,3.011799999999809],[0.019583333333333286,-0.3588888888888889,3.028500000000008],[-0.03187500000000002,-0.3175925925925926,3.0477999999998104],[-0.1310416666666666,-0.3198148148148148,3.062200000000189],[-0.1920833333333333,-0.3492592592592593,3.0785000000000053],[-0.2609375,-0.3418518518518519,3.0974999999999966],[-0.2700000000000001,-0.35537037037037034,3.1119999999999948],[-0.24989583333333332,-0.36259259259259263,3.128700000000194],[-0.18687499999999999,-0.3405555555555555,3.148600000000556],[-0.11687500000000005,-0.32833333333333337,3.1636000000005566],[-0.03239583333333336,-0.3551851851851852,3.178700000000191],[0.03291666666666669,-0.3844444444444445,3.1952999999998184],[0.08499999999999991,-0.4020370370370371,3.2150000000000034],[0.08499999999999991,-0.4020370370370371,3.228700000000188],[0.18458333333333338,-0.42314814814814816,3.245400000000373],[0.24479166666666666,-0.39759259259259255,3.264299999999821],[0.3054166666666667,-0.4087037037037037,3.279400000000379],[0.2738541666666668,-0.3618518518518518,3.2952999999998127],[0.24229166666666657,-0.31500000000000006,3.3119999999999976],[0.20114583333333325,-0.22611111111111115,3.333799999999812],[0.20114583333333325,-0.22611111111111115,3.3454000000003674],[0.12822916666666656,-0.1685185185185185,3.366500000000002],[0.12822916666666656,-0.1685185185185185,3.3785000000000025],[0.04656250000000005,-0.1257407407407407,3.3952000000001874],[-0.02510416666666669,-0.049629629629629544,3.4117999999998148],[-0.103125,0.014259259259259343,3.428600000000557],[-0.17354166666666668,0.025185185185185227,3.4479000000003737],[-0.24270833333333333,0.016666666666666666,3.4619000000003695],[-0.3266666666666667,0.06888888888888897,3.4786000000005544],[-0.3451041666666666,0.01796296296296305,3.4952000000001817],[-0.3788541666666667,0.03462962962962971,3.511799999999809],[-0.38729166666666665,-0.01592592592592597,3.5286000000005657],[-0.3866666666666667,-0.0001851851851852273,3.5486000000005617],[-0.36770833333333336,0.010370370370370412,3.564299999999818],[-0.35270833333333335,-0.007407407407407408,3.5785000000000053],[-0.33572916666666663,-0.022592592592592678,3.5952000000001902],[-0.33572916666666663,-0.022592592592592678,3.611900000000375],[-0.3485416666666667,-0.0025925925925925505,3.62860000000056],[-0.30791666666666667,-0.015000000000000043,3.6451000000005536],[-0.2789583333333333,0.0005555555555554713,3.6619000000003723],[-0.2711458333333333,0.05129629629629638,3.6784999999999997],[-0.2107291666666666,-0.014814814814814815,3.6952000000001846],[-0.16604166666666664,-0.055740740740740785,3.711799999999812],[-0.10572916666666667,-0.11407407407407412,3.728499999999997],[-0.05479166666666669,-0.15611111111111114,3.748400000000373],[0.008958333333333356,-0.17111111111111107,3.761799999999809],[0.06645833333333329,-0.18407407407407403,3.778500000000008],[0.13895833333333343,-0.21574074074074073,3.7951000000005592],[0.16062500000000005,-0.2037037037037037,3.816200000000194],[0.16062500000000005,-0.2037037037037037,3.828600000000563],[0.2107291666666666,-0.24259259259259258,3.8452000000001902],[0.2107291666666666,-0.24259259259259258,3.861900000000375],[0.24645833333333325,-0.2783333333333334,3.8812000000001916],[0.24645833333333325,-0.2783333333333334,3.8954999999999984],[0.22541666666666677,-0.24370370370370376,3.912000000000006],[0.1618750000000001,-0.18055555555555555,3.941200000000194],[0.1618750000000001,-0.18055555555555555,3.9482999999998185],[0.13729166666666662,-0.1905555555555555,3.9622000000001805],[0.13729166666666662,-0.1905555555555555,3.978700000000188],[0.1125,-0.19685185185185186,3.9997999999998086],[0.1125,-0.19685185185185186,4.0120000000000005],[0.11135416666666677,-0.21092592592592588,4.028799999999819],[0.11135416666666677,-0.21092592592592588,4.045299999999813],[0.07510416666666657,-0.18648148148148147,4.068100000000555],[0.07510416666666657,-0.18648148148148147,4.078600000000563],[0.10416666666666667,-0.19037037037037038,4.095400000000367],[0.10416666666666667,-0.19037037037037038,4.111900000000375],[0.13145833333333337,-0.20388888888888893,4.136200000000187],[0.13145833333333337,-0.20388888888888893,4.145299999999821],[0.1430208333333333,-0.2351851851851852,4.161799999999815],[0.1430208333333333,-0.2351851851851852,4.1785],[0.16895833333333338,-0.25629629629629624,4.195100000000565],[0.17156250000000003,-0.24611111111111106,4.211799999999812],[0.21729166666666658,-0.2640740740740741,4.232200000000191],[0.24333333333333323,-0.222037037037037,4.248299999999816],[0.2693749999999999,-0.17999999999999997,4.264499999999998],[0.2693749999999999,-0.17999999999999997,4.278500000000008],[0.2209374999999999,-0.1537037037037037,4.295100000000559],[0.18979166666666672,-0.15314814814814812,4.31179999999982],[0.15479166666666658,-0.14592592592592596,4.328600000000563],[0.1493750000000001,-0.16518518518518516,4.345100000000556],[0.09802083333333324,-0.12388888888888884,4.361900000000375],[0.04666666666666662,-0.09592592592592594,4.382600000000565],[0.09375,-0.1983333333333334,4.398400000000379],[0.13489583333333333,-0.31851851851851853,4.412200000000183],[0.13833333333333328,-0.4131481481481482,4.428600000000557],[0.14177083333333323,-0.5077777777777778,4.447000000000003],[0.17645833333333344,-0.5822222222222222,4.4619000000003695],[0.23322916666666677,-0.674074074074074,4.478600000000554],[0.23822916666666671,-0.7083333333333334,4.49629999999982],[0.21281249999999996,-0.7177777777777778,4.511799999999809],[0.24812500000000004,-0.7894444444444445,4.528500000000008],[0.2991666666666667,-0.8722222222222222,4.547700000000191],[0.2484375,-0.8353703703703704,4.562299999999809],[0.20302083333333343,-0.7811111111111111,4.5784000000003715],[0.1953125,-0.7694444444444445,4.595100000000556],[0.18947916666666675,-0.7518518518518519,4.6121000000005665],[0.19114583333333332,-0.7416666666666667,4.62860000000056],[0.1859375,-0.7201851851851852,4.6482000000001875],[0.17114583333333327,-0.7131481481481482,4.661900000000372],[0.1658333333333334,-0.7172222222222222,4.67840000000038],[0.15906250000000005,-0.702962962962963,4.695200000000185],[0.14770833333333327,-0.6774074074074075,4.7119000000003695],[0.18250000000000005,-0.6935185185185185,4.728499999999997],[0.21729166666666658,-0.7096296296296296,4.745100000000562],[0.22000000000000006,-0.7042592592592593,4.761799999999809],[0.23635416666666675,-0.7150000000000001,4.778500000000008],[0.2556250000000001,-0.7051851851851852,4.795100000000559],[0.28177083333333336,-0.7066666666666667,4.81179999999982],[0.3290625000000001,-0.7022222222222222,4.828600000000563],[0.36687500000000006,-0.6866666666666666,4.84820000000019],[0.3754166666666668,-0.6638888888888889,4.863799999999813],[0.3728125000000001,-0.6412962962962964,4.8785000000000025],[0.38729166666666665,-0.6233333333333334,4.895100000000554],[0.40895833333333326,-0.6261111111111112,4.911799999999815],[0.44979166666666665,-0.6124074074074074,4.9285],[0.45281250000000006,-0.5816666666666667,4.947500000000005],[0.4539583333333333,-0.5585185185185185,4.962000000000003],[0.45510416666666675,-0.5353703703703704,4.978499999999997],[0.4322916666666667,-0.5153703703703704,4.9952999999998156],[0.3931250000000001,-0.5096296296296297,5.011799999999809],[0.3832291666666668,-0.5111111111111111,5.028500000000008],[0.3787499999999999,-0.5081481481481481,5.04840000000037],[0.3455208333333334,-0.4742592592592593,5.063799999999816],[0.31145833333333334,-0.44222222222222224,5.078500000000005],[0.2711458333333333,-0.4257407407407407,5.095100000000556],[0.23489583333333333,-0.3888888888888889,5.111799999999818],[0.19760416666666672,-0.36500000000000005,5.1285000000000025],[0.11177083333333329,-0.28351851851851856,5.145100000000554],[0.028541666666666642,-0.2131481481481482,5.162000000000006],[-0.03833333333333329,-0.12851851851851848,5.1785],[-0.10260416666666666,-0.0242592592592593,5.195100000000565],[-0.18020833333333333,0.07759259259259255,5.211799999999812],[-0.21020833333333327,0.11851851851851852,5.228499999999997],[-0.24656250000000005,0.18203703703703694,5.245100000000562],[-0.29020833333333335,0.24888888888888885,5.261799999999809],[-0.315625,0.28851851851851845,5.282200000000188]]","[0.00020000000019138042,0.04070000000018581,0.06279999999981101,0.07010000000056493,0.09600000000000364,0.10379999999982203,0.13110000000055777,0.1414000000003739,0.16440000000037003,0.1712999999998175,0.19599999999999795,0.2039000000003739,0.2292999999998102,0.23799999999999955,0.26410000000055334,0.27220000000018274,0.29779999999981044,0.30540000000037537,0.3307999999998117,0.33920000000019,0.36270000000018854,0.36979999999981317,0.39610000000055834,0.4044000000003791,0.42929999999981305,0.43870000000018194,0.46429999999980964,0.47070000000019263,0.49610000000056687,0.5032999999998111,0.5292000000001877,0.5382999999998219,0.5627000000001914,0.5702000000001846,0.5977999999998218,0.6042000000001906,0.6315000000000026,0.6417000000001849,0.6642999999998125,0.6709000000003726,0.6976000000005627,0.7041000000005653,0.7292999999998102,0.7377000000001885,0.7674000000003787,0.7741000000005585,0.7977000000001908,0.8045000000000044,0.8339000000003693,0.8416000000005539,0.8642999999998153,0.8712999999998203,0.8961000000005583,0.9035000000000082,0.9351000000005598,0.942600000000553,0.964500000000001,0.972400000000377,1.0005000000000024,1.007600000000565,1.0314000000003745,1.041299999999822,1.0672999999998183,1.074299999999809,1.097700000000188,1.105000000000004,1.1354000000003737,1.143799999999814,1.1642999999998125,1.1712000000001836,1.195999999999998,1.2032000000001943,1.230900000000375,1.2407999999998083,1.245100000000562,1.2644000000003786,1.2960000000000065,1.3032000000001887,1.3294000000003763,1.3414999999999964,1.3642999999998153,1.3712999999998203,1.3961000000005583,1.4037999999998192,1.429299999999813,1.4387999999998158,1.4641000000005562,1.4707999999998123,1.4959999999999951,1.5032999999998111,1.5292999999998216,1.547299999999808,1.5657999999998111,1.5736000000005532,1.5979000000003794,1.6072999999998103,1.6366000000005556,1.644700000000185,1.6661000000005544,1.6741000000005641,1.7007999999998162,1.7092000000001946,1.716600000000554,1.75060000000056,1.757600000000565,1.7844999999999942,1.7914999999999992,1.8187999999998112,1.8269999999999982,1.8527000000001834,1.8624999999999972,1.87860000000056,1.8952999999998212,1.9180000000000064,1.9289000000003682,1.945400000000376,1.9621000000005608,1.9834000000003726,1.9952999999998156,2.0120000000000005,2.0319999999999965,2.0486000000005617,2.0632999999998134,2.0787000000001825,2.097799999999822,2.1119999999999948,2.129299999999816,2.145400000000379,2.16440000000037,2.1787999999998107,2.1974000000003713,2.2119000000003695,2.2311000000005663,2.2480000000000047,2.262100000000558,2.2786000000005657,2.297600000000557,2.3119999999999976,2.3287000000001825,2.34829999999981,2.3621000000005665,2.37860000000056,2.3952000000001874,2.4119000000003723,2.4284999999999997,2.445100000000565,2.4619000000003695,2.478499999999997,2.4952999999998156,2.511799999999809,2.530900000000372,2.5494999999999948,2.5655,2.5827000000001874,2.59829999999981,2.613200000000191,2.6287999999998135,2.6497000000001805,2.664500000000004,2.678600000000557,2.6952999999998184,2.7139999999999986,2.7286000000005544,2.7464999999999975,2.7652999999998116,2.780299999999812,2.7954000000003703,2.811900000000378,2.832299999999819,2.8479000000003794,2.8621000000005665,2.880799999999809,2.895400000000379,2.912000000000006,2.928600000000557,2.9452000000001846,2.9619000000003695,2.9804000000003725,2.995100000000562,3.011799999999809,3.028500000000008,3.0477999999998104,3.062200000000189,3.0785000000000053,3.0974999999999966,3.1119999999999948,3.128700000000194,3.148600000000556,3.1636000000005566,3.178700000000191,3.1952999999998184,3.2150000000000034,3.228700000000188,3.245400000000373,3.264299999999821,3.279400000000379,3.2952999999998127,3.3119999999999976,3.333799999999812,3.3454000000003674,3.366500000000002,3.3785000000000025,3.3952000000001874,3.4117999999998148,3.428600000000557,3.4479000000003737,3.4619000000003695,3.4786000000005544,3.4952000000001817,3.511799999999809,3.5286000000005657,3.5486000000005617,3.564299999999818,3.5785000000000053,3.5952000000001902,3.611900000000375,3.62860000000056,3.6451000000005536,3.6619000000003723,3.6784999999999997,3.6952000000001846,3.711799999999812,3.728499999999997,3.748400000000373,3.761799999999809,3.778500000000008,3.7951000000005592,3.816200000000194,3.828600000000563,3.8452000000001902,3.861900000000375,3.8812000000001916,3.8954999999999984,3.912000000000006,3.941200000000194,3.9482999999998185,3.9622000000001805,3.978700000000188,3.9997999999998086,4.0120000000000005,4.028799999999819,4.045299999999813,4.068100000000555,4.078600000000563,4.095400000000367,4.111900000000375,4.136200000000187,4.145299999999821,4.161799999999815,4.1785,4.195100000000565,4.211799999999812,4.232200000000191,4.248299999999816,4.264499999999998,4.278500000000008,4.295100000000559,4.31179999999982,4.328600000000563,4.345100000000556,4.361900000000375,4.382600000000565,4.398400000000379,4.412200000000183,4.428600000000557,4.447000000000003,4.4619000000003695,4.478600000000554,4.49629999999982,4.511799999999809,4.528500000000008,4.547700000000191,4.562299999999809,4.5784000000003715,4.595100000000556,4.6121000000005665,4.62860000000056,4.6482000000001875,4.661900000000372,4.67840000000038,4.695200000000185,4.7119000000003695,4.728499999999997,4.745100000000562,4.761799999999809,4.778500000000008,4.795100000000559,4.81179999999982,4.828600000000563,4.84820000000019,4.863799999999813,4.8785000000000025,4.895100000000554,4.911799999999815,4.9285,4.947500000000005,4.962000000000003,4.978499999999997,4.9952999999998156,5.011799999999809,5.028500000000008,5.04840000000037,5.063799999999816,5.078500000000005,5.095100000000556,5.111799999999818,5.1285000000000025,5.145100000000554,5.162000000000006,5.1785,5.195100000000565,5.211799999999812,5.228499999999997,5.245100000000562,5.261799999999809,5.282200000000188]","[1733115818770,1733115818803,1733115818825,1733115818832,1733115818858,1733115818866,1733115818893,1733115818904,1733115818927,1733115818934,1733115818958,1733115818966,1733115818992,1733115819000,1733115819026,1733115819034,1733115819060,1733115819068,1733115819093,1733115819101,1733115819125,1733115819132,1733115819158,1733115819167,1733115819192,1733115819201,1733115819227,1733115819233,1733115819258,1733115819266,1733115819292,1733115819301,1733115819325,1733115819333,1733115819360,1733115819366,1733115819394,1733115819404,1733115819427,1733115819433,1733115819460,1733115819466,1733115819492,1733115819500,1733115819530,1733115819536,1733115819560,1733115819567,1733115819596,1733115819604,1733115819627,1733115819634,1733115819658,1733115819666,1733115819697,1733115819705,1733115819727,1733115819735,1733115819763,1733115819770,1733115819794,1733115819804,1733115819829,1733115819836,1733115819860,1733115819867,1733115819898,1733115819906,1733115819927,1733115819933,1733115819958,1733115819966,1733115819993,1733115820003,1733115820007,1733115820027,1733115820058,1733115820065,1733115820092,1733115820104,1733115820127,1733115820134,1733115820158,1733115820166,1733115820192,1733115820201,1733115820226,1733115820233,1733115820258,1733115820266,1733115820292,1733115820310,1733115820328,1733115820336,1733115820360,1733115820370,1733115820399,1733115820407,1733115820428,1733115820436,1733115820463,1733115820471,1733115820479,1733115820513,1733115820520,1733115820547,1733115820554,1733115820581,1733115820589,1733115820615,1733115820625,1733115820641,1733115820658,1733115820680,1733115820691,1733115820708,1733115820724,1733115820746,1733115820758,1733115820774,1733115820794,1733115820811,1733115820826,1733115820841,1733115820860,1733115820874,1733115820892,1733115820908,1733115820927,1733115820941,1733115820960,1733115820974,1733115820993,1733115821010,1733115821024,1733115821041,1733115821060,1733115821074,1733115821091,1733115821111,1733115821124,1733115821141,1733115821157,1733115821174,1733115821191,1733115821207,1733115821224,1733115821241,1733115821257,1733115821274,1733115821293,1733115821312,1733115821328,1733115821345,1733115821360,1733115821375,1733115821391,1733115821412,1733115821427,1733115821441,1733115821458,1733115821476,1733115821491,1733115821509,1733115821528,1733115821543,1733115821558,1733115821574,1733115821595,1733115821610,1733115821624,1733115821643,1733115821658,1733115821674,1733115821691,1733115821707,1733115821724,1733115821743,1733115821757,1733115821774,1733115821791,1733115821810,1733115821824,1733115821841,1733115821860,1733115821874,1733115821891,1733115821911,1733115821926,1733115821941,1733115821958,1733115821977,1733115821991,1733115822008,1733115822027,1733115822042,1733115822058,1733115822074,1733115822096,1733115822108,1733115822129,1733115822141,1733115822157,1733115822174,1733115822191,1733115822210,1733115822224,1733115822241,1733115822257,1733115822274,1733115822291,1733115822311,1733115822327,1733115822341,1733115822357,1733115822374,1733115822391,1733115822407,1733115822424,1733115822441,1733115822457,1733115822474,1733115822491,1733115822511,1733115822524,1733115822541,1733115822557,1733115822579,1733115822591,1733115822607,1733115822624,1733115822644,1733115822658,1733115822674,1733115822704,1733115822711,1733115822724,1733115822741,1733115822762,1733115822774,1733115822791,1733115822808,1733115822830,1733115822841,1733115822858,1733115822874,1733115822898,1733115822908,1733115822924,1733115822941,1733115822957,1733115822974,1733115822994,1733115823011,1733115823027,1733115823041,1733115823057,1733115823074,1733115823091,1733115823107,1733115823124,1733115823145,1733115823161,1733115823174,1733115823191,1733115823209,1733115823224,1733115823241,1733115823259,1733115823274,1733115823291,1733115823310,1733115823325,1733115823341,1733115823357,1733115823374,1733115823391,1733115823410,1733115823424,1733115823441,1733115823457,1733115823474,1733115823491,1733115823507,1733115823524,1733115823541,1733115823557,1733115823574,1733115823591,1733115823611,1733115823626,1733115823641,1733115823657,1733115823674,1733115823691,1733115823710,1733115823724,1733115823741,1733115823758,1733115823774,1733115823791,1733115823811,1733115823826,1733115823841,1733115823857,1733115823874,1733115823891,1733115823907,1733115823924,1733115823941,1733115823957,1733115823974,1733115823991,1733115824007,1733115824024,1733115824044]","[[623.2,839.3],[623.2,839.3],[581,835.3],[581,835.3],[544,828],[544,828],[508.8,820.3],[508.8,820.3],[466.5,825.5],[466.5,825.5],[404.9,820.4],[404.9,820.4],[376,820.9],[376,820.9],[334.2,835.7],[334.2,835.7],[297.2,853.4],[297.2,853.4],[268.2,824.9],[268.2,824.9],[225.6,818.8],[225.6,818.8],[197.1,815.5],[197.1,815.5],[182.7,811.2],[182.7,811.2],[172.9,785.2],[172.9,785.2],[181.5,769.4],[181.5,769.4],[221.1,759.7],[221.1,759.7],[242.9,748],[242.9,748],[267.2,729.8],[267.2,729.8],[270.3,733.7],[270.3,733.7],[276.9,748.3],[276.9,748.3],[307,754.2],[307,754.2],[336.3,762.4],[336.3,762.4],[361.5,771.6],[361.5,771.6],[370.8,780.3],[370.8,780.3],[349.6,781.1],[349.6,781.1],[380,782.7],[380,782.7],[403.6,786],[403.6,786],[451.4,786.5],[451.4,786.5],[504.5,775],[504.5,775],[546.7,752.3],[546.7,752.3],[585,743],[585,743],[624.8,731.4],[624.8,731.4],[679.5,722.1],[679.5,722.1],[733.7,733.7],[733.7,733.7],[818.6,720],[818.6,720],[811.2,723.1],[811.2,723.1],[787.1,746.3],[787.1,746.3],[787.1,746.3],[787.1,746.3],[734.1,759.2],[734.1,759.2],[692.9,764.9],[692.9,764.9],[667.1,790.1],[667.1,790.1],[634.9,804.7],[634.9,804.7],[596.4,812],[596.4,812],[551.2,822.4],[551.2,822.4],[491.1,835.2],[491.1,835.2],[411.8,873],[411.8,873],[361.5,897.4],[361.5,897.4],[375.8,899],[375.8,899],[394.1,911.8],[394.1,911.8],[432.3,904.8],[432.3,904.8],[468.4,904.7],[468.4,904.7],[468.4,904.7],[512.6,899.9],[512.6,899.9],[523.2,909.3],[523.2,909.3],[566.4,893.9],[566.4,893.9],[630.8,866.5],[630.8,866.5],[690.5,849.6],[690.5,849.6],[763.5,812.3],[763.5,812.3],[811.6,778.3],[811.6,778.3],[872.7,738.9],[872.7,738.9],[900.4,697.7],[890.8,680.1],[920.8,640.6],[962.8,606.3],[990.4,582.1],[981.9,576.6],[1025.6,533.6],[1027.8,533.8],[1014.3,532.3],[996.8,533.4],[992.6,550.3],[1027.9,538],[969.2,579.8],[927.9,608.1],[902.2,581.4],[914.5,542.7],[869.3,547.7],[870.7,515.3],[865.7,494.3],[879.8,462.5],[879.8,462.5],[900,424.5],[899.2,390.2],[923.7,349.9],[909.4,347.5],[878.3,380.5],[847.2,413.5],[848.4,411.3],[856.6,408.4],[797.9,459.5],[738.4,511],[655.7,585.6],[666.1,583.1],[673.5,605.1],[721.9,574.4],[738.5,568.9],[777.2,562.8],[804.9,569.1],[783.3,596.6],[858.9,532.4],[906.8,490.5],[971.3,431.7],[967.9,449.2],[997,408.7],[1023.9,383],[1040.7,351.8],[1065.9,330.8],[1058.6,303],[1074,277.6],[1051.5,288.2],[1105.4,263.7],[1134.9,237.4],[1160.2,208.2],[1170.8,230.4],[1181.4,252.6],[1219.6,264.6],[1215.8,283.7],[1216.5,306.2],[1177.2,304.6],[1151.5,293.8],[1047,324.2],[978.8,346.2],[929.4,368.5],[834.2,367.3],[775.6,351.4],[709.5,355.4],[700.8,348.1],[720.1,344.2],[780.6,356.1],[847.8,362.7],[928.9,348.2],[991.6,332.4],[1041.6,322.9],[1041.6,322.9],[1137.2,311.5],[1195,325.3],[1253.2,319.3],[1222.9,344.6],[1192.6,369.9],[1153.1,417.9],[1153.1,417.9],[1083.1,449],[1083.1,449],[1004.7,472.1],[935.9,513.2],[861,547.7],[793.4,553.6],[727,549],[646.4,577.2],[628.7,549.7],[596.3,558.7],[588.2,531.4],[588.8,539.9],[607,545.6],[621.4,536],[637.7,527.8],[637.7,527.8],[625.4,538.6],[664.4,531.9],[692.2,540.3],[699.7,567.7],[757.7,532],[800.6,509.9],[858.5,478.4],[907.4,455.7],[968.6,447.6],[1023.8,440.6],[1093.4,423.5],[1114.2,430],[1114.2,430],[1162.3,409],[1162.3,409],[1196.6,389.7],[1196.6,389.7],[1176.4,408.4],[1115.4,442.5],[1115.4,442.5],[1091.8,437.1],[1091.8,437.1],[1068,433.7],[1068,433.7],[1066.9,426.1],[1066.9,426.1],[1032.1,439.3],[1032.1,439.3],[1060,437.2],[1060,437.2],[1086.2,429.9],[1086.2,429.9],[1097.3,413],[1097.3,413],[1122.2,401.6],[1124.7,407.1],[1168.6,397.4],[1193.6,420.1],[1218.6,442.8],[1218.6,442.8],[1172.1,457],[1142.2,457.3],[1108.6,461.2],[1103.4,450.8],[1054.1,473.1],[1004.8,488.2],[1050,432.9],[1089.5,368],[1092.8,316.9],[1096.1,265.8],[1129.4,225.6],[1183.9,176],[1188.7,157.5],[1164.3,152.4],[1198.2,113.7],[1247.2,69],[1198.5,88.9],[1154.9,118.2],[1147.5,124.5],[1141.9,134],[1143.5,139.5],[1138.5,151.1],[1124.3,154.9],[1119.2,152.7],[1112.7,160.4],[1101.8,174.2],[1135.2,165.5],[1168.6,156.8],[1171.2,159.7],[1186.9,153.9],[1205.4,159.2],[1230.5,158.4],[1275.9,160.8],[1312.2,169.2],[1320.4,181.5],[1317.9,193.7],[1331.8,203.4],[1352.6,201.9],[1391.8,209.3],[1394.7,225.9],[1395.8,238.4],[1396.9,250.9],[1375,261.7],[1337.4,264.8],[1327.9,264],[1323.6,265.6],[1291.7,283.9],[1259,301.2],[1220.3,310.1],[1185.5,330],[1149.7,342.9],[1067.3,386.9],[987.4,424.9],[923.2,470.6],[861.5,526.9],[787,581.9],[758.2,604],[723.3,638.3],[681.4,674.4],[657,695.8]]","[0,0.5333]","[0.5333,0.5333]","[-0.5333,0]","[-0.5333,-0.5333]","[0,0]","[0.5333,0]","[0,-0.5333]","[0.5333,-0.5333]",0,0,0,0,1,4,Monitor,11,5,13,9
