inst1_resp.keys,inst1_resp.rt,calibrationMouse.x,calibrationMouse.y,calibrationMouse.leftButton,calibrationMouse.midButton,calibrationMouse.rightButton,calibrationClick.x,calibrationClick.y,calibrationClick.leftButton,calibrationClick.midButton,calibrationClick.rightButton,calibrationClick.clicked_name,trialsc.thisRepN,trialsc.thisTrialN,trialsc.thisN,trialsc.thisIndex,trialsc.ran,calibration_x,calibration_y,participant,session,date,expName,psychopyVersion,OS,frameRate,ScreenRes_pixels,mouse_2.x,mouse_2.y,mouse_2.leftButton,mouse_2.midButton,mouse_2.rightButton,mouse_2.time,mouse_2.clicked_name,Camera_pixels,mouse.x,mouse.y,mouse.leftButton,mouse.midButton,mouse.rightButton,mouse.time,mouse.clicked_name,Choice,Trial,TrialDuration,MOUSE_GAZE,ET_GAZE,ET_GAZE_x_T,time,unixTime,ET_GAZE_NF,Loc_Option1_label,Loc_Option2_label,Loc_Cost_label,Loc_Qual_label,Loc_Option1_cost,Loc_Option2_cost,Loc_Option1_quality,Loc_Option2_quality,trials.thisRepN,trials.thisTrialN,trials.thisN,trials.thisIndex,trials.ran,Block,Device,cost1,qual1,cost2,qual2
space,2.301,0.070833333,-0.403703704,1,0,0,-0.005208333,0.664814815,1,0,0,calibration_square,0,0,0,13,1,0,0.67,20,001,2024-12-02_17h03.46.086,Attention_exp_legacy,2023.1.0,Win32,60.24096386,,,,,,,,,,,,,,,,,,,,,,,,,,,,,,,,,,,,,,,,,,,,
,,,,,,,-0.666666667,-0.724074074,1,0,0,,0,1,1,0,1,-0.67,-0.67,20,001,2024-12-02_17h03.46.086,Attention_exp_legacy,2023.1.0,Win32,60.24096386,,,,,,,,,,,,,,,,,,,,,,,,,,,,,,,,,,,,,,,,,,,,
,,,,,,,-0.322916667,0.32037037,1,0,0,calibration_square,0,2,2,7,1,-0.33,0.33,20,001,2024-12-02_17h03.46.086,Attention_exp_legacy,2023.1.0,Win32,60.24096386,,,,,,,,,,,,,,,,,,,,,,,,,,,,,,,,,,,,,,,,,,,,
,,,,,,,0.326041667,-0.32037037,1,0,0,calibration_square,0,3,3,15,1,0.33,-0.33,20,001,2024-12-02_17h03.46.086,Attention_exp_legacy,2023.1.0,Win32,60.24096386,,,,,,,,,,,,,,,,,,,,,,,,,,,,,,,,,,,,,,,,,,,,
,,,,,,,-0.692708333,-0.344444444,1,0,0,,0,4,4,1,1,-0.67,-0.33,20,001,2024-12-02_17h03.46.086,Attention_exp_legacy,2023.1.0,Win32,60.24096386,,,,,,,,,,,,,,,,,,,,,,,,,,,,,,,,,,,,,,,,,,,,
,,,,,,,-0.638541667,0.327777778,1,0,0,,0,5,5,3,1,-0.67,0.33,20,001,2024-12-02_17h03.46.086,Attention_exp_legacy,2023.1.0,Win32,60.24096386,,,,,,,,,,,,,,,,,,,,,,,,,,,,,,,,,,,,,,,,,,,,
,,,,,,,0.688541667,0.661111111,1,0,0,,0,6,6,19,1,0.67,0.67,20,001,2024-12-02_17h03.46.086,Attention_exp_legacy,2023.1.0,Win32,60.24096386,,,,,,,,,,,,,,,,,,,,,,,,,,,,,,,,,,,,,,,,,,,,
,,,,,,,-0.315625,-0.672222222,1,0,0,,0,7,7,4,1,-0.33,-0.67,20,001,2024-12-02_17h03.46.086,Attention_exp_legacy,2023.1.0,Win32,60.24096386,,,,,,,,,,,,,,,,,,,,,,,,,,,,,,,,,,,,,,,,,,,,
,,,,,,,0.335416667,-0.009259259,1,0,0,calibration_square,0,8,8,16,1,0.33,0,20,001,2024-12-02_17h03.46.086,Attention_exp_legacy,2023.1.0,Win32,60.24096386,,,,,,,,,,,,,,,,,,,,,,,,,,,,,,,,,,,,,,,,,,,,
,,,,,,,0.015625,0.307407407,1,0,0,,0,9,9,12,1,0,0.33,20,001,2024-12-02_17h03.46.086,Attention_exp_legacy,2023.1.0,Win32,60.24096386,,,,,,,,,,,,,,,,,,,,,,,,,,,,,,,,,,,,,,,,,,,,
,,,,,,,0.009375,0.016666667,1,0,0,,0,10,10,11,1,0,0,20,001,2024-12-02_17h03.46.086,Attention_exp_legacy,2023.1.0,Win32,60.24096386,,,,,,,,,,,,,,,,,,,,,,,,,,,,,,,,,,,,,,,,,,,,
,,,,,,,0.290625,0.312962963,1,0,0,,0,11,11,17,1,0.33,0.33,20,001,2024-12-02_17h03.46.086,Attention_exp_legacy,2023.1.0,Win32,60.24096386,,,,,,,,,,,,,,,,,,,,,,,,,,,,,,,,,,,,,,,,,,,,
,,,,,,,-0.376041667,-0.296296296,1,0,0,,0,12,12,5,1,-0.33,-0.33,20,001,2024-12-02_17h03.46.086,Attention_exp_legacy,2023.1.0,Win32,60.24096386,,,,,,,,,,,,,,,,,,,,,,,,,,,,,,,,,,,,,,,,,,,,
,,,,,,,0.638541667,-0.646296296,1,0,0,,0,13,13,20,1,0.67,-0.67,20,001,2024-12-02_17h03.46.086,Attention_exp_legacy,2023.1.0,Win32,60.24096386,,,,,,,,,,,,,,,,,,,,,,,,,,,,,,,,,,,,,,,,,,,,
,,,,,,,0.305208333,-0.664814815,1,0,0,,0,14,14,14,1,0.33,-0.67,20,001,2024-12-02_17h03.46.086,Attention_exp_legacy,2023.1.0,Win32,60.24096386,,,,,,,,,,,,,,,,,,,,,,,,,,,,,,,,,,,,,,,,,,,,
,,,,,,,-0.647916667,0.022222222,1,0,0,,0,15,15,2,1,-0.67,0,20,001,2024-12-02_17h03.46.086,Attention_exp_legacy,2023.1.0,Win32,60.24096386,,,,,,,,,,,,,,,,,,,,,,,,,,,,,,,,,,,,,,,,,,,,
,,,,,,,0.008333333,-0.672222222,1,0,0,calibration_square,0,16,16,9,1,0,-0.67,20,001,2024-12-02_17h03.46.086,Attention_exp_legacy,2023.1.0,Win32,60.24096386,,,,,,,,,,,,,,,,,,,,,,,,,,,,,,,,,,,,,,,,,,,,
,,,,,,,0.017708333,-0.353703704,1,0,0,,0,17,17,10,1,0,-0.33,20,001,2024-12-02_17h03.46.086,Attention_exp_legacy,2023.1.0,Win32,60.24096386,,,,,,,,,,,,,,,,,,,,,,,,,,,,,,,,,,,,,,,,,,,,
,,,,,,,0.359375,0.67962963,1,0,0,,0,18,18,18,1,0.33,0.67,20,001,2024-12-02_17h03.46.086,Attention_exp_legacy,2023.1.0,Win32,60.24096386,,,,,,,,,,,,,,,,,,,,,,,,,,,,,,,,,,,,,,,,,,,,
,,,,,,,-0.325,0.683333333,1,0,0,,0,19,19,8,1,-0.33,0.67,20,001,2024-12-02_17h03.46.086,Attention_exp_legacy,2023.1.0,Win32,60.24096386,,,,,,,,,,,,,,,,,,,,,,,,,,,,,,,,,,,,,,,,,,,,
,,,,,,,-0.346875,0.011111111,1,0,0,,0,20,20,6,1,-0.33,0,20,001,2024-12-02_17h03.46.086,Attention_exp_legacy,2023.1.0,Win32,60.24096386,,,,,,,,,,,,,,,,,,,,,,,,,,,,,,,,,,,,,,,,,,,,
,,,,,,,,,,,,,,,,,,,,20,001,2024-12-02_17h03.46.086,Attention_exp_legacy,2023.1.0,Win32,60.24096386,"[1920,1080]",[0.06354166666666666],[-0.49074074074074076],[1],[0],[0],[0.9177000000029736],"[""StartButton""]","[640,480]",[0.16145833333333334],[0.13333333333333333],[1],[0],[0],[7.322499999999998],"[""Option2_label""]",Option2_label,1,8.3453,"[[0.005208333333333333,0.32407407407407407],[0.005208333333333333,0.32407407407407407],[0.005208333333333333,0.32407407407407407],[0.005208333333333333,0.32407407407407407],[0.005208333333333333,0.32407407407407407],[0.005208333333333333,0.32407407407407407],[0.005208333333333333,0.32407407407407407],[0.005208333333333333,0.32407407407407407],[0.005208333333333333,0.32407407407407407],[0.005208333333333333,0.32407407407407407],[0.005208333333333333,0.32407407407407407],[0.005208333333333333,0.32407407407407407],[0.005208333333333333,0.32407407407407407],[0.005208333333333333,0.32407407407407407],[0.005208333333333333,0.32407407407407407],[0.005208333333333333,0.32407407407407407],[0.005208333333333333,0.32407407407407407],[0.005208333333333333,0.32407407407407407],[0.005208333333333333,0.32407407407407407],[0.005208333333333333,0.32407407407407407],[0.005208333333333333,0.32407407407407407],[0.005208333333333333,0.32407407407407407],[0.005208333333333333,0.32407407407407407],[0.005208333333333333,0.32407407407407407],[0.005208333333333333,0.32407407407407407],[0.005208333333333333,0.32407407407407407],[0.005208333333333333,0.32407407407407407],[0.005208333333333333,0.32407407407407407],[0.005208333333333333,0.32407407407407407],[0.005208333333333333,0.32407407407407407],[0.005208333333333333,0.32407407407407407],[0.005208333333333333,0.32407407407407407],[0.005208333333333333,0.32407407407407407],[0.005208333333333333,0.32407407407407407],[0.005208333333333333,0.32407407407407407],[0.005208333333333333,0.32407407407407407],[0.005208333333333333,0.32407407407407407],[0.005208333333333333,0.32407407407407407],[0.005208333333333333,0.32407407407407407],[0.005208333333333333,0.32592592592592595],[0.005208333333333333,0.32592592592592595],[0.005208333333333333,0.32592592592592595],[0.005208333333333333,0.32592592592592595],[0.005208333333333333,0.32592592592592595],[0.005208333333333333,0.3277777777777778],[0.005208333333333333,0.3277777777777778],[0.005208333333333333,0.3277777777777778],[0.005208333333333333,0.3314814814814815],[0.005208333333333333,0.3314814814814815],[0.004166666666666667,0.3314814814814815],[0.0020833333333333333,0.3333333333333333],[0.0020833333333333333,0.3333333333333333],[0.0020833333333333333,0.3333333333333333],[0.0020833333333333333,0.3333333333333333],[0.0020833333333333333,0.3333333333333333],[0.0020833333333333333,0.3314814814814815],[0.0020833333333333333,0.3277777777777778],[0.0020833333333333333,0.3277777777777778],[0.0020833333333333333,0.32592592592592595],[0.0020833333333333333,0.32407407407407407],[0.0020833333333333333,0.32407407407407407],[0.0020833333333333333,0.32407407407407407],[0.0020833333333333333,0.32407407407407407],[0.0020833333333333333,0.32407407407407407],[0.0020833333333333333,0.32407407407407407],[0.0020833333333333333,0.32407407407407407],[0.0020833333333333333,0.32407407407407407],[0.0020833333333333333,0.32407407407407407],[0.0020833333333333333,0.32407407407407407],[0.0020833333333333333,0.32407407407407407],[0.0020833333333333333,0.32407407407407407],[0.0020833333333333333,0.32407407407407407],[0.0020833333333333333,0.32407407407407407],[0.0020833333333333333,0.32407407407407407],[0.0020833333333333333,0.32407407407407407],[0.0020833333333333333,0.32407407407407407],[0.0020833333333333333,0.32407407407407407],[0.0020833333333333333,0.32407407407407407],[0.0020833333333333333,0.32407407407407407],[0.0020833333333333333,0.32407407407407407],[0.0020833333333333333,0.32407407407407407],[0.0020833333333333333,0.32222222222222224],[0.0020833333333333333,0.32037037037037036],[0.005208333333333333,0.31666666666666665],[0.00625,0.31666666666666665],[0.011458333333333333,0.3148148148148148],[0.020833333333333332,0.3111111111111111],[0.023958333333333335,0.3111111111111111],[0.03125,0.30925925925925923],[0.03333333333333333,0.30925925925925923],[0.03333333333333333,0.30925925925925923],[0.03333333333333333,0.30925925925925923],[0.03333333333333333,0.30925925925925923],[0.03333333333333333,0.30925925925925923],[0.03333333333333333,0.30925925925925923],[0.03333333333333333,0.30925925925925923],[0.03333333333333333,0.30925925925925923],[0.03333333333333333,0.30925925925925923],[0.03333333333333333,0.30925925925925923],[0.03333333333333333,0.30925925925925923],[0.03333333333333333,0.30925925925925923],[0.03333333333333333,0.30925925925925923],[0.03333333333333333,0.30925925925925923],[0.03333333333333333,0.30925925925925923],[0.03333333333333333,0.30925925925925923],[0.03333333333333333,0.3074074074074074],[0.03125,0.31296296296296294],[0.03333333333333333,0.3148148148148148],[0.03333333333333333,0.3055555555555556],[0.03333333333333333,0.3037037037037037],[0.034375,0.3037037037037037],[0.034375,0.30185185185185187],[0.034375,0.30185185185185187],[0.03333333333333333,0.3],[0.03333333333333333,0.3],[0.03333333333333333,0.3],[0.03333333333333333,0.3],[0.03333333333333333,0.3],[0.03333333333333333,0.3],[0.03333333333333333,0.3],[0.03333333333333333,0.3],[0.03229166666666667,0.29814814814814816],[0.03229166666666667,0.29814814814814816],[0.030208333333333334,0.29814814814814816],[0.029166666666666667,0.29814814814814816],[0.029166666666666667,0.2962962962962963],[0.029166666666666667,0.2962962962962963],[0.029166666666666667,0.2962962962962963],[0.029166666666666667,0.2962962962962963],[0.029166666666666667,0.2962962962962963],[0.029166666666666667,0.2962962962962963],[0.029166666666666667,0.2962962962962963],[0.029166666666666667,0.2962962962962963],[0.029166666666666667,0.2962962962962963],[0.029166666666666667,0.2962962962962963],[0.029166666666666667,0.2962962962962963],[0.029166666666666667,0.2962962962962963],[0.029166666666666667,0.2962962962962963],[0.029166666666666667,0.2962962962962963],[0.029166666666666667,0.2962962962962963],[0.029166666666666667,0.2962962962962963],[0.029166666666666667,0.2962962962962963],[0.028125,0.29444444444444445],[0.028125,0.29444444444444445],[0.028125,0.29444444444444445],[0.028125,0.29444444444444445],[0.028125,0.29444444444444445],[0.028125,0.29444444444444445],[0.028125,0.29444444444444445],[0.028125,0.29444444444444445],[0.028125,0.29444444444444445],[0.028125,0.29444444444444445],[0.028125,0.29259259259259257],[0.028125,0.29259259259259257],[0.028125,0.29259259259259257],[0.028125,0.29074074074074074],[0.028125,0.29074074074074074],[0.029166666666666667,0.28888888888888886],[0.030208333333333334,0.28703703703703703],[0.030208333333333334,0.28703703703703703],[0.03229166666666667,0.28703703703703703],[0.036458333333333336,0.28703703703703703],[0.03854166666666667,0.28703703703703703],[0.040625,0.28703703703703703],[0.041666666666666664,0.28703703703703703],[0.04375,0.28703703703703703],[0.04479166666666667,0.28703703703703703],[0.04583333333333333,0.28703703703703703],[0.046875,0.28703703703703703],[0.04791666666666667,0.28888888888888886],[0.05,0.29074074074074074],[0.05,0.29074074074074074],[0.051041666666666666,0.29259259259259257],[0.051041666666666666,0.29259259259259257],[0.051041666666666666,0.29259259259259257],[0.051041666666666666,0.29259259259259257],[0.051041666666666666,0.29259259259259257],[0.051041666666666666,0.29259259259259257],[0.051041666666666666,0.29259259259259257],[0.051041666666666666,0.29259259259259257],[0.051041666666666666,0.29259259259259257],[0.051041666666666666,0.29259259259259257],[0.051041666666666666,0.29259259259259257],[0.051041666666666666,0.29259259259259257],[0.051041666666666666,0.2833333333333333],[0.051041666666666666,0.2611111111111111],[0.052083333333333336,0.2537037037037037],[0.053125,0.2462962962962963],[0.05416666666666667,0.24074074074074073],[0.057291666666666664,0.2351851851851852],[0.06041666666666667,0.2351851851851852],[0.065625,0.2351851851851852],[0.07604166666666666,0.2351851851851852],[0.08541666666666667,0.2351851851851852],[0.08645833333333333,0.2351851851851852],[0.090625,0.2351851851851852],[0.09270833333333334,0.2351851851851852],[0.09270833333333334,0.2351851851851852],[0.09270833333333334,0.2351851851851852],[0.09270833333333334,0.2351851851851852],[0.09270833333333334,0.2351851851851852],[0.09270833333333334,0.2351851851851852],[0.09270833333333334,0.2351851851851852],[0.09270833333333334,0.2351851851851852],[0.09270833333333334,0.2351851851851852],[0.09270833333333334,0.2351851851851852],[0.09270833333333334,0.2351851851851852],[0.09270833333333334,0.2351851851851852],[0.09270833333333334,0.2351851851851852],[0.09270833333333334,0.2351851851851852],[0.09270833333333334,0.2351851851851852],[0.09270833333333334,0.2351851851851852],[0.09270833333333334,0.2351851851851852],[0.09270833333333334,0.2351851851851852],[0.09270833333333334,0.2351851851851852],[0.09270833333333334,0.2351851851851852],[0.09270833333333334,0.2351851851851852],[0.09270833333333334,0.2351851851851852],[0.09270833333333334,0.2351851851851852],[0.09270833333333334,0.2351851851851852],[0.09270833333333334,0.2351851851851852],[0.09270833333333334,0.2351851851851852],[0.09270833333333334,0.2351851851851852],[0.09270833333333334,0.2351851851851852],[0.09270833333333334,0.2351851851851852],[0.09270833333333334,0.2351851851851852],[0.09270833333333334,0.2351851851851852],[0.09270833333333334,0.2351851851851852],[0.09270833333333334,0.2351851851851852],[0.096875,0.23333333333333334],[0.09791666666666667,0.22962962962962963],[0.09791666666666667,0.22962962962962963],[0.09791666666666667,0.22962962962962963],[0.09791666666666667,0.22777777777777777],[0.09791666666666667,0.22777777777777777],[0.09791666666666667,0.22777777777777777],[0.09791666666666667,0.22777777777777777],[0.09791666666666667,0.22777777777777777],[0.09791666666666667,0.22777777777777777],[0.09791666666666667,0.22777777777777777],[0.09791666666666667,0.22777777777777777],[0.09791666666666667,0.22777777777777777],[0.09791666666666667,0.22777777777777777],[0.09791666666666667,0.22777777777777777],[0.09791666666666667,0.22777777777777777],[0.09791666666666667,0.22777777777777777],[0.09791666666666667,0.22777777777777777],[0.09791666666666667,0.22777777777777777],[0.09791666666666667,0.22777777777777777],[0.09791666666666667,0.22777777777777777],[0.09791666666666667,0.22777777777777777],[0.09791666666666667,0.22777777777777777],[0.09791666666666667,0.22777777777777777],[0.096875,0.22777777777777777],[0.096875,0.22777777777777777],[0.09479166666666666,0.22777777777777777],[0.09479166666666666,0.22777777777777777],[0.09270833333333334,0.22777777777777777],[0.09270833333333334,0.22777777777777777],[0.090625,0.22592592592592592],[0.08958333333333333,0.22592592592592592],[0.08854166666666667,0.22407407407407406],[0.0875,0.2222222222222222],[0.08541666666666667,0.22037037037037038],[0.08333333333333333,0.20925925925925926],[0.08125,0.20185185185185187],[0.078125,0.18888888888888888],[0.078125,0.17407407407407408],[0.078125,0.15185185185185185],[0.084375,0.11851851851851852],[0.08854166666666667,0.10740740740740741],[0.08958333333333333,0.09814814814814815],[0.090625,0.09444444444444444],[0.09270833333333334,0.09259259259259259],[0.09375,0.09074074074074075],[0.09583333333333334,0.08703703703703704],[0.09791666666666667,0.08333333333333333],[0.09791666666666667,0.07962962962962963],[0.09791666666666667,0.07777777777777778],[0.09791666666666667,0.07777777777777778],[0.09791666666666667,0.07777777777777778],[0.09791666666666667,0.07777777777777778],[0.09791666666666667,0.07777777777777778],[0.09791666666666667,0.07777777777777778],[0.09791666666666667,0.07777777777777778],[0.09791666666666667,0.07777777777777778],[0.09791666666666667,0.07777777777777778],[0.09791666666666667,0.07777777777777778],[0.09791666666666667,0.07777777777777778],[0.09791666666666667,0.07777777777777778],[0.09791666666666667,0.07777777777777778],[0.09791666666666667,0.07777777777777778],[0.09791666666666667,0.07777777777777778],[0.09791666666666667,0.07777777777777778],[0.09791666666666667,0.07777777777777778],[0.09791666666666667,0.07777777777777778],[0.09791666666666667,0.07777777777777778],[0.09791666666666667,0.07592592592592592],[0.09791666666666667,0.07592592592592592],[0.09583333333333334,0.07592592592592592],[0.09583333333333334,0.07592592592592592],[0.09479166666666666,0.07592592592592592],[0.08854166666666667,0.07222222222222222],[0.0875,0.07222222222222222],[0.08333333333333333,0.06851851851851852],[0.075,0.06481481481481481],[0.05416666666666667,0.05555555555555555],[0.03958333333333333,0.04814814814814815],[0.022916666666666665,0.03888888888888889],[0.01875,0.03888888888888889],[0.017708333333333333,0.037037037037037035],[0.017708333333333333,0.037037037037037035],[0.016666666666666666,0.037037037037037035],[0.015625,0.037037037037037035],[0.014583333333333334,0.03518518518518519],[0.011458333333333333,0.03518518518518519],[0.009375,0.03333333333333333],[0.008333333333333333,0.03333333333333333],[0.007291666666666667,0.03148148148148148],[0.007291666666666667,0.03148148148148148],[0.005208333333333333,0.03148148148148148],[0.005208333333333333,0.02962962962962963],[0.005208333333333333,0.025925925925925925],[0.004166666666666667,0.018518518518518517],[0.004166666666666667,0.014814814814814815],[0.004166666666666667,0.007407407407407408],[0.004166666666666667,-0.003703703703703704],[0.004166666666666667,-0.009259259259259259],[0.004166666666666667,-0.014814814814814815],[0.005208333333333333,-0.025925925925925925],[0.009375,-0.037037037037037035],[0.013541666666666667,-0.04259259259259259],[0.017708333333333333,-0.04814814814814815],[0.026041666666666668,-0.05555555555555555],[0.035416666666666666,-0.06296296296296296],[0.053125,-0.07222222222222222],[0.07604166666666666,-0.08148148148148149],[0.09479166666666666,-0.08333333333333333],[0.11354166666666667,-0.08333333333333333],[0.128125,-0.08333333333333333],[0.1375,-0.08148148148148149],[0.14583333333333334,-0.07407407407407407],[0.14791666666666667,-0.07037037037037037],[0.14895833333333333,-0.06481481481481481],[0.14895833333333333,-0.06111111111111111],[0.15,-0.05555555555555555],[0.15,-0.05185185185185185],[0.15,-0.046296296296296294],[0.153125,-0.037037037037037035],[0.15625,-0.03148148148148148],[0.15833333333333333,-0.024074074074074074],[0.16041666666666668,-0.018518518518518517],[0.16145833333333334,-0.011111111111111112],[0.16354166666666667,-0.005555555555555556],[0.16458333333333333,0],[0.165625,0.001851851851851852],[0.16666666666666666,0.005555555555555556],[0.16666666666666666,0.007407407407407408],[0.16770833333333332,0.012962962962962963],[0.16875,0.022222222222222223],[0.16875,0.03333333333333333],[0.16875,0.046296296296296294],[0.16875,0.05555555555555555],[0.16875,0.06111111111111111],[0.16875,0.06481481481481481],[0.16875,0.06666666666666667],[0.16666666666666666,0.07407407407407407],[0.16666666666666666,0.07407407407407407],[0.165625,0.07407407407407407],[0.165625,0.07592592592592592],[0.16458333333333333,0.07777777777777778],[0.16354166666666667,0.07777777777777778],[0.1625,0.07777777777777778],[0.16145833333333334,0.07777777777777778],[0.16145833333333334,0.07777777777777778],[0.16041666666666668,0.07777777777777778],[0.15833333333333333,0.07777777777777778],[0.15625,0.07222222222222222],[0.15416666666666667,0.06481481481481481],[0.153125,0.05925925925925926],[0.15208333333333332,0.053703703703703705],[0.15208333333333332,0.053703703703703705],[0.15208333333333332,0.053703703703703705],[0.15208333333333332,0.053703703703703705],[0.15208333333333332,0.053703703703703705],[0.15208333333333332,0.053703703703703705],[0.15208333333333332,0.053703703703703705],[0.15416666666666667,0.06296296296296296],[0.15625,0.07777777777777778],[0.16458333333333333,0.10555555555555556],[0.16979166666666667,0.12222222222222222],[0.17291666666666666,0.13333333333333333],[0.17395833333333333,0.1388888888888889],[0.17395833333333333,0.14074074074074075],[0.17395833333333333,0.14074074074074075],[0.17395833333333333,0.14074074074074075],[0.17395833333333333,0.14074074074074075],[0.17395833333333333,0.14074074074074075],[0.17395833333333333,0.14074074074074075],[0.17395833333333333,0.14074074074074075],[0.171875,0.14074074074074075],[0.16875,0.1388888888888889],[0.1625,0.13148148148148148],[0.16145833333333334,0.12962962962962962],[0.16145833333333334,0.12962962962962962],[0.16145833333333334,0.12962962962962962],[0.16145833333333334,0.12962962962962962],[0.16145833333333334,0.12962962962962962],[0.16145833333333334,0.12962962962962962],[0.16145833333333334,0.12962962962962962],[0.16145833333333334,0.13333333333333333],[0.16145833333333334,0.13333333333333333],[0.16145833333333334,0.13333333333333333],[0.16145833333333334,0.13333333333333333],[0.16145833333333334,0.13333333333333333],[0.16145833333333334,0.13333333333333333],[0.16145833333333334,0.13333333333333333],[0.16145833333333334,0.13333333333333333],[0.16145833333333334,0.13333333333333333],[0.16145833333333334,0.13333333333333333],[0.16145833333333334,0.13333333333333333],[0.16145833333333334,0.13333333333333333],[0.16145833333333334,0.13333333333333333],[0.16145833333333334,0.13333333333333333],[0.16145833333333334,0.13333333333333333],[0.16145833333333334,0.13333333333333333],[0.16145833333333334,0.13333333333333333],[0.16145833333333334,0.13333333333333333],[0.16145833333333334,0.13333333333333333],[0.16145833333333334,0.13333333333333333],[0.16145833333333334,0.13333333333333333],[0.16145833333333334,0.13333333333333333],[0.16145833333333334,0.13333333333333333],[0.16145833333333334,0.13333333333333333],[0.16145833333333334,0.13333333333333333],[0.16145833333333334,0.13333333333333333],[0.16145833333333334,0.13333333333333333],[0.16145833333333334,0.13333333333333333],[0.16145833333333334,0.13333333333333333],[0.16145833333333334,0.13333333333333333],[0.16145833333333334,0.13333333333333333],[0.16145833333333334,0.13333333333333333],[0.16145833333333334,0.13333333333333333],[0.16145833333333334,0.13333333333333333],[0.16145833333333334,0.13333333333333333],[0.16145833333333334,0.13333333333333333],[0.16145833333333334,0.13333333333333333],[0.16145833333333334,0.13333333333333333],[0.16145833333333334,0.13333333333333333],[0.16145833333333334,0.13333333333333333],[0.16145833333333334,0.13333333333333333],[0.16145833333333334,0.13333333333333333],[0.16145833333333334,0.13333333333333333],[0.16145833333333334,0.13333333333333333],[0.16145833333333334,0.13333333333333333],[0.16145833333333334,0.13333333333333333],[0.16145833333333334,0.13333333333333333],[0.16145833333333334,0.13333333333333333],[0.16145833333333334,0.13333333333333333],[0.16145833333333334,0.13333333333333333],[0.16145833333333334,0.13333333333333333],[0.16145833333333334,0.13333333333333333],[0.16145833333333334,0.13333333333333333],[0.16145833333333334,0.13333333333333333],[0.16145833333333334,0.13333333333333333],[0.16145833333333334,0.13333333333333333],[0.16145833333333334,0.13333333333333333],[0.16145833333333334,0.13333333333333333],[0.16145833333333334,0.13333333333333333],[0.16145833333333334,0.13333333333333333],[0.16145833333333334,0.13333333333333333],[0.16145833333333334,0.13333333333333333],[0.16145833333333334,0.13333333333333333],[0.16145833333333334,0.13333333333333333],[0.16145833333333334,0.13333333333333333],[0.16145833333333334,0.13333333333333333],[0.16145833333333334,0.13333333333333333],[0.16145833333333334,0.13333333333333333],[0.16145833333333334,0.13333333333333333],[0.16145833333333334,0.13333333333333333],[0.16145833333333334,0.13333333333333333],[0.16145833333333334,0.13333333333333333],[0.16145833333333334,0.13333333333333333],[0.16145833333333334,0.13333333333333333],[0.16145833333333334,0.13333333333333333],[0.16145833333333334,0.13333333333333333],[0.16145833333333334,0.13333333333333333],[0.16145833333333334,0.13333333333333333],[0.16145833333333334,0.13333333333333333],[0.16145833333333334,0.13333333333333333],[0.16145833333333334,0.13333333333333333],[0.16145833333333334,0.13333333333333333],[0.16145833333333334,0.13333333333333333],[0.16145833333333334,0.13333333333333333],[0.16145833333333334,0.13333333333333333],[0.16145833333333334,0.13333333333333333],[0.16145833333333334,0.13333333333333333],[0.16145833333333334,0.13333333333333333],[0.16145833333333334,0.13333333333333333],[0.16145833333333334,0.13333333333333333],[0.16145833333333334,0.13333333333333333]]","[[0.12052083333333338,-0.27166666666666667],[0.12052083333333338,-0.27166666666666667],[0.10677083333333333,-0.24592592592592594],[0.11375000000000005,-0.2572222222222222],[0.12750000000000009,-0.257962962962963],[0.15229166666666671,-0.2683333333333333],[0.1632291666666667,-0.28888888888888886],[0.15812499999999996,-0.2822222222222222],[0.15,-0.267037037037037],[0.15322916666666658,-0.24740740740740744],[0.121875,-0.2192592592592592],[0.12468750000000005,-0.1675925925925926],[0.12447916666666667,-0.14907407407407408],[0.10270833333333323,-0.1537037037037037],[0.08093750000000005,-0.15833333333333333],[-0.019166666666666644,-0.1542592592592593],[-0.1141666666666667,-0.14018518518518516],[-0.21499999999999997,-0.14777777777777779],[-0.31270833333333337,-0.14685185185185187],[-0.4217708333333333,-0.15037037037037035],[-0.5540625,-0.16166666666666668],[-0.6882291666666667,-0.19611111111111107],[-0.810625,-0.23592592592592587],[-0.810625,-0.23592592592592587],[-0.9253125,-0.22722222222222221],[-1.0405208333333333,-0.18611111111111112],[-1.0510416666666667,-0.15851851851851856],[-1.0739583333333333,-0.1527777777777778],[-1.0877083333333333,-0.1492592592592593],[-1.0422916666666666,-0.15499999999999997],[-0.996875,-0.16074074074074077],[-0.8457291666666666,-0.18185185185185182],[-0.693125,-0.18314814814814812],[-0.5454166666666667,-0.1925925925925926],[-0.4126041666666667,-0.18925925925925924],[-0.2621875000000001,-0.22092592592592594],[-0.12937500000000005,-0.2594444444444445],[0.029999999999999954,-0.3020370370370371],[0.1681250000000001,-0.3274074074074074],[0.24093749999999994,-0.34592592592592597],[0.2898958333333333,-0.3594444444444445],[0.26052083333333326,-0.33240740740740743],[0.2265625,-0.3101851851851852],[0.1857291666666666,-0.27444444444444444],[0.165625,-0.26777777777777784],[0.1296875,-0.2777777777777778],[0.090625,-0.28351851851851856],[0.03229166666666667,-0.2733333333333334],[0.011562500000000024,-0.2588888888888889],[-0.00614583333333331,-0.2505555555555556],[-0.01729166666666669,-0.24203703703703702],[-0.002499999999999976,-0.24870370370370373],[0.015416666666666618,-0.27037037037037037],[0.033645833333333285,-0.31425925925925924],[0.049374999999999974,-0.34],[0.03958333333333333,-0.34074074074074073],[0.043437500000000046,-0.33777777777777773],[0.033958333333333354,-0.2992592592592593],[0.033958333333333354,-0.2992592592592593],[0.007083333333333286,-0.2609259259259259],[-0.007291666666666667,-0.2824074074074074],[-0.03947916666666664,-0.26240740740740737],[-0.09583333333333334,-0.2418518518518519],[-0.13697916666666668,-0.2646296296296296],[-0.18020833333333333,-0.2361111111111111],[-0.21583333333333338,-0.22444444444444442],[-0.22718750000000001,-0.21851851851851853],[-0.24906250000000002,-0.2205555555555556],[-0.2553125,-0.257962962962963],[-0.25906250000000003,-0.29148148148148145],[-0.30041666666666667,-0.24462962962962967],[-0.30666666666666664,-0.24444444444444444],[-0.299375,-0.24666666666666665],[-0.3072916666666667,-0.20555555555555555],[-0.31979166666666664,-0.19370370370370374],[-0.3076041666666666,-0.1940740740740741],[-0.2954166666666667,-0.19444444444444445],[-0.2819791666666667,-0.18722222222222226],[-0.2708333333333333,-0.1801851851851852],[-0.2726041666666667,-0.19037037037037038],[-0.23145833333333338,-0.18925925925925924],[-0.19958333333333336,-0.20481481481481487],[-0.16395833333333332,-0.23055555555555557],[-0.1469791666666667,-0.2566666666666667],[-0.1469791666666667,-0.2566666666666667],[-0.12364583333333339,-0.2825925925925926],[-0.12364583333333339,-0.2825925925925926],[-0.09947916666666666,-0.2492592592592593],[-0.08083333333333335,-0.1992592592592593],[-0.06375000000000004,-0.17370370370370372],[-0.052083333333333336,-0.1764814814814815],[-0.02302083333333336,-0.17259259259259258],[-0.019687499999999976,-0.2007407407407407],[-0.007083333333333286,-0.21222222222222226],[-0.0125,-0.22666666666666663],[-0.02385416666666664,-0.2207407407407407],[-0.035208333333333286,-0.21481481481481482],[-0.04718749999999995,-0.21481481481481482],[-0.044166666666666646,-0.23111111111111113],[-0.05604166666666662,-0.2512962962962963],[-0.06177083333333329,-0.24370370370370376],[-0.06177083333333329,-0.24370370370370376],[-0.07604166666666666,-0.22851851851851848],[-0.07354166666666669,-0.19981481481481478],[-0.07104166666666671,-0.17111111111111107],[-0.04770833333333328,-0.15981481481481483],[-0.014479166666666644,-0.16407407407407412],[-0.014479166666666644,-0.16407407407407412],[0.016666666666666666,-0.17462962962962966],[0.016666666666666666,-0.17462962962962966],[0.008645833333333287,-0.19740740740740745],[0.008645833333333287,-0.19740740740740745],[0.00302083333333331,-0.21074074074074076],[0.00302083333333331,-0.21074074074074076],[-0.004166666666666667,-0.23185185185185184],[-0.004166666666666667,-0.23185185185185184],[-0.012083333333333357,-0.2524074074074074],[-0.012083333333333357,-0.2524074074074074],[0,-0.24314814814814817],[0,-0.24314814814814817],[0.004375000000000047,-0.252962962962963],[0.008749999999999977,-0.26370370370370366],[-0.0296875,-0.2505555555555556],[-0.035208333333333286,-0.25203703703703706],[-0.03864583333333336,-0.24722222222222223],[-0.03864583333333336,-0.2505555555555556],[-0.050520833333333334,-0.26370370370370366],[-0.043958333333333384,-0.25],[-0.03739583333333331,-0.23629629629629634],[-0.033645833333333285,-0.2522222222222222],[-0.03104166666666662,-0.26240740740740737],[-0.026979166666666644,-0.2729629629629629],[-0.0002083333333333807,-0.27444444444444444],[0.015104166666666667,-0.2866666666666667],[0.02947916666666662,-0.267037037037037],[0.04750000000000002,-0.2740740740740741],[0.049374999999999974,-0.2614814814814815],[0.06375000000000004,-0.2687037037037037],[0.07531249999999995,-0.2627777777777777],[0.07822916666666657,-0.2646296296296296],[0.0806250000000001,-0.25703703703703706],[0.08083333333333324,-0.2692592592592592],[0.08354166666666671,-0.25833333333333336],[0.08354166666666671,-0.25833333333333336],[0.07791666666666662,-0.2511111111111112],[0.06218750000000005,-0.27907407407407403],[0.04604166666666672,-0.28425925925925927],[0.050833333333333286,-0.29666666666666663],[0.041458333333333285,-0.2875925925925926],[0.02302083333333336,-0.29500000000000004],[0.003958333333333286,-0.31444444444444447],[-0.001979166666666643,-0.34981481481481475],[-0.007187499999999976,-0.3640740740740741],[0.009895833333333333,-0.3755555555555556],[0.01875,-0.36370370370370364],[0.052083333333333336,-0.3677777777777778],[0.058437500000000024,-0.3562962962962963],[0.058437500000000024,-0.3562962962962963],[0.06739583333333338,-0.33370370370370367],[0.05645833333333338,-0.29259259259259257],[0.060104166666666715,-0.2662962962962963],[0.05302083333333331,-0.20388888888888893],[0.051250000000000046,-0.1412962962962963],[0.049479166666666664,-0.0787037037037037],[-0.010625000000000048,-0.04796296296296292],[-0.0609375,-0.01592592592592597],[-0.1382291666666667,0.04129629629629621],[-0.10906250000000005,0.04814814814814815],[-0.07354166666666669,0.0257407407407407],[-0.028645833333333332,-0.026851851851851852],[-0.016875000000000046,-0.05055555555555547],[0.030729166666666665,-0.12129629629629629],[0.06197916666666667,-0.18648148148148147],[0.06072916666666662,-0.25166666666666665],[0.09302083333333329,-0.3109259259259259],[0.12489583333333343,-0.37037037037037035],[0.1622916666666666,-0.4072222222222222],[0.128125,-0.4116666666666667],[0.08020833333333334,-0.4103703703703704],[0.022604166666666713,-0.4051851851851852],[-0.0067708333333333336,-0.4103703703703704],[-0.05541666666666671,-0.3998148148148148],[-0.05541666666666671,-0.3998148148148148],[-0.10677083333333333,-0.3838888888888889],[-0.12562500000000001,-0.3472222222222222],[-0.1219791666666667,-0.3322222222222222],[-0.11791666666666671,-0.317037037037037],[-0.10583333333333336,-0.3303703703703703],[-0.109375,-0.3424074074074074],[-0.11604166666666664,-0.3442592592592592],[-0.10249999999999998,-0.3383333333333333],[-0.08677083333333328,-0.3327777777777778],[-0.057500000000000044,-0.31870370370370377],[-0.02781250000000005,-0.3188888888888889],[-0.0009374999999999763,-0.32037037037037036],[0.009375,-0.3059259259259259],[0.016458333333333287,-0.2918518518518519],[0.016458333333333287,-0.2918518518518519],[0.014374999999999952,-0.29203703703703704],[0.03812500000000003,-0.302962962962963],[0.052187500000000026,-0.3124074074074074],[0.07041666666666657,-0.3272222222222222],[0.09447916666666671,-0.33796296296296297],[0.09447916666666671,-0.33796296296296297],[0.10958333333333338,-0.367037037037037],[0.1099999999999999,-0.3581481481481481],[0.11322916666666671,-0.36870370370370376],[0.08312499999999995,-0.35833333333333334],[0.05604166666666662,-0.3346296296296296],[0.03322916666666664,-0.3198148148148148],[-0.007708333333333309,-0.29314814814814816],[-0.03583333333333331,-0.27814814814814814],[-0.05010416666666669,-0.2707407407407407],[-0.07760416666666667,-0.2727777777777778],[-0.07374999999999995,-0.26240740740740737],[-0.06197916666666667,-0.262037037037037],[-0.050729166666666714,-0.27148148148148155],[-0.012083333333333357,-0.29611111111111105],[0.04031250000000005,-0.3440740740740741],[0.09447916666666671,-0.3831481481481481],[0.125,-0.41462962962962957],[0.18635416666666677,-0.44370370370370377],[0.2283333333333334,-0.46574074074074073],[0.2608333333333334,-0.49018518518518517],[0.2522916666666667,-0.51],[0.25812499999999994,-0.5414814814814815],[0.26447916666666677,-0.5631481481481482],[0.2604166666666667,-0.5831481481481481],[0.24635416666666668,-0.5455555555555556],[0.2384375000000001,-0.49851851851851847],[0.24052083333333343,-0.46722222222222226],[0.22166666666666662,-0.42314814814814816],[0.20416666666666666,-0.3731481481481482],[0.1931250000000001,-0.3383333333333333],[0.1931250000000001,-0.272037037037037],[0.1931250000000001,-0.272037037037037],[0.17291666666666666,-0.24407407407407408],[0.16593749999999996,-0.21203703703703702],[0.15395833333333328,-0.1522222222222222],[0.1430208333333333,-0.1381481481481482],[0.1400000000000001,-0.12462962962962965],[0.1400000000000001,-0.12462962962962965],[0.1564583333333334,-0.09759259259259258],[0.14072916666666657,-0.08407407407407404],[0.14072916666666657,-0.08407407407407404],[0.11437499999999995,-0.07611111111111116],[0.11333333333333329,-0.03629629629629634],[0.11333333333333329,-0.03629629629629634],[0.08781249999999995,-0.06481481481481481],[0.07354166666666657,-0.045740740740740825],[0.07354166666666657,-0.045740740740740825],[0.04604166666666672,-0.030740740740740784],[0.03447916666666669,-0.04333333333333329],[0.019895833333333356,-0.051666666666666625],[0.00916666666666662,-0.0727777777777778],[-0.006979166666666714,-0.11203703703703703],[-0.008645833333333287,-0.1427777777777778],[-0.0032291666666666905,-0.17185185185185187],[-0.0109375,-0.21370370370370367],[0.0046875,-0.21888888888888886],[0.01416666666666669,-0.23351851851851857],[0.026041666666666668,-0.24092592592592596],[0.0421875,-0.26129629629629636],[0.05677083333333333,-0.2874074074074074],[0.07156250000000004,-0.2962962962962963],[0.07156250000000004,-0.2962962962962963],[0.06395833333333331,-0.28277777777777774],[0.06312500000000003,-0.2633333333333333],[0.06583333333333338,-0.24000000000000005],[0.07322916666666662,-0.23703703703703705],[0.07062499999999995,-0.2338888888888889],[0.07999999999999995,-0.23574074074074075],[0.084375,-0.22611111111111115],[0.07000000000000005,-0.18981481481481483],[0.06437499999999995,-0.17592592592592593],[0.008958333333333356,-0.08629629629629634],[-0.024479166666666666,-0.006296296296296254],[-0.04468749999999998,0.0588888888888888],[-0.05562499999999997,0.05129629629629638],[-0.05541666666666671,0.08499999999999996],[-0.05947916666666669,0.09203703703703713],[-0.07729166666666672,0.1124074074074075],[-0.09249999999999996,0.11407407407407412],[-0.09375,0.10018518518518522],[-0.07489583333333331,0.10611111111111103],[-0.021249999999999977,0.03722222222222227],[0.035208333333333286,0.0025925925925925505],[0.06166666666666672,-0.025925925925925925],[0.09979166666666663,-0.011296296296296339],[0.10666666666666676,-0.001851851851851852],[0.12697916666666675,0.028703703703703703],[0.13562500000000005,0.03833333333333342],[0.15697916666666673,0.04148148148148144],[0.17822916666666658,0.04462962962962967],[0.1716666666666666,0.049629629629629544],[0.15854166666666672,0.039074074074074115],[0.14260416666666675,-0.005740740740740783],[0.13312499999999997,-0.051111111111111156],[0.11427083333333338,-0.059999999999999956],[0.1212500000000001,-0.08981481481481482],[0.11906249999999995,-0.11407407407407412],[0.14020833333333324,-0.15611111111111114],[0.1462500000000001,-0.18574074074074076],[0.1390625,-0.18592592592592588],[0.13083333333333325,-0.1853703703703704],[0.13083333333333325,-0.1853703703703704],[0.12218749999999995,-0.17925925925925928],[0.11354166666666667,-0.17314814814814813],[0.11354166666666667,-0.17314814814814813],[0.12208333333333338,-0.1816666666666667],[0.12208333333333338,-0.1816666666666667],[0.12999999999999995,-0.2074074074074074],[0.11604166666666677,-0.19444444444444445],[0.09354166666666662,-0.18851851851851853],[0.06427083333333337,-0.16111111111111112],[0.04916666666666671,-0.1479629629629629],[0.04708333333333338,-0.15481481481481485],[0.02354166666666669,-0.14296296296296293],[0.020833333333333332,-0.1294444444444444],[-0.01229166666666662,-0.08351851851851856],[-0.03166666666666664,-0.06018518518518518],[-0.05802083333333338,-0.015555555555555513],[-0.07468750000000005,-0.0005555555555554713],[-0.08447916666666669,0.012777777777777735],[-0.08447916666666669,0.012777777777777735],[-0.07843749999999995,0.0242592592592593],[-0.065625,0.04351851851851852],[-0.06510416666666667,0.055740740740740785],[-0.051770833333333384,0.046296296296296294],[-0.05260416666666667,0.04148148148148144],[-0.01270833333333338,-0.006851851851851936],[0.0009374999999999763,-0.0035185185185184764],[-0.0006250000000000236,-0.012592592592592508],[-0.005416666666666714,-0.030555555555555555],[0.01072916666666662,-0.010370370370370412],[0.00927083333333331,0.013888888888888888],[-0.026979166666666644,0.05685185185185194],[-0.050625000000000024,0.09740740740740746],[-0.0328125,0.13796296296296295],[-0.017604166666666643,0.1425925925925926],[-0.00916666666666662,0.16055555555555565],[-0.000416666666666643,0.16277777777777774],[0.024374999999999977,0.16796296296296304],[0.04583333333333333,0.17907407407407416],[0.04895833333333333,0.16870370370370374],[0.05375000000000003,0.15722222222222218],[0.09375,0.11814814814814806],[0.12781250000000005,0.07277777777777769],[0.1290625000000001,0.03037037037037033],[0.12354166666666658,0.04592592592592584],[0.11229166666666662,0.025],[0.1256249999999999,0.0007407407407406986],[0.13270833333333343,-0.027407407407407325],[0.13010416666666677,-0.021481481481481525],[0.1196875000000001,-0.052222222222222205],[0.13052083333333328,-0.04685185185185177],[0.12947916666666662,-0.04129629629629621],[0.134375,-0.0294444444444444],[0.12458333333333324,-0.021481481481481525],[0.12687499999999996,-0.04129629629629621],[0.1408333333333334,-0.0031481481481482323],[0.11354166666666667,-0.002962962962963005],[0.11322916666666671,0.024629629629629547],[0.1273958333333333,0.01592592592592597],[0.1273958333333333,0.01592592592592597],[0.14500000000000005,0.031111111111111027],[0.14427083333333332,0.0294444444444444],[0.13552083333333323,0.01907407407407399],[0.12270833333333328,0.015000000000000043],[0.14364583333333342,0.0012962962962963806],[0.16218750000000004,-0.002962962962963005],[0.15333333333333338,-0.027222222222222307],[0.18010416666666676,-0.022222222222222223],[0.18260416666666662,-0.030000000000000086],[0.18260416666666662,-0.030000000000000086],[0.1868750000000001,-0.03259259259259263],[0.18333333333333332,-0.03351851851851856],[0.18697916666666667,-0.05740740740740741],[0.1912499999999999,-0.05537037037037033],[0.19989583333333344,-0.06759259259259259],[0.1790625000000001,-0.062037037037037036],[0.16218750000000004,-0.0690740740740741],[0.15395833333333328,-0.06370370370370367],[0.13312499999999997,-0.05185185185185185],[0.12614583333333323,-0.044444444444444446],[0.12614583333333323,-0.044444444444444446],[0.11500000000000009,-0.056851851851851834],[0.11500000000000009,-0.056851851851851834],[0.12999999999999995,-0.0477777777777777],[0.12999999999999995,-0.0477777777777777],[0.13635416666666675,-0.031111111111111027],[0.14416666666666675,-0.016666666666666666],[0.14406249999999995,-0.020740740740740823],[0.15958333333333338,-0.01722222222222214],[0.17114583333333327,-0.0011111111111111532],[0.1868750000000001,0.0012962962962963806],[0.20260416666666667,0.003703703703703704],[0.2025000000000001,0.002777777777777778],[0.20656249999999995,0.02166666666666675],[0.19927083333333329,-0.013888888888888888],[0.19927083333333329,-0.013888888888888888],[0.19458333333333327,-0.012962962962962963],[0.17604166666666668,-0.0301851851851851],[0.17604166666666668,-0.0301851851851851],[0.1787499999999999,-0.011666666666666582],[0.16197916666666667,-0.0001851851851852273],[0.159375,-0.008148148148148106],[0.159375,-0.008148148148148106],[0.15635416666666657,-0.016666666666666666],[0.15635416666666657,-0.016666666666666666],[0.1525000000000001,-0.011296296296296339],[0.1525000000000001,-0.011296296296296339],[0.13250000000000003,-0.036666666666666584],[0.13250000000000003,-0.036666666666666584],[0.1330208333333334,-0.03259259259259263],[0.1330208333333334,-0.03259259259259263],[0.13468749999999996,-0.016666666666666666],[0.14968750000000006,-0.016111111111111194],[0.14968750000000006,-0.016111111111111194],[0.16510416666666666,-0.010925925925925884],[0.15333333333333338,-0.03944444444444436],[0.14572916666666677,-0.06277777777777774],[0.12395833333333334,-0.06666666666666667],[0.10916666666666662,-0.06962962962962967],[0.09520833333333342,-0.08648148148148146],[0.09854166666666657,-0.06314814814814819],[0.08145833333333338,-0.0690740740740741],[0.059687499999999956,-0.0507407407407407],[0.03781249999999995,-0.051111111111111156],[0.03177083333333333,-0.04462962962962967],[-0.014479166666666644,0.0012962962962963806],[-0.05927083333333331,0.02240740740740745],[-0.1140625,0.07111111111111107],[-0.175,0.13129629629629624],[-0.2241666666666667,0.17814814814814822],[-0.24833333333333332,0.18981481481481483],[-0.28624999999999995,0.19592592592592584],[-0.3021875,0.23148148148148148],[-0.33187500000000003,0.26777777777777784],[-0.3481250000000001,0.2766666666666666],[-0.3107291666666666,0.2699999999999999],[-0.259375,0.2764814814814814],[-0.19802083333333337,0.2553703703703703],[-0.14572916666666663,0.20962962962962972],[-0.1046875,0.1883333333333334],[-0.10229166666666671,0.17185185185185176],[-0.0484375,0.14629629629629629],[-0.012395833333333309,0.09240740740740737],[0.04104166666666664,0.00592592592592601],[0.042812500000000024,-0.024629629629629547],[0.04468749999999998,-0.05462962962962963],[0.04125000000000002,-0.08296296296296299],[0.04822916666666662,-0.1359259259259259],[0.06895833333333339,-0.17851851851851847],[0.09572916666666677,-0.2035185185185185],[0.1336458333333333,-0.22185185185185188],[0.12427083333333329,-0.2064814814814815],[0.12145833333333324,-0.20685185185185184],[0.10291666666666661,-0.18037037037037032],[0.10062499999999991,-0.18370370370370367],[0.09833333333333343,-0.18703703703703703],[0.11208333333333324,-0.1940740740740741],[0.11541666666666663,-0.1764814814814815],[0.11239583333333343,-0.15481481481481485],[0.09729166666666676,-0.15703703703703706],[0.09729166666666676,-0.15703703703703706],[0.08947916666666676,-0.1690740740740741],[0.08083333333333324,-0.18611111111111112],[0.06145833333333333,-0.18851851851851853],[0.0640625,-0.19944444444444442],[0.07218749999999995,-0.207962962962963],[0.07916666666666666,-0.2212962962962963],[0.07010416666666662,-0.2309259259259259],[0.06656249999999998,-0.24277777777777781],[0.06937499999999991,-0.25870370370370366],[0.07770833333333324,-0.2794444444444444],[0.0818749999999999,-0.25759259259259265],[0.09635416666666667,-0.25],[0.10791666666666658,-0.25407407407407406],[0.09333333333333324,-0.24296296296296294],[0.09166666666666666,-0.23203703703703707],[0.09114583333333333,-0.21629629629629632],[0.08197916666666671,-0.19685185185185186],[0.07489583333333343,-0.1881481481481482],[0.0678124999999999,-0.1794444444444444],[0.05499999999999995,-0.17685185185185184],[0.04114583333333333,-0.19722222222222222],[0.03187500000000002,-0.22185185185185188],[0.025520833333333333,-0.23481481481481484],[0.025416666666666643,-0.2609259259259259],[0.025312499999999953,-0.28703703703703703],[0.020729166666666642,-0.3087037037037037],[0.024791666666666618,-0.334074074074074],[0.029895833333333382,-0.34388888888888886],[0.035000000000000024,-0.3537037037037037],[0.04489583333333336,-0.34759259259259256],[0.05479166666666669,-0.34148148148148144],[0.06270833333333338,-0.33555555555555555],[0.05677083333333333,-0.3140740740740741],[0.04874999999999995,-0.2861111111111111],[0.046875,-0.2544444444444444]]","[[0.12052083333333338,-0.27166666666666667,0.00020000000297670795],[0.12052083333333338,-0.27166666666666667,0.038800000000748014],[0.10677083333333333,-0.24592592592592594,0.049500000000001876],[0.11375000000000005,-0.2572222222222222,0.06499999999999773],[0.12750000000000009,-0.257962962962963,0.07970000000297972],[0.15229166666666671,-0.2683333333333333,0.0983000000007479],[0.1632291666666667,-0.28888888888888886,0.11200000000000188],[0.15812499999999996,-0.2822222222222222,0.1301000000014909],[0.15,-0.267037037037037,0.14520000000297983],[0.15322916666666658,-0.24740740740740744,0.16199999999999903],[0.121875,-0.2192592592592592,0.178600000001488],[0.12468750000000005,-0.1675925925925926,0.1982000000029771],[0.12447916666666667,-0.14907407407407408,0.2119999999999962],[0.10270833333333323,-0.1537037037037037,0.22860000000149228],[0.08093750000000005,-0.15833333333333333,0.24530000000074637],[-0.019166666666666644,-0.1542592592592593,0.26200000000000045],[-0.1141666666666667,-0.14018518518518516,0.27860000000148943],[-0.21499999999999997,-0.14777777777777779,0.2982000000029785],[-0.31270833333333337,-0.14685185185185187,0.3119000000022325],[-0.4217708333333333,-0.15037037037037035,0.3286000000014866],[-0.5540625,-0.16166666666666668,0.3453000000007478],[-0.6882291666666667,-0.19611111111111107,0.3620000000000019],[-0.810625,-0.23592592592592587,0.3787000000029792],[-0.810625,-0.23592592592592587,0.3954000000022333],[-0.9253125,-0.22722222222222221,0.41199999999999903],[-1.0405208333333333,-0.18611111111111112,0.4317000000029765],[-1.0510416666666667,-0.15851851851851856,0.4453000000007421],[-1.0739583333333333,-0.1527777777777778,0.4619000000022382],[-1.0877083333333333,-0.1492592592592593,0.47870000000298063],[-1.0422916666666666,-0.15499999999999997,0.49530000000074637],[-0.996875,-0.16074074074074077,0.5120000000000005],[-0.8457291666666666,-0.18185185185185182,0.5286000000014894],[-0.693125,-0.18314814814814812,0.5453000000007435],[-0.5454166666666667,-0.1925925925925926,0.5619999999999976],[-0.4126041666666667,-0.18925925925925924,0.5786000000014866],[-0.2621875000000001,-0.22092592592592594,0.5987000000029781],[-0.12937500000000005,-0.2594444444444445,0.6121000000014902],[0.029999999999999954,-0.3020370370370371,0.6286000000014909],[0.1681250000000001,-0.3274074074074074,0.6453000000007449],[0.24093749999999994,-0.34592592592592597,0.6656000000014899],[0.2898958333333333,-0.3594444444444445,0.6794999999999973],[0.26052083333333326,-0.33240740740740743,0.6955000000000027],[0.2265625,-0.3101851851851852,0.7119000000022382],[0.1857291666666666,-0.27444444444444444,0.7287000000029806],[0.165625,-0.26777777777777784,0.7483000000007465],[0.1296875,-0.2777777777777778,0.7619000000022353],[0.090625,-0.28351851851851856,0.7786000000014894],[0.03229166666666667,-0.2733333333333334,0.7954000000022319],[0.011562500000000024,-0.2588888888888889,0.8119999999999976],[-0.00614583333333331,-0.2505555555555556,0.8317000000029822],[-0.01729166666666669,-0.24203703703703702,0.8468000000007478],[-0.002499999999999976,-0.24870370370370373,0.862400000002232],[0.015416666666666618,-0.27037037037037037,0.8786000000014909],[0.033645833333333285,-0.31425925925925924,0.8979999999999961],[0.049374999999999974,-0.34,0.9119000000022339],[0.03958333333333333,-0.34074074074074073,0.9317000000029765],[0.043437500000000046,-0.33777777777777773,0.9454000000022376],[0.033958333333333354,-0.2992592592592593,0.9619000000022382],[0.033958333333333354,-0.2992592592592593,0.9787000000029806],[0.007083333333333286,-0.2609259259259259,0.9993000000007441],[-0.007291666666666667,-0.2824074074074074,1.012900000002233],[-0.03947916666666664,-0.26240740740740737,1.0286000000014894],[-0.09583333333333334,-0.2418518518518519,1.0452000000029784],[-0.13697916666666668,-0.2646296296296296,1.0619999999999976],[-0.18020833333333333,-0.2361111111111111,1.0786000000014866],[-0.21583333333333338,-0.22444444444444442,1.0954000000022361],[-0.22718750000000001,-0.21851851851851853,1.1119000000022368],[-0.24906250000000002,-0.2205555555555556,1.1293000000007467],[-0.2553125,-0.257962962962963,1.145300000000745],[-0.25906250000000003,-0.29148148148148145,1.161999999999999],[-0.30041666666666667,-0.24462962962962967,1.178600000001488],[-0.30666666666666664,-0.24444444444444444,1.195300000000742],[-0.299375,-0.24666666666666665,1.2119000000022382],[-0.3072916666666667,-0.20555555555555555,1.2284999999999968],[-0.31979166666666664,-0.19370370370370374,1.2453000000007464],[-0.3076041666666666,-0.1940740740740741,1.2620000000000005],[-0.2954166666666667,-0.19444444444444445,1.2786000000014894],[-0.2819791666666667,-0.18722222222222226,1.2963000000007412],[-0.2708333333333333,-0.1801851851851852,1.3119000000022325],[-0.2726041666666667,-0.19037037037037038,1.3297000000029797],[-0.23145833333333338,-0.18925925925925924,1.3453000000007478],[-0.19958333333333336,-0.20481481481481487,1.3651000000014903],[-0.16395833333333332,-0.23055555555555557,1.3788000000007443],[-0.1469791666666667,-0.2566666666666667,1.4003000000007475],[-0.1469791666666667,-0.2566666666666667,1.4122000000029828],[-0.12364583333333339,-0.2825925925925926,1.4428000000007444],[-0.12364583333333339,-0.2825925925925926,1.4498000000007423],[-0.09947916666666666,-0.2492592592592593,1.46220000000298],[-0.08083333333333335,-0.1992592592592593,1.4788000000007457],[-0.06375000000000004,-0.17370370370370372,1.4979000000022324],[-0.052083333333333336,-0.1764814814814815,1.5119000000022353],[-0.02302083333333336,-0.17259259259259258,1.5301000000014895],[-0.019687499999999976,-0.2007407407407407,1.5453000000007435],[-0.007083333333333286,-0.21222222222222226,1.5619000000022325],[-0.0125,-0.22666666666666663,1.5786000000014866],[-0.02385416666666664,-0.2207407407407407,1.598700000002978],[-0.035208333333333286,-0.21481481481481482,1.6153000000007438],[-0.04718749999999995,-0.21481481481481482,1.6333000000007445],[-0.044166666666666646,-0.23111111111111113,1.6492000000029776],[-0.05604166666666662,-0.2512962962962963,1.6658000000007434],[-0.06177083333333329,-0.24370370370370376,1.679000000000002],[-0.06177083333333329,-0.24370370370370376,1.695300000000742],[-0.07604166666666666,-0.22851851851851848,1.7119000000022382],[-0.07354166666666669,-0.19981481481481478,1.7286000000014923],[-0.07104166666666671,-0.17111111111111107,1.7452000000029813],[-0.04770833333333328,-0.15981481481481483,1.764700000002982],[-0.014479166666666644,-0.16407407407407412,1.7787000000029778],[-0.014479166666666644,-0.16407407407407412,1.7956000000014924],[0.016666666666666666,-0.17462962962962966,1.817600000001491],[0.016666666666666666,-0.17462962962962966,1.8289000000022355],[0.008645833333333287,-0.19740740740740745,1.8455000000000013],[0.008645833333333287,-0.19740740740740745,1.8659000000022345],[0.00302083333333331,-0.21074074074074076,1.8788000000007443],[0.00302083333333331,-0.21074074074074076,1.8954999999999984],[-0.004166666666666667,-0.23185185185185184,1.911900000002234],[-0.004166666666666667,-0.23185185185185184,1.928600000001488],[-0.012083333333333357,-0.2524074074074074,1.945300000000742],[-0.012083333333333357,-0.2524074074074074,1.9619000000022382],[0,-0.24314814814814817,1.9784999999999968],[0,-0.24314814814814817,1.9954000000022347],[0.004375000000000047,-0.252962962962963,2.0119000000022353],[0.008749999999999977,-0.26370370370370366,2.031700000002978],[-0.0296875,-0.2505555555555556,2.0453000000007435],[-0.035208333333333286,-0.25203703703703706,2.062100000001493],[-0.03864583333333336,-0.24722222222222223,2.08270000000298],[-0.03864583333333336,-0.2505555555555556,2.097999999999999],[-0.050520833333333334,-0.26370370370370366,2.1119000000022368],[-0.043958333333333384,-0.25,2.128700000002979],[-0.03739583333333331,-0.23629629629629634,2.14520000000298],[-0.033645833333333285,-0.2522222222222222,2.161900000002234],[-0.03104166666666662,-0.26240740740740737,2.178600000001488],[-0.026979166666666644,-0.2729629629629629,2.1961000000014863],[-0.0002083333333333807,-0.27444444444444444,2.211900000002238],[0.015104166666666667,-0.2866666666666667,2.2287000000029806],[0.02947916666666662,-0.267037037037037,2.2453000000007464],[0.04750000000000002,-0.2740740740740741,2.2619000000022353],[0.049374999999999974,-0.2614814814814815,2.2786000000014894],[0.06375000000000004,-0.2687037037037037,2.29810000000149],[0.07531249999999995,-0.2627777777777777,2.3119000000022325],[0.07822916666666657,-0.2646296296296296,2.3286000000014866],[0.0806250000000001,-0.25703703703703706,2.345300000000748],[0.08083333333333324,-0.2692592592592592,2.3621000000014902],[0.08354166666666671,-0.25833333333333336,2.383400000002233],[0.08354166666666671,-0.25833333333333336,2.3958000000007473],[0.07791666666666662,-0.2511111111111112,2.411999999999999],[0.06218750000000005,-0.27907407407407403,2.4317000000029765],[0.04604166666666672,-0.28425925925925927,2.445300000000742],[0.050833333333333286,-0.29666666666666663,2.462600000001487],[0.041458333333333285,-0.2875925925925926,2.478499999999997],[0.02302083333333336,-0.29500000000000004,2.4954000000022347],[0.003958333333333286,-0.31444444444444447,2.5119000000022353],[-0.001979166666666643,-0.34981481481481475,2.5286000000014894],[-0.007187499999999976,-0.3640740740740741,2.5479000000022367],[0.009895833333333333,-0.3755555555555556,2.5619999999999976],[0.01875,-0.36370370370370364,2.5784999999999982],[0.052083333333333336,-0.3677777777777778,2.6004000000022316],[0.058437500000000024,-0.3562962962962963,2.614300000000746],[0.058437500000000024,-0.3562962962962963,2.628700000002979],[0.06739583333333338,-0.33370370370370367,2.645300000000745],[0.05645833333333338,-0.29259259259259257,2.6624000000022363],[0.060104166666666715,-0.2662962962962963,2.682600000001493],[0.05302083333333331,-0.20388888888888893,2.698500000000003],[0.051250000000000046,-0.1412962962962963,2.7121000000014917],[0.049479166666666664,-0.0787037037037037,2.73110000000149],[-0.010625000000000048,-0.04796296296296292,2.7454000000022347],[-0.0609375,-0.01592592592592597,2.762100000001489],[-0.1382291666666667,0.04129629629629621,2.781500000000001],[-0.10906250000000005,0.04814814814814815,2.798700000002981],[-0.07354166666666669,0.0257407407407407,2.8127000000029767],[-0.028645833333333332,-0.026851851851851852,2.8322000000029774],[-0.016875000000000046,-0.05055555555555547,2.845400000002236],[0.030729166666666665,-0.12129629629629629,2.8619000000022368],[0.06197916666666667,-0.18648148148148147,2.8788000000007443],[0.06072916666666662,-0.25166666666666665,2.896000000000001],[0.09302083333333329,-0.3109259259259259,2.911900000002234],[0.12489583333333343,-0.37037037037037035,2.928600000001488],[0.1622916666666666,-0.4072222222222222,2.945200000002977],[0.128125,-0.4116666666666667,2.9618000000007427],[0.08020833333333334,-0.4103703703703704,2.9786000000014923],[0.022604166666666713,-0.4051851851851852,2.998100000001493],[-0.0067708333333333336,-0.4103703703703704,3.0120000000000005],[-0.05541666666666671,-0.3998148148148148,3.0286000000014894],[-0.05541666666666671,-0.3998148148148148,3.0452000000029784],[-0.10677083333333333,-0.3838888888888889,3.0619000000022325],[-0.12562500000000001,-0.3472222222222222,3.08270000000298],[-0.1219791666666667,-0.3322222222222222,3.0986000000014897],[-0.11791666666666671,-0.317037037037037,3.112499999999997],[-0.10583333333333336,-0.3303703703703703,3.128700000002979],[-0.109375,-0.3424074074074074,3.1492000000029776],[-0.11604166666666664,-0.3442592592592592,3.164600000001492],[-0.10249999999999998,-0.3383333333333333,3.178600000001488],[-0.08677083333333328,-0.3327777777777778,3.1987000000029795],[-0.057500000000000044,-0.31870370370370377,3.2153000000007452],[-0.02781250000000005,-0.3188888888888889,3.231400000002232],[-0.0009374999999999763,-0.32037037037037036,3.245600000001488],[0.009375,-0.3059259259259259,3.2652000000029773],[0.016458333333333287,-0.2918518518518519,3.279100000001492],[0.016458333333333287,-0.2918518518518519,3.295400000002232],[0.014374999999999952,-0.29203703703703704,3.3119000000022325],[0.03812500000000003,-0.302962962962963,3.3284999999999982],[0.052187500000000026,-0.3124074074074074,3.3452000000029827],[0.07041666666666657,-0.3272222222222222,3.3648000000007414],[0.09447916666666671,-0.33796296296296297,3.3793000000007467],[0.09447916666666671,-0.33796296296296297,3.3954000000022333],[0.10958333333333338,-0.367037037037037,3.411900000002234],[0.1099999999999999,-0.3581481481481481,3.4284999999999997],[0.11322916666666671,-0.36870370370370376,3.445300000000742],[0.08312499999999995,-0.35833333333333334,3.461999999999996],[0.05604166666666662,-0.3346296296296296,3.4786000000014923],[0.03322916666666664,-0.3198148148148148,3.4985],[-0.007708333333333309,-0.29314814814814816,3.5149000000022355],[-0.03583333333333331,-0.27814814814814814,3.529600000001487],[-0.05010416666666669,-0.2707407407407407,3.5452000000029784],[-0.07760416666666667,-0.2727777777777778,3.5619000000022325],[-0.07374999999999995,-0.26240740740740737,3.5784999999999982],[-0.06197916666666667,-0.262037037037037,3.5952000000029827],[-0.050729166666666714,-0.27148148148148155,3.6119000000022368],[-0.012083333333333357,-0.29611111111111105,3.628600000001491],[0.04031250000000005,-0.3440740740740741,3.645300000000745],[0.09447916666666671,-0.3831481481481481,3.6626000000014898],[0.125,-0.41462962962962957,3.6794999999999973],[0.18635416666666677,-0.44370370370370377,3.696700000002977],[0.2283333333333334,-0.46574074074074073,3.711999999999996],[0.2608333333333334,-0.49018518518518517,3.7286000000014923],[0.2522916666666667,-0.51,3.7452000000029813],[0.25812499999999994,-0.5414814814814815,3.7619000000022353],[0.26447916666666677,-0.5631481481481482,3.7789000000022313],[0.2604166666666667,-0.5831481481481481,3.7986000000014926],[0.24635416666666668,-0.5455555555555556,3.812800000000742],[0.2384375000000001,-0.49851851851851847,3.8337000000029775],[0.24052083333333343,-0.46722222222222226,3.8489999999999966],[0.22166666666666662,-0.42314814814814816,3.865800000000746],[0.20416666666666666,-0.3731481481481482,3.879100000001486],[0.1931250000000001,-0.3383333333333333,3.8999999999999986],[0.1931250000000001,-0.272037037037037,3.9170000000000016],[0.1931250000000001,-0.272037037037037,3.928600000001488],[0.17291666666666666,-0.24407407407407408,3.945300000000742],[0.16593749999999996,-0.21203703703703702,3.9618000000007427],[0.15395833333333328,-0.1522222222222222,3.9786000000014923],[0.1430208333333333,-0.1381481481481482,3.9953000000007464],[0.1400000000000001,-0.12462962962962965,4.018999999999998],[0.1400000000000001,-0.12462962962962965,4.028600000001489],[0.1564583333333334,-0.09759259259259258,4.0453000000007435],[0.14072916666666657,-0.08407407407407404,4.069000000000003],[0.14072916666666657,-0.08407407407407404,4.078499999999998],[0.11437499999999995,-0.07611111111111116,4.095300000000748],[0.11333333333333329,-0.03629629629629634,4.116800000000744],[0.11333333333333329,-0.03629629629629634,4.128600000001491],[0.08781249999999995,-0.06481481481481481,4.145300000000745],[0.07354166666666657,-0.045740740740740825,4.167400000002232],[0.07354166666666657,-0.045740740740740825,4.1785],[0.04604166666666672,-0.030740740740740784,4.195300000000742],[0.03447916666666669,-0.04333333333333329,4.211900000002238],[0.019895833333333356,-0.051666666666666625,4.231600000001492],[0.00916666666666662,-0.0727777777777778,4.246600000001493],[-0.006979166666666714,-0.11203703703703703,4.26420000000298],[-0.008645833333333287,-0.1427777777777778,4.278500000000001],[-0.0032291666666666905,-0.17185185185185187,4.300300000000746],[-0.0109375,-0.21370370370370367,4.314300000000742],[0.0046875,-0.21888888888888886,4.328700000002982],[0.01416666666666669,-0.23351851851851857,4.345300000000748],[0.026041666666666668,-0.24092592592592596,4.364900000002237],[0.0421875,-0.26129629629629636,4.379400000002235],[0.05677083333333333,-0.2874074074074074,4.397100000001487],[0.07156250000000004,-0.2962962962962963,4.418100000001488],[0.07156250000000004,-0.2962962962962963,4.428700000002976],[0.06395833333333331,-0.28277777777777774,4.445500000000003],[0.06312500000000003,-0.2633333333333333,4.461999999999996],[0.06583333333333338,-0.24000000000000005,4.481900000002234],[0.07322916666666662,-0.23703703703703705,4.4979000000022324],[0.07062499999999995,-0.2338888888888889,4.5120000000000005],[0.07999999999999995,-0.23574074074074075,4.531500000000001],[0.084375,-0.22611111111111115,4.545400000002232],[0.07000000000000005,-0.18981481481481483,4.5623000000007465],[0.06437499999999995,-0.17592592592592593,4.582400000002238],[0.008958333333333356,-0.08629629629629634,4.599300000000746],[-0.024479166666666666,-0.006296296296296254,4.614900000002237],[-0.04468749999999998,0.0588888888888888,4.631600000001491],[-0.05562499999999997,0.05129629629629638,4.645400000002233],[-0.05541666666666671,0.08499999999999996,4.661900000002234],[-0.05947916666666669,0.09203703703703713,4.678600000001488],[-0.07729166666666672,0.1124074074074075,4.695300000000742],[-0.09249999999999996,0.11407407407407412,4.711800000000743],[-0.09375,0.10018518518518522,4.728600000001492],[-0.07489583333333331,0.10611111111111103,4.745200000002981],[-0.021249999999999977,0.03722222222222227,4.761900000002235],[0.035208333333333286,0.0025925925925925505,4.778500000000001],[0.06166666666666672,-0.025925925925925925,4.795400000002232],[0.09979166666666663,-0.011296296296296339,4.811800000000744],[0.10666666666666676,-0.001851851851851852,4.828600000001487],[0.12697916666666675,0.028703703703703703,4.845200000002983],[0.13562500000000005,0.03833333333333342,4.861900000002237],[0.15697916666666673,0.04148148148148144,4.878600000001491],[0.17822916666666658,0.04462962962962967,4.895300000000745],[0.1716666666666666,0.049629629629629544,4.911900000002234],[0.15854166666666672,0.039074074074074115,4.9288000000007415],[0.14260416666666675,-0.005740740740740783,4.945200000002977],[0.13312499999999997,-0.051111111111111156,4.965100000001492],[0.11427083333333338,-0.059999999999999956,4.979200000002983],[0.1212500000000001,-0.08981481481481482,4.995300000000746],[0.11906249999999995,-0.11407407407407412,5.011800000000747],[0.14020833333333324,-0.15611111111111114,5.0316000000014895],[0.1462500000000001,-0.18574074074074076,5.0453000000007435],[0.1390625,-0.18592592592592588,5.062100000001493],[0.13083333333333325,-0.1853703703703704,5.082499999999996],[0.13083333333333325,-0.1853703703703704,5.095400000002236],[0.12218749999999995,-0.17925925925925928,5.112000000000002],[0.11354166666666667,-0.17314814814814813,5.137200000002977],[0.11354166666666667,-0.17314814814814813,5.155400000002231],[0.12208333333333338,-0.1816666666666667,5.172900000002237],[0.12208333333333338,-0.1816666666666667,5.179600000001493],[0.12999999999999995,-0.2074074074074074,5.195300000000742],[0.11604166666666677,-0.19444444444444445,5.214400000002236],[0.09354166666666662,-0.18851851851851853,5.228700000002981],[0.06427083333333337,-0.16111111111111112,5.245600000001488],[0.04916666666666671,-0.1479629629629629,5.265200000002977],[0.04708333333333338,-0.15481481481481485,5.279300000000745],[0.02354166666666669,-0.14296296296296293,5.295400000002232],[0.020833333333333332,-0.1294444444444444,5.311999999999998],[-0.01229166666666662,-0.08351851851851856,5.328600000001487],[-0.03166666666666664,-0.06018518518518518,5.347600000001492],[-0.05802083333333338,-0.015555555555555513,5.362200000002979],[-0.07468750000000005,-0.0005555555555554713,5.378700000002979],[-0.08447916666666669,0.012777777777777735,5.403300000000748],[-0.08447916666666669,0.012777777777777735,5.412100000001487],[-0.07843749999999995,0.0242592592592593,5.428900000002237],[-0.065625,0.04351851851851852,5.445400000002238],[-0.06510416666666667,0.055740740740740785,5.464400000002236],[-0.051770833333333384,0.046296296296296294,5.478700000002981],[-0.05260416666666667,0.04148148148148144,5.495400000002235],[-0.01270833333333338,-0.006851851851851936,5.514499999999998],[0.0009374999999999763,-0.0035185185185184764,5.532499999999999],[-0.0006250000000000236,-0.012592592592592508,5.5467000000029785],[-0.005416666666666714,-0.030555555555555555,5.564999999999998],[0.01072916666666662,-0.010370370370370412,5.578700000002982],[0.00927083333333331,0.013888888888888888,5.595300000000748],[-0.026979166666666644,0.05685185185185194,5.612000000000002],[-0.050625000000000024,0.09740740740740746,5.631800000000744],[-0.0328125,0.13796296296296295,5.6462000000029775],[-0.017604166666666643,0.1425925925925926,5.661999999999999],[-0.00916666666666662,0.16055555555555565,5.678600000001488],[-0.000416666666666643,0.16277777777777774,5.6973000000007445],[0.024374999999999977,0.16796296296296304,5.712100000001492],[0.04583333333333333,0.17907407407407416,5.728600000001492],[0.04895833333333333,0.16870370370370374,5.745300000000746],[0.05375000000000003,0.15722222222222218,5.764000000000003],[0.09375,0.11814814814814806,5.778700000002978],[0.12781250000000005,0.07277777777777769,5.795400000002232],[0.1290625000000001,0.03037037037037033,5.814600000001491],[0.12354166666666658,0.04592592592592584,5.828800000000747],[0.11229166666666662,0.025,5.845400000002236],[0.1256249999999999,0.0007407407407406986,5.865000000000002],[0.13270833333333343,-0.027407407407407325,5.878600000001491],[0.13010416666666677,-0.021481481481481525,5.898600000001487],[0.1196875000000001,-0.052222222222222205,5.9140000000000015],[0.13052083333333328,-0.04685185185185177,5.928700000002976],[0.12947916666666662,-0.04129629629629621,5.945400000002238],[0.134375,-0.0294444444444444,5.964999999999996],[0.12458333333333324,-0.021481481481481525,5.978700000002981],[0.12687499999999996,-0.04129629629629621,5.995400000002235],[0.1408333333333334,-0.0031481481481482323,6.0120000000000005],[0.11354166666666667,-0.002962962962963005,6.032499999999999],[0.11322916666666671,0.024629629629629547,6.045499999999997],[0.1273958333333333,0.01592592592592597,6.062600000001488],[0.1273958333333333,0.01592592592592597,6.078700000002982],[0.14500000000000005,0.031111111111111027,6.0992000000029805],[0.14427083333333332,0.0294444444444444,6.114700000002976],[0.13552083333333323,0.01907407407407399,6.128600000001491],[0.12270833333333328,0.015000000000000043,6.148100000001492],[0.14364583333333342,0.0012962962962963806,6.162100000001487],[0.16218750000000004,-0.002962962962963005,6.178700000002976],[0.15333333333333338,-0.027222222222222307,6.195300000000742],[0.18010416666666676,-0.022222222222222223,6.2142000000029824],[0.18260416666666662,-0.030000000000000086,6.228700000002981],[0.18260416666666662,-0.030000000000000086,6.245200000002981],[0.1868750000000001,-0.03259259259259263,6.2649000000022355],[0.18333333333333332,-0.03351851851851856,6.278700000002978],[0.18697916666666667,-0.05740740740740741,6.2982000000029785],[0.1912499999999999,-0.05537037037037033,6.311999999999998],[0.19989583333333344,-0.06759259259259259,6.331600000001487],[0.1790625000000001,-0.062037037037037036,6.345400000002236],[0.16218750000000004,-0.0690740740740741,6.361800000000741],[0.15395833333333328,-0.06370370370370367,6.3785000000000025],[0.13312499999999997,-0.05185185185185185,6.395300000000745],[0.12614583333333323,-0.044444444444444446,6.417300000000743],[0.12614583333333323,-0.044444444444444446,6.4285],[0.11500000000000009,-0.056851851851851834,6.445200000002977],[0.11500000000000009,-0.056851851851851834,6.466200000002978],[0.12999999999999995,-0.0477777777777777,6.478900000002234],[0.12999999999999995,-0.0477777777777777,6.495800000000742],[0.13635416666666675,-0.031111111111111027,6.512100000001489],[0.14416666666666675,-0.016666666666666666,6.531300000000748],[0.14406249999999995,-0.020740740740740823,6.5453000000007435],[0.15958333333333338,-0.01722222222222214,6.564300000000742],[0.17114583333333327,-0.0011111111111111532,6.578499999999998],[0.1868750000000001,0.0012962962962963806,6.595900000002231],[0.20260416666666667,0.003703703703703704,6.611800000000741],[0.2025000000000001,0.002777777777777778,6.628600000001491],[0.20656249999999995,0.02166666666666675,6.64520000000298],[0.19927083333333329,-0.013888888888888888,6.662800000000743],[0.19927083333333329,-0.013888888888888888,6.682300000000744],[0.19458333333333327,-0.012962962962962963,6.695500000000003],[0.17604166666666668,-0.0301851851851851,6.711900000002238],[0.17604166666666668,-0.0301851851851851,6.731499999999997],[0.1787499999999999,-0.011666666666666582,6.745200000002981],[0.16197916666666667,-0.0001851851851852273,6.761800000000747],[0.159375,-0.008148148148148106,6.778500000000001],[0.159375,-0.008148148148148106,6.795200000002978],[0.15635416666666657,-0.016666666666666666,6.811800000000744],[0.15635416666666657,-0.016666666666666666,6.828499999999998],[0.1525000000000001,-0.011296296296296339,6.849400000002234],[0.1525000000000001,-0.011296296296296339,6.861900000002237],[0.13250000000000003,-0.036666666666666584,6.8785000000000025],[0.13250000000000003,-0.036666666666666584,6.895400000002233],[0.1330208333333334,-0.03259259259259263,6.911800000000746],[0.1330208333333334,-0.03259259259259263,6.928600000001488],[0.13468749999999996,-0.016666666666666666,6.945200000002977],[0.14968750000000006,-0.016111111111111194,6.967800000000743],[0.14968750000000006,-0.016111111111111194,6.978499999999997],[0.16510416666666666,-0.010925925925925884,6.995300000000746],[0.15333333333333338,-0.03944444444444436,7.011800000000747],[0.14572916666666677,-0.06277777777777774,7.028500000000001],[0.12395833333333334,-0.06666666666666667,7.04510000000149],[0.10916666666666662,-0.06962962962962967,7.061800000000744],[0.09520833333333342,-0.08648148148148146,7.078499999999998],[0.09854166666666657,-0.06314814814814819,7.095400000002236],[0.08145833333333338,-0.0690740740740741,7.111900000002237],[0.059687499999999956,-0.0507407407407407,7.128600000001491],[0.03781249999999995,-0.051111111111111156,7.14520000000298],[0.03177083333333333,-0.04462962962962967,7.161900000002234],[-0.014479166666666644,0.0012962962962963806,7.178600000001488],[-0.05927083333333331,0.02240740740740745,7.195200000002977],[-0.1140625,0.07111111111111107,7.211800000000743],[-0.175,0.13129629629629624,7.228499999999997],[-0.2241666666666667,0.17814814814814822,7.245200000002981],[-0.24833333333333332,0.18981481481481483,7.262900000002233],[-0.28624999999999995,0.19592592592592584,7.278500000000001],[-0.3021875,0.23148148148148148,7.295900000002234],[-0.33187500000000003,0.26777777777777784,7.3119000000022325],[-0.3481250000000001,0.2766666666666666,7.329200000002977],[-0.3107291666666666,0.2699999999999999,7.345300000000748],[-0.259375,0.2764814814814814,7.361900000002237],[-0.19802083333333337,0.2553703703703703,7.3785000000000025],[-0.14572916666666663,0.20962962962962972,7.39520000000298],[-0.1046875,0.1883333333333334,7.411900000002234],[-0.10229166666666671,0.17185185185185176,7.429000000000002],[-0.0484375,0.14629629629629629,7.448900000002233],[-0.012395833333333309,0.09240740740740737,7.463100000001489],[0.04104166666666664,0.00592592592592601,7.478499999999997],[0.042812500000000024,-0.024629629629629547,7.495300000000746],[0.04468749999999998,-0.05462962962962963,7.511800000000747],[0.04125000000000002,-0.08296296296296299,7.528500000000001],[0.04822916666666662,-0.1359259259259259,7.545200000002978],[0.06895833333333339,-0.17851851851851847,7.561800000000744],[0.09572916666666677,-0.2035185185185185,7.579200000002977],[0.1336458333333333,-0.22185185185185188,7.5963000000007455],[0.12427083333333329,-0.2064814814814815,7.612700000002981],[0.12145833333333324,-0.20685185185185184,7.629200000002982],[0.10291666666666661,-0.18037037037037032,7.64520000000298],[0.10062499999999991,-0.18370370370370367,7.661900000002234],[0.09833333333333343,-0.18703703703703703,7.6788000000007415],[0.11208333333333324,-0.1940740740740741,7.695700000002979],[0.11541666666666663,-0.1764814814814815,7.711800000000743],[0.11239583333333343,-0.15481481481481485,7.731400000002232],[0.09729166666666676,-0.15703703703703706,7.746400000002232],[0.09729166666666676,-0.15703703703703706,7.761900000002235],[0.08947916666666676,-0.1690740740740741,7.778500000000001],[0.08083333333333324,-0.18611111111111112,7.795800000000746],[0.06145833333333333,-0.18851851851851853,7.811800000000744],[0.0640625,-0.19944444444444442,7.830700000002977],[0.07218749999999995,-0.207962962962963,7.845200000002983],[0.07916666666666666,-0.2212962962962963,7.861900000002237],[0.07010416666666662,-0.2309259259259259,7.8785000000000025],[0.06656249999999998,-0.24277777777777781,7.89520000000298],[0.06937499999999991,-0.25870370370370366,7.911800000000746],[0.07770833333333324,-0.2794444444444444,7.929600000001493],[0.0818749999999999,-0.25759259259259265,7.945100000001489],[0.09635416666666667,-0.25,7.961900000002238],[0.10791666666666658,-0.25407407407407406,7.981800000000746],[0.09333333333333324,-0.24296296296296294,7.998600000001488],[0.09166666666666666,-0.23203703703703707,8.012600000001491],[0.09114583333333333,-0.21629629629629632,8.028900000002231],[0.08197916666666671,-0.19685185185185186,8.04510000000149],[0.07489583333333343,-0.1881481481481482,8.061900000002233],[0.0678124999999999,-0.1794444444444444,8.078499999999998],[0.05499999999999995,-0.17685185185185184,8.096300000000745],[0.04114583333333333,-0.19722222222222222,8.111800000000741],[0.03187500000000002,-0.22185185185185188,8.128500000000003],[0.025520833333333333,-0.23481481481481484,8.145100000001491],[0.025416666666666643,-0.2609259259259259,8.161800000000746],[0.025312499999999953,-0.28703703703703703,8.178400000002235],[0.020729166666666642,-0.3087037037037037,8.1965],[0.024791666666666618,-0.334074074074074,8.211800000000743],[0.029895833333333382,-0.34388888888888886,8.228499999999997],[0.035000000000000024,-0.3537037037037037,8.245100000001493],[0.04489583333333336,-0.34759259259259256,8.261800000000747],[0.05479166666666669,-0.34148148148148144,8.278500000000001],[0.06270833333333338,-0.33555555555555555,8.296200000002983],[0.05677083333333333,-0.3140740740740741,8.311800000000744],[0.04874999999999995,-0.2861111111111111,8.328600000001487],[0.046875,-0.2544444444444444,8.345300000000748]]","[0.00020000000297670795,0.038800000000748014,0.049500000000001876,0.06499999999999773,0.07970000000297972,0.0983000000007479,0.11200000000000188,0.1301000000014909,0.14520000000297983,0.16199999999999903,0.178600000001488,0.1982000000029771,0.2119999999999962,0.22860000000149228,0.24530000000074637,0.26200000000000045,0.27860000000148943,0.2982000000029785,0.3119000000022325,0.3286000000014866,0.3453000000007478,0.3620000000000019,0.3787000000029792,0.3954000000022333,0.41199999999999903,0.4317000000029765,0.4453000000007421,0.4619000000022382,0.47870000000298063,0.49530000000074637,0.5120000000000005,0.5286000000014894,0.5453000000007435,0.5619999999999976,0.5786000000014866,0.5987000000029781,0.6121000000014902,0.6286000000014909,0.6453000000007449,0.6656000000014899,0.6794999999999973,0.6955000000000027,0.7119000000022382,0.7287000000029806,0.7483000000007465,0.7619000000022353,0.7786000000014894,0.7954000000022319,0.8119999999999976,0.8317000000029822,0.8468000000007478,0.862400000002232,0.8786000000014909,0.8979999999999961,0.9119000000022339,0.9317000000029765,0.9454000000022376,0.9619000000022382,0.9787000000029806,0.9993000000007441,1.012900000002233,1.0286000000014894,1.0452000000029784,1.0619999999999976,1.0786000000014866,1.0954000000022361,1.1119000000022368,1.1293000000007467,1.145300000000745,1.161999999999999,1.178600000001488,1.195300000000742,1.2119000000022382,1.2284999999999968,1.2453000000007464,1.2620000000000005,1.2786000000014894,1.2963000000007412,1.3119000000022325,1.3297000000029797,1.3453000000007478,1.3651000000014903,1.3788000000007443,1.4003000000007475,1.4122000000029828,1.4428000000007444,1.4498000000007423,1.46220000000298,1.4788000000007457,1.4979000000022324,1.5119000000022353,1.5301000000014895,1.5453000000007435,1.5619000000022325,1.5786000000014866,1.598700000002978,1.6153000000007438,1.6333000000007445,1.6492000000029776,1.6658000000007434,1.679000000000002,1.695300000000742,1.7119000000022382,1.7286000000014923,1.7452000000029813,1.764700000002982,1.7787000000029778,1.7956000000014924,1.817600000001491,1.8289000000022355,1.8455000000000013,1.8659000000022345,1.8788000000007443,1.8954999999999984,1.911900000002234,1.928600000001488,1.945300000000742,1.9619000000022382,1.9784999999999968,1.9954000000022347,2.0119000000022353,2.031700000002978,2.0453000000007435,2.062100000001493,2.08270000000298,2.097999999999999,2.1119000000022368,2.128700000002979,2.14520000000298,2.161900000002234,2.178600000001488,2.1961000000014863,2.211900000002238,2.2287000000029806,2.2453000000007464,2.2619000000022353,2.2786000000014894,2.29810000000149,2.3119000000022325,2.3286000000014866,2.345300000000748,2.3621000000014902,2.383400000002233,2.3958000000007473,2.411999999999999,2.4317000000029765,2.445300000000742,2.462600000001487,2.478499999999997,2.4954000000022347,2.5119000000022353,2.5286000000014894,2.5479000000022367,2.5619999999999976,2.5784999999999982,2.6004000000022316,2.614300000000746,2.628700000002979,2.645300000000745,2.6624000000022363,2.682600000001493,2.698500000000003,2.7121000000014917,2.73110000000149,2.7454000000022347,2.762100000001489,2.781500000000001,2.798700000002981,2.8127000000029767,2.8322000000029774,2.845400000002236,2.8619000000022368,2.8788000000007443,2.896000000000001,2.911900000002234,2.928600000001488,2.945200000002977,2.9618000000007427,2.9786000000014923,2.998100000001493,3.0120000000000005,3.0286000000014894,3.0452000000029784,3.0619000000022325,3.08270000000298,3.0986000000014897,3.112499999999997,3.128700000002979,3.1492000000029776,3.164600000001492,3.178600000001488,3.1987000000029795,3.2153000000007452,3.231400000002232,3.245600000001488,3.2652000000029773,3.279100000001492,3.295400000002232,3.3119000000022325,3.3284999999999982,3.3452000000029827,3.3648000000007414,3.3793000000007467,3.3954000000022333,3.411900000002234,3.4284999999999997,3.445300000000742,3.461999999999996,3.4786000000014923,3.4985,3.5149000000022355,3.529600000001487,3.5452000000029784,3.5619000000022325,3.5784999999999982,3.5952000000029827,3.6119000000022368,3.628600000001491,3.645300000000745,3.6626000000014898,3.6794999999999973,3.696700000002977,3.711999999999996,3.7286000000014923,3.7452000000029813,3.7619000000022353,3.7789000000022313,3.7986000000014926,3.812800000000742,3.8337000000029775,3.8489999999999966,3.865800000000746,3.879100000001486,3.8999999999999986,3.9170000000000016,3.928600000001488,3.945300000000742,3.9618000000007427,3.9786000000014923,3.9953000000007464,4.018999999999998,4.028600000001489,4.0453000000007435,4.069000000000003,4.078499999999998,4.095300000000748,4.116800000000744,4.128600000001491,4.145300000000745,4.167400000002232,4.1785,4.195300000000742,4.211900000002238,4.231600000001492,4.246600000001493,4.26420000000298,4.278500000000001,4.300300000000746,4.314300000000742,4.328700000002982,4.345300000000748,4.364900000002237,4.379400000002235,4.397100000001487,4.418100000001488,4.428700000002976,4.445500000000003,4.461999999999996,4.481900000002234,4.4979000000022324,4.5120000000000005,4.531500000000001,4.545400000002232,4.5623000000007465,4.582400000002238,4.599300000000746,4.614900000002237,4.631600000001491,4.645400000002233,4.661900000002234,4.678600000001488,4.695300000000742,4.711800000000743,4.728600000001492,4.745200000002981,4.761900000002235,4.778500000000001,4.795400000002232,4.811800000000744,4.828600000001487,4.845200000002983,4.861900000002237,4.878600000001491,4.895300000000745,4.911900000002234,4.9288000000007415,4.945200000002977,4.965100000001492,4.979200000002983,4.995300000000746,5.011800000000747,5.0316000000014895,5.0453000000007435,5.062100000001493,5.082499999999996,5.095400000002236,5.112000000000002,5.137200000002977,5.155400000002231,5.172900000002237,5.179600000001493,5.195300000000742,5.214400000002236,5.228700000002981,5.245600000001488,5.265200000002977,5.279300000000745,5.295400000002232,5.311999999999998,5.328600000001487,5.347600000001492,5.362200000002979,5.378700000002979,5.403300000000748,5.412100000001487,5.428900000002237,5.445400000002238,5.464400000002236,5.478700000002981,5.495400000002235,5.514499999999998,5.532499999999999,5.5467000000029785,5.564999999999998,5.578700000002982,5.595300000000748,5.612000000000002,5.631800000000744,5.6462000000029775,5.661999999999999,5.678600000001488,5.6973000000007445,5.712100000001492,5.728600000001492,5.745300000000746,5.764000000000003,5.778700000002978,5.795400000002232,5.814600000001491,5.828800000000747,5.845400000002236,5.865000000000002,5.878600000001491,5.898600000001487,5.9140000000000015,5.928700000002976,5.945400000002238,5.964999999999996,5.978700000002981,5.995400000002235,6.0120000000000005,6.032499999999999,6.045499999999997,6.062600000001488,6.078700000002982,6.0992000000029805,6.114700000002976,6.128600000001491,6.148100000001492,6.162100000001487,6.178700000002976,6.195300000000742,6.2142000000029824,6.228700000002981,6.245200000002981,6.2649000000022355,6.278700000002978,6.2982000000029785,6.311999999999998,6.331600000001487,6.345400000002236,6.361800000000741,6.3785000000000025,6.395300000000745,6.417300000000743,6.4285,6.445200000002977,6.466200000002978,6.478900000002234,6.495800000000742,6.512100000001489,6.531300000000748,6.5453000000007435,6.564300000000742,6.578499999999998,6.595900000002231,6.611800000000741,6.628600000001491,6.64520000000298,6.662800000000743,6.682300000000744,6.695500000000003,6.711900000002238,6.731499999999997,6.745200000002981,6.761800000000747,6.778500000000001,6.795200000002978,6.811800000000744,6.828499999999998,6.849400000002234,6.861900000002237,6.8785000000000025,6.895400000002233,6.911800000000746,6.928600000001488,6.945200000002977,6.967800000000743,6.978499999999997,6.995300000000746,7.011800000000747,7.028500000000001,7.04510000000149,7.061800000000744,7.078499999999998,7.095400000002236,7.111900000002237,7.128600000001491,7.14520000000298,7.161900000002234,7.178600000001488,7.195200000002977,7.211800000000743,7.228499999999997,7.245200000002981,7.262900000002233,7.278500000000001,7.295900000002234,7.3119000000022325,7.329200000002977,7.345300000000748,7.361900000002237,7.3785000000000025,7.39520000000298,7.411900000002234,7.429000000000002,7.448900000002233,7.463100000001489,7.478499999999997,7.495300000000746,7.511800000000747,7.528500000000001,7.545200000002978,7.561800000000744,7.579200000002977,7.5963000000007455,7.612700000002981,7.629200000002982,7.64520000000298,7.661900000002234,7.6788000000007415,7.695700000002979,7.711800000000743,7.731400000002232,7.746400000002232,7.761900000002235,7.778500000000001,7.795800000000746,7.811800000000744,7.830700000002977,7.845200000002983,7.861900000002237,7.8785000000000025,7.89520000000298,7.911800000000746,7.929600000001493,7.945100000001489,7.961900000002238,7.981800000000746,7.998600000001488,8.012600000001491,8.028900000002231,8.04510000000149,8.061900000002233,8.078499999999998,8.096300000000745,8.111800000000741,8.128500000000003,8.145100000001491,8.161800000000746,8.178400000002235,8.1965,8.211800000000743,8.228499999999997,8.245100000001493,8.261800000000747,8.278500000000001,8.296200000002983,8.311800000000744,8.328600000001487,8.345300000000748]","[1733130266057,1733130266089,1733130266100,1733130266115,1733130266130,1733130266148,1733130266162,1733130266180,1733130266195,1733130266212,1733130266229,1733130266248,1733130266262,1733130266279,1733130266295,1733130266312,1733130266329,1733130266348,1733130266362,1733130266379,1733130266395,1733130266412,1733130266429,1733130266445,1733130266462,1733130266482,1733130266495,1733130266512,1733130266529,1733130266545,1733130266562,1733130266579,1733130266595,1733130266612,1733130266629,1733130266649,1733130266662,1733130266679,1733130266695,1733130266716,1733130266729,1733130266745,1733130266762,1733130266779,1733130266798,1733130266812,1733130266829,1733130266845,1733130266862,1733130266882,1733130266897,1733130266912,1733130266929,1733130266948,1733130266962,1733130266982,1733130266995,1733130267012,1733130267029,1733130267049,1733130267063,1733130267079,1733130267095,1733130267112,1733130267129,1733130267145,1733130267162,1733130267179,1733130267195,1733130267212,1733130267229,1733130267245,1733130267262,1733130267279,1733130267295,1733130267312,1733130267329,1733130267346,1733130267362,1733130267380,1733130267395,1733130267415,1733130267429,1733130267450,1733130267462,1733130267493,1733130267500,1733130267512,1733130267529,1733130267548,1733130267562,1733130267580,1733130267595,1733130267612,1733130267629,1733130267649,1733130267665,1733130267683,1733130267699,1733130267716,1733130267729,1733130267745,1733130267762,1733130267779,1733130267795,1733130267815,1733130267829,1733130267846,1733130267868,1733130267879,1733130267895,1733130267916,1733130267929,1733130267946,1733130267962,1733130267979,1733130267995,1733130268012,1733130268029,1733130268045,1733130268062,1733130268082,1733130268095,1733130268112,1733130268133,1733130268148,1733130268162,1733130268179,1733130268195,1733130268212,1733130268229,1733130268246,1733130268262,1733130268279,1733130268295,1733130268312,1733130268329,1733130268348,1733130268362,1733130268379,1733130268395,1733130268412,1733130268433,1733130268446,1733130268462,1733130268482,1733130268495,1733130268513,1733130268529,1733130268545,1733130268562,1733130268579,1733130268598,1733130268612,1733130268629,1733130268650,1733130268664,1733130268679,1733130268695,1733130268712,1733130268733,1733130268748,1733130268762,1733130268781,1733130268795,1733130268812,1733130268831,1733130268849,1733130268863,1733130268882,1733130268895,1733130268912,1733130268929,1733130268946,1733130268962,1733130268979,1733130268995,1733130269012,1733130269029,1733130269048,1733130269062,1733130269079,1733130269095,1733130269112,1733130269133,1733130269148,1733130269162,1733130269179,1733130269199,1733130269215,1733130269229,1733130269249,1733130269265,1733130269281,1733130269296,1733130269315,1733130269329,1733130269345,1733130269362,1733130269379,1733130269395,1733130269415,1733130269429,1733130269445,1733130269462,1733130269479,1733130269495,1733130269512,1733130269529,1733130269548,1733130269565,1733130269580,1733130269595,1733130269612,1733130269629,1733130269645,1733130269662,1733130269679,1733130269695,1733130269713,1733130269729,1733130269747,1733130269762,1733130269779,1733130269795,1733130269812,1733130269829,1733130269849,1733130269863,1733130269884,1733130269899,1733130269916,1733130269929,1733130269950,1733130269967,1733130269978,1733130269995,1733130270012,1733130270029,1733130270045,1733130270069,1733130270079,1733130270095,1733130270119,1733130270128,1733130270145,1733130270167,1733130270179,1733130270195,1733130270217,1733130270229,1733130270245,1733130270262,1733130270282,1733130270297,1733130270314,1733130270328,1733130270350,1733130270364,1733130270380,1733130270396,1733130270416,1733130270430,1733130270448,1733130270469,1733130270480,1733130270497,1733130270513,1733130270533,1733130270549,1733130270563,1733130270583,1733130270596,1733130270613,1733130270633,1733130270650,1733130270666,1733130270683,1733130270696,1733130270713,1733130270730,1733130270746,1733130270763,1733130270780,1733130270796,1733130270813,1733130270830,1733130270846,1733130270863,1733130270880,1733130270896,1733130270913,1733130270930,1733130270946,1733130270963,1733130270980,1733130270996,1733130271016,1733130271030,1733130271046,1733130271063,1733130271083,1733130271096,1733130271113,1733130271133,1733130271146,1733130271163,1733130271188,1733130271206,1733130271224,1733130271231,1733130271246,1733130271265,1733130271280,1733130271297,1733130271316,1733130271330,1733130271346,1733130271363,1733130271380,1733130271399,1733130271413,1733130271430,1733130271454,1733130271463,1733130271480,1733130271496,1733130271515,1733130271530,1733130271546,1733130271565,1733130271584,1733130271598,1733130271616,1733130271630,1733130271646,1733130271663,1733130271683,1733130271697,1733130271713,1733130271730,1733130271748,1733130271763,1733130271780,1733130271796,1733130271815,1733130271830,1733130271846,1733130271866,1733130271880,1733130271896,1733130271916,1733130271930,1733130271950,1733130271965,1733130271980,1733130271996,1733130272016,1733130272030,1733130272046,1733130272063,1733130272083,1733130272096,1733130272114,1733130272130,1733130272150,1733130272166,1733130272180,1733130272199,1733130272213,1733130272230,1733130272246,1733130272265,1733130272280,1733130272296,1733130272316,1733130272330,1733130272349,1733130272363,1733130272383,1733130272396,1733130272413,1733130272430,1733130272446,1733130272468,1733130272480,1733130272496,1733130272517,1733130272530,1733130272547,1733130272563,1733130272582,1733130272596,1733130272615,1733130272630,1733130272647,1733130272663,1733130272680,1733130272696,1733130272714,1733130272733,1733130272747,1733130272763,1733130272783,1733130272796,1733130272813,1733130272830,1733130272846,1733130272863,1733130272880,1733130272900,1733130272913,1733130272930,1733130272946,1733130272963,1733130272980,1733130272996,1733130273019,1733130273030,1733130273046,1733130273063,1733130273080,1733130273096,1733130273113,1733130273130,1733130273146,1733130273163,1733130273180,1733130273196,1733130273213,1733130273230,1733130273246,1733130273263,1733130273280,1733130273296,1733130273314,1733130273330,1733130273347,1733130273363,1733130273380,1733130273396,1733130273413,1733130273430,1733130273446,1733130273463,1733130273480,1733130273500,1733130273514,1733130273530,1733130273546,1733130273563,1733130273580,1733130273596,1733130273613,1733130273630,1733130273647,1733130273664,1733130273680,1733130273696,1733130273713,1733130273730,1733130273747,1733130273763,1733130273782,1733130273797,1733130273813,1733130273830,1733130273847,1733130273863,1733130273882,1733130273896,1733130273913,1733130273929,1733130273946,1733130273963,1733130273981,1733130273996,1733130274013,1733130274033,1733130274050,1733130274064,1733130274080,1733130274096,1733130274113,1733130274130,1733130274147,1733130274163,1733130274180,1733130274196,1733130274213,1733130274229,1733130274248,1733130274263,1733130274280,1733130274296,1733130274313,1733130274329,1733130274347,1733130274363,1733130274380,1733130274396]","[[1075.7,393.3],[1075.7,393.3],[1062.5,407.2],[1069.2,401.1],[1082.4,400.7],[1106.2,395.1],[1116.7,384],[1111.8,387.6],[1104,395.8],[1107.1,406.4],[1077,421.6],[1079.7,449.5],[1079.5,459.5],[1058.6,457],[1037.7,454.5],[941.6,456.7],[850.4,464.3],[753.6,460.2],[659.8,460.7],[555.1,458.8],[428.1,452.7],[299.3,434.1],[181.8,412.6],[181.8,412.6],[71.7,417.3],[-38.9,439.5],[-49,454.4],[-71,457.5],[-84.2,459.4],[-40.6,456.3],[3,453.2],[148.1,441.8],[294.6,441.1],[436.4,436],[563.9,437.8],[708.3,420.7],[835.8,399.9],[988.8,376.9],[1121.4,363.2],[1191.3,353.2],[1238.3,345.9],[1210.1,360.5],[1177.5,372.5],[1138.3,391.8],[1119,395.4],[1084.5,390],[1047,386.9],[991,392.4],[971.1,400.2],[954.1,404.7],[943.4,409.3],[957.6,405.7],[974.8,394],[992.3,370.3],[1007.4,356.4],[998,356],[1001.7,357.6],[992.6,378.4],[992.6,378.4],[966.8,399.1],[953,387.5],[922.1,398.3],[868,409.4],[828.5,397.1],[787,412.5],[752.8,418.8],[741.9,422],[720.9,420.9],[714.9,400.7],[711.3,382.6],[671.6,407.9],[665.6,408],[672.6,406.8],[665,429],[653,435.4],[664.7,435.2],[676.4,435],[689.3,438.9],[700,442.7],[698.3,437.2],[737.8,437.8],[768.4,429.4],[802.6,415.5],[818.9,401.4],[818.9,401.4],[841.3,387.4],[841.3,387.4],[864.5,405.4],[882.4,432.4],[898.8,446.2],[910,444.7],[937.9,446.8],[941.1,431.6],[953.2,425.4],[948,417.6],[937.1,420.8],[926.2,424],[914.7,424],[917.6,415.2],[906.2,404.3],[900.7,408.4],[900.7,408.4],[887,416.6],[889.4,432.1],[891.8,447.6],[914.2,453.7],[946.1,451.4],[946.1,451.4],[976,445.7],[976,445.7],[968.3,433.4],[968.3,433.4],[962.9,426.2],[962.9,426.2],[956,414.8],[956,414.8],[948.4,403.7],[948.4,403.7],[960,408.7],[960,408.7],[964.2,403.4],[968.4,397.6],[931.5,404.7],[926.2,403.9],[922.9,406.5],[922.9,404.7],[911.5,397.6],[917.8,405],[924.1,412.4],[927.7,403.8],[930.2,398.3],[934.1,392.6],[959.8,391.8],[974.5,385.2],[988.3,395.8],[1005.6,392],[1007.4,398.8],[1021.2,394.9],[1032.3,398.1],[1035.1,397.1],[1037.4,401.2],[1037.6,394.6],[1040.2,400.5],[1040.2,400.5],[1034.8,404.4],[1019.7,389.3],[1004.2,386.5],[1008.8,379.8],[999.8,384.7],[982.1,380.7],[963.8,370.2],[958.1,351.1],[953.1,343.4],[969.5,337.2],[978,343.6],[1010,341.4],[1016.1,347.6],[1016.1,347.6],[1024.7,359.8],[1014.2,382],[1017.7,396.2],[1010.9,429.9],[1009.2,463.7],[1007.5,497.5],[949.8,514.1],[901.5,531.4],[827.3,562.3],[855.3,566],[889.4,553.9],[932.5,525.5],[943.8,512.7],[989.5,474.5],[1019.5,439.3],[1018.3,404.1],[1049.3,372.1],[1079.9,340],[1115.8,320.1],[1083,317.7],[1037,318.4],[981.7,321.2],[953.5,318.4],[906.8,324.1],[906.8,324.1],[857.5,332.7],[839.4,352.5],[842.9,360.6],[846.8,368.8],[858.4,361.6],[855,355.1],[848.6,354.1],[861.6,357.3],[876.7,360.3],[904.8,367.9],[933.3,367.8],[959.1,367],[969,374.8],[975.8,382.4],[975.8,382.4],[973.8,382.3],[996.6,376.4],[1010.1,371.3],[1027.6,363.3],[1050.7,357.5],[1050.7,357.5],[1065.2,341.8],[1065.6,346.6],[1068.7,340.9],[1039.8,346.5],[1013.8,359.3],[991.9,367.3],[952.6,381.7],[925.6,389.8],[911.9,393.8],[885.5,392.7],[889.2,398.3],[900.5,398.5],[911.3,393.4],[948.4,380.1],[998.7,354.2],[1050.7,333.1],[1080,316.1],[1138.9,300.4],[1179.2,288.5],[1210.4,275.3],[1202.2,264.6],[1207.8,247.6],[1213.9,235.9],[1210,225.1],[1196.5,245.4],[1188.9,270.8],[1190.9,287.7],[1172.8,311.5],[1156,338.5],[1145.4,357.3],[1145.4,393.1],[1145.4,393.1],[1126,408.2],[1119.3,425.5],[1107.8,457.8],[1097.3,465.4],[1094.4,472.7],[1094.4,472.7],[1110.2,487.3],[1095.1,494.6],[1095.1,494.6],[1069.8,498.9],[1068.8,520.4],[1068.8,520.4],[1044.3,505],[1030.6,515.3],[1030.6,515.3],[1004.2,523.4],[993.1,516.6],[979.1,512.1],[968.8,500.7],[953.3,479.5],[951.7,462.9],[956.9,447.2],[949.5,424.6],[964.5,421.8],[973.6,413.9],[985,409.9],[1000.5,398.9],[1014.5,384.8],[1028.7,380],[1028.7,380],[1021.4,387.3],[1020.6,397.8],[1023.2,410.4],[1030.3,412],[1027.8,413.7],[1036.8,412.7],[1041,417.9],[1027.2,437.5],[1021.8,445],[968.6,493.4],[936.5,536.6],[917.1,571.8],[906.6,567.7],[906.8,585.9],[902.9,589.7],[885.8,600.7],[871.2,601.6],[870,594.1],[888.1,597.3],[939.6,560.1],[993.8,541.4],[1019.2,526],[1055.8,533.9],[1062.4,539],[1081.9,555.5],[1090.2,560.7],[1110.7,562.4],[1131.1,564.1],[1124.8,566.8],[1112.2,561.1],[1096.9,536.9],[1087.8,512.4],[1069.7,507.6],[1076.4,491.5],[1074.3,478.4],[1094.6,455.7],[1100.4,439.7],[1093.5,439.6],[1085.6,439.9],[1085.6,439.9],[1077.3,443.2],[1069,446.5],[1069,446.5],[1077.2,441.9],[1077.2,441.9],[1084.8,428],[1071.4,435],[1049.8,438.2],[1021.7,453],[1007.2,460.1],[1005.2,456.4],[982.6,462.8],[980,470.1],[948.2,494.9],[929.6,507.5],[904.3,531.6],[888.3,539.7],[878.9,546.9],[878.9,546.9],[884.7,553.1],[897,563.5],[897.5,570.1],[910.3,565],[909.5,562.4],[947.8,536.3],[960.9,538.1],[959.4,533.2],[954.8,523.5],[970.3,534.4],[968.9,547.5],[934.1,570.7],[911.4,592.6],[928.5,614.5],[943.1,617],[951.2,626.7],[959.6,627.9],[983.4,630.7],[1004,636.7],[1007,631.1],[1011.6,624.9],[1050,603.8],[1082.7,579.3],[1083.9,556.4],[1078.6,564.8],[1067.8,553.5],[1080.6,540.4],[1087.4,525.2],[1084.9,528.4],[1074.9,511.8],[1085.3,514.7],[1084.3,517.7],[1089,524.1],[1079.6,528.4],[1081.8,517.7],[1095.2,538.3],[1069,538.4],[1068.7,553.3],[1082.3,548.6],[1082.3,548.6],[1099.2,556.8],[1098.5,555.9],[1090.1,550.3],[1077.8,548.1],[1097.9,540.7],[1115.7,538.4],[1107.2,525.3],[1132.9,528],[1135.3,523.8],[1135.3,523.8],[1139.4,522.4],[1136,521.9],[1139.5,509],[1143.6,510.1],[1151.9,503.5],[1131.9,506.5],[1115.7,502.7],[1107.8,505.6],[1087.8,512],[1081.1,516],[1081.1,516],[1070.4,509.3],[1070.4,509.3],[1084.8,514.2],[1084.8,514.2],[1090.9,523.2],[1098.4,531],[1098.3,528.8],[1113.2,530.7],[1124.3,539.4],[1139.4,540.7],[1154.5,542],[1154.4,541.5],[1158.3,551.7],[1151.3,532.5],[1151.3,532.5],[1146.8,533],[1129,523.7],[1129,523.7],[1131.6,533.7],[1115.5,539.9],[1113,535.6],[1113,535.6],[1110.1,531],[1110.1,531],[1106.4,533.9],[1106.4,533.9],[1087.2,520.2],[1087.2,520.2],[1087.7,522.4],[1087.7,522.4],[1089.3,531],[1103.7,531.3],[1103.7,531.3],[1118.5,534.1],[1107.2,518.7],[1099.9,506.1],[1079,504],[1064.8,502.4],[1051.4,493.3],[1054.6,505.9],[1038.2,502.7],[1017.3,512.6],[996.3,512.4],[990.5,515.9],[946.1,540.7],[903.1,552.1],[850.5,578.4],[792,610.9],[744.8,636.2],[721.6,642.5],[685.2,645.8],[669.9,665],[641.4,684.6],[625.8,689.4],[661.7,685.8],[711,689.3],[769.9,677.9],[820.1,653.2],[859.5,641.7],[861.8,632.8],[913.5,619],[948.1,589.9],[999.4,543.2],[1001.1,526.7],[1002.9,510.5],[999.6,495.2],[1006.3,466.6],[1026.2,443.6],[1051.9,430.1],[1088.3,420.2],[1079.3,428.5],[1076.6,428.3],[1058.8,442.6],[1056.6,440.8],[1054.4,439],[1067.6,435.2],[1070.8,444.7],[1067.9,456.4],[1053.4,455.2],[1053.4,455.2],[1045.9,448.7],[1037.6,439.5],[1019,438.2],[1021.5,432.3],[1029.3,427.7],[1036,420.5],[1027.3,415.3],[1023.9,408.9],[1026.6,400.3],[1034.6,389.1],[1038.6,400.9],[1052.5,405],[1063.6,402.8],[1049.6,408.8],[1048,414.7],[1047.5,423.2],[1038.7,433.7],[1031.9,438.4],[1025.1,443.1],[1012.8,444.5],[999.5,433.5],[990.6,420.2],[984.5,413.2],[984.4,399.1],[984.3,385],[979.9,373.3],[983.8,359.6],[988.7,354.3],[993.6,349],[1003.1,352.3],[1012.6,355.6],[1020.2,358.8],[1014.5,370.4],