inst1_resp.keys,inst1_resp.rt,calibrationMouse.x,calibrationMouse.y,calibrationMouse.leftButton,calibrationMouse.midButton,calibrationMouse.rightButton,calibrationClick.x,calibrationClick.y,calibrationClick.leftButton,calibrationClick.midButton,calibrationClick.rightButton,calibrationClick.clicked_name,trialsc.thisRepN,trialsc.thisTrialN,trialsc.thisN,trialsc.thisIndex,trialsc.ran,calibration_x,calibration_y,participant,session,date,expName,psychopyVersion,OS,frameRate,ScreenRes_pixels,Camera_pixels,mouse_2.x,mouse_2.y,mouse_2.leftButton,mouse_2.midButton,mouse_2.rightButton,mouse_2.time,mouse_2.clicked_name,mouse.x,mouse.y,mouse.leftButton,mouse.midButton,mouse.rightButton,mouse.time,mouse.clicked_name,Choice,Trial,TrialDuration,MOUSE_GAZE,ET_GAZE,ET_GAZE_x_T,time,unixTime,ET_GAZE_NF,Loc_Option1_label,Loc_Option2_label,Loc_Cost_label,Loc_Qual_label,Loc_Option1_cost,Loc_Option2_cost,Loc_Option1_quality,Loc_Option2_quality,trials.thisRepN,trials.thisTrialN,trials.thisN,trials.thisIndex,trials.ran,Block,Device,cost1,qual1,cost2,qual2
space,2.8153,0.008333333,0.453703704,1,0,0,-0.338541667,0.677777778,1,0,0,calibration_square,0,0,0,8,1,-0.33,0.67,05,001,2024-12-01_15h55.13.167,Attention_exp_legacy,2023.1.0,Win32,59.88023952,,,,,,,,,,,,,,,,,,,,,,,,,,,,,,,,,,,,,,,,,,,,
,,,,,,,0.316666667,0.67037037,1,0,0,,0,1,1,18,1,0.33,0.67,05,001,2024-12-01_15h55.13.167,Attention_exp_legacy,2023.1.0,Win32,59.88023952,,,,,,,,,,,,,,,,,,,,,,,,,,,,,,,,,,,,,,,,,,,,
,,,,,,,-0.336458333,-0.003703704,1,0,0,calibration_square,0,2,2,6,1,-0.33,0,05,001,2024-12-01_15h55.13.167,Attention_exp_legacy,2023.1.0,Win32,59.88023952,,,,,,,,,,,,,,,,,,,,,,,,,,,,,,,,,,,,,,,,,,,,
,,,,,,,-0.3375,0.32962963,1,0,0,calibration_square,0,3,3,7,1,-0.33,0.33,05,001,2024-12-01_15h55.13.167,Attention_exp_legacy,2023.1.0,Win32,59.88023952,,,,,,,,,,,,,,,,,,,,,,,,,,,,,,,,,,,,,,,,,,,,
,,,,,,,0.009375,0.331481481,1,0,0,calibration_square,0,4,4,12,1,0,0.33,05,001,2024-12-01_15h55.13.167,Attention_exp_legacy,2023.1.0,Win32,59.88023952,,,,,,,,,,,,,,,,,,,,,,,,,,,,,,,,,,,,,,,,,,,,
,,,,,,,-0.688541667,-0.009259259,1,0,0,,0,5,5,2,1,-0.67,0,05,001,2024-12-01_15h55.13.167,Attention_exp_legacy,2023.1.0,Win32,59.88023952,,,,,,,,,,,,,,,,,,,,,,,,,,,,,,,,,,,,,,,,,,,,
,,,,,,,0.642708333,-0.681481481,1,0,0,,0,6,6,20,1,0.67,-0.67,05,001,2024-12-01_15h55.13.167,Attention_exp_legacy,2023.1.0,Win32,59.88023952,,,,,,,,,,,,,,,,,,,,,,,,,,,,,,,,,,,,,,,,,,,,
,,,,,,,-0.365625,-0.67962963,1,0,0,,0,7,7,4,1,-0.33,-0.67,05,001,2024-12-01_15h55.13.167,Attention_exp_legacy,2023.1.0,Win32,59.88023952,,,,,,,,,,,,,,,,,,,,,,,,,,,,,,,,,,,,,,,,,,,,
,,,,,,,-0.33125,-0.333333333,1,0,0,calibration_square,0,8,8,5,1,-0.33,-0.33,05,001,2024-12-01_15h55.13.167,Attention_exp_legacy,2023.1.0,Win32,59.88023952,,,,,,,,,,,,,,,,,,,,,,,,,,,,,,,,,,,,,,,,,,,,
,,,,,,,-0.671875,-0.32962963,1,0,0,calibration_square,0,9,9,1,1,-0.67,-0.33,05,001,2024-12-01_15h55.13.167,Attention_exp_legacy,2023.1.0,Win32,59.88023952,,,,,,,,,,,,,,,,,,,,,,,,,,,,,,,,,,,,,,,,,,,,
,,,,,,,-0.691666667,0.392592593,1,0,0,,0,10,10,3,1,-0.67,0.33,05,001,2024-12-01_15h55.13.167,Attention_exp_legacy,2023.1.0,Win32,59.88023952,,,,,,,,,,,,,,,,,,,,,,,,,,,,,,,,,,,,,,,,,,,,
,,,,,,,-0.054166667,-0.598148148,1,0,0,,0,11,11,9,1,0,-0.67,05,001,2024-12-01_15h55.13.167,Attention_exp_legacy,2023.1.0,Win32,59.88023952,,,,,,,,,,,,,,,,,,,,,,,,,,,,,,,,,,,,,,,,,,,,
,,,,,,,0.021875,0.648148148,1,0,0,,0,12,12,13,1,0,0.67,05,001,2024-12-01_15h55.13.167,Attention_exp_legacy,2023.1.0,Win32,59.88023952,,,,,,,,,,,,,,,,,,,,,,,,,,,,,,,,,,,,,,,,,,,,
,,,,,,,-0.658333333,-0.711111111,1,0,0,,0,13,13,0,1,-0.67,-0.67,05,001,2024-12-01_15h55.13.167,Attention_exp_legacy,2023.1.0,Win32,59.88023952,,,,,,,,,,,,,,,,,,,,,,,,,,,,,,,,,,,,,,,,,,,,
,,,,,,,0.2875,-0.001851852,1,0,0,,0,14,14,16,1,0.33,0,05,001,2024-12-01_15h55.13.167,Attention_exp_legacy,2023.1.0,Win32,59.88023952,,,,,,,,,,,,,,,,,,,,,,,,,,,,,,,,,,,,,,,,,,,,
,,,,,,,0.009375,-0.009259259,1,0,0,calibration_square,0,15,15,11,1,0,0,05,001,2024-12-01_15h55.13.167,Attention_exp_legacy,2023.1.0,Win32,59.88023952,,,,,,,,,,,,,,,,,,,,,,,,,,,,,,,,,,,,,,,,,,,,
,,,,,,,0.328125,-0.698148148,1,0,0,,0,16,16,14,1,0.33,-0.67,05,001,2024-12-01_15h55.13.167,Attention_exp_legacy,2023.1.0,Win32,59.88023952,,,,,,,,,,,,,,,,,,,,,,,,,,,,,,,,,,,,,,,,,,,,
,,,,,,,0.658333333,0.688888889,1,0,0,,0,17,17,19,1,0.67,0.67,05,001,2024-12-01_15h55.13.167,Attention_exp_legacy,2023.1.0,Win32,59.88023952,,,,,,,,,,,,,,,,,,,,,,,,,,,,,,,,,,,,,,,,,,,,
,,,,,,,0.016666667,-0.314814815,1,0,0,,0,18,18,10,1,0,-0.33,05,001,2024-12-01_15h55.13.167,Attention_exp_legacy,2023.1.0,Win32,59.88023952,,,,,,,,,,,,,,,,,,,,,,,,,,,,,,,,,,,,,,,,,,,,
,,,,,,,0.31875,-0.37962963,1,0,0,,0,19,19,15,1,0.33,-0.33,05,001,2024-12-01_15h55.13.167,Attention_exp_legacy,2023.1.0,Win32,59.88023952,,,,,,,,,,,,,,,,,,,,,,,,,,,,,,,,,,,,,,,,,,,,
,,,,,,,0.353125,0.359259259,1,0,0,,0,20,20,17,1,0.33,0.33,05,001,2024-12-01_15h55.13.167,Attention_exp_legacy,2023.1.0,Win32,59.88023952,,,,,,,,,,,,,,,,,,,,,,,,,,,,,,,,,,,,,,,,,,,,
,,,,,,,,,,,,,,,,,,,,05,001,2024-12-01_15h55.13.167,Attention_exp_legacy,2023.1.0,Win32,59.88023952,"[1920,1080]","[640,480]",[-0.014583333333333334],[-0.5055555555555555],[1],[0],[0],[1.6131000000238416],"[""StartButton""]",[0.022916666666666665],[0.5277777777777778],[1],[0],[0],[4.861199999988081],"[""Option1_label""]",Option1_label,1,5.8704,"[[-0.011458333333333333,0.3074074074074074],[-0.011458333333333333,0.3074074074074074],[-0.011458333333333333,0.3074074074074074],[-0.011458333333333333,0.3074074074074074],[-0.011458333333333333,0.3074074074074074],[-0.011458333333333333,0.3074074074074074],[-0.011458333333333333,0.3074074074074074],[-0.011458333333333333,0.3074074074074074],[-0.011458333333333333,0.3074074074074074],[-0.011458333333333333,0.3074074074074074],[-0.011458333333333333,0.3074074074074074],[-0.011458333333333333,0.3074074074074074],[-0.011458333333333333,0.3074074074074074],[-0.011458333333333333,0.3074074074074074],[-0.011458333333333333,0.3074074074074074],[-0.011458333333333333,0.3074074074074074],[-0.011458333333333333,0.3074074074074074],[-0.011458333333333333,0.3074074074074074],[-0.011458333333333333,0.3074074074074074],[-0.011458333333333333,0.3074074074074074],[-0.011458333333333333,0.3074074074074074],[-0.011458333333333333,0.3074074074074074],[-0.011458333333333333,0.3074074074074074],[-0.011458333333333333,0.3074074074074074],[-0.011458333333333333,0.3074074074074074],[-0.011458333333333333,0.3074074074074074],[-0.011458333333333333,0.3074074074074074],[-0.011458333333333333,0.3074074074074074],[-0.011458333333333333,0.3074074074074074],[-0.011458333333333333,0.3074074074074074],[-0.0125,0.31296296296296294],[-0.014583333333333334,0.3277777777777778],[-0.015625,0.3314814814814815],[-0.016666666666666666,0.34074074074074073],[-0.016666666666666666,0.35185185185185186],[-0.016666666666666666,0.37962962962962965],[-0.016666666666666666,0.40370370370370373],[-0.016666666666666666,0.43148148148148147],[-0.01875,0.45740740740740743],[-0.021875,0.49444444444444446],[-0.025,0.5222222222222223],[-0.027083333333333334,0.5444444444444444],[-0.03333333333333333,0.5703703703703704],[-0.041666666666666664,0.5925925925925926],[-0.051041666666666666,0.6111111111111112],[-0.071875,0.6388888888888888],[-0.08229166666666667,0.6444444444444445],[-0.11145833333333334,0.6648148148148149],[-0.1375,0.6759259259259259],[-0.18229166666666666,0.6888888888888889],[-0.22916666666666666,0.6925925925925925],[-0.26458333333333334,0.6962962962962963],[-0.31354166666666666,0.6962962962962963],[-0.32916666666666666,0.6962962962962963],[-0.36770833333333336,0.674074074074074],[-0.40208333333333335,0.6555555555555556],[-0.44479166666666664,0.6222222222222222],[-0.4625,0.5981481481481481],[-0.471875,0.5833333333333334],[-0.49166666666666664,0.5314814814814814],[-0.5041666666666667,0.4925925925925926],[-0.5145833333333333,0.44814814814814813],[-0.5239583333333333,0.4074074074074074],[-0.5291666666666667,0.3648148148148148],[-0.5364583333333334,0.3074074074074074],[-0.5385416666666667,0.27037037037037037],[-0.5385416666666667,0.23703703703703705],[-0.5385416666666667,0.2074074074074074],[-0.5385416666666667,0.1814814814814815],[-0.5385416666666667,0.15555555555555556],[-0.5364583333333334,0.14074074074074075],[-0.5291666666666667,0.10185185185185185],[-0.525,0.07592592592592592],[-0.5197916666666667,0.05185185185185185],[-0.5145833333333333,0.02962962962962963],[-0.509375,0.009259259259259259],[-0.5052083333333334,-0.007407407407407408],[-0.5020833333333333,-0.024074074074074074],[-0.4979166666666667,-0.03518518518518519],[-0.49583333333333335,-0.04814814814814815],[-0.48854166666666665,-0.07037037037037037],[-0.4875,-0.07407407407407407],[-0.48333333333333334,-0.08703703703703704],[-0.478125,-0.10185185185185185],[-0.4739583333333333,-0.11481481481481481],[-0.4708333333333333,-0.1259259259259259],[-0.4666666666666667,-0.14074074074074075],[-0.46145833333333336,-0.15],[-0.453125,-0.16666666666666666],[-0.44895833333333335,-0.17592592592592593],[-0.446875,-0.17962962962962964],[-0.44166666666666665,-0.19074074074074074],[-0.434375,-0.2037037037037037],[-0.4322916666666667,-0.2074074074074074],[-0.4270833333333333,-0.21296296296296297],[-0.421875,-0.21666666666666667],[-0.4125,-0.2222222222222222],[-0.4041666666666667,-0.22777777777777777],[-0.3958333333333333,-0.22962962962962963],[-0.3875,-0.23148148148148148],[-0.3802083333333333,-0.2351851851851852],[-0.371875,-0.2388888888888889],[-0.3625,-0.24074074074074073],[-0.34375,-0.2462962962962963],[-0.328125,-0.25],[-0.3177083333333333,-0.2537037037037037],[-0.309375,-0.25555555555555554],[-0.290625,-0.2574074074074074],[-0.278125,-0.2574074074074074],[-0.2625,-0.2574074074074074],[-0.24479166666666666,-0.2574074074074074],[-0.228125,-0.2574074074074074],[-0.20520833333333333,-0.26296296296296295],[-0.18333333333333332,-0.26851851851851855],[-0.14791666666666667,-0.2777777777777778],[-0.134375,-0.2833333333333333],[-0.10625,-0.28703703703703703],[-0.07395833333333333,-0.29814814814814816],[-0.042708333333333334,-0.3055555555555556],[0.0125,-0.31851851851851853],[0.04895833333333333,-0.3277777777777778],[0.08020833333333334,-0.3333333333333333],[0.11041666666666666,-0.3425925925925926],[0.14166666666666666,-0.35185185185185186],[0.16770833333333332,-0.35555555555555557],[0.19270833333333334,-0.35555555555555557],[0.21666666666666667,-0.3611111111111111],[0.2375,-0.3648148148148148],[0.2552083333333333,-0.37037037037037035],[0.26979166666666665,-0.37777777777777777],[0.27708333333333335,-0.3814814814814815],[0.284375,-0.3851851851851852],[0.2864583333333333,-0.387037037037037],[0.28854166666666664,-0.387037037037037],[0.28958333333333336,-0.3907407407407407],[0.2916666666666667,-0.3925925925925926],[0.2916666666666667,-0.3925925925925926],[0.29270833333333335,-0.3925925925925926],[0.2947916666666667,-0.39444444444444443],[0.2947916666666667,-0.39444444444444443],[0.2947916666666667,-0.39444444444444443],[0.2947916666666667,-0.39444444444444443],[0.29583333333333334,-0.3962962962962963],[0.29583333333333334,-0.3962962962962963],[0.29583333333333334,-0.3962962962962963],[0.29583333333333334,-0.3962962962962963],[0.29583333333333334,-0.3962962962962963],[0.29583333333333334,-0.3962962962962963],[0.29583333333333334,-0.3962962962962963],[0.29583333333333334,-0.3962962962962963],[0.29583333333333334,-0.3962962962962963],[0.29583333333333334,-0.3962962962962963],[0.29791666666666666,-0.3962962962962963],[0.2989583333333333,-0.3925925925925926],[0.2989583333333333,-0.3907407407407407],[0.30104166666666665,-0.3814814814814815],[0.30104166666666665,-0.37777777777777777],[0.30104166666666665,-0.37407407407407406],[0.3020833333333333,-0.3685185185185185],[0.3020833333333333,-0.3648148148148148],[0.3020833333333333,-0.3592592592592593],[0.3020833333333333,-0.35],[0.3020833333333333,-0.3425925925925926],[0.3020833333333333,-0.337037037037037],[0.3020833333333333,-0.3296296296296296],[0.3020833333333333,-0.3277777777777778],[0.3020833333333333,-0.32592592592592595],[0.3020833333333333,-0.32037037037037036],[0.3020833333333333,-0.31851851851851853],[0.3020833333333333,-0.31666666666666665],[0.303125,-0.31296296296296294],[0.303125,-0.3111111111111111],[0.303125,-0.3055555555555556],[0.30520833333333336,-0.2962962962962963],[0.30520833333333336,-0.29259259259259257],[0.30520833333333336,-0.2796296296296296],[0.30625,-0.2740740740740741],[0.30625,-0.27037037037037037],[0.30625,-0.26296296296296295],[0.30625,-0.2518518518518518],[0.3072916666666667,-0.24259259259259258],[0.3072916666666667,-0.23333333333333334],[0.3072916666666667,-0.22962962962962963],[0.3072916666666667,-0.2222222222222222],[0.3072916666666667,-0.22037037037037038],[0.3072916666666667,-0.21851851851851853],[0.3072916666666667,-0.21666666666666667],[0.30833333333333335,-0.21296296296296297],[0.30833333333333335,-0.21296296296296297],[0.30833333333333335,-0.2111111111111111],[0.30833333333333335,-0.2111111111111111],[0.30833333333333335,-0.20925925925925926],[0.30833333333333335,-0.2074074074074074],[0.30833333333333335,-0.2074074074074074],[0.30833333333333335,-0.2074074074074074],[0.30833333333333335,-0.2074074074074074],[0.30833333333333335,-0.2074074074074074],[0.309375,-0.2074074074074074],[0.309375,-0.2074074074074074],[0.309375,-0.2074074074074074],[0.309375,-0.2074074074074074],[0.309375,-0.2074074074074074],[0.309375,-0.2074074074074074],[0.309375,-0.2074074074074074],[0.309375,-0.2074074074074074],[0.309375,-0.2074074074074074],[0.309375,-0.2074074074074074],[0.309375,-0.2074074074074074],[0.309375,-0.2074074074074074],[0.309375,-0.2074074074074074],[0.309375,-0.2074074074074074],[0.309375,-0.20555555555555555],[0.3125,-0.2],[0.31666666666666665,-0.1814814814814815],[0.32395833333333335,-0.15185185185185185],[0.334375,-0.1111111111111111],[0.3458333333333333,-0.06481481481481481],[0.36041666666666666,-0.018518518518518517],[0.38229166666666664,0.06851851851851852],[0.41458333333333336,0.16296296296296298],[0.43854166666666666,0.22777777777777777],[0.465625,0.28703703703703703],[0.49166666666666664,0.32592592592592595],[0.5072916666666667,0.34629629629629627],[0.5208333333333334,0.35555555555555557],[0.5270833333333333,0.3592592592592593],[0.540625,0.3685185185185185],[0.5666666666666667,0.38333333333333336],[0.5864583333333333,0.39814814814814814],[0.6229166666666667,0.43333333333333335],[0.6552083333333333,0.4648148148148148],[0.6791666666666667,0.4888888888888889],[0.69375,0.5018518518518519],[0.7020833333333333,0.5111111111111111],[0.7041666666666667,0.5148148148148148],[0.7041666666666667,0.5148148148148148],[0.7041666666666667,0.5148148148148148],[0.7041666666666667,0.5148148148148148],[0.7041666666666667,0.5148148148148148],[0.7041666666666667,0.5148148148148148],[0.7041666666666667,0.5148148148148148],[0.7041666666666667,0.5148148148148148],[0.7,0.5148148148148148],[0.6947916666666667,0.5111111111111111],[0.6875,0.5],[0.6802083333333333,0.4962962962962963],[0.6729166666666667,0.49074074074074076],[0.6635416666666667,0.48333333333333334],[0.6489583333333333,0.4722222222222222],[0.6177083333333333,0.46111111111111114],[0.60625,0.45925925925925926],[0.5739583333333333,0.4537037037037037],[0.5510416666666667,0.4537037037037037],[0.5239583333333333,0.4537037037037037],[0.48333333333333334,0.45740740740740743],[0.4479166666666667,0.4666666666666667],[0.39166666666666666,0.48148148148148145],[0.32916666666666666,0.4962962962962963],[0.253125,0.5333333333333333],[0.20520833333333333,0.5685185185185185],[0.17083333333333334,0.5981481481481481],[0.15625,0.6148148148148148],[0.13229166666666667,0.6407407407407407],[0.10625,0.6703703703703704],[0.08854166666666667,0.6851851851851852],[0.06145833333333333,0.7055555555555556],[0.05416666666666667,0.7092592592592593],[0.0375,0.7166666666666667],[0.022916666666666665,0.7203703703703703],[0.005208333333333333,0.7240740740740741],[-0.009375,0.7240740740740741],[-0.029166666666666667,0.7240740740740741],[-0.03854166666666667,0.7240740740740741],[-0.05520833333333333,0.7240740740740741],[-0.06354166666666666,0.7240740740740741],[-0.065625,0.7240740740740741],[-0.065625,0.7240740740740741],[-0.065625,0.7203703703703703],[-0.065625,0.7111111111111111],[-0.065625,0.6962962962962963],[-0.06145833333333333,0.6703703703703704],[-0.053125,0.6425925925925926],[-0.03854166666666667,0.6074074074074074],[-0.028125,0.587037037037037],[-0.015625,0.5648148148148148],[-0.00625,0.5555555555555556],[0.007291666666666667,0.5425925925925926],[0.01875,0.5296296296296297],[0.020833333333333332,0.5296296296296297],[0.021875,0.5277777777777778],[0.022916666666666665,0.5277777777777778],[0.022916666666666665,0.5277777777777778],[0.022916666666666665,0.5277777777777778],[0.022916666666666665,0.5277777777777778],[0.022916666666666665,0.5277777777777778],[0.022916666666666665,0.5277777777777778],[0.022916666666666665,0.5277777777777778],[0.022916666666666665,0.5277777777777778],[0.022916666666666665,0.5277777777777778],[0.022916666666666665,0.5277777777777778],[0.022916666666666665,0.5277777777777778],[0.022916666666666665,0.5277777777777778],[0.022916666666666665,0.5277777777777778],[0.022916666666666665,0.5277777777777778],[0.022916666666666665,0.5296296296296297],[0.022916666666666665,0.5314814814814814],[0.022916666666666665,0.5333333333333333],[0.022916666666666665,0.5333333333333333],[0.022916666666666665,0.5370370370370371],[0.022916666666666665,0.5388888888888889],[0.023958333333333335,0.5425925925925926],[0.028125,0.55],[0.03125,0.5537037037037037],[0.03958333333333333,0.5592592592592592],[0.04791666666666667,0.5648148148148148],[0.05520833333333333,0.5703703703703704],[0.06354166666666666,0.5777777777777777],[0.07291666666666667,0.5814814814814815],[0.08020833333333334,0.5851851851851851],[0.08958333333333333,0.5888888888888889],[0.096875,0.5925925925925926],[0.10625,0.5962962962962963],[0.11145833333333334,0.6],[0.115625,0.6018518518518519],[0.11770833333333333,0.6037037037037037],[0.11875,0.6037037037037037],[0.11979166666666667,0.6055555555555555],[0.11979166666666667,0.6055555555555555],[0.11979166666666667,0.6055555555555555],[0.11979166666666667,0.6055555555555555],[0.11979166666666667,0.6055555555555555],[0.11979166666666667,0.6055555555555555],[0.11979166666666667,0.6055555555555555],[0.11979166666666667,0.6055555555555555],[0.11875,0.6055555555555555],[0.1125,0.6055555555555555],[0.10729166666666666,0.6055555555555555],[0.09895833333333333,0.6037037037037037],[0.09375,0.6018518518518519],[0.08541666666666667,0.5981481481481481],[0.07708333333333334,0.5962962962962963],[0.06458333333333334,0.5888888888888889],[0.04895833333333333,0.5796296296296296],[0.030208333333333334,0.5722222222222222],[0.011458333333333333,0.5611111111111111],[-0.00625,0.55],[-0.020833333333333332,0.5388888888888889],[-0.035416666666666666,0.5259259259259259],[-0.03958333333333333,0.5203703703703704],[-0.04375,0.5148148148148148],[-0.04791666666666667,0.5111111111111111],[-0.05,0.5092592592592593]]","[[0.24729166666666677,-0.7364814814814815],[0.24729166666666677,-0.7364814814814815],[0.2428124999999999,-0.7283333333333334],[0.2257291666666667,-0.7185185185185186],[0.20052083333333334,-0.705925925925926],[0.1990624999999999,-0.7162962962962963],[0.1765625,-0.7396296296296296],[0.18125,-0.7307407407407408],[0.18125,-0.7307407407407408],[0.16770833333333332,-0.7098148148148148],[0.17572916666666671,-0.6933333333333332],[0.18645833333333334,-0.6744444444444444],[0.18645833333333334,-0.6744444444444444],[0.2021874999999999,-0.6257407407407407],[0.18645833333333334,-0.6240740740740741],[0.19958333333333325,-0.6357407407407407],[0.18427083333333344,-0.6396296296296295],[0.18083333333333323,-0.6459259259259259],[0.1984375,-0.6392592592592592],[0.1701041666666666,-0.6385185185185185],[0.1701041666666666,-0.6385185185185185],[0.1599999999999999,-0.6498148148148147],[0.1408333333333334,-0.659074074074074],[0.1478125000000001,-0.6548148148148148],[0.14552083333333338,-0.652962962962963],[0.1632291666666667,-0.647037037037037],[0.1632291666666667,-0.647037037037037],[0.14375,-0.6337037037037037],[0.15270833333333325,-0.6281481481481481],[0.15270833333333325,-0.6281481481481481],[0.14885416666666676,-0.5857407407407408],[0.07229166666666677,-0.5662962962962963],[0.07229166666666677,-0.5662962962962963],[0.051041666666666666,-0.5390740740740741],[-0.010000000000000024,-0.49296296296296294],[-0.017916666666666713,-0.48111111111111116],[-0.044062499999999956,-0.4485185185185185],[-0.05552083333333328,-0.4348148148148148],[-0.05552083333333328,-0.4348148148148148],[-0.12625000000000006,-0.4294444444444444],[-0.1514583333333333,-0.40425925925925926],[-0.21166666666666673,-0.40703703703703703],[-0.21166666666666673,-0.40703703703703703],[-0.2563541666666667,-0.42462962962962963],[-0.21385416666666662,-0.42833333333333334],[-0.21489583333333329,-0.41888888888888887],[-0.21489583333333329,-0.41888888888888887],[-0.15052083333333333,-0.4644444444444445],[-0.12885416666666671,-0.4801851851851852],[-0.13291666666666668,-0.5587037037037037],[-0.15656249999999997,-0.5887037037037036],[-0.14020833333333335,-0.6285185185185185],[-0.15375000000000003,-0.6846296296296296],[-0.15375000000000003,-0.6846296296296296],[-0.09927083333333328,-0.6694444444444444],[-0.08093750000000005,-0.6911111111111111],[-0.0655208333333333,-0.7096296296296296],[-0.0655208333333333,-0.7096296296296296],[-0.07520833333333338,-0.7264814814814815],[-0.07520833333333338,-0.7264814814814815],[-0.09947916666666666,-0.6940740740740741],[-0.09947916666666666,-0.6940740740740741],[-0.15093749999999997,-0.7014814814814815],[-0.16822916666666668,-0.6283333333333333],[-0.2029166666666666,-0.5957407407407407],[-0.20322916666666668,-0.5520370370370371],[-0.21541666666666662,-0.5062962962962962],[-0.26156250000000003,-0.5072222222222221],[-0.3086458333333333,-0.4638888888888889],[-0.3576041666666666,-0.4016666666666666],[-0.3576041666666666,-0.4016666666666666],[-0.34562499999999996,-0.3822222222222222],[-0.3767708333333334,-0.37537037037037035],[-0.36593749999999997,-0.3274074074074074],[-0.36593749999999997,-0.3274074074074074],[-0.41593749999999996,-0.31740740740740736],[-0.4111458333333334,-0.27814814814814814],[-0.45729166666666665,-0.2462962962962963],[-0.45729166666666665,-0.2462962962962963],[-0.4688541666666667,-0.19814814814814816],[-0.47739583333333335,-0.1557407407407408],[-0.47739583333333335,-0.1557407407407408],[-0.479375,-0.14314814814814816],[-0.49333333333333335,-0.1361111111111111],[-0.5171875,-0.0992592592592593],[-0.5272916666666666,-0.06833333333333329],[-0.5272916666666666,-0.06833333333333329],[-0.5521875,-0.038703703703703664],[-0.5521875,-0.038703703703703664],[-0.48520833333333335,-0.049074074074074076],[-0.48520833333333335,-0.049074074074074076],[-0.4690625,-0.04722222222222222],[-0.41354166666666664,-0.027222222222222307],[-0.37999999999999995,-0.06185185185185181],[-0.37999999999999995,-0.06185185185185181],[-0.3285416666666666,-0.0742592592592593],[-0.31312500000000004,-0.03037037037037033],[-0.2942708333333333,-0.015370370370370286],[-0.25895833333333335,-0.03185185185185194],[-0.1922916666666667,-0.01314814814814819],[-0.15958333333333338,0.01629629629629621],[-0.2039583333333333,0.08740740740740749],[-0.19395833333333337,0.12537037037037047],[-0.20989583333333334,0.11666666666666667],[-0.24104166666666665,0.15629629629629627],[-0.27156250000000004,0.16648148148148145],[-0.27156250000000004,0.16648148148148145],[-0.2638541666666666,0.12962962962962962],[-0.2638541666666666,0.12962962962962962],[-0.25750000000000006,0.09833333333333337],[-0.25750000000000006,0.09833333333333337],[-0.2908333333333334,0.11185185185185181],[-0.3129166666666666,0.14000000000000004],[-0.27312500000000006,0.09314814814814806],[-0.22593749999999999,0.03333333333333333],[-0.22593749999999999,0.03333333333333333],[-0.22385416666666663,0.005740740740740783],[-0.22385416666666663,0.005740740740740783],[-0.20718749999999997,0.044999999999999915],[-0.13697916666666668,0.09055555555555551],[-0.08687499999999998,0.14166666666666666],[-0.04822916666666662,0.15185185185185185],[-0.009375,0.17796296296296302],[0.05437500000000005,0.2192592592592592],[0.08833333333333329,0.22259259259259268],[0.09343750000000005,0.29240740740740734],[0.11197916666666667,0.3248148148148148],[0.16270833333333337,0.3101851851851852],[0.20864583333333328,0.27314814814814814],[0.21343750000000009,0.19666666666666674],[0.2211458333333333,0.19000000000000003],[0.23937499999999995,0.2162962962962962],[0.25760416666666663,0.24259259259259258],[0.2607291666666666,0.20277777777777778],[0.26552083333333343,0.1911111111111112],[0.26624999999999993,0.19074074074074074],[0.27312500000000006,0.22259259259259268],[0.2620833333333332,0.2507407407407407],[0.25718750000000007,0.28277777777777785],[0.25718750000000007,0.28277777777777785],[0.2682291666666667,0.3388888888888889],[0.2897916666666667,0.33722222222222226],[0.29718749999999994,0.33851851851851844],[0.33052083333333326,0.34814814814814815],[0.3245833333333332,0.38685185185185184],[0.3478125000000001,0.3794444444444444],[0.35927083333333343,0.37037037037037035],[0.35927083333333343,0.37037037037037035],[0.3757291666666667,0.36925925925925923],[0.3962500000000001,0.39166666666666666],[0.4361458333333334,0.39203703703703713],[0.4361458333333334,0.39203703703703713],[0.46760416666666677,0.39092592592592595],[0.44416666666666677,0.39740740740740743],[0.4306250000000001,0.4053703703703703],[0.4306250000000001,0.4053703703703703],[0.3910416666666668,0.40907407407407403],[0.3841666666666666,0.40796296296296286],[0.35177083333333337,0.43259259259259264],[0.35177083333333337,0.43259259259259264],[0.35145833333333343,0.4479629629629629],[0.34312500000000007,0.42166666666666675],[0.3459374999999999,0.4],[0.3072916666666667,0.38925925925925936],[0.26593749999999994,0.38333333333333336],[0.25510416666666674,0.3962962962962963],[0.24947916666666667,0.41277777777777774],[0.22885416666666672,0.41333333333333344],[0.20802083333333338,0.4153703703703703],[0.20020833333333338,0.39407407407407397],[0.17708333333333334,0.3701851851851851],[0.1415625000000001,0.3883333333333334],[0.1415625000000001,0.3883333333333334],[0.10583333333333324,0.4624074074074075],[0.12156250000000005,0.5233333333333334],[0.10947916666666657,0.5677777777777778],[0.10947916666666657,0.5677777777777778],[0.1296875,0.5727777777777777],[0.1296875,0.5727777777777777],[0.153125,0.5496296296296296],[0.153125,0.5496296296296296],[0.1779166666666666,0.5337037037037038],[0.23635416666666675,0.524074074074074],[0.2321875000000001,0.505925925925926],[0.2321875000000001,0.505925925925926],[0.22802083333333342,0.48777777777777775],[0.24364583333333342,0.4727777777777777],[0.22291666666666668,0.39814814814814814],[0.22291666666666668,0.39814814814814814],[0.16666666666666666,0.34388888888888897],[0.15291666666666662,0.2855555555555556],[0.10666666666666676,0.2603703703703704],[0.08822916666666672,0.24666666666666676],[0.04822916666666662,0.25851851851851854],[-0.021145833333333287,0.25555555555555554],[-0.02791666666666662,0.27259259259259266],[-0.02791666666666662,0.27259259259259266],[-0.034687499999999954,0.28962962962962957],[-0.034687499999999954,0.28962962962962957],[-0.030104166666666644,0.2564814814814815],[-0.030104166666666644,0.2564814814814815],[0.03093750000000005,0.24166666666666667],[0.06114583333333338,0.2183333333333333],[0.07979166666666657,0.21592592592592597],[0.10906250000000005,0.19203703703703712],[0.13447916666666657,0.1955555555555556],[0.19520833333333343,0.17814814814814822],[0.22979166666666656,0.18333333333333332],[0.22979166666666656,0.18333333333333332],[0.2515625,0.18611111111111112],[0.25447916666666665,0.1742592592592593],[0.25718750000000007,0.19666666666666674],[0.24031250000000004,0.20314814814814824],[0.2553124999999999,0.23925925925925934],[0.2698958333333332,0.2490740740740741],[0.2698958333333332,0.2490740740740741],[0.28927083333333337,0.2942592592592592],[0.29406249999999995,0.3007407407407407],[0.29406249999999995,0.3007407407407407],[0.30583333333333323,0.2777777777777778],[0.3394791666666668,0.24074074074074073],[0.37312500000000004,0.2037037037037037],[0.41531250000000003,0.18499999999999997],[0.4625,0.18499999999999997],[0.4982291666666666,0.1816666666666667],[0.4982291666666666,0.1816666666666667],[0.49364583333333345,0.11574074074074074],[0.4691666666666668,0.08203703703703695],[0.4412499999999999,0.010370370370370412],[0.4412499999999999,0.010370370370370412],[0.446875,-0.05555555555555555],[0.446875,-0.05555555555555555],[0.42291666666666666,-0.09314814814814817],[0.42291666666666666,-0.09314814814814817],[0.43739583333333343,-0.10851851851851856],[0.4132291666666667,-0.0824074074074074],[0.3993750000000001,-0.059999999999999956],[0.3993750000000001,-0.059999999999999956],[0.38739583333333344,-0.07000000000000002],[0.37041666666666656,-0.08333333333333333],[0.35666666666666674,-0.06962962962962967],[0.35666666666666674,-0.06962962962962967],[0.3766666666666666,-0.03351851851851856],[0.3941666666666668,-0.021296296296296296],[0.3256249999999999,0.011481481481481566],[0.3256249999999999,0.011481481481481566],[0.3162499999999999,0.045740740740740825],[0.3162499999999999,0.045740740740740825],[0.2691666666666668,0.04333333333333329],[0.2681250000000001,0.006666666666666709],[0.2681250000000001,0.006666666666666709],[0.2976041666666667,-0.06462962962962959],[0.29187500000000005,-0.09592592592592594],[0.2685416666666666,-0.14222222222222225],[0.2685416666666666,-0.14222222222222225],[0.3072916666666667,-0.17703703703703708],[0.3493750000000001,-0.26500000000000007],[0.3428124999999999,-0.3566666666666667],[0.38916666666666655,-0.40185185185185185],[0.43697916666666664,-0.45796296296296296],[0.48406250000000006,-0.49962962962962965],[0.48406250000000006,-0.49962962962962965],[0.5310416666666666,-0.5570370370370371],[0.5529166666666666,-0.5638888888888889],[0.5876041666666666,-0.5925925925925926],[0.6340625000000001,-0.615],[0.6340625000000001,-0.615],[0.6271874999999999,-0.6472222222222223],[0.6568749999999999,-0.6818518518518518],[0.63875,-0.6738888888888889],[0.6159374999999999,-0.7012962962962963],[0.621875,-0.7133333333333333],[0.621875,-0.7133333333333333],[0.5965625,-0.7090740740740741],[0.5205208333333334,-0.7172222222222222],[0.5205208333333334,-0.7172222222222222],[0.44468750000000007,-0.7451851851851852],[0.35875000000000007,-0.7477777777777778],[0.35875000000000007,-0.7477777777777778],[0.2794791666666666,-0.7538888888888889],[0.2747916666666666,-0.7714814814814815],[0.13468749999999996,-0.7696296296296297],[0.1382291666666667,-0.7225925925925926],[0.12385416666666677,-0.7212962962962963],[0.042708333333333334,-0.7187037037037037],[0.042708333333333334,-0.7187037037037037],[-0.013541666666666667,-0.721111111111111],[-0.02802083333333331,-0.7090740740740741],[-0.01875,-0.6738888888888889],[-0.0021875000000000236,-0.6709259259259259],[-0.0021875000000000236,-0.6709259259259259],[-0.0020833333333333333,-0.6938888888888889],[-0.024166666666666715,-0.6733333333333333],[0.02958333333333331,-0.6520370370370371],[0.02958333333333331,-0.6520370370370371],[0.06989583333333324,-0.6831481481481481],[0.04041666666666662,-0.7362962962962963],[0.04041666666666662,-0.7362962962962963],[0.06531250000000005,-0.7774074074074074],[0.08802083333333334,-0.7733333333333334],[0.11906249999999995,-0.7414814814814814],[0.11979166666666667,-0.7161111111111111],[0.10520833333333333,-0.7227777777777779],[0.10520833333333333,-0.7227777777777779],[0.12281250000000009,-0.7016666666666667],[0.12281250000000009,-0.7016666666666667],[0.08927083333333338,-0.6427777777777778],[0.05489583333333338,-0.5783333333333334],[0.05489583333333338,-0.5783333333333334],[-0.03979166666666671,-0.5725925925925925],[-0.03979166666666671,-0.5725925925925925],[-0.03302083333333338,-0.48870370370370364],[-0.08802083333333334,-0.4414814814814814],[-0.12687499999999996,-0.44518518518518513],[-0.18156249999999996,-0.43574074074074076],[-0.20281250000000003,-0.4848148148148148],[-0.20593750000000005,-0.495],[-0.22062499999999996,-0.49148148148148146],[-0.21208333333333335,-0.5242592592592593],[-0.2111458333333334,-0.5346296296296296],[-0.15125000000000005,-0.5185185185185185],[-0.14770833333333327,-0.5618518518518518],[-0.13843749999999996,-0.53],[-0.11364583333333336,-0.4933333333333333],[-0.05770833333333331,-0.5055555555555555],[-0.06739583333333338,-0.4933333333333333],[-0.052083333333333336,-0.4842592592592593],[-0.04770833333333328,-0.4764814814814815],[-0.050520833333333334,-0.4740740740740741],[-0.044375000000000026,-0.5057407407407408],[-0.049479166666666664,-0.5357407407407407],[-0.024374999999999977,-0.4818518518518518],[0.002395833333333286,-0.48462962962962963],[-0.002499999999999976,-0.5057407407407408],[-0.02802083333333331,-0.524074074074074],[-0.02802083333333331,-0.524074074074074],[0.008854166666666666,-0.527962962962963],[0.0017708333333333807,-0.5061111111111112],[0.005624999999999976,-0.482962962962963],[0.005624999999999976,-0.482962962962963],[0.024583333333333356,-0.4933333333333333],[0.042604166666666644,-0.5311111111111111],[0.08739583333333342,-0.509074074074074],[0.08739583333333342,-0.509074074074074],[0.13114583333333343,-0.5375925925925926],[0.1646874999999999,-0.5472222222222223],[0.20677083333333332,-0.5488888888888889],[0.23385416666666667,-0.5211111111111111],[0.21260416666666657,-0.5120370370370371],[0.2445833333333333,-0.492037037037037],[0.2765625,-0.472037037037037],[0.2765625,-0.472037037037037]]","[[0.24729166666666677,-0.7364814814814815,0.00020000004768405688],[0.24729166666666677,-0.7364814814814815,0.03980000001192252],[0.2428124999999999,-0.7283333333333334,0.053700000047683716],[0.2257291666666667,-0.7185185185185186,0.07030000001191894],[0.20052083333333334,-0.705925925925926,0.08730000001192195],[0.1990624999999999,-0.7162962962962963,0.10360000002383885],[0.1765625,-0.7396296296296296,0.12060000002384186],[0.18125,-0.7307407407407408,0.13740000003576114],[0.18125,-0.7307407407407408,0.1541000000238455],[0.16770833333333332,-0.7098148148148148,0.1704000000357624],[0.17572916666666671,-0.6933333333333332,0.1869999999999976],[0.18645833333333334,-0.6744444444444444,0.20390000003576603],[0.18645833333333334,-0.6744444444444444,0.22040000003575955],[0.2021874999999999,-0.6257407407407407,0.2371000000238439],[0.18645833333333334,-0.6240740740740741,0.2547000000476842],[0.19958333333333325,-0.6357407407407407,0.27080000001192417],[0.18427083333333344,-0.6396296296296295,0.28690000003576444],[0.18083333333333323,-0.6459259259259259,0.3037000000476837],[0.1984375,-0.6392592592592592,0.32030000001191894],[0.1701041666666666,-0.6385185185185185,0.3371000000238453],[0.1701041666666666,-0.6385185185185185,0.3537000000476809],[0.1599999999999999,-0.6498148148148147,0.3703000000119232],[0.1408333333333334,-0.659074074074074,0.3872000000476845],[0.1478125000000001,-0.6548148148148148,0.4043000000119221],[0.14552083333333338,-0.652962962962963,0.4246000000238439],[0.1632291666666667,-0.647037037037037,0.44200000000000017],[0.1632291666666667,-0.647037037037037,0.4537000000476823],[0.14375,-0.6337037037037037,0.47040000003575955],[0.15270833333333325,-0.6281481481481481,0.4934000000357628],[0.15270833333333325,-0.6281481481481481,0.5036000000238445],[0.14885416666666676,-0.5857407407407408,0.524900000035764],[0.07229166666666677,-0.5662962962962963,0.5422000000476856],[0.07229166666666677,-0.5662962962962963,0.5539000000357603],[0.051041666666666666,-0.5390740740740741,0.5705000000000027],[-0.010000000000000024,-0.49296296296296294,0.5908000000119245],[-0.017916666666666713,-0.48111111111111116,0.606700000047681],[-0.044062499999999956,-0.4485185185185185,0.6240000000000023],[-0.05552083333333328,-0.4348148148148148,0.6431000000238427],[-0.05552083333333328,-0.4348148148148148,0.6538000000119197],[-0.12625000000000006,-0.4294444444444444,0.670499999999997],[-0.1514583333333333,-0.40425925925925926,0.6881000000238444],[-0.21166666666666673,-0.40703703703703703,0.7105000000000032],[-0.21166666666666673,-0.40703703703703703,0.7204000000357595],[-0.2563541666666667,-0.42462962962962963,0.7371000000238439],[-0.21385416666666662,-0.42833333333333334,0.7550000000000026],[-0.21489583333333329,-0.41888888888888887,0.7766000000238407],[-0.21489583333333329,-0.41888888888888887,0.7872000000476831],[-0.15052083333333333,-0.4644444444444445,0.8038000000119183],[-0.12885416666666671,-0.4801851851851852,0.820400000035761],[-0.13291666666666668,-0.5587037037037037,0.8408000000119245],[-0.15656249999999997,-0.5887037037037036,0.8584999999999994],[-0.14020833333333335,-0.6285185185185185,0.8752000000476841],[-0.15375000000000003,-0.6846296296296296,0.8960000000000008],[-0.15375000000000003,-0.6846296296296296,0.9039000000357618],[-0.09927083333333328,-0.6694444444444444,0.920499999999997],[-0.08093750000000005,-0.6911111111111111,0.9375],[-0.0655208333333333,-0.7096296296296296,0.9661000000238431],[-0.0655208333333333,-0.7096296296296296,0.9758000000119225],[-0.07520833333333338,-0.7264814814814815,0.9872000000476859],[-0.07520833333333338,-0.7264814814814815,1.0038000000119212],[-0.09947916666666666,-0.6940740740740741,1.024800000011922],[-0.09947916666666666,-0.6940740740740741,1.037100000023841],[-0.15093749999999997,-0.7014814814814815,1.0539000000357603],[-0.16822916666666668,-0.6283333333333333,1.0749000000357611],[-0.2029166666666666,-0.5957407407407407,1.0916000000238455],[-0.20322916666666668,-0.5520370370370371,1.108800000011918],[-0.21541666666666662,-0.5062962962962962,1.1264000000357655],[-0.26156250000000003,-0.5072222222222221,1.1411000000238403],[-0.3086458333333333,-0.4638888888888889,1.1574000000357643],[-0.3576041666666666,-0.4016666666666666,1.1782000000476813],[-0.3576041666666666,-0.4016666666666666,1.1871000000238396],[-0.34562499999999996,-0.3822222222222222,1.203900000035766],[-0.3767708333333334,-0.37537037037037035,1.224499999999999],[-0.36593749999999997,-0.3274074074074074,1.2452000000476815],[-0.36593749999999997,-0.3274074074074074,1.2549000000357609],[-0.41593749999999996,-0.31740740740740736,1.2704000000357638],[-0.4111458333333334,-0.27814814814814814,1.287100000023841],[-0.45729166666666665,-0.2462962962962963,1.3099000000357606],[-0.45729166666666665,-0.2462962962962963,1.3206000000238447],[-0.4688541666666667,-0.19814814814814816,1.3371000000238453],[-0.47739583333333335,-0.1557407407407408,1.359600000023839],[-0.47739583333333335,-0.1557407407407408,1.3706000000238419],[-0.479375,-0.14314814814814816,1.3872000000476845],[-0.49333333333333335,-0.1361111111111111,1.4038000000119197],[-0.5171875,-0.0992592592592593,1.4248000000119205],[-0.5272916666666666,-0.06833333333333329,1.4414000000357632],[-0.5272916666666666,-0.06833333333333329,1.453800000011924],[-0.5521875,-0.038703703703703664,1.487100000023844],[-0.5521875,-0.038703703703703664,1.4967000000476816],[-0.48520833333333335,-0.049074074074074076,1.5088000000119237],[-0.48520833333333335,-0.049074074074074076,1.5204000000357638],[-0.4690625,-0.04722222222222222,1.5406000000238436],[-0.41354166666666664,-0.027222222222222307,1.5564999999999998],[-0.37999999999999995,-0.06185185185185181,1.5705000000000027],[-0.37999999999999995,-0.06185185185185181,1.5898000000119197],[-0.3285416666666666,-0.0742592592592593,1.6038000000119226],[-0.31312500000000004,-0.03037037037037033,1.6206000000238419],[-0.2942708333333333,-0.015370370370370286,1.6394999999999982],[-0.25895833333333335,-0.03185185185185194,1.6570000000000036],[-0.1922916666666667,-0.01314814814814819,1.6716000000238438],[-0.15958333333333338,0.01629629629629621,1.6903000000119235],[-0.2039583333333333,0.08740740740740749,1.7055000000000007],[-0.19395833333333337,0.12537037037037047,1.7234000000357597],[-0.20989583333333334,0.11666666666666667,1.741500000000002],[-0.24104166666666665,0.15629629629629627,1.757200000047682],[-0.27156250000000004,0.16648148148148145,1.7717000000476872],[-0.27156250000000004,0.16648148148148145,1.787100000023841],[-0.2638541666666666,0.12962962962962962,1.8068000000119184],[-0.2638541666666666,0.12962962962962962,1.820400000035761],[-0.25750000000000006,0.09833333333333337,1.837400000035764],[-0.25750000000000006,0.09833333333333337,1.8539000000357646],[-0.2908333333333334,0.11185185185185181,1.8734000000357653],[-0.3129166666666666,0.14000000000000004,1.8878000000119215],[-0.27312500000000006,0.09314814814814806,1.9037000000476851],[-0.22593749999999999,0.03333333333333333,1.9263000000119206],[-0.22593749999999999,0.03333333333333333,1.9372000000476817],[-0.22385416666666663,0.005740740740740783,1.9543000000119193],[-0.22385416666666663,0.005740740740740783,1.9705000000000013],[-0.20718749999999997,0.044999999999999915,1.9913000000119183],[-0.13697916666666668,0.09055555555555551,2.007200000047682],[-0.08687499999999998,0.14166666666666666,2.021600000023845],[-0.04822916666666662,0.15185185185185185,2.037200000047683],[-0.009375,0.17796296296296302,2.0583000000119185],[0.05437500000000005,0.2192592592592592,2.0730000000000004],[0.08833333333333329,0.22259259259259268,2.0872000000476874],[0.09343750000000005,0.29240740740740734,2.1038000000119226],[0.11197916666666667,0.3248148148148148,2.1234000000357653],[0.16270833333333337,0.3101851851851852,2.139800000011924],[0.20864583333333328,0.27314814814814814,2.155000000000001],[0.21343750000000009,0.19666666666666674,2.17290000003576],[0.2211458333333333,0.19000000000000003,2.1880000000000024],[0.23937499999999995,0.2162962962962962,2.203800000011924],[0.25760416666666663,0.24259259259259258,2.2205000000000013],[0.2607291666666666,0.20277777777777778,2.239300000011923],[0.26552083333333343,0.1911111111111112,2.2545],[0.26624999999999993,0.19074074074074074,2.271600000023845],[0.27312500000000006,0.22259259259259268,2.2869000000357644],[0.2620833333333332,0.2507407407407407,2.3059999999999974],[0.25718750000000007,0.28277777777777785,2.320400000035761],[0.25718750000000007,0.28277777777777785,2.3370000000000033],[0.2682291666666667,0.3388888888888889,2.353700000047681],[0.2897916666666667,0.33722222222222226,2.3738000000119186],[0.29718749999999994,0.33851851851851844,2.3912000000476823],[0.33052083333333326,0.34814814814814815,2.4071000000238385],[0.3245833333333332,0.38685185185185184,2.4204000000357624],[0.3478125000000001,0.3794444444444444,2.4369999999999976],[0.35927083333333343,0.37037037037037035,2.453800000011924],[0.35927083333333343,0.37037037037037035,2.4703000000119246],[0.3757291666666667,0.36925925925925923,2.487000000000002],[0.3962500000000001,0.39166666666666666,2.5036000000238445],[0.4361458333333334,0.39203703703703713,2.520200000047687],[0.4361458333333334,0.39203703703703713,2.536999999999999],[0.46760416666666677,0.39092592592592595,2.557300000011921],[0.44416666666666677,0.39740740740740743,2.570999999999998],[0.4306250000000001,0.4053703703703703,2.5871000000238453],[0.4306250000000001,0.4053703703703703,2.6038000000119226],[0.3910416666666668,0.40907407407407403,2.622900000035763],[0.3841666666666666,0.40796296296296286,2.6371000000238425],[0.35177083333333337,0.43259259259259264,2.6564000000357595],[0.35177083333333337,0.43259259259259264,2.6704000000357624],[0.35145833333333343,0.4479629629629629,2.6896000000238445],[0.34312500000000007,0.42166666666666675,2.703800000011924],[0.3459374999999999,0.4,2.7204000000357595],[0.3072916666666667,0.38925925925925936,2.737100000023844],[0.26593749999999994,0.38333333333333336,2.7588000000119237],[0.25510416666666674,0.3962962962962963,2.771900000035764],[0.24947916666666667,0.41277777777777774,2.787200000047683],[0.22885416666666672,0.41333333333333344,2.8037000000476837],[0.20802083333333338,0.4153703703703703,2.824400000035766],[0.20020833333333338,0.39407407407407397,2.839600000023843],[0.17708333333333334,0.3701851851851851,2.8572000000476834],[0.1415625000000001,0.3883333333333334,2.8778000000119235],[0.1415625000000001,0.3883333333333334,2.8871000000238425],[0.10583333333333324,0.4624074074074075,2.9038000000119197],[0.12156250000000005,0.5233333333333334,2.921700000047686],[0.10947916666666657,0.5677777777777778,2.94760000002384],[0.10947916666666657,0.5677777777777778,2.958500000000001],[0.1296875,0.5727777777777777,2.9705000000000013],[0.1296875,0.5727777777777777,2.987200000047686],[0.153125,0.5496296296296296,3.0099000000357634],[0.153125,0.5496296296296296,3.020400000035764],[0.1779166666666666,0.5337037037037038,3.037200000047683],[0.23635416666666675,0.524074074074074,3.0602000000476863],[0.2321875000000001,0.505925925925926,3.0772000000476822],[0.2321875000000001,0.505925925925926,3.0871000000238453],[0.22802083333333342,0.48777777777777775,3.1038000000119226],[0.24364583333333342,0.4727777777777777,3.124400000035763],[0.22291666666666668,0.39814814814814814,3.141400000035766],[0.22291666666666668,0.39814814814814814,3.153700000047685],[0.16666666666666666,0.34388888888888897,3.170600000023839],[0.15291666666666662,0.2855555555555556,3.186900000035763],[0.10666666666666676,0.2603703703703704,3.2082000000476825],[0.08822916666666672,0.24666666666666676,3.224499999999999],[0.04822916666666662,0.25851851851851854,3.2397000000476837],[-0.021145833333333287,0.25555555555555554,3.256999999999998],[-0.02791666666666662,0.27259259259259266,3.2728000000119195],[-0.02791666666666662,0.27259259259259266,3.286999999999999],[-0.034687499999999954,0.28962962962962957,3.3083000000119185],[-0.034687499999999954,0.28962962962962957,3.320300000011919],[-0.030104166666666644,0.2564814814814815,3.3369000000357616],[-0.030104166666666644,0.2564814814814815,3.353700000047681],[0.03093750000000005,0.24166666666666667,3.370300000011923],[0.06114583333333338,0.2183333333333333,3.387600000023845],[0.07979166666666657,0.21592592592592597,3.4046000000238408],[0.10906250000000005,0.19203703703703712,3.4218000000119204],[0.13447916666666657,0.1955555555555556,3.441400000035763],[0.19520833333333343,0.17814814814814822,3.458600000023843],[0.22979166666666656,0.18333333333333332,3.4748000000119177],[0.22979166666666656,0.18333333333333332,3.487000000000002],[0.2515625,0.18611111111111112,3.5036000000238445],[0.25447916666666665,0.1742592592592593,3.520800000011924],[0.25718750000000007,0.19666666666666674,3.540300000011918],[0.24031250000000004,0.20314814814814824,3.5589999999999975],[0.2553124999999999,0.23925925925925934,3.5746000000238425],[0.2698958333333332,0.2490740740740741,3.593400000035764],[0.2698958333333332,0.2490740740740741,3.6039000000357646],[0.28927083333333337,0.2942592592592592,3.6205],[0.29406249999999995,0.3007407407407407,3.646200000047685],[0.29406249999999995,0.3007407407407407,3.6541000000238455],[0.30583333333333323,0.2777777777777778,3.670499999999997],[0.3394791666666668,0.24074074074074073,3.6874000000357654],[0.37312500000000004,0.2037037037037037,3.707200000047685],[0.41531250000000003,0.18499999999999997,3.7239999999999966],[0.4625,0.18499999999999997,3.7398000000119183],[0.4982291666666666,0.1816666666666667,3.7644000000357636],[0.4982291666666666,0.1816666666666667,3.771500000000003],[0.49364583333333345,0.11574074074074074,3.787100000023841],[0.4691666666666668,0.08203703703703695,3.8038000000119183],[0.4412499999999999,0.010370370370370412,3.827400000035766],[0.4412499999999999,0.010370370370370412,3.8371000000238453],[0.446875,-0.05555555555555555,3.8539000000357646],[0.446875,-0.05555555555555555,3.8704000000357652],[0.42291666666666666,-0.09314814814814817,3.895300000011922],[0.42291666666666666,-0.09314814814814817,3.9044999999999987],[0.43739583333333343,-0.10851851851851856,3.920499999999997],[0.4132291666666667,-0.0824074074074074,3.9397000000476865],[0.3993750000000001,-0.059999999999999956,3.9613000000119243],[0.3993750000000001,-0.059999999999999956,3.9703000000119246],[0.38739583333333344,-0.07000000000000002,3.987000000000002],[0.37041666666666656,-0.08333333333333333,4.0075],[0.35666666666666674,-0.06962962962962967,4.0229000000357615],[0.35666666666666674,-0.06962962962962967,4.036900000035764],[0.3766666666666666,-0.03351851851851856,4.058200000047684],[0.3941666666666668,-0.021296296296296296,4.0747000000476845],[0.3256249999999999,0.011481481481481566,4.091000000000001],[0.3256249999999999,0.011481481481481566,4.103800000011923],[0.3162499999999999,0.045740740740740825,4.125300000011919],[0.3162499999999999,0.045740740740740825,4.1371000000238425],[0.2691666666666668,0.04333333333333329,4.1541000000238455],[0.2681250000000001,0.006666666666666709,4.176200000047686],[0.2681250000000001,0.006666666666666709,4.187200000047682],[0.2976041666666667,-0.06462962962962959,4.203800000011924],[0.29187500000000005,-0.09592592592592594,4.221800000011918],[0.2685416666666666,-0.14222222222222225,4.244100000023842],[0.2685416666666666,-0.14222222222222225,4.253800000011921],[0.3072916666666667,-0.17703703703703708,4.270499999999998],[0.3493750000000001,-0.26500000000000007,4.287300000011918],[0.3428124999999999,-0.3566666666666667,4.308700000047686],[0.38916666666666655,-0.40185185185185185,4.325100000023845],[0.43697916666666664,-0.45796296296296296,4.341000000000001],[0.48406250000000006,-0.49962962962962965,4.361200000047681],[0.48406250000000006,-0.49962962962962965,4.370700000047684],[0.5310416666666666,-0.5570370370370371,4.3872000000476845],[0.5529166666666666,-0.5638888888888889,4.404300000011922],[0.5876041666666666,-0.5925925925925926,4.426499999999997],[0.6340625000000001,-0.615,4.444200000047687],[0.6340625000000001,-0.615,4.454300000011919],[0.6271874999999999,-0.6472222222222223,4.4704000000357595],[0.6568749999999999,-0.6818518518518518,4.490700000047681],[0.63875,-0.6738888888888889,4.508400000035763],[0.6159374999999999,-0.7012962962962963,4.524700000047687],[0.621875,-0.7133333333333333,4.544200000047681],[0.621875,-0.7133333333333333,4.553800000011918],[0.5965625,-0.7090740740740741,4.570700000047687],[0.5205208333333334,-0.7172222222222222,4.594999999999999],[0.5205208333333334,-0.7172222222222222,4.603900000035765],[0.44468750000000007,-0.7451851851851852,4.620300000011923],[0.35875000000000007,-0.7477777777777778,4.6385000000000005],[0.35875000000000007,-0.7477777777777778,4.65830000001192],[0.2794791666666666,-0.7538888888888889,4.670400000035762],[0.2747916666666666,-0.7714814814814815,4.687600000023842],[0.13468749999999996,-0.7696296296296297,4.707999999999998],[0.1382291666666667,-0.7225925925925926,4.725600000023839],[0.12385416666666677,-0.7212962962962963,4.741200000047684],[0.042708333333333334,-0.7187037037037037,4.762300000011919],[0.042708333333333334,-0.7187037037037037,4.770400000035764],[-0.013541666666666667,-0.721111111111111,4.787100000023841],[-0.02802083333333331,-0.7090740740740741,4.804400000035763],[-0.01875,-0.6738888888888889,4.825100000023845],[-0.0021875000000000236,-0.6709259259259259,4.841200000047685],[-0.0021875000000000236,-0.6709259259259259,4.853800000011923],[-0.0020833333333333333,-0.6938888888888889,4.8702000000476815],[-0.024166666666666715,-0.6733333333333333,4.8879000000357635],[0.02958333333333331,-0.6520370370370371,4.906300000011925],[0.02958333333333331,-0.6520370370370371,4.92030000001192],[0.06989583333333324,-0.6831481481481481,4.936900000035763],[0.04041666666666662,-0.7362962962962963,4.9588000000119195],[0.04041666666666662,-0.7362962962962963,4.970600000023843],[0.06531250000000005,-0.7774074074074074,4.987499999999997],[0.08802083333333334,-0.7733333333333334,5.007400000035766],[0.11906249999999995,-0.7414814814814814,5.023300000011922],[0.11979166666666667,-0.7161111111111111,5.03930000001192],[0.10520833333333333,-0.7227777777777779,5.057900000035765],[0.10520833333333333,-0.7227777777777779,5.070400000035761],[0.12281250000000009,-0.7016666666666667,5.099700000047683],[0.12281250000000009,-0.7016666666666667,5.109700000047681],[0.08927083333333338,-0.6427777777777778,5.1223000000119185],[0.05489583333333338,-0.5783333333333334,5.138200000047682],[0.05489583333333338,-0.5783333333333334,5.157000000000004],[-0.03979166666666671,-0.5725925925925925,5.170499999999997],[-0.03979166666666671,-0.5725925925925925,5.187400000035765],[-0.03302083333333338,-0.48870370370370364,5.207000000000001],[-0.08802083333333334,-0.4414814814814814,5.22080000001192],[-0.12687499999999996,-0.44518518518518513,5.237200000047686],[-0.18156249999999996,-0.43574074074074076,5.258100000023845],[-0.20281250000000003,-0.4848148148148148,5.2729000000357615],[-0.20593750000000005,-0.495,5.2883000000119225],[-0.22062499999999996,-0.49148148148148146,5.303700000047684],[-0.21208333333333335,-0.5242592592592593,5.323700000047687],[-0.2111458333333334,-0.5346296296296296,5.338500000000003],[-0.15125000000000005,-0.5185185185185185,5.355400000035765],[-0.14770833333333327,-0.5618518518518518,5.375600000023844],[-0.13843749999999996,-0.53,5.390400000035761],[-0.11364583333333336,-0.4933333333333333,5.405000000000001],[-0.05770833333333331,-0.5055555555555555,5.420400000035762],[-0.06739583333333338,-0.4933333333333333,5.439400000035761],[-0.052083333333333336,-0.4842592592592593,5.456700000047682],[-0.04770833333333328,-0.4764814814814815,5.472999999999999],[-0.050520833333333334,-0.4740740740740741,5.487900000035765],[-0.044375000000000026,-0.5057407407407408,5.5036000000238445],[-0.049479166666666664,-0.5357407407407407,5.520300000011922],[-0.024374999999999977,-0.4818518518518518,5.536900000035764],[0.002395833333333286,-0.48462962962962963,5.556700000047684],[-0.002499999999999976,-0.5057407407407408,5.570900000035763],[-0.02802083333333331,-0.524074074074074,5.58980000001192],[-0.02802083333333331,-0.524074074074074,5.603700000047681],[0.008854166666666666,-0.527962962962963,5.620400000035765],[0.0017708333333333807,-0.5061111111111112,5.6371000000238425],[0.005624999999999976,-0.482962962962963,5.657300000011922],[0.005624999999999976,-0.482962962962963,5.670499999999997],[0.024583333333333356,-0.4933333333333333,5.68710000002384],[0.042604166666666644,-0.5311111111111111,5.706700000047682],[0.08739583333333342,-0.509074074074074,5.722800000011922],[0.08739583333333342,-0.509074074074074,5.737200000047686],[0.13114583333333343,-0.5375925925925926,5.756300000011919],[0.1646874999999999,-0.5472222222222223,5.770400000035764],[0.20677083333333332,-0.5488888888888889,5.787200000047683],[0.23385416666666667,-0.5211111111111111,5.8076000000238395],[0.21260416666666657,-0.5120370370370371,5.823400000035761],[0.2445833333333333,-0.492037037037037,5.837400000035764],[0.2765625,-0.472037037037037,5.857300000011918],[0.2765625,-0.472037037037037,5.870400000035765]]","[0.00020000004768405688,0.03980000001192252,0.053700000047683716,0.07030000001191894,0.08730000001192195,0.10360000002383885,0.12060000002384186,0.13740000003576114,0.1541000000238455,0.1704000000357624,0.1869999999999976,0.20390000003576603,0.22040000003575955,0.2371000000238439,0.2547000000476842,0.27080000001192417,0.28690000003576444,0.3037000000476837,0.32030000001191894,0.3371000000238453,0.3537000000476809,0.3703000000119232,0.3872000000476845,0.4043000000119221,0.4246000000238439,0.44200000000000017,0.4537000000476823,0.47040000003575955,0.4934000000357628,0.5036000000238445,0.524900000035764,0.5422000000476856,0.5539000000357603,0.5705000000000027,0.5908000000119245,0.606700000047681,0.6240000000000023,0.6431000000238427,0.6538000000119197,0.670499999999997,0.6881000000238444,0.7105000000000032,0.7204000000357595,0.7371000000238439,0.7550000000000026,0.7766000000238407,0.7872000000476831,0.8038000000119183,0.820400000035761,0.8408000000119245,0.8584999999999994,0.8752000000476841,0.8960000000000008,0.9039000000357618,0.920499999999997,0.9375,0.9661000000238431,0.9758000000119225,0.9872000000476859,1.0038000000119212,1.024800000011922,1.037100000023841,1.0539000000357603,1.0749000000357611,1.0916000000238455,1.108800000011918,1.1264000000357655,1.1411000000238403,1.1574000000357643,1.1782000000476813,1.1871000000238396,1.203900000035766,1.224499999999999,1.2452000000476815,1.2549000000357609,1.2704000000357638,1.287100000023841,1.3099000000357606,1.3206000000238447,1.3371000000238453,1.359600000023839,1.3706000000238419,1.3872000000476845,1.4038000000119197,1.4248000000119205,1.4414000000357632,1.453800000011924,1.487100000023844,1.4967000000476816,1.5088000000119237,1.5204000000357638,1.5406000000238436,1.5564999999999998,1.5705000000000027,1.5898000000119197,1.6038000000119226,1.6206000000238419,1.6394999999999982,1.6570000000000036,1.6716000000238438,1.6903000000119235,1.7055000000000007,1.7234000000357597,1.741500000000002,1.757200000047682,1.7717000000476872,1.787100000023841,1.8068000000119184,1.820400000035761,1.837400000035764,1.8539000000357646,1.8734000000357653,1.8878000000119215,1.9037000000476851,1.9263000000119206,1.9372000000476817,1.9543000000119193,1.9705000000000013,1.9913000000119183,2.007200000047682,2.021600000023845,2.037200000047683,2.0583000000119185,2.0730000000000004,2.0872000000476874,2.1038000000119226,2.1234000000357653,2.139800000011924,2.155000000000001,2.17290000003576,2.1880000000000024,2.203800000011924,2.2205000000000013,2.239300000011923,2.2545,2.271600000023845,2.2869000000357644,2.3059999999999974,2.320400000035761,2.3370000000000033,2.353700000047681,2.3738000000119186,2.3912000000476823,2.4071000000238385,2.4204000000357624,2.4369999999999976,2.453800000011924,2.4703000000119246,2.487000000000002,2.5036000000238445,2.520200000047687,2.536999999999999,2.557300000011921,2.570999999999998,2.5871000000238453,2.6038000000119226,2.622900000035763,2.6371000000238425,2.6564000000357595,2.6704000000357624,2.6896000000238445,2.703800000011924,2.7204000000357595,2.737100000023844,2.7588000000119237,2.771900000035764,2.787200000047683,2.8037000000476837,2.824400000035766,2.839600000023843,2.8572000000476834,2.8778000000119235,2.8871000000238425,2.9038000000119197,2.921700000047686,2.94760000002384,2.958500000000001,2.9705000000000013,2.987200000047686,3.0099000000357634,3.020400000035764,3.037200000047683,3.0602000000476863,3.0772000000476822,3.0871000000238453,3.1038000000119226,3.124400000035763,3.141400000035766,3.153700000047685,3.170600000023839,3.186900000035763,3.2082000000476825,3.224499999999999,3.2397000000476837,3.256999999999998,3.2728000000119195,3.286999999999999,3.3083000000119185,3.320300000011919,3.3369000000357616,3.353700000047681,3.370300000011923,3.387600000023845,3.4046000000238408,3.4218000000119204,3.441400000035763,3.458600000023843,3.4748000000119177,3.487000000000002,3.5036000000238445,3.520800000011924,3.540300000011918,3.5589999999999975,3.5746000000238425,3.593400000035764,3.6039000000357646,3.6205,3.646200000047685,3.6541000000238455,3.670499999999997,3.6874000000357654,3.707200000047685,3.7239999999999966,3.7398000000119183,3.7644000000357636,3.771500000000003,3.787100000023841,3.8038000000119183,3.827400000035766,3.8371000000238453,3.8539000000357646,3.8704000000357652,3.895300000011922,3.9044999999999987,3.920499999999997,3.9397000000476865,3.9613000000119243,3.9703000000119246,3.987000000000002,4.0075,4.0229000000357615,4.036900000035764,4.058200000047684,4.0747000000476845,4.091000000000001,4.103800000011923,4.125300000011919,4.1371000000238425,4.1541000000238455,4.176200000047686,4.187200000047682,4.203800000011924,4.221800000011918,4.244100000023842,4.253800000011921,4.270499999999998,4.287300000011918,4.308700000047686,4.325100000023845,4.341000000000001,4.361200000047681,4.370700000047684,4.3872000000476845,4.404300000011922,4.426499999999997,4.444200000047687,4.454300000011919,4.4704000000357595,4.490700000047681,4.508400000035763,4.524700000047687,4.544200000047681,4.553800000011918,4.570700000047687,4.594999999999999,4.603900000035765,4.620300000011923,4.6385000000000005,4.65830000001192,4.670400000035762,4.687600000023842,4.707999999999998,4.725600000023839,4.741200000047684,4.762300000011919,4.770400000035764,4.787100000023841,4.804400000035763,4.825100000023845,4.841200000047685,4.853800000011923,4.8702000000476815,4.8879000000357635,4.906300000011925,4.92030000001192,4.936900000035763,4.9588000000119195,4.970600000023843,4.987499999999997,5.007400000035766,5.023300000011922,5.03930000001192,5.057900000035765,5.070400000035761,5.099700000047683,5.109700000047681,5.1223000000119185,5.138200000047682,5.157000000000004,5.170499999999997,5.187400000035765,5.207000000000001,5.22080000001192,5.237200000047686,5.258100000023845,5.2729000000357615,5.2883000000119225,5.303700000047684,5.323700000047687,5.338500000000003,5.355400000035765,5.375600000023844,5.390400000035761,5.405000000000001,5.420400000035762,5.439400000035761,5.456700000047682,5.472999999999999,5.487900000035765,5.5036000000238445,5.520300000011922,5.536900000035764,5.556700000047684,5.570900000035763,5.58980000001192,5.603700000047681,5.620400000035765,5.6371000000238425,5.657300000011922,5.670499999999997,5.68710000002384,5.706700000047682,5.722800000011922,5.737200000047686,5.756300000011919,5.770400000035764,5.787200000047683,5.8076000000238395,5.823400000035761,5.837400000035764,5.857300000011918,5.870400000035765]","[1733039751440,1733039751470,1733039751484,1733039751501,1733039751518,1733039751534,1733039751551,1733039751568,1733039751585,1733039751601,1733039751618,1733039751634,1733039751651,1733039751668,1733039751685,1733039751701,1733039751717,1733039751734,1733039751751,1733039751768,1733039751784,1733039751801,1733039751818,1733039751835,1733039751855,1733039751873,1733039751884,1733039751901,1733039751924,1733039751934,1733039751955,1733039751973,1733039751984,1733039752001,1733039752021,1733039752037,1733039752055,1733039752074,1733039752084,1733039752101,1733039752119,1733039752141,1733039752151,1733039752168,1733039752186,1733039752207,1733039752218,1733039752234,1733039752251,1733039752271,1733039752289,1733039752306,1733039752327,1733039752334,1733039752351,1733039752368,1733039752397,1733039752406,1733039752418,1733039752434,1733039752455,1733039752468,1733039752484,1733039752505,1733039752522,1733039752539,1733039752557,1733039752572,1733039752588,1733039752609,1733039752618,1733039752634,1733039752655,1733039752676,1733039752685,1733039752701,1733039752718,1733039752740,1733039752751,1733039752768,1733039752790,1733039752801,1733039752818,1733039752834,1733039752855,1733039752872,1733039752884,1733039752918,1733039752927,1733039752939,1733039752951,1733039752971,1733039752987,1733039753001,1733039753020,1733039753034,1733039753051,1733039753070,1733039753088,1733039753102,1733039753121,1733039753136,1733039753154,1733039753172,1733039753188,1733039753202,1733039753218,1733039753237,1733039753251,1733039753268,1733039753284,1733039753304,1733039753318,1733039753334,1733039753357,1733039753368,1733039753385,1733039753401,1733039753422,1733039753438,1733039753452,1733039753468,1733039753489,1733039753504,1733039753518,1733039753534,1733039753554,1733039753570,1733039753586,1733039753603,1733039753619,1733039753634,1733039753651,1733039753670,1733039753685,1733039753702,1733039753717,1733039753736,1733039753751,1733039753767,1733039753784,1733039753804,1733039753822,1733039753838,1733039753851,1733039753868,1733039753884,1733039753901,1733039753918,1733039753934,1733039753951,1733039753968,1733039753988,1733039754001,1733039754018,1733039754034,1733039754054,1733039754068,1733039754087,1733039754101,1733039754120,1733039754134,1733039754151,1733039754168,1733039754189,1733039754202,1733039754218,1733039754234,1733039754255,1733039754270,1733039754288,1733039754308,1733039754318,1733039754334,1733039754352,1733039754378,1733039754389,1733039754401,1733039754418,1733039754440,1733039754451,1733039754468,1733039754491,1733039754508,1733039754518,1733039754534,1733039754555,1733039754572,1733039754584,1733039754601,1733039754617,1733039754639,1733039754655,1733039754670,1733039754688,1733039754703,1733039754717,1733039754739,1733039754751,1733039754767,1733039754784,1733039754801,1733039754818,1733039754835,1733039754852,1733039754872,1733039754889,1733039754905,1733039754917,1733039754934,1733039754951,1733039754971,1733039754990,1733039755005,1733039755024,1733039755034,1733039755051,1733039755077,1733039755085,1733039755101,1733039755118,1733039755138,1733039755155,1733039755170,1733039755195,1733039755202,1733039755218,1733039755234,1733039755258,1733039755268,1733039755284,1733039755301,1733039755326,1733039755335,1733039755351,1733039755370,1733039755392,1733039755401,1733039755418,1733039755438,1733039755453,1733039755467,1733039755489,1733039755505,1733039755522,1733039755534,1733039755556,1733039755568,1733039755585,1733039755607,1733039755618,1733039755634,1733039755652,1733039755675,1733039755684,1733039755701,1733039755718,1733039755739,1733039755756,1733039755772,1733039755792,1733039755801,1733039755818,1733039755835,1733039755857,1733039755875,1733039755885,1733039755901,1733039755921,1733039755939,1733039755955,1733039755975,1733039755985,1733039756001,1733039756026,1733039756034,1733039756051,1733039756069,1733039756089,1733039756101,1733039756118,1733039756139,1733039756156,1733039756172,1733039756193,1733039756201,1733039756218,1733039756235,1733039756256,1733039756272,1733039756284,1733039756301,1733039756319,1733039756337,1733039756351,1733039756367,1733039756389,1733039756401,1733039756418,1733039756438,1733039756454,1733039756470,1733039756488,1733039756501,1733039756530,1733039756540,1733039756553,1733039756569,1733039756588,1733039756601,1733039756618,1733039756638,1733039756651,1733039756668,1733039756689,1733039756703,1733039756719,1733039756734,1733039756754,1733039756769,1733039756786,1733039756806,1733039756821,1733039756835,1733039756851,1733039756870,1733039756887,1733039756904,1733039756918,1733039756934,1733039756951,1733039756967,1733039756987,1733039757001,1733039757020,1733039757034,1733039757051,1733039757068,1733039757088,1733039757101,1733039757118,1733039757137,1733039757153,1733039757168,1733039757187,1733039757201,1733039757218,1733039757238,1733039757254,1733039757268,1733039757288,1733039757301]","[[1197.4,142.3],[1197.4,142.3],[1193.1,146.7],[1176.7,152],[1152.5,158.8],[1151.1,153.2],[1129.5,140.6],[1134,145.4],[1134,145.4],[1121,156.7],[1128.7,165.6],[1139,175.8],[1139,175.8],[1154.1,202.1],[1139,203],[1151.6,196.7],[1136.9,194.6],[1133.6,191.2],[1150.5,194.8],[1123.3,195.2],[1123.3,195.2],[1113.6,189.1],[1095.2,184.1],[1101.9,186.4],[1099.7,187.4],[1116.7,190.6],[1116.7,190.6],[1098,197.8],[1106.6,200.8],[1106.6,200.8],[1102.9,223.7],[1029.4,234.2],[1029.4,234.2],[1009,248.9],[950.4,273.8],[942.8,280.2],[917.7,297.8],[906.7,305.2],[906.7,305.2],[838.8,308.1],[814.6,321.7],[756.8,320.2],[756.8,320.2],[713.9,310.7],[754.7,308.7],[753.7,313.8],[753.7,313.8],[815.5,289.2],[836.3,280.7],[832.4,238.3],[809.7,222.1],[825.4,200.6],[812.4,170.3],[812.4,170.3],[864.7,178.5],[882.3,166.8],[897.1,156.8],[897.1,156.8],[887.8,147.7],[887.8,147.7],[864.5,165.2],[864.5,165.2],[815.1,161.2],[798.5,200.7],[765.2,218.3],[764.9,241.9],[753.2,266.6],[708.9,266.1],[663.7,289.5],[616.7,323.1],[616.7,323.1],[628.2,333.6],[598.3,337.3],[608.7,363.2],[608.7,363.2],[560.7,368.6],[565.3,389.8],[521,407],[521,407],[509.9,433],[501.7,455.9],[501.7,455.9],[499.8,462.7],[486.4,466.5],[463.5,486.4],[453.8,503.1],[453.8,503.1],[429.9,519.1],[429.9,519.1],[494.2,513.5],[494.2,513.5],[509.7,514.5],[563,525.3],[595.2,506.6],[595.2,506.6],[644.6,499.9],[659.4,523.6],[677.5,531.7],[711.4,522.8],[775.4,532.9],[806.8,548.8],[764.2,587.2],[773.8,607.7],[758.5,603],[728.6,624.4],[699.3,629.9],[699.3,629.9],[706.7,610],[706.7,610],[712.8,593.1],[712.8,593.1],[680.8,600.4],[659.6,615.6],[697.8,590.3],[743.1,558],[743.1,558],[745.1,543.1],[745.1,543.1],[761.1,564.3],[828.5,588.9],[876.6,616.5],[913.7,622],[951,636.1],[1012.2,658.4],[1044.8,660.2],[1049.7,697.9],[1067.5,715.4],[1116.2,707.5],[1160.3,687.5],[1164.9,646.2],[1172.3,642.6],[1189.8,656.8],[1207.3,671],[1210.3,649.5],[1214.9,643.2],[1215.6,643],[1222.2,660.2],[1211.6,675.4],[1206.9,692.7],[1206.9,692.7],[1217.5,723],[1238.2,722.1],[1245.3,722.8],[1277.3,728],[1271.6,748.9],[1293.9,744.9],[1304.9,740],[1304.9,740],[1320.7,739.4],[1340.4,751.5],[1378.7,751.7],[1378.7,751.7],[1408.9,751.1],[1386.4,754.6],[1373.4,758.9],[1373.4,758.9],[1335.4,760.9],[1328.8,760.3],[1297.7,773.6],[1297.7,773.6],[1297.4,781.9],[1289.4,767.7],[1292.1,756],[1255,750.2],[1215.3,747],[1204.9,754],[1199.5,762.9],[1179.7,763.2],[1159.7,764.3],[1152.2,752.8],[1130,739.9],[1095.9,749.7],[1095.9,749.7],[1061.6,789.7],[1076.7,822.6],[1065.1,846.6],[1065.1,846.6],[1084.5,849.3],[1084.5,849.3],[1107,836.8],[1107,836.8],[1130.8,828.2],[1186.9,823],[1182.9,813.2],[1182.9,813.2],[1178.9,803.4],[1193.9,795.3],[1174,755],[1174,755],[1120,725.7],[1106.8,694.2],[1062.4,680.6],[1044.7,673.2],[1006.3,679.6],[939.7,678],[933.2,687.2],[933.2,687.2],[926.7,696.4],[926.7,696.4],[931.1,678.5],[931.1,678.5],[989.7,670.5],[1018.7,657.9],[1036.6,656.6],[1064.7,643.7],[1089.1,645.6],[1147.4,636.2],[1180.6,639],[1180.6,639],[1201.5,640.5],[1204.3,634.1],[1206.9,646.2],[1190.7,649.7],[1205.1,669.2],[1219.1,674.5],[1219.1,674.5],[1237.7,698.9],[1242.3,702.4],[1242.3,702.4],[1253.6,690],[1285.9,670],[1318.2,650],[1358.7,639.9],[1404,639.9],[1438.3,638.1],[1438.3,638.1],[1433.9,602.5],[1410.4,584.3],[1383.6,545.6],[1383.6,545.6],[1389,510],[1389,510],[1366,489.7],[1366,489.7],[1379.9,481.4],[1356.7,495.5],[1343.4,507.6],[1343.4,507.6],[1331.9,502.2],[1315.6,495],[1302.4,502.4],[1302.4,502.4],[1321.6,521.9],[1338.4,528.5],[1272.6,546.2],[1272.6,546.2],[1263.6,564.7],[1263.6,564.7],[1218.4,563.4],[1217.4,543.6],[1217.4,543.6],[1245.7,505.1],[1240.2,488.2],[1217.8,463.2],[1217.8,463.2],[1255,444.4],[1295.4,396.9],[1289.1,347.4],[1333.6,323],[1379.5,292.7],[1424.7,270.2],[1424.7,270.2],[1469.8,239.2],[1490.8,235.5],[1524.1,220],[1568.7,207.9],[1568.7,207.9],[1562.1,190.5],[1590.6,171.8],[1573.2,176.1],[1551.3,161.3],[1557,154.8],[1557,154.8],[1532.7,157.1],[1459.7,152.7],[1459.7,152.7],[1386.9,137.6],[1304.4,136.2],[1304.4,136.2],[1228.3,132.9],[1223.8,123.4],[1089.3,124.4],[1092.7,149.8],[1078.9,150.5],[1001,151.9],[1001,151.9],[947,150.6],[933.1,157.1],[942,176.1],[957.9,177.7],[957.9,177.7],[958,165.3],[936.8,176.4],[988.4,187.9],[988.4,187.9],[1027.1,171.1],[998.8,142.4],[998.8,142.4],[1022.7,120.2],[1044.5,122.4],[1074.3,139.6],[1075,153.3],[1061,149.7],[1061,149.7],[1077.9,161.1],[1077.9,161.1],[1045.7,192.9],[1012.7,227.7],[1012.7,227.7],[921.8,230.8],[921.8,230.8],[928.3,276.1],[875.5,301.6],[838.2,299.6],[785.7,304.7],[765.3,278.2],[762.3,272.7],[748.2,274.6],[756.4,256.9],[757.3,251.3],[814.8,260],[818.2,236.6],[827.1,253.8],[850.9,273.6],[904.6,267],[895.3,273.6],[910,278.5],[914.2,282.7],[911.5,284],[917.4,266.9],[912.5,250.7],[936.6,279.8],[962.3,278.3],[957.6,266.9],[933.1,257],[933.1,257],[968.5,254.9],[961.7,266.7],[965.4,279.2],[965.4,279.2],[983.6,273.6],[1000.9,253.2],[1043.9,265.1],[1043.9,265.1],[1085.9,249.7],[1118.1,244.5],[1158.5,243.6],[1184.5,258.6],[1164.1,263.5],[1194.8,274.3],[1225.5,285.1],[1225.5,285.1]]","[0,0.5333]","[0.5333,0.5333]","[-0.5333,0]","[-0.5333,-0.5333]","[0,0]","[0.5333,0]","[0,-0.5333]","[0.5333,-0.5333]",0,0,0,0,1,3,Monitor,11,9,9,1
