inst1_resp.keys,inst1_resp.rt,calibrationMouse.x,calibrationMouse.y,calibrationMouse.leftButton,calibrationMouse.midButton,calibrationMouse.rightButton,calibrationClick.x,calibrationClick.y,calibrationClick.leftButton,calibrationClick.midButton,calibrationClick.rightButton,calibrationClick.clicked_name,trialsc.thisRepN,trialsc.thisTrialN,trialsc.thisN,trialsc.thisIndex,trialsc.ran,calibration_x,calibration_y,participant,session,date,expName,psychopyVersion,OS,frameRate,ScreenRes_pixels,Camera_pixels,mouse_2.x,mouse_2.y,mouse_2.leftButton,mouse_2.midButton,mouse_2.rightButton,mouse_2.time,mouse_2.clicked_name,mouse.x,mouse.y,mouse.leftButton,mouse.midButton,mouse.rightButton,mouse.time,mouse.clicked_name,Choice,Trial,TrialDuration,MOUSE_GAZE,ET_GAZE,ET_GAZE_x_T,time,unixTime,ET_GAZE_NF,Loc_Option1_label,Loc_Option2_label,Loc_Cost_label,Loc_Qual_label,Loc_Option1_cost,Loc_Option2_cost,Loc_Option1_quality,Loc_Option2_quality,trials.thisRepN,trials.thisTrialN,trials.thisN,trials.thisIndex,trials.ran,Block,Device,cost1,qual1,cost2,qual2
space,1.8623,-0.084375,-0.091290661,1,0,0,0.328125,0.672612802,1,0,0,calibration_square,0,0,0,18,1,0.33,0.67,34,001,2024-12-02_10h10.50.640,Attention_exp_legacy,2023.1.0,Win32,59.88023952,,,,,,,,,,,,,,,,,,,,,,,,,,,,,,,,,,,,,,,,,,,,
,,,,,,,-0.345833333,-0.672612802,1,0,0,,0,1,1,4,1,-0.33,-0.67,34,001,2024-12-02_10h10.50.640,Attention_exp_legacy,2023.1.0,Win32,59.88023952,,,,,,,,,,,,,,,,,,,,,,,,,,,,,,,,,,,,,,,,,,,,
,,,,,,,0.327083333,0.328436516,1,0,0,calibration_square,0,2,2,17,1,0.33,0.33,34,001,2024-12-02_10h10.50.640,Attention_exp_legacy,2023.1.0,Win32,59.88023952,,,,,,,,,,,,,,,,,,,,,,,,,,,,,,,,,,,,,,,,,,,,
,,,,,,,-0.001041667,-0.330535152,1,0,0,calibration_square,0,3,3,10,1,0,-0.33,34,001,2024-12-02_10h10.50.640,Attention_exp_legacy,2023.1.0,Win32,59.88023952,,,,,,,,,,,,,,,,,,,,,,,,,,,,,,,,,,,,,,,,,,,,
,,,,,,,-0.329166667,-0.003147954,1,0,0,calibration_square,0,4,4,6,1,-0.33,0,34,001,2024-12-02_10h10.50.640,Attention_exp_legacy,2023.1.0,Win32,59.88023952,,,,,,,,,,,,,,,,,,,,,,,,,,,,,,,,,,,,,,,,,,,,
,,,,,,,-0.667708333,0.32633788,1,0,0,calibration_square,0,5,5,3,1,-0.67,0.33,34,001,2024-12-02_10h10.50.640,Attention_exp_legacy,2023.1.0,Win32,59.88023952,,,,,,,,,,,,,,,,,,,,,,,,,,,,,,,,,,,,,,,,,,,,
,,,,,,,0.333333333,-0.003147954,1,0,0,calibration_square,0,6,6,16,1,0.33,0,34,001,2024-12-02_10h10.50.640,Attention_exp_legacy,2023.1.0,Win32,59.88023952,,,,,,,,,,,,,,,,,,,,,,,,,,,,,,,,,,,,,,,,,,,,
,,,,,,,-0.339583333,0.332633788,1,0,0,calibration_square,0,7,7,7,1,-0.33,0.33,34,001,2024-12-02_10h10.50.640,Attention_exp_legacy,2023.1.0,Win32,59.88023952,,,,,,,,,,,,,,,,,,,,,,,,,,,,,,,,,,,,,,,,,,,,
,,,,,,,0.003125,0.332633788,1,0,0,calibration_square,0,8,8,12,1,0,0.33,34,001,2024-12-02_10h10.50.640,Attention_exp_legacy,2023.1.0,Win32,59.88023952,,,,,,,,,,,,,,,,,,,,,,,,,,,,,,,,,,,,,,,,,,,,
,,,,,,,-0.670833333,-0.32633788,1,0,0,calibration_square,0,9,9,1,1,-0.67,-0.33,34,001,2024-12-02_10h10.50.640,Attention_exp_legacy,2023.1.0,Win32,59.88023952,,,,,,,,,,,,,,,,,,,,,,,,,,,,,,,,,,,,,,,,,,,,
,,,,,,,-0.002083333,-0.670514166,1,0,0,calibration_square,0,10,10,9,1,0,-0.67,34,001,2024-12-02_10h10.50.640,Attention_exp_legacy,2023.1.0,Win32,59.88023952,,,,,,,,,,,,,,,,,,,,,,,,,,,,,,,,,,,,,,,,,,,,
,,,,,,,-0.66875,-0.007345226,1,0,0,calibration_square,0,11,11,2,1,-0.67,0,34,001,2024-12-02_10h10.50.640,Attention_exp_legacy,2023.1.0,Win32,59.88023952,,,,,,,,,,,,,,,,,,,,,,,,,,,,,,,,,,,,,,,,,,,,
,,,,,,,-0.005208333,0.666316894,0,0,0,,0,12,12,13,1,0,0.67,34,001,2024-12-02_10h10.50.640,Attention_exp_legacy,2023.1.0,Win32,59.88023952,,,,,,,,,,,,,,,,,,,,,,,,,,,,,,,,,,,,,,,,,,,,
,,,,,,,0.676041667,-0.676810073,1,0,0,calibration_square,0,13,13,20,1,0.67,-0.67,34,001,2024-12-02_10h10.50.640,Attention_exp_legacy,2023.1.0,Win32,59.88023952,,,,,,,,,,,,,,,,,,,,,,,,,,,,,,,,,,,,,,,,,,,,
,,,,,,,0.328125,-0.330535152,1,0,0,calibration_square,0,14,14,15,1,0.33,-0.33,34,001,2024-12-02_10h10.50.640,Attention_exp_legacy,2023.1.0,Win32,59.88023952,,,,,,,,,,,,,,,,,,,,,,,,,,,,,,,,,,,,,,,,,,,,
,,,,,,,0.66875,0.66841553,1,0,0,calibration_square,0,15,15,19,1,0.67,0.67,34,001,2024-12-02_10h10.50.640,Attention_exp_legacy,2023.1.0,Win32,59.88023952,,,,,,,,,,,,,,,,,,,,,,,,,,,,,,,,,,,,,,,,,,,,
,,,,,,,-0.005208333,-0.001049318,1,0,0,calibration_square,0,16,16,11,1,0,0,34,001,2024-12-02_10h10.50.640,Attention_exp_legacy,2023.1.0,Win32,59.88023952,,,,,,,,,,,,,,,,,,,,,,,,,,,,,,,,,,,,,,,,,,,,
,,,,,,,-0.335416667,-0.332633788,1,0,0,calibration_square,0,17,17,5,1,-0.33,-0.33,34,001,2024-12-02_10h10.50.640,Attention_exp_legacy,2023.1.0,Win32,59.88023952,,,,,,,,,,,,,,,,,,,,,,,,,,,,,,,,,,,,,,,,,,,,
,,,,,,,0.322916667,-0.672612802,1,0,0,calibration_square,0,18,18,14,1,0.33,-0.67,34,001,2024-12-02_10h10.50.640,Attention_exp_legacy,2023.1.0,Win32,59.88023952,,,,,,,,,,,,,,,,,,,,,,,,,,,,,,,,,,,,,,,,,,,,
,,,,,,,-0.34375,0.662119622,1,0,0,,0,19,19,8,1,-0.33,0.67,34,001,2024-12-02_10h10.50.640,Attention_exp_legacy,2023.1.0,Win32,59.88023952,,,,,,,,,,,,,,,,,,,,,,,,,,,,,,,,,,,,,,,,,,,,
,,,,,,,-0.666666667,-0.66841553,1,0,0,calibration_square,0,20,20,0,1,-0.67,-0.67,34,001,2024-12-02_10h10.50.640,Attention_exp_legacy,2023.1.0,Win32,59.88023952,,,,,,,,,,,,,,,,,,,,,,,,,,,,,,,,,,,,,,,,,,,,
,,,,,,,,,,,,,,,,,,,,34,001,2024-12-02_10h10.50.640,Attention_exp_legacy,2023.1.0,Win32,59.88023952,"[1920,953]","[640,480]",[0.027083333333333334],[-0.4963273871983211],[1],[0],[0],[2.1782999999523156],"[""StartButton""]",[0.071875],[0.372507869884575],[1],[0],[0],[4.26720000004768],"[""Option1_label""]",Option1_label,1,5.2971,"[[0.022916666666666665,-0.41028331584470096],[0.022916666666666665,-0.40818467995802726],[0.022916666666666665,-0.40818467995802726],[0.022916666666666665,-0.40818467995802726],[0.022916666666666665,-0.40818467995802726],[0.022916666666666665,-0.40818467995802726],[0.022916666666666665,-0.40818467995802726],[0.022916666666666665,-0.40818467995802726],[0.022916666666666665,-0.40818467995802726],[0.022916666666666665,-0.40818467995802726],[0.022916666666666665,-0.40818467995802726],[0.022916666666666665,-0.40818467995802726],[0.022916666666666665,-0.40818467995802726],[0.022916666666666665,-0.40818467995802726],[0.022916666666666665,-0.40818467995802726],[0.022916666666666665,-0.40818467995802726],[0.022916666666666665,-0.40818467995802726],[0.022916666666666665,-0.40818467995802726],[0.022916666666666665,-0.40818467995802726],[0.022916666666666665,-0.40818467995802726],[0.022916666666666665,-0.40818467995802726],[0.022916666666666665,-0.40818467995802726],[0.022916666666666665,-0.40818467995802726],[0.022916666666666665,-0.40818467995802726],[0.022916666666666665,-0.40818467995802726],[0.028125,-0.40398740818467993],[0.040625,-0.3955928646379853],[0.05625,-0.38929695697796435],[0.08229166666666667,-0.372507869884575],[0.15625,-0.32214060860440713],[0.259375,-0.19622245540398742],[0.28229166666666666,-0.16474291710388247],[0.303125,-0.14375655823714587],[0.3125,-0.13326337880377753],[0.328125,-0.11647429171038824],[0.3625,-0.07660020986358866],[0.38645833333333335,-0.04512067156348373],[0.41770833333333335,-0.001049317943336831],[0.46770833333333334,0.07450157397691501],[0.47604166666666664,0.08919202518363065],[0.47708333333333336,0.08919202518363065],[0.47708333333333336,0.08919202518363065],[0.47708333333333336,0.08919202518363065],[0.47708333333333336,0.08919202518363065],[0.47708333333333336,0.08919202518363065],[0.47708333333333336,0.08919202518363065],[0.47708333333333336,0.08919202518363065],[0.47708333333333336,0.08919202518363065],[0.47708333333333336,0.08919202518363065],[0.47708333333333336,0.08919202518363065],[0.47708333333333336,0.08919202518363065],[0.47708333333333336,0.08919202518363065],[0.47708333333333336,0.08919202518363065],[0.47708333333333336,0.08919202518363065],[0.47708333333333336,0.08919202518363065],[0.47708333333333336,0.08919202518363065],[0.47708333333333336,0.08919202518363065],[0.47708333333333336,0.08919202518363065],[0.47708333333333336,0.08919202518363065],[0.47708333333333336,0.08919202518363065],[0.47708333333333336,0.08919202518363065],[0.475,0.08709338929695698],[0.475,0.08709338929695698],[0.475,0.08709338929695698],[0.4739583333333333,0.08499475341028331],[0.4625,0.080797481636936],[0.440625,0.07660020986358866],[0.41354166666666664,0.07660020986358866],[0.38645833333333335,0.07660020986358866],[0.37083333333333335,0.07660020986358866],[0.36041666666666666,0.07660020986358866],[0.36041666666666666,0.07660020986358866],[0.36041666666666666,0.07660020986358866],[0.36041666666666666,0.07660020986358866],[0.36041666666666666,0.07660020986358866],[0.36041666666666666,0.07660020986358866],[0.36041666666666666,0.07660020986358866],[0.36041666666666666,0.07660020986358866],[0.36041666666666666,0.07660020986358866],[0.36041666666666666,0.07660020986358866],[0.36041666666666666,0.07660020986358866],[0.36041666666666666,0.07660020986358866],[0.36041666666666666,0.07660020986358866],[0.35625,0.07869884575026233],[0.33958333333333335,0.09338929695697797],[0.32708333333333334,0.10598111227701994],[0.321875,0.11017838405036726],[0.30833333333333335,0.12067156348373557],[0.29375,0.1311647429171039],[0.2833333333333333,0.13746065057712487],[0.27395833333333336,0.13955928646379853],[0.27291666666666664,0.13955928646379853],[0.2708333333333333,0.1416579223504722],[0.2708333333333333,0.1416579223504722],[0.2708333333333333,0.1416579223504722],[0.2708333333333333,0.1416579223504722],[0.2708333333333333,0.1416579223504722],[0.2708333333333333,0.1416579223504722],[0.26979166666666665,0.1416579223504722],[0.26875,0.1416579223504722],[0.2677083333333333,0.1416579223504722],[0.2677083333333333,0.1416579223504722],[0.2677083333333333,0.1416579223504722],[0.2677083333333333,0.1416579223504722],[0.26666666666666666,0.1416579223504722],[0.26458333333333334,0.1416579223504722],[0.26458333333333334,0.1416579223504722],[0.26458333333333334,0.1416579223504722],[0.2635416666666667,0.1416579223504722],[0.2635416666666667,0.1416579223504722],[0.2625,0.1416579223504722],[0.25104166666666666,0.13955928646379853],[0.24791666666666667,0.13955928646379853],[0.2375,0.13955928646379853],[0.19791666666666666,0.18572927597061908],[0.14479166666666668,0.26128016789087094],[0.109375,0.31374606505771246],[0.0875,0.34312696747114374],[0.07916666666666666,0.3578174186778594],[0.071875,0.3704092339979014],[0.071875,0.372507869884575],[0.071875,0.372507869884575],[0.071875,0.372507869884575],[0.071875,0.372507869884575],[0.071875,0.372507869884575],[0.071875,0.372507869884575],[0.071875,0.372507869884575],[0.071875,0.372507869884575],[0.071875,0.372507869884575],[0.071875,0.372507869884575],[0.08125,0.3473242392444911],[0.08125,0.34312696747114374],[0.08125,0.34312696747114374],[0.08229166666666667,0.34312696747114374],[0.08229166666666667,0.34312696747114374],[0.08229166666666667,0.34312696747114374],[0.08229166666666667,0.3410283315844701],[0.08229166666666667,0.3410283315844701],[0.08229166666666667,0.3410283315844701],[0.08229166666666667,0.3410283315844701],[0.08229166666666667,0.3410283315844701],[0.08229166666666667,0.3410283315844701],[0.08229166666666667,0.3410283315844701],[0.08229166666666667,0.3410283315844701],[0.08229166666666667,0.3410283315844701],[0.08229166666666667,0.3410283315844701],[0.08229166666666667,0.3410283315844701],[0.08229166666666667,0.3410283315844701],[0.08229166666666667,0.3410283315844701],[0.08229166666666667,0.3410283315844701],[0.08229166666666667,0.3410283315844701],[0.08229166666666667,0.3410283315844701],[0.08229166666666667,0.3410283315844701],[0.08229166666666667,0.3410283315844701],[0.08229166666666667,0.3410283315844701]]","[[0.0265625,0.2675760755508919],[0.0265625,0.2675760755508919],[0.010208333333333286,0.2786988457502622],[0.010208333333333286,0.2786988457502622],[0.022395833333333334,0.3179433368310598],[0.025833333333333285,0.3441762854144806],[0.025833333333333285,0.3441762854144806],[0.049791666666666616,0.3490031479538299],[0.049791666666666616,0.3490031479538299],[0.043437500000000046,0.4289611752360965],[0.043437500000000046,0.4289611752360965],[0.04708333333333338,0.440083945435467],[0.04708333333333338,0.440083945435467],[0.08291666666666657,0.459601259181532],[0.08291666666666657,0.459601259181532],[0.08291666666666657,0.459601259181532],[0.09677083333333343,0.4799580272822666],[0.09677083333333343,0.4799580272822666],[0.07635416666666663,0.42917103882476393],[0.07635416666666663,0.42917103882476393],[0.0900000000000001,0.3813221406086045],[0.0900000000000001,0.3813221406086045],[0.06593749999999995,0.3722980062959076],[0.06593749999999995,0.3722980062959076],[0.009687499999999953,0.3217208814270723],[0.009687499999999953,0.3217208814270723],[-0.019895833333333356,0.3040923399790136],[-0.019895833333333356,0.3040923399790136],[-0.03947916666666664,0.3267576075550893],[-0.07354166666666669,0.3248688352570828],[-0.07354166666666669,0.3248688352570828],[-0.06468750000000002,0.311227701993704],[-0.06468750000000002,0.311227701993704],[-0.07364583333333338,0.2604407135362015],[-0.07364583333333338,0.2604407135362015],[-0.07364583333333338,0.2604407135362015],[-0.05604166666666662,0.2058761804826863],[-0.05604166666666662,0.2058761804826863],[-0.019479166666666714,0.2163693599160546],[-0.019479166666666714,0.2163693599160546],[0.009687499999999953,0.23189926547743966],[0.009687499999999953,0.23189926547743966],[0.07625000000000005,0.25918153200419725],[0.07625000000000005,0.25918153200419725],[0.20166666666666658,0.22938090241343118],[0.20166666666666658,0.22938090241343118],[0.2678124999999999,0.2258132214060861],[0.3207291666666668,0.16663168940188872],[0.3207291666666668,0.16663168940188872],[0.3584374999999999,0.1311647429171039],[0.3584374999999999,0.1311647429171039],[0.3529166666666666,0.1859391395592865],[0.3529166666666666,0.1859391395592865],[0.42218749999999994,0.3246589716684156],[0.42218749999999994,0.3246589716684156],[0.4428124999999999,0.4858342077649528],[0.4428124999999999,0.4858342077649528],[0.38312499999999994,0.5317943336831059],[0.35885416666666664,0.5584470094438615],[0.35885416666666664,0.5584470094438615],[0.31614583333333335,0.5368310598111227],[0.31614583333333335,0.5368310598111227],[0.27281250000000007,0.5725078698845749],[0.27281250000000007,0.5725078698845749],[0.2665625000000001,0.5422875131164743],[0.2665625000000001,0.5422875131164743],[0.27760416666666665,0.5357817418677858],[0.27760416666666665,0.5357817418677858],[0.2772916666666667,0.5487932843651626],[0.2772916666666667,0.5487932843651626],[0.3125,0.42707240293809023],[0.3125,0.42707240293809023],[0.3125,0.42707240293809023],[0.26500000000000007,0.2673662119622245],[0.26500000000000007,0.2673662119622245],[0.28145833333333337,0.08037775445960116],[0.28145833333333337,0.08037775445960116],[0.31218750000000006,0.053095487932843674],[0.31218750000000006,0.053095487932843674],[0.321875,0.009863588667366188],[0.321875,0.009863588667366188],[0.3163541666666667,-0.03084994753410281],[0.3163541666666667,-0.03084994753410281],[0.2911458333333333,-0.0472193074501574],[0.2911458333333333,-0.0472193074501574],[0.2663541666666667,-0.048478488982161644],[0.2663541666666667,-0.048478488982161644],[0.2553124999999999,-0.03420776495278072],[0.2553124999999999,-0.03420776495278072],[0.2720833333333334,-0.09863588667366212],[0.2720833333333334,-0.09863588667366212],[0.24072916666666658,-0.038614900314795336],[0.24072916666666658,-0.038614900314795336],[0.22072916666666675,-0.03252885624344176],[0.22072916666666675,-0.03252885624344176],[0.19802083333333323,0.01343126967471139],[0.19802083333333323,0.01343126967471139],[0.19729166666666675,0.0014690451206715396],[0.19729166666666675,0.0014690451206715396],[0.18791666666666676,0.01888772298006296],[0.18791666666666676,0.01888772298006296],[0.24260416666666676,0.06778593913955931],[0.24260416666666676,0.06778593913955931],[0.26510416666666664,0.05141657922350472],[0.26510416666666664,0.05141657922350472],[0.2712500000000001,0.00944386149003148],[0.2712500000000001,0.00944386149003148],[0.2507291666666667,-0.01049317943336831],[0.2507291666666667,-0.01049317943336831],[0.2326041666666666,0.017838405036726127],[0.23302083333333337,0.010703043022035725],[0.23302083333333337,0.010703043022035725],[0.20833333333333334,0.02938090241343127],[0.20833333333333334,0.02938090241343127],[0.18229166666666666,0.018677859391395546],[0.18229166666666666,0.018677859391395546],[0.15812499999999996,-0.047639034627492104],[0.15812499999999996,-0.047639034627492104],[0.19760416666666672,-0.10262329485834203],[0.19760416666666672,-0.10262329485834203],[0.15416666666666667,-0.18467995802728226],[0.15416666666666667,-0.18467995802728226],[0.14458333333333329,-0.20692549842602312],[0.14458333333333329,-0.20692549842602312],[0.13864583333333325,-0.212591815320042],[0.13864583333333325,-0.212591815320042],[0.1319791666666667,-0.2644281217208814],[0.12062499999999995,-0.269884575026233],[0.12062499999999995,-0.269884575026233],[0.10302083333333342,-0.32298006295907655],[0.10302083333333342,-0.32298006295907655],[0.11864583333333342,-0.34942287513116477],[0.11864583333333342,-0.34942287513116477],[0.11062500000000004,-0.3706190975865688],[0.11062500000000004,-0.3706190975865688],[0.09500000000000004,-0.28940188877229794],[0.09500000000000004,-0.28940188877229794],[0.03604166666666669,-0.23756558237145853],[0.03604166666666669,-0.23756558237145853],[-0.012395833333333309,-0.17733473242392445],[-0.012395833333333309,-0.17733473242392445],[-0.03989583333333328,-0.16180482686253939],[-0.03989583333333328,-0.16180482686253939],[-0.05604166666666662,-0.1422875131164743],[-0.05604166666666662,-0.1422875131164743],[-0.07281249999999997,-0.10514165792235051],[-0.07281249999999997,-0.10514165792235051],[-0.09750000000000002,-0.11500524658971671],[-0.09750000000000002,-0.11500524658971671],[-0.10958333333333338,-0.08037775445960128],[-0.10958333333333338,-0.08037775445960128],[-0.1530208333333333,-0.0740818467995803],[-0.1530208333333333,-0.0740818467995803],[-0.17156250000000003,-0.05834207764952783],[-0.17156250000000003,-0.05834207764952783]]","[[0.0265625,0.2675760755508919,0.00029999995231833054],[0.0265625,0.2675760755508919,0.2120000000000033],[0.010208333333333286,0.2786988457502622,0.2208999999761545],[0.010208333333333286,0.2786988457502622,0.2378999999761504],[0.022395833333333334,0.3179433368310598,0.25420000004768895],[0.025833333333333285,0.3441762854144806,0.2757000000476779],[0.025833333333333285,0.3441762854144806,0.35539999997615723],[0.049791666666666616,0.3490031479538299,0.36239999997616223],[0.049791666666666616,0.3490031479538299,0.37300000000000466],[0.043437500000000046,0.4289611752360965,0.3877000000476869],[0.043437500000000046,0.4289611752360965,0.45239999997615143],[0.04708333333333338,0.440083945435467,0.47160000002384095],[0.04708333333333338,0.440083945435467,0.48810000002383447],[0.08291666666666657,0.459601259181532,0.5303999999761544],[0.08291666666666657,0.459601259181532,0.5693999999761559],[0.08291666666666657,0.459601259181532,0.571200000047682],[0.09677083333333343,0.4799580272822666,0.596299999952322],[0.09677083333333343,0.4799580272822666,0.6251000000238349],[0.07635416666666663,0.42917103882476393,0.6607999999523173],[0.07635416666666663,0.42917103882476393,0.7289999999999992],[0.0900000000000001,0.3813221406086045,0.7382999999523179],[0.0900000000000001,0.3813221406086045,0.754299999952309],[0.06593749999999995,0.3722980062959076,0.7922000000476856],[0.06593749999999995,0.3722980062959076,0.8264999999999958],[0.009687499999999953,0.3217208814270723,0.8638999999761552],[0.009687499999999953,0.3217208814270723,1.000200000047684],[-0.019895833333333356,0.3040923399790136,1.0091000000238353],[-0.019895833333333356,0.3040923399790136,1.0212999999523191],[-0.03947916666666664,0.3267576075550893,1.0377999999523126],[-0.07354166666666669,0.3248688352570828,1.1244999999999976],[-0.07354166666666669,0.3248688352570828,1.1937000000476843],[-0.06468750000000002,0.311227701993704,1.2013999999761609],[-0.06468750000000002,0.311227701993704,1.2157000000476756],[-0.07364583333333338,0.2604407135362015,1.227299999952308],[-0.07364583333333338,0.2604407135362015,1.2647000000476822],[-0.07364583333333338,0.2604407135362015,1.2813999999761592],[-0.05604166666666662,0.2058761804826863,1.3558999999761596],[-0.05604166666666662,0.2058761804826863,1.3993999999761542],[-0.019479166666666714,0.2163693599160546,1.4978999999761555],[-0.019479166666666714,0.2163693599160546,1.539799999952308],[0.009687499999999953,0.23189926547743966,1.6006000000238458],[0.009687499999999953,0.23189926547743966,1.623600000023842],[0.07625000000000005,0.25918153200419725,1.6589999999999918],[0.07625000000000005,0.25918153200419725,1.6698999999761526],[0.20166666666666658,0.22938090241343118,1.7085000000000008],[0.20166666666666658,0.22938090241343118,1.7181000000238384],[0.2678124999999999,0.2258132214060861,1.7307000000476762],[0.3207291666666668,0.16663168940188872,1.7791000000238455],[0.3207291666666668,0.16663168940188872,1.811100000023842],[0.3584374999999999,0.1311647429171039,1.846299999952322],[0.3584374999999999,0.1311647429171039,1.9132000000476808],[0.3529166666666666,0.1859391395592865,1.9266000000238392],[0.3529166666666666,0.1859391395592865,1.937600000023835],[0.42218749999999994,0.3246589716684156,1.9874999999999972],[0.42218749999999994,0.3246589716684156,2.02320000004768],[0.4428124999999999,0.4858342077649528,2.0588999999761626],[0.4428124999999999,0.4858342077649528,2.079299999952312],[0.38312499999999994,0.5317943336831059,2.0897999999523194],[0.35885416666666664,0.5584470094438615,2.1106000000238367],[0.35885416666666664,0.5584470094438615,2.1712999999523106],[0.31614583333333335,0.5368310598111227,2.190299999952316],[0.31614583333333335,0.5368310598111227,2.262700000047687],[0.27281250000000007,0.5725078698845749,2.2707999999523167],[0.27281250000000007,0.5725078698845749,2.2874999999999943],[0.2665625000000001,0.5422875131164743,2.3048999999761577],[0.2665625000000001,0.5422875131164743,2.4085000000000036],[0.27760416666666665,0.5357817418677858,2.494299999952318],[0.27760416666666665,0.5357817418677858,2.5049999999999955],[0.2772916666666667,0.5487932843651626,2.546799999952313],[0.2772916666666667,0.5487932843651626,2.6183999999761625],[0.3125,0.42707240293809023,2.6442000000476895],[0.3125,0.42707240293809023,2.653700000047678],[0.3125,0.42707240293809023,2.657499999999999],[0.26500000000000007,0.2673662119622245,2.677499999999995],[0.26500000000000007,0.2673662119622245,2.7232999999523173],[0.28145833333333337,0.08037775445960116,2.7373999999761622],[0.28145833333333337,0.08037775445960116,2.7562999999523186],[0.31218750000000006,0.053095487932843674,2.8402000000476875],[0.31218750000000006,0.053095487932843674,2.8547000000476856],[0.321875,0.009863588667366188,2.8612000000476883],[0.321875,0.009863588667366188,2.870999999999995],[0.3163541666666667,-0.03084994753410281,2.887500000000003],[0.3163541666666667,-0.03084994753410281,2.925200000047681],[0.2911458333333333,-0.0472193074501574,3.002799999952316],[0.2911458333333333,-0.0472193074501574,3.083799999952319],[0.2663541666666667,-0.048478488982161644,3.0934999999999917],[0.2663541666666667,-0.048478488982161644,3.1073999999761526],[0.2553124999999999,-0.03420776495278072,3.1387000000476775],[0.2553124999999999,-0.03420776495278072,3.1516000000238336],[0.2720833333333334,-0.09863588667366212,3.207499999999996],[0.2720833333333334,-0.09863588667366212,3.230499999999992],[0.24072916666666658,-0.038614900314795336,3.244700000047686],[0.24072916666666658,-0.038614900314795336,3.281399999976159],[0.22072916666666675,-0.03252885624344176,3.3173999999761605],[0.22072916666666675,-0.03252885624344176,3.3287999999523095],[0.19802083333333323,0.01343126967471139,3.345299999952317],[0.19802083333333323,0.01343126967471139,3.378799999952321],[0.19729166666666675,0.0014690451206715396,3.4044999999999987],[0.19729166666666675,0.0014690451206715396,3.474200000047688],[0.18791666666666676,0.01888772298006296,3.5287999999523123],[0.18791666666666676,0.01888772298006296,3.5537000000476837],[0.24260416666666676,0.06778593913955931,3.564200000047677],[0.24260416666666676,0.06778593913955931,3.5787999999523095],[0.26510416666666664,0.05141657922350472,3.5999999999999943],[0.26510416666666664,0.05141657922350472,3.6172000000476885],[0.2712500000000001,0.00944386149003148,3.7183999999761568],[0.2712500000000001,0.00944386149003148,3.7303999999761572],[0.2507291666666667,-0.01049317943336831,3.738700000047686],[0.2507291666666667,-0.01049317943336831,3.754299999952309],[0.2326041666666666,0.017838405036726127,3.7707000000476825],[0.23302083333333337,0.010703043022035725,3.8287000000476894],[0.23302083333333337,0.010703043022035725,3.8967999999523215],[0.20833333333333334,0.02938090241343127,3.907799999952317],[0.20833333333333334,0.02938090241343127,3.9768999999761547],[0.18229166666666666,0.018677859391395546,3.995399999976158],[0.18229166666666666,0.018677859391395546,4.058200000047677],[0.15812499999999996,-0.047639034627492104,4.0685],[0.15812499999999996,-0.047639034627492104,4.103499999999997],[0.19760416666666672,-0.10262329485834203,4.1217000000476816],[0.19760416666666672,-0.10262329485834203,4.144700000047678],[0.15416666666666667,-0.18467995802728226,4.294499999999999],[0.15416666666666667,-0.18467995802728226,4.349899999976159],[0.14458333333333329,-0.20692549842602312,4.356600000023846],[0.14458333333333329,-0.20692549842602312,4.379799999952311],[0.13864583333333325,-0.212591815320042,4.401299999952315],[0.13864583333333325,-0.212591815320042,4.528999999999996],[0.1319791666666667,-0.2644281217208814,4.538600000023834],[0.12062499999999995,-0.269884575026233,4.558200000047677],[0.12062499999999995,-0.269884575026233,4.570899999976163],[0.10302083333333342,-0.32298006295907655,4.608200000047688],[0.10302083333333342,-0.32298006295907655,4.753100000023835],[0.11864583333333342,-0.34942287513116477,4.758299999952314],[0.11864583333333342,-0.34942287513116477,4.770799999952317],[0.11062500000000004,-0.3706190975865688,4.814700000047679],[0.11062500000000004,-0.3706190975865688,4.8272999999523165],[0.09500000000000004,-0.28940188877229794,4.8373999999761566],[0.09500000000000004,-0.28940188877229794,4.908200000047685],[0.03604166666666669,-0.23756558237145853,4.915100000023841],[0.03604166666666669,-0.23756558237145853,4.941999999999993],[-0.012395833333333309,-0.17733473242392445,4.9582000000476825],[-0.012395833333333309,-0.17733473242392445,4.993200000047679],[-0.03989583333333328,-0.16180482686253939,5.004200000047689],[-0.03989583333333328,-0.16180482686253939,5.025799999952312],[-0.05604166666666662,-0.1422875131164743,5.0376000000238434],[-0.05604166666666662,-0.1422875131164743,5.054399999976155],[-0.07281249999999997,-0.10514165792235051,5.080299999952317],[-0.07281249999999997,-0.10514165792235051,5.089799999952319],[-0.09750000000000002,-0.11500524658971671,5.104100000023834],[-0.09750000000000002,-0.11500524658971671,5.129700000047677],[-0.10958333333333338,-0.08037775445960128,5.160700000047683],[-0.10958333333333338,-0.08037775445960128,5.169700000047683],[-0.1530208333333333,-0.0740818467995803,5.187600000023835],[-0.1530208333333333,-0.0740818467995803,5.206000000000003],[-0.17156250000000003,-0.05834207764952783,5.247600000023837],[-0.17156250000000003,-0.05834207764952783,5.297100000023846]]","[0.00029999995231833054,0.2120000000000033,0.2208999999761545,0.2378999999761504,0.25420000004768895,0.2757000000476779,0.35539999997615723,0.36239999997616223,0.37300000000000466,0.3877000000476869,0.45239999997615143,0.47160000002384095,0.48810000002383447,0.5303999999761544,0.5693999999761559,0.571200000047682,0.596299999952322,0.6251000000238349,0.6607999999523173,0.7289999999999992,0.7382999999523179,0.754299999952309,0.7922000000476856,0.8264999999999958,0.8638999999761552,1.000200000047684,1.0091000000238353,1.0212999999523191,1.0377999999523126,1.1244999999999976,1.1937000000476843,1.2013999999761609,1.2157000000476756,1.227299999952308,1.2647000000476822,1.2813999999761592,1.3558999999761596,1.3993999999761542,1.4978999999761555,1.539799999952308,1.6006000000238458,1.623600000023842,1.6589999999999918,1.6698999999761526,1.7085000000000008,1.7181000000238384,1.7307000000476762,1.7791000000238455,1.811100000023842,1.846299999952322,1.9132000000476808,1.9266000000238392,1.937600000023835,1.9874999999999972,2.02320000004768,2.0588999999761626,2.079299999952312,2.0897999999523194,2.1106000000238367,2.1712999999523106,2.190299999952316,2.262700000047687,2.2707999999523167,2.2874999999999943,2.3048999999761577,2.4085000000000036,2.494299999952318,2.5049999999999955,2.546799999952313,2.6183999999761625,2.6442000000476895,2.653700000047678,2.657499999999999,2.677499999999995,2.7232999999523173,2.7373999999761622,2.7562999999523186,2.8402000000476875,2.8547000000476856,2.8612000000476883,2.870999999999995,2.887500000000003,2.925200000047681,3.002799999952316,3.083799999952319,3.0934999999999917,3.1073999999761526,3.1387000000476775,3.1516000000238336,3.207499999999996,3.230499999999992,3.244700000047686,3.281399999976159,3.3173999999761605,3.3287999999523095,3.345299999952317,3.378799999952321,3.4044999999999987,3.474200000047688,3.5287999999523123,3.5537000000476837,3.564200000047677,3.5787999999523095,3.5999999999999943,3.6172000000476885,3.7183999999761568,3.7303999999761572,3.738700000047686,3.754299999952309,3.7707000000476825,3.8287000000476894,3.8967999999523215,3.907799999952317,3.9768999999761547,3.995399999976158,4.058200000047677,4.0685,4.103499999999997,4.1217000000476816,4.144700000047678,4.294499999999999,4.349899999976159,4.356600000023846,4.379799999952311,4.401299999952315,4.528999999999996,4.538600000023834,4.558200000047677,4.570899999976163,4.608200000047688,4.753100000023835,4.758299999952314,4.770799999952317,4.814700000047679,4.8272999999523165,4.8373999999761566,4.908200000047685,4.915100000023841,4.941999999999993,4.9582000000476825,4.993200000047679,5.004200000047689,5.025799999952312,5.0376000000238434,5.054399999976155,5.080299999952317,5.089799999952319,5.104100000023834,5.129700000047677,5.160700000047683,5.169700000047683,5.187600000023835,5.206000000000003,5.247600000023837,5.297100000023846]","[1733105535898,1733105536083,1733105536092,1733105536109,1733105536125,1733105536146,1733105536226,1733105536233,1733105536244,1733105536258,1733105536323,1733105536342,1733105536359,1733105536401,1733105536440,1733105536442,1733105536467,1733105536496,1733105536531,1733105536600,1733105536610,1733105536625,1733105536663,1733105536697,1733105536735,1733105536871,1733105536880,1733105536892,1733105536908,1733105536995,1733105537064,1733105537072,1733105537086,1733105537098,1733105537135,1733105537152,1733105537227,1733105537270,1733105537369,1733105537411,1733105537471,1733105537494,1733105537530,1733105537541,1733105537579,1733105537589,1733105537601,1733105537650,1733105537682,1733105537717,1733105537784,1733105537797,1733105537808,1733105537858,1733105537894,1733105537930,1733105537950,1733105537960,1733105537981,1733105538042,1733105538061,1733105538133,1733105538142,1733105538158,1733105538176,1733105538279,1733105538365,1733105538376,1733105538417,1733105538489,1733105538515,1733105538524,1733105538528,1733105538548,1733105538594,1733105538608,1733105538627,1733105538711,1733105538725,1733105538732,1733105538742,1733105538758,1733105538796,1733105538873,1733105538954,1733105538964,1733105538978,1733105539009,1733105539022,1733105539078,1733105539101,1733105539115,1733105539152,1733105539188,1733105539199,1733105539216,1733105539249,1733105539275,1733105539345,1733105539399,1733105539424,1733105539435,1733105539450,1733105539471,1733105539488,1733105539589,1733105539601,1733105539609,1733105539625,1733105539641,1733105539699,1733105539767,1733105539778,1733105539848,1733105539866,1733105539929,1733105539939,1733105539974,1733105539992,1733105540015,1733105540165,1733105540221,1733105540227,1733105540251,1733105540272,1733105540400,1733105540409,1733105540429,1733105540442,1733105540479,1733105540624,1733105540629,1733105540641,1733105540685,1733105540698,1733105540708,1733105540779,1733105540786,1733105540813,1733105540829,1733105540864,1733105540875,1733105540896,1733105540908,1733105540925,1733105540951,1733105540961,1733105540975,1733105541000,1733105541031,1733105541040,1733105541058,1733105541077,1733105541118,1733105541168]","[[985.5,604],[985.5,604],[969.8,609.3],[969.8,609.3],[981.5,628],[984.8,640.5],[984.8,640.5],[1007.8,642.8],[1007.8,642.8],[1001.7,680.9],[1001.7,680.9],[1005.2,686.2],[1005.2,686.2],[1039.6,695.5],[1039.6,695.5],[1039.6,695.5],[1052.9,705.2],[1052.9,705.2],[1033.3,681],[1033.3,681],[1046.4,658.2],[1046.4,658.2],[1023.3,653.9],[1023.3,653.9],[969.3,629.8],[969.3,629.8],[940.9,621.4],[940.9,621.4],[922.1,632.2],[889.4,631.3],[889.4,631.3],[897.9,624.8],[897.9,624.8],[889.3,600.6],[889.3,600.6],[889.3,600.6],[906.2,574.6],[906.2,574.6],[941.3,579.6],[941.3,579.6],[969.3,587],[969.3,587],[1033.2,600],[1033.2,600],[1153.6,585.8],[1153.6,585.8],[1217.1,584.1],[1267.9,555.9],[1267.9,555.9],[1304.1,539],[1304.1,539],[1298.8,565.1],[1298.8,565.1],[1365.3,631.2],[1365.3,631.2],[1385.1,708],[1385.1,708],[1327.8,729.9],[1304.5,742.6],[1304.5,742.6],[1263.5,732.3],[1263.5,732.3],[1221.9,749.3],[1221.9,749.3],[1215.9,734.9],[1215.9,734.9],[1226.5,731.8],[1226.5,731.8],[1226.2,738],[1226.2,738],[1260,680],[1260,680],[1260,680],[1214.4,603.9],[1214.4,603.9],[1230.2,514.8],[1230.2,514.8],[1259.7,501.8],[1259.7,501.8],[1269,481.2],[1269,481.2],[1263.7,461.8],[1263.7,461.8],[1239.5,454],[1239.5,454],[1215.7,453.4],[1215.7,453.4],[1205.1,460.2],[1205.1,460.2],[1221.2,429.5],[1221.2,429.5],[1191.1,458.1],[1191.1,458.1],[1171.9,461],[1171.9,461],[1150.1,482.9],[1150.1,482.9],[1149.4,477.2],[1149.4,477.2],[1140.4,485.5],[1140.4,485.5],[1192.9,508.8],[1192.9,508.8],[1214.5,501],[1214.5,501],[1220.4,481],[1220.4,481],[1200.7,471.5],[1200.7,471.5],[1183.3,485],[1183.7,481.6],[1183.7,481.6],[1160,490.5],[1160,490.5],[1135,485.4],[1135,485.4],[1111.8,453.8],[1111.8,453.8],[1149.7,427.6],[1149.7,427.6],[1108,388.5],[1108,388.5],[1098.8,377.9],[1098.8,377.9],[1093.1,375.2],[1093.1,375.2],[1086.7,350.5],[1075.8,347.9],[1075.8,347.9],[1058.9,322.6],[1058.9,322.6],[1073.9,310],[1073.9,310],[1066.2,299.9],[1066.2,299.9],[1051.2,338.6],[1051.2,338.6],[994.6,363.3],[994.6,363.3],[948.1,392],[948.1,392],[921.7,399.4],[921.7,399.4],[906.2,408.7],[906.2,408.7],[890.1,426.4],[890.1,426.4],[866.4,421.7],[866.4,421.7],[854.8,438.2],[854.8,438.2],[813.1,441.2],[813.1,441.2],[795.3,448.7],[795.3,448.7]]","[0,0.3527331528]","[0.3527331528,0.3527331528]","[-0.3527331528,0]","[-0.3527331528,-0.3527331528]","[0,0]","[0.3527331528,0]","[0,-0.3527331528]","[0.3527331528,-0.3527331528]",0,0,0,0,1,1,Tablet,7,7,15,9
,,,,,,,,,,,,,,,,,,,,34,001,2024-12-02_10h10.50.640,Attention_exp_legacy,2023.1.0,Win32,59.88023952,,,,,,,,,,[0.3697916666666667],[0.3641133263378804],[1],[0],[0],[2.4566999999284747],"[""Option2_label""]",Option2_label,2,3.4607,"[[0.08229166666666667,0.3410283315844701],[0.08229166666666667,0.3410283315844701],[0.08229166666666667,0.3410283315844701],[0.08229166666666667,0.3410283315844701],[0.08229166666666667,0.3410283315844701],[0.08229166666666667,0.3410283315844701],[0.08229166666666667,0.3410283315844701],[0.08229166666666667,0.3410283315844701],[0.08229166666666667,0.3410283315844701],[0.08229166666666667,0.3410283315844701],[0.08229166666666667,0.3410283315844701],[0.08229166666666667,0.3410283315844701],[0.08229166666666667,0.3410283315844701],[0.08229166666666667,0.3410283315844701],[0.08229166666666667,0.3410283315844701],[0.08229166666666667,0.3410283315844701],[0.08229166666666667,0.3410283315844701],[0.08229166666666667,0.3410283315844701],[0.08229166666666667,0.3410283315844701],[0.08229166666666667,0.3410283315844701],[0.08229166666666667,0.3410283315844701],[0.08229166666666667,0.3410283315844701],[0.08229166666666667,0.3410283315844701],[0.08229166666666667,0.3410283315844701],[0.08229166666666667,0.3410283315844701],[0.08229166666666667,0.3410283315844701],[0.08229166666666667,0.3410283315844701],[0.08229166666666667,0.3410283315844701],[0.08229166666666667,0.3410283315844701],[0.08229166666666667,0.3410283315844701],[0.08229166666666667,0.3410283315844701],[0.08229166666666667,0.3410283315844701],[0.08229166666666667,0.3410283315844701],[0.08229166666666667,0.3410283315844701],[0.08229166666666667,0.3410283315844701],[0.08229166666666667,0.3410283315844701],[0.08229166666666667,0.3410283315844701],[0.08229166666666667,0.3410283315844701],[0.08229166666666667,0.3410283315844701],[0.08229166666666667,0.3410283315844701],[0.08229166666666667,0.3410283315844701],[0.08229166666666667,0.3410283315844701],[0.08229166666666667,0.3410283315844701],[0.08229166666666667,0.3410283315844701],[0.08229166666666667,0.3410283315844701],[0.08229166666666667,0.3410283315844701],[0.08229166666666667,0.3410283315844701],[0.08229166666666667,0.3410283315844701],[0.08229166666666667,0.3410283315844701],[0.08229166666666667,0.3410283315844701],[0.08229166666666667,0.3410283315844701],[0.08229166666666667,0.3410283315844701],[0.08229166666666667,0.3410283315844701],[0.08229166666666667,0.3410283315844701],[0.08229166666666667,0.3410283315844701],[0.08229166666666667,0.3410283315844701],[0.08229166666666667,0.3410283315844701],[0.08229166666666667,0.3410283315844701],[0.08229166666666667,0.3410283315844701],[0.08229166666666667,0.3410283315844701],[0.08229166666666667,0.3410283315844701],[0.08229166666666667,0.3410283315844701],[0.08229166666666667,0.3410283315844701],[0.08229166666666667,0.3410283315844701],[0.08229166666666667,0.3410283315844701],[0.08229166666666667,0.3410283315844701],[0.08229166666666667,0.3410283315844701],[0.08229166666666667,0.3410283315844701],[0.08229166666666667,0.3410283315844701],[0.08229166666666667,0.3410283315844701],[0.08229166666666667,0.3410283315844701],[0.10208333333333333,0.33473242392444913],[0.125,0.33473242392444913],[0.14895833333333333,0.33473242392444913],[0.18229166666666666,0.33473242392444913],[0.23541666666666666,0.33473242392444913],[0.3260416666666667,0.35991605456453307],[0.35520833333333335,0.3641133263378804],[0.365625,0.3641133263378804],[0.3697916666666667,0.3641133263378804],[0.3697916666666667,0.3641133263378804],[0.3697916666666667,0.3641133263378804],[0.3697916666666667,0.3641133263378804],[0.3697916666666667,0.3641133263378804],[0.3697916666666667,0.3641133263378804],[0.3697916666666667,0.3641133263378804],[0.3697916666666667,0.3641133263378804],[0.3697916666666667,0.3641133263378804],[0.3697916666666667,0.3641133263378804],[0.3697916666666667,0.3641133263378804],[0.3697916666666667,0.3641133263378804],[0.3697916666666667,0.3641133263378804],[0.3697916666666667,0.3641133263378804],[0.3697916666666667,0.3641133263378804],[0.37083333333333335,0.3620146904512067],[0.37083333333333335,0.3473242392444911],[0.36875,0.3410283315844701],[0.36875,0.33473242392444913],[0.36770833333333336,0.3305351521511018],[0.36770833333333336,0.3305351521511018],[0.36770833333333336,0.3305351521511018],[0.36770833333333336,0.32633788037775446],[0.3645833333333333,0.31584470094438616],[0.35520833333333335,0.28436516264428124],[0.3541666666666667,0.2780692549842602],[0.35104166666666664,0.2696747114375656]]","[[0.10604166666666662,0.6318992654774397],[0.1584374999999999,0.5960125918153201],[0.1584374999999999,0.5960125918153201],[0.20604166666666662,0.5313746065057714],[0.20604166666666662,0.5313746065057714],[0.19864583333333338,0.5395592864637986],[0.19864583333333338,0.5395592864637986],[0.20843749999999991,0.5257082896117523],[0.20843749999999991,0.5257082896117523],[0.22156250000000005,0.5714585519412381],[0.22156250000000005,0.5714585519412381],[0.22979166666666656,0.5538300104931794],[0.22979166666666656,0.5538300104931794],[0.19677083333333342,0.42455403987408175],[0.19677083333333342,0.42455403987408175],[0.1099999999999999,0.2738719832109129],[0.1099999999999999,0.2738719832109129],[0.071875,0.11605456453305342],[0.06114583333333338,0.018258132214060835],[0.06114583333333338,0.018258132214060835],[0.06302083333333333,-0.0369359916054565],[0.06302083333333333,-0.0369359916054565],[0.06041666666666667,-0.05624344176285417],[0.06041666666666667,-0.05624344176285417],[0.07177083333333342,-0.05624344176285417],[0.07177083333333342,-0.05624344176285417],[0.09177083333333323,-0.05120671563483731],[0.09177083333333323,-0.05120671563483731],[0.08666666666666671,-0.06652675760755507],[0.08666666666666671,-0.06652675760755507],[0.03218749999999997,-0.0339979013641133],[0.03218749999999997,-0.0339979013641133],[0.0018749999999999527,-0.03987408184679958],[0.0018749999999999527,-0.03987408184679958],[-0.028437499999999952,-0.027701993704092317],[-0.028437499999999952,-0.027701993704092317],[-0.08822916666666672,0.006086044071353572],[-0.08822916666666672,0.006086044071353572],[-0.15531250000000002,0.04260230849947536],[-0.15531250000000002,0.04260230849947536],[-0.20729166666666668,0.058551941238195127],[-0.20729166666666668,0.058551941238195127],[-0.2678125,0.0875131164742918],[-0.2678125,0.0875131164742918],[-0.30406249999999996,0.07911857292759716],[-0.30406249999999996,0.07911857292759716],[-0.34020833333333333,0.10954879328436526],[-0.34020833333333333,0.10954879328436526],[-0.34614583333333326,0.06379853095487928],[-0.34614583333333326,0.06379853095487928],[-0.2875,-0.011332633788037727],[-0.2875,-0.011332633788037727],[-0.22947916666666662,-0.04658971668415528],[-0.22947916666666662,-0.04658971668415528],[-0.16937500000000003,-0.11353620146904517],[-0.16937500000000003,-0.11353620146904517],[-0.09343750000000005,-0.21364113326337883],[-0.09343750000000005,-0.21364113326337883],[-0.008020833333333382,-0.2841552990556138],[-0.008020833333333382,-0.2841552990556138],[-0.008020833333333382,-0.2841552990556138],[-0.008020833333333382,-0.2841552990556138],[0.05385416666666672,-0.3500524658971669],[0.05385416666666672,-0.3500524658971669],[0.05385416666666672,-0.3500524658971669],[0.1476041666666667,-0.36956977964323195],[0.1476041666666667,-0.36956977964323195],[0.20614583333333342,-0.36285414480587613],[0.20614583333333342,-0.36285414480587613],[0.26572916666666657,-0.3928646379853095],[0.26572916666666657,-0.3928646379853095],[0.33125,-0.36747114375655826],[0.33125,-0.36747114375655826],[0.3115624999999999,-0.31857292759706196],[0.27791666666666665,-0.2906610703043022],[0.27791666666666665,-0.2906610703043022],[0.26802083333333326,-0.26862539349422876],[0.26802083333333326,-0.26862539349422876],[0.25885416666666666,-0.1859391395592865],[0.25885416666666666,-0.1859391395592865],[0.25885416666666666,-0.1859391395592865],[0.22604166666666667,-0.1657922350472193],[0.22604166666666667,-0.1657922350472193],[0.22604166666666667,-0.1657922350472193],[0.22604166666666667,-0.1657922350472193],[0.21510416666666668,-0.12801678908709338],[0.21510416666666668,-0.12801678908709338],[0.18781249999999997,-0.15550891920251841],[0.18781249999999997,-0.15550891920251841],[0.18781249999999997,-0.15550891920251841],[0.18583333333333343,-0.1892969569779643],[0.18583333333333343,-0.1892969569779643],[0.14958333333333323,-0.21112277019937045],[0.14958333333333323,-0.21112277019937045],[0.1259375000000001,-0.21007345225603363],[0.1259375000000001,-0.21007345225603363],[0.23312499999999994,-0.15005246589716684],[0.23312499999999994,-0.15005246589716684],[0.3138541666666666,-0.15697796432318994],[0.3138541666666666,-0.15697796432318994],[0.34260416666666677,-0.11542497376705142],[0.34260416666666677,-0.11542497376705142],[0.3536458333333333,-0.15718782791185726],[0.3536458333333333,-0.15718782791185726],[0.3408333333333334,-0.1147953830010493],[0.3408333333333334,-0.1147953830010493]]","[[0.10604166666666662,0.6318992654774397,0.00020000004768405688],[0.1584374999999999,0.5960125918153201,0.013500000000007617],[0.1584374999999999,0.5960125918153201,0.026200000047694516],[0.20604166666666662,0.5313746065057714,0.06339999997616985],[0.20604166666666662,0.5313746065057714,0.07600000000000762],[0.19864583333333338,0.5395592864637986,0.10699999999999932],[0.19864583333333338,0.5395592864637986,0.2452000000476886],[0.20843749999999991,0.5257082896117523,0.25770000004769145],[0.20843749999999991,0.5257082896117523,0.2708000000715316],[0.22156250000000005,0.5714585519412381,0.28920000004768553],[0.22156250000000005,0.5714585519412381,0.3223000000715359],[0.22979166666666656,0.5538300104931794,0.34089999997615905],[0.22979166666666656,0.5538300104931794,0.4270000000000067],[0.19677083333333342,0.42455403987408175,0.4373000000715308],[0.19677083333333342,0.42455403987408175,0.4573999999761611],[0.1099999999999999,0.2738719832109129,0.4712000000476877],[0.1099999999999999,0.2738719832109129,0.5065000000000026],[0.071875,0.11605456453305342,0.5217000000476872],[0.06114583333333338,0.018258132214060835,0.5430000000000064],[0.06114583333333338,0.018258132214060835,0.5543999999761695],[0.06302083333333333,-0.0369359916054565,0.5707000000476938],[0.06302083333333333,-0.0369359916054565,0.6187000000476957],[0.06041666666666667,-0.05624344176285417,0.6412000000476894],[0.06041666666666667,-0.05624344176285417,0.6568000000715273],[0.07177083333333342,-0.05624344176285417,0.6938999999761677],[0.07177083333333342,-0.05624344176285417,0.8358000000715293],[0.09177083333333323,-0.05120671563483731,0.8610000000000042],[0.09177083333333323,-0.05120671563483731,0.8746000000238467],[0.08666666666666671,-0.06652675760755507,0.9025000000000034],[0.08666666666666671,-0.06652675760755507,0.9755000000000109],[0.03218749999999997,-0.0339979013641133,1.0538000000715328],[0.03218749999999997,-0.0339979013641133,1.0748000000715336],[0.0018749999999999527,-0.03987408184679958,1.0940000000000083],[0.0018749999999999527,-0.03987408184679958,1.1095000000000113],[-0.028437499999999952,-0.027701993704092317,1.133399999976163],[-0.028437499999999952,-0.027701993704092317,1.1782000000476955],[-0.08822916666666672,0.006086044071353572,1.2478999999761697],[-0.08822916666666672,0.006086044071353572,1.2905000000000086],[-0.15531250000000002,0.04260230849947536,1.3130000000000024],[-0.15531250000000002,0.04260230849947536,1.3262000000476917],[-0.20729166666666668,0.058551941238195127,1.349399999976157],[-0.20729166666666668,0.058551941238195127,1.436200000047691],[-0.2678125,0.0875131164742918,1.4518999999761633],[-0.2678125,0.0875131164742918,1.4626000000238406],[-0.30406249999999996,0.07911857292759716,1.4763000000715323],[-0.30406249999999996,0.07911857292759716,1.4913999999761671],[-0.34020833333333333,0.10954879328436526,1.5091000000238495],[-0.34020833333333333,0.10954879328436526,1.5718999999761678],[-0.34614583333333326,0.06379853095487928,1.591100000023843],[-0.34614583333333326,0.06379853095487928,1.6041000000238483],[-0.2875,-0.011332633788037727,1.650399999976159],[-0.2875,-0.011332633788037727,1.660399999976164],[-0.22947916666666662,-0.04658971668415528,1.6955000000000098],[-0.22947916666666662,-0.04658971668415528,1.7225000000000108],[-0.16937500000000003,-0.11353620146904517,1.7596000000238519],[-0.16937500000000003,-0.11353620146904517,1.7752000000476897],[-0.09343750000000005,-0.21364113326337883,1.8086000000238442],[-0.09343750000000005,-0.21364113326337883,1.8287000000476894],[-0.008020833333333382,-0.2841552990556138,1.863399999976167],[-0.008020833333333382,-0.2841552990556138,1.9163999999761643],[-0.008020833333333382,-0.2841552990556138,1.9220000000000113],[-0.008020833333333382,-0.2841552990556138,1.9483000000715265],[0.05385416666666672,-0.3500524658971669,1.9853000000715326],[0.05385416666666672,-0.3500524658971669,1.9969999999999999],[0.05385416666666672,-0.3500524658971669,2.004000000000005],[0.1476041666666667,-0.36956977964323195,2.0458000000715373],[0.1476041666666667,-0.36956977964323195,2.0833000000715316],[0.20614583333333342,-0.36285414480587613,2.0953999999761663],[0.20614583333333342,-0.36285414480587613,2.106200000047693],[0.26572916666666657,-0.3928646379853095,2.124500000000012],[0.26572916666666657,-0.3928646379853095,2.137600000023852],[0.33125,-0.36747114375655826,2.2106000000238453],[0.33125,-0.36747114375655826,2.2223000000715274],[0.3115624999999999,-0.31857292759706196,2.2377000000476954],[0.27791666666666665,-0.2906610703043022,2.2623000000715336],[0.27791666666666665,-0.2906610703043022,2.2988999999761575],[0.26802083333333326,-0.26862539349422876,2.3518000000715347],[0.26802083333333326,-0.26862539349422876,2.3713000000715283],[0.25885416666666666,-0.1859391395592865,2.3872000000476845],[0.25885416666666666,-0.1859391395592865,2.458700000047685],[0.25885416666666666,-0.1859391395592865,2.461700000047685],[0.22604166666666667,-0.1657922350472193,2.4706000000238504],[0.22604166666666667,-0.1657922350472193,2.546600000023844],[0.22604166666666667,-0.1657922350472193,2.5686000000238494],[0.22604166666666667,-0.1657922350472193,2.572800000071524],[0.21510416666666668,-0.12801678908709338,2.5873000000715365],[0.21510416666666668,-0.12801678908709338,2.6083999999761573],[0.18781249999999997,-0.15550891920251841,2.644800000071527],[0.18781249999999997,-0.15550891920251841,2.658899999976157],[0.18781249999999997,-0.15550891920251841,2.6767000000476884],[0.18583333333333343,-0.1892969569779643,2.6998000000715336],[0.18583333333333343,-0.1892969569779643,2.738600000023851],[0.14958333333333323,-0.21112277019937045,2.754000000000005],[0.14958333333333323,-0.21112277019937045,2.7888999999761666],[0.1259375000000001,-0.21007345225603363,2.8347000000476896],[0.1259375000000001,-0.21007345225603363,2.860600000023851],[0.23312499999999994,-0.15005246589716684,2.877700000047696],[0.23312499999999994,-0.15005246589716684,2.938700000047689],[0.3138541666666666,-0.15697796432318994,2.9470000000000027],[0.3138541666666666,-0.15697796432318994,2.9571000000238428],[0.34260416666666677,-0.11542497376705142,2.9980000000000047],[0.34260416666666677,-0.11542497376705142,3.0753999999761703],[0.3536458333333333,-0.15718782791185726,3.17739999997616],[0.3536458333333333,-0.15718782791185726,3.292800000071537],[0.3408333333333334,-0.1147953830010493,3.343500000000006],[0.3408333333333334,-0.1147953830010493,3.4607000000476944]]","[0.00020000004768405688,0.013500000000007617,0.026200000047694516,0.06339999997616985,0.07600000000000762,0.10699999999999932,0.2452000000476886,0.25770000004769145,0.2708000000715316,0.28920000004768553,0.3223000000715359,0.34089999997615905,0.4270000000000067,0.4373000000715308,0.4573999999761611,0.4712000000476877,0.5065000000000026,0.5217000000476872,0.5430000000000064,0.5543999999761695,0.5707000000476938,0.6187000000476957,0.6412000000476894,0.6568000000715273,0.6938999999761677,0.8358000000715293,0.8610000000000042,0.8746000000238467,0.9025000000000034,0.9755000000000109,1.0538000000715328,1.0748000000715336,1.0940000000000083,1.1095000000000113,1.133399999976163,1.1782000000476955,1.2478999999761697,1.2905000000000086,1.3130000000000024,1.3262000000476917,1.349399999976157,1.436200000047691,1.4518999999761633,1.4626000000238406,1.4763000000715323,1.4913999999761671,1.5091000000238495,1.5718999999761678,1.591100000023843,1.6041000000238483,1.650399999976159,1.660399999976164,1.6955000000000098,1.7225000000000108,1.7596000000238519,1.7752000000476897,1.8086000000238442,1.8287000000476894,1.863399999976167,1.9163999999761643,1.9220000000000113,1.9483000000715265,1.9853000000715326,1.9969999999999999,2.004000000000005,2.0458000000715373,2.0833000000715316,2.0953999999761663,2.106200000047693,2.124500000000012,2.137600000023852,2.2106000000238453,2.2223000000715274,2.2377000000476954,2.2623000000715336,2.2988999999761575,2.3518000000715347,2.3713000000715283,2.3872000000476845,2.458700000047685,2.461700000047685,2.4706000000238504,2.546600000023844,2.5686000000238494,2.572800000071524,2.5873000000715365,2.6083999999761573,2.644800000071527,2.658899999976157,2.6767000000476884,2.6998000000715336,2.738600000023851,2.754000000000005,2.7888999999761666,2.8347000000476896,2.860600000023851,2.877700000047696,2.938700000047689,2.9470000000000027,2.9571000000238428,2.9980000000000047,3.0753999999761703,3.17739999997616,3.292800000071537,3.343500000000006,3.4607000000476944]","[1733105542206,1733105542218,1733105542230,1733105542268,1733105542280,1733105542311,1733105542449,1733105542462,1733105542475,1733105542493,1733105542526,1733105542545,1733105542631,1733105542641,1733105542661,1733105542675,1733105542711,1733105542726,1733105542747,1733105542758,1733105542775,1733105542823,1733105542845,1733105542861,1733105542898,1733105543040,1733105543065,1733105543079,1733105543107,1733105543180,1733105543258,1733105543279,1733105543298,1733105543314,1733105543337,1733105543382,1733105543452,1733105543495,1733105543517,1733105543530,1733105543553,1733105543640,1733105543656,1733105543667,1733105543680,1733105543695,1733105543713,1733105543776,1733105543795,1733105543808,1733105543854,1733105543864,1733105543900,1733105543927,1733105543964,1733105543979,1733105544013,1733105544033,1733105544067,1733105544121,1733105544126,1733105544152,1733105544189,1733105544201,1733105544208,1733105544250,1733105544287,1733105544299,1733105544310,1733105544329,1733105544342,1733105544415,1733105544426,1733105544442,1733105544466,1733105544503,1733105544556,1733105544575,1733105544591,1733105544663,1733105544666,1733105544675,1733105544751,1733105544773,1733105544777,1733105544791,1733105544812,1733105544849,1733105544863,1733105544881,1733105544904,1733105544943,1733105544958,1733105544993,1733105545039,1733105545065,1733105545082,1733105545143,1733105545151,1733105545161,1733105545202,1733105545279,1733105545381,1733105545497,1733105545548,1733105545665]","[[1061.8,777.6],[1112.1,760.5],[1112.1,760.5],[1157.8,729.7],[1157.8,729.7],[1150.7,733.6],[1150.7,733.6],[1160.1,727],[1160.1,727],[1172.7,748.8],[1172.7,748.8],[1180.6,740.4],[1180.6,740.4],[1148.9,678.8],[1148.9,678.8],[1065.6,607],[1065.6,607],[1029,531.8],[1018.7,485.2],[1018.7,485.2],[1020.5,458.9],[1020.5,458.9],[1018,449.7],[1018,449.7],[1028.9,449.7],[1028.9,449.7],[1048.1,452.1],[1048.1,452.1],[1043.2,444.8],[1043.2,444.8],[990.9,460.3],[990.9,460.3],[961.8,457.5],[961.8,457.5],[932.7,463.3],[932.7,463.3],[875.3,479.4],[875.3,479.4],[810.9,496.8],[810.9,496.8],[761,504.4],[761,504.4],[702.9,518.2],[702.9,518.2],[668.1,514.2],[668.1,514.2],[633.4,528.7],[633.4,528.7],[627.7,506.9],[627.7,506.9],[684,471.1],[684,471.1],[739.7,454.3],[739.7,454.3],[797.4,422.4],[797.4,422.4],[870.3,374.7],[870.3,374.7],[952.3,341.1],[952.3,341.1],[952.3,341.1],[952.3,341.1],[1011.7,309.7],[1011.7,309.7],[1011.7,309.7],[1101.7,300.4],[1101.7,300.4],[1157.9,303.6],[1157.9,303.6],[1215.1,289.3],[1215.1,289.3],[1278,301.4],[1278,301.4],[1259.1,324.7],[1226.8,338],[1226.8,338],[1217.3,348.5],[1217.3,348.5],[1208.5,387.9],[1208.5,387.9],[1208.5,387.9],[1177,397.5],[1177,397.5],[1177,397.5],[1177,397.5],[1166.5,415.5],[1166.5,415.5],[1140.3,402.4],[1140.3,402.4],[1140.3,402.4],[1138.4,386.3],[1138.4,386.3],[1103.6,375.9],[1103.6,375.9],[1080.9,376.4],[1080.9,376.4],[1183.8,405],[1183.8,405],[1261.3,401.7],[1261.3,401.7],[1288.9,421.5],[1288.9,421.5],[1299.5,401.6],[1299.5,401.6],[1287.2,421.8],[1287.2,421.8]]","[0,0.3527331528]","[0.3527331528,0.3527331528]","[-0.3527331528,-0.3527331528]","[-0.3527331528,0]","[0,-0.3527331528]","[0.3527331528,-0.3527331528]","[0,0]","[0.3527331528,0]",0,1,1,1,1,1,Tablet,9,1,11,5
,,,,,,,,,,,,,,,,,,,,34,001,2024-12-02_10h10.50.640,Attention_exp_legacy,2023.1.0,Win32,59.88023952,,,,,,,,,,[0.3416666666666667],[0.3011542497376705],[1],[0],[0],[2.5691000000238517],"[""Option2_label""]",Option2_label,3,3.5713,"[[0.34375,0.2528856243441763],[0.34375,0.2528856243441763],[0.34375,0.2528856243441763],[0.34375,0.2528856243441763],[0.34375,0.2528856243441763],[0.34375,0.2528856243441763],[0.34375,0.2528856243441763],[0.34375,0.2528856243441763],[0.34375,0.2528856243441763],[0.34375,0.2528856243441763],[0.34375,0.2528856243441763],[0.34375,0.2528856243441763],[0.34375,0.2528856243441763],[0.34375,0.2528856243441763],[0.34375,0.2528856243441763],[0.34375,0.2528856243441763],[0.34375,0.2528856243441763],[0.34375,0.2528856243441763],[0.34375,0.2528856243441763],[0.34375,0.2528856243441763],[0.34375,0.2528856243441763],[0.34375,0.2528856243441763],[0.34375,0.2528856243441763],[0.34375,0.2528856243441763],[0.34375,0.2528856243441763],[0.34375,0.2528856243441763],[0.34375,0.2528856243441763],[0.34375,0.2528856243441763],[0.34375,0.2528856243441763],[0.34375,0.2528856243441763],[0.34375,0.2528856243441763],[0.34375,0.2528856243441763],[0.34375,0.2528856243441763],[0.34375,0.2528856243441763],[0.34375,0.2528856243441763],[0.34375,0.2528856243441763],[0.34375,0.2528856243441763],[0.34375,0.2528856243441763],[0.34375,0.2528856243441763],[0.34375,0.2528856243441763],[0.34375,0.2528856243441763],[0.34375,0.2528856243441763],[0.34375,0.2528856243441763],[0.34375,0.2528856243441763],[0.34375,0.2528856243441763],[0.34375,0.2528856243441763],[0.34375,0.2528856243441763],[0.34375,0.2528856243441763],[0.34375,0.2528856243441763],[0.34375,0.2528856243441763],[0.34375,0.2528856243441763],[0.34375,0.2528856243441763],[0.34375,0.2528856243441763],[0.34375,0.2528856243441763],[0.34375,0.2528856243441763],[0.34375,0.2528856243441763],[0.34375,0.2528856243441763],[0.34375,0.2528856243441763],[0.34375,0.2528856243441763],[0.34375,0.2528856243441763],[0.34375,0.2528856243441763],[0.34375,0.2528856243441763],[0.34375,0.2528856243441763],[0.34375,0.2528856243441763],[0.34375,0.2528856243441763],[0.34375,0.2528856243441763],[0.34375,0.2528856243441763],[0.34375,0.2528856243441763],[0.34375,0.2528856243441763],[0.34375,0.2528856243441763],[0.34375,0.2528856243441763],[0.34375,0.2528856243441763],[0.34375,0.2528856243441763],[0.34375,0.2528856243441763],[0.34375,0.2528856243441763],[0.34375,0.2528856243441763],[0.34375,0.2528856243441763],[0.34375,0.2528856243441763],[0.34375,0.25498426023084997],[0.34375,0.26128016789087094],[0.34375,0.2654774396642183],[0.34375,0.2696747114375656],[0.34375,0.28436516264428124],[0.34270833333333334,0.29275970619097585],[0.34270833333333334,0.2990556138509968],[0.3416666666666667,0.3011542497376705],[0.3416666666666667,0.3011542497376705],[0.3416666666666667,0.3011542497376705],[0.3416666666666667,0.3011542497376705],[0.3416666666666667,0.3011542497376705],[0.3416666666666667,0.3011542497376705],[0.3416666666666667,0.3011542497376705],[0.3416666666666667,0.3011542497376705],[0.3416666666666667,0.3011542497376705],[0.3416666666666667,0.3011542497376705],[0.3416666666666667,0.3011542497376705],[0.3416666666666667,0.3011542497376705],[0.3333333333333333,0.19412381951731375],[0.3302083333333333,0.0912906610703043],[0.3302083333333333,0.06610703043022036],[0.3302083333333333,0.05771248688352571],[0.3302083333333333,0.05141657922350472],[0.3302083333333333,0.04931794333683106],[0.3302083333333333,0.04931794333683106],[0.3302083333333333,0.04931794333683106],[0.3302083333333333,0.04931794333683106],[0.3302083333333333,0.04931794333683106],[0.3302083333333333,0.04931794333683106],[0.3302083333333333,0.04931794333683106],[0.3302083333333333,0.04931794333683106],[0.3302083333333333,0.04931794333683106],[0.3302083333333333,0.04931794333683106],[0.3302083333333333,0.04931794333683106],[0.3302083333333333,0.04931794333683106],[0.3302083333333333,0.04931794333683106],[0.3302083333333333,0.04931794333683106],[0.3302083333333333,0.04931794333683106],[0.3302083333333333,0.04931794333683106],[0.3302083333333333,0.04931794333683106],[0.3302083333333333,0.04931794333683106],[0.3302083333333333,0.04931794333683106],[0.3302083333333333,0.04931794333683106],[0.3302083333333333,0.04931794333683106],[0.3302083333333333,0.04931794333683106],[0.3302083333333333,0.04931794333683106],[0.3302083333333333,0.04931794333683106],[0.3302083333333333,0.04931794333683106]]","[[0.1368750000000001,-0.36222455403987414],[0.1384375000000001,-0.3487932843651626],[0.1384375000000001,-0.3487932843651626],[0.16749999999999995,-0.3206715634837356],[0.16749999999999995,-0.3206715634837356],[0.20427083333333323,-0.30724029380902407],[0.20427083333333323,-0.30724029380902407],[0.2140625,-0.2864637985309549],[0.2140625,-0.2864637985309549],[0.22864583333333333,-0.2667366211962225],[0.22864583333333333,-0.2667366211962225],[0.2273958333333333,-0.2558237145855194],[0.2273958333333333,-0.2558237145855194],[0.23291666666666658,-0.2169989506820566],[0.23291666666666658,-0.2169989506820566],[0.2671875,-0.17481636935991607],[0.2671875,-0.17481636935991607],[0.2542708333333332,-0.1221406086044071],[0.2542708333333332,-0.1221406086044071],[0.2243750000000001,-0.0705141657922351],[0.2243750000000001,-0.0705141657922351],[0.19791666666666666,-0.008814270724029356],[0.19791666666666666,-0.008814270724029356],[0.12281250000000009,0.003987408184679911],[0.12281250000000009,0.003987408184679911],[0.0609375,0.041133263378803825],[0.0609375,0.041133263378803825],[0.016562499999999977,0.0472193074501574],[0.016562499999999977,0.0472193074501574],[-0.02822916666666669,0.07492130115424983],[-0.02822916666666669,0.07492130115424983],[-0.06416666666666669,0.09254984260230854],[-0.06416666666666669,0.09254984260230854],[-0.12687499999999996,0.10849947534102843],[-0.2091666666666666,0.1259181532004197],[-0.2091666666666666,0.1259181532004197],[-0.26541666666666663,0.1592864637985309],[-0.26541666666666663,0.1592864637985309],[-0.27458333333333335,0.17082896117523605],[-0.27458333333333335,0.17082896117523605],[-0.2998958333333333,0.1754459601259182],[-0.2998958333333333,0.1754459601259182],[-0.32218749999999996,0.1882476390346276],[-0.32218749999999996,0.1882476390346276],[-0.3549999999999999,0.20776495278069254],[-0.3549999999999999,0.20776495278069254],[-0.3945833333333333,0.23567681007345215],[-0.3945833333333333,0.23567681007345215],[-0.3767708333333334,0.21490031479538296],[-0.3767708333333334,0.21490031479538296],[-0.3767708333333334,0.21490031479538296],[-0.3564583333333334,0.20902413431269679],[-0.3564583333333334,0.20902413431269679],[-0.3564583333333334,0.20902413431269679],[-0.29031250000000003,0.14333683105981102],[-0.29031250000000003,0.14333683105981102],[-0.2607291666666666,0.12654774396642174],[-0.2607291666666666,0.12654774396642174],[-0.2241666666666667,0.07345225603357818],[-0.2241666666666667,0.07345225603357818],[-0.2241666666666667,0.07345225603357818],[-0.16895833333333338,0.019727177334732376],[-0.16895833333333338,0.019727177334732376],[-0.1492708333333333,-0.01636935991605459],[-0.10770833333333331,-0.016579223504721883],[-0.10770833333333331,-0.016579223504721883],[-0.06468750000000002,-0.03441762854144801],[-0.06468750000000002,-0.03441762854144801],[0.0037500000000000237,-0.07534102833158442],[0.0037500000000000237,-0.07534102833158442],[0.023958333333333335,-0.07576075550891925],[0.023958333333333335,-0.07576075550891925],[0.03718750000000005,-0.10682056663168936],[0.03718750000000005,-0.10682056663168936],[0.04479166666666667,-0.06316894018887728],[0.04479166666666667,-0.06316894018887728],[0.09364583333333343,-0.04679958027282269],[0.09364583333333343,-0.04679958027282269],[0.12645833333333342,-0.03651626442812167],[0.12645833333333342,-0.03651626442812167],[0.1478125000000001,-0.028541448058761854],[0.1478125000000001,-0.028541448058761854],[0.20041666666666677,-0.04742917103882481],[0.20041666666666677,-0.04742917103882481],[0.24354166666666663,-0.07618048268625396],[0.24354166666666663,-0.07618048268625396],[0.27312500000000006,-0.12612801678908714],[0.27312500000000006,-0.12612801678908714],[0.32093749999999993,-0.13389296956977967],[0.32093749999999993,-0.13389296956977967],[0.32093749999999993,-0.13389296956977967],[0.3111458333333334,-0.08982161594963277],[0.3111458333333334,-0.08982161594963277],[0.3111458333333334,-0.08982161594963277],[0.3484375,-0.04868835257082894],[0.3484375,-0.04868835257082894],[0.3381249999999999,-0.046169989506820566],[0.3381249999999999,-0.046169989506820566],[0.3304166666666667,-0.12277019937040923],[0.3304166666666667,-0.12277019937040923],[0.35177083333333337,-0.12277019937040923],[0.35177083333333337,-0.12277019937040923],[0.3384375000000001,-0.11878279118572932],[0.3384375000000001,-0.11878279118572932],[0.3628124999999999,-0.17187827911857287],[0.3628124999999999,-0.17187827911857287],[0.3474999999999999,-0.14417628541448058],[0.3474999999999999,-0.14417628541448058],[0.33125,-0.138090241343127],[0.33125,-0.138090241343127],[0.2805208333333333,-0.1213011542497377],[0.2805208333333333,-0.1213011542497377],[0.2663541666666667,-0.18090241343126964],[0.2663541666666667,-0.18090241343126964],[0.1993750000000001,-0.19706190975865684],[0.1993750000000001,-0.19706190975865684],[0.18739583333333343,-0.20566631689401887],[0.18739583333333343,-0.20566631689401887],[0.15374999999999991,-0.12004197271773345],[0.15374999999999991,-0.12004197271773345],[0.11041666666666666,-0.1040923399790137],[0.11041666666666666,-0.1040923399790137],[0.10104166666666667,-0.08625393494228756],[0.10104166666666667,-0.08625393494228756],[0.02374999999999995,0.02476390346274924],[0.02374999999999995,0.02476390346274924],[-0.009583333333333381,0.03966421825813217]]","[[0.1368750000000001,-0.36222455403987414,0.00010000002383492301],[0.1384375000000001,-0.3487932843651626,0.0346999999284634],[0.1384375000000001,-0.3487932843651626,0.0759999999999934],[0.16749999999999995,-0.3206715634837356,0.08810000002382878],[0.16749999999999995,-0.3206715634837356,0.13419999992846954],[0.20427083333333323,-0.30724029380902407,0.17260000002383435],[0.20427083333333323,-0.30724029380902407,0.21199999999998909],[0.2140625,-0.2864637985309549,0.23019999992847318],[0.2140625,-0.2864637985309549,0.2628999999761561],[0.22864583333333333,-0.2667366211962225,0.29760000002383435],[0.22864583333333333,-0.2667366211962225,0.30699999999998795],[0.2273958333333333,-0.2558237145855194,0.345299999952303],[0.2273958333333333,-0.2558237145855194,0.3889999999999958],[0.23291666666666658,-0.2169989506820566,0.40419999992846556],[0.23291666666666658,-0.2169989506820566,0.4471999999284719],[0.2671875,-0.17481636935991607,0.48719999992846397],[0.2671875,-0.17481636935991607,0.4971999999284691],[0.2542708333333332,-0.1221406086044071,0.5532999999523156],[0.2542708333333332,-0.1221406086044071,0.5901000000238383],[0.2243750000000001,-0.0705141657922351,0.6057999999523105],[0.2243750000000001,-0.0705141657922351,0.62110000002383],[0.19791666666666666,-0.008814270724029356,0.6651999999284612],[0.19791666666666666,-0.008814270724029356,0.6784999999999997],[0.12281250000000009,0.003987408184679911,0.6941000000238375],[0.12281250000000009,0.003987408184679911,0.726100000023834],[0.0609375,0.041133263378803825,0.7376000000238321],[0.0609375,0.041133263378803825,0.7801999999284703],[0.016562499999999977,0.0472193074501574,0.8119999999999976],[0.016562499999999977,0.0472193074501574,0.8309999999999889],[-0.02822916666666669,0.07492130115424983,0.8411999999284632],[-0.02822916666666669,0.07492130115424983,0.920600000023839],[-0.06416666666666669,0.09254984260230854,0.9281000000238322],[-0.06416666666666669,0.09254984260230854,0.9488999999761489],[-0.12687499999999996,0.10849947534102843,0.9709999999999894],[-0.2091666666666666,0.1259181532004197,0.9926999999284618],[-0.2091666666666666,0.1259181532004197,1.0306999999284727],[-0.26541666666666663,0.1592864637985309,1.0436000000238295],[-0.26541666666666663,0.1592864637985309,1.0556999999284642],[-0.27458333333333335,0.17082896117523605,1.075499999999991],[-0.27458333333333335,0.17082896117523605,1.0886999999284654],[-0.2998958333333333,0.1754459601259182,1.1041999999284684],[-0.2998958333333333,0.1754459601259182,1.195999999999998],[-0.32218749999999996,0.1882476390346276,1.2041999999284627],[-0.32218749999999996,0.1882476390346276,1.2208999999761545],[-0.3549999999999999,0.20776495278069254,1.2421999999284736],[-0.3549999999999999,0.20776495278069254,1.259699999928472],[-0.3945833333333333,0.23567681007345215,1.2946999999284685],[-0.3945833333333333,0.23567681007345215,1.3897999999523023],[-0.3767708333333334,0.21490031479538296,1.4044999999999987],[-0.3767708333333334,0.21490031479538296,1.4208999999761573],[-0.3767708333333334,0.21490031479538296,1.4592999999523073],[-0.3564583333333334,0.20902413431269679,1.5071999999284742],[-0.3564583333333334,0.20902413431269679,1.5207999999523025],[-0.3564583333333334,0.20902413431269679,1.5252999999523098],[-0.29031250000000003,0.14333683105981102,1.5686000000238352],[-0.29031250000000003,0.14333683105981102,1.5789999999999935],[-0.2607291666666666,0.12654774396642174,1.5876000000238406],[-0.2607291666666666,0.12654774396642174,1.6146000000238416],[-0.2241666666666667,0.07345225603357818,1.622199999928469],[-0.2241666666666667,0.07345225603357818,1.637999999999991],[-0.2241666666666667,0.07345225603357818,1.6728999999761527],[-0.16895833333333338,0.019727177334732376,1.6923999999761463],[-0.16895833333333338,0.019727177334732376,1.724600000023841],[-0.1492708333333333,-0.01636935991605459,1.737600000023832],[-0.10770833333333331,-0.016579223504721883,1.7597999999523068],[-0.10770833333333331,-0.016579223504721883,1.7711000000238357],[-0.06468750000000002,-0.03441762854144801,1.7906000000238294],[-0.06468750000000002,-0.03441762854144801,1.8103999999761555],[0.0037500000000000237,-0.07534102833158442,1.8281999999284722],[0.0037500000000000237,-0.07534102833158442,1.8603999999761527],[0.023958333333333335,-0.07576075550891925,1.8718999999761508],[0.023958333333333335,-0.07576075550891925,1.8957999999523025],[0.03718750000000005,-0.10682056663168936,1.909399999976145],[0.03718750000000005,-0.10682056663168936,2.133499999999998],[0.04479166666666667,-0.06316894018887728,2.1413999999761444],[0.04479166666666667,-0.06316894018887728,2.1753999999761504],[0.09364583333333343,-0.04679958027282269,2.197199999928472],[0.09364583333333343,-0.04679958027282269,2.217600000023836],[0.12645833333333342,-0.03651626442812167,2.243199999928464],[0.12645833333333342,-0.03651626442812167,2.258299999952314],[0.1478125000000001,-0.028541448058761854,2.276100000023831],[0.1478125000000001,-0.028541448058761854,2.331299999952307],[0.20041666666666677,-0.04742917103882481,2.3761000000238397],[0.20041666666666677,-0.04742917103882481,2.415100000023841],[0.24354166666666663,-0.07618048268625396,2.4538999999761444],[0.24354166666666663,-0.07618048268625396,2.4666999999284656],[0.27312500000000006,-0.12612801678908714,2.4777999999523104],[0.27312500000000006,-0.12612801678908714,2.4934999999999974],[0.32093749999999993,-0.13389296956977967,2.5102999999523092],[0.32093749999999993,-0.13389296956977967,2.5706999999284648],[0.32093749999999993,-0.13389296956977967,2.5763999999761467],[0.3111458333333334,-0.08982161594963277,2.596199999928473],[0.3111458333333334,-0.08982161594963277,2.6756000000238345],[0.3111458333333334,-0.08982161594963277,2.679100000023837],[0.3484375,-0.04868835257082894,2.6941000000238375],[0.3484375,-0.04868835257082894,2.7052999999523024],[0.3381249999999999,-0.046169989506820566,2.7419999999999902],[0.3381249999999999,-0.046169989506820566,2.8158999999761534],[0.3304166666666667,-0.12277019937040923,2.835199999928463],[0.3304166666666667,-0.12277019937040923,2.8561999999284637],[0.35177083333333337,-0.12277019937040923,2.8657999999523156],[0.35177083333333337,-0.12277019937040923,2.884999999999991],[0.3384375000000001,-0.11878279118572932,2.9309999999999974],[0.3384375000000001,-0.11878279118572932,2.943199999928467],[0.3628124999999999,-0.17187827911857287,2.9893999999761576],[0.3628124999999999,-0.17187827911857287,3.0006999999284716],[0.3474999999999999,-0.14417628541448058,3.009799999952307],[0.3474999999999999,-0.14417628541448058,3.0208999999761517],[0.33125,-0.138090241343127,3.1158999999761505],[0.33125,-0.138090241343127,3.160999999999987],[0.2805208333333333,-0.1213011542497377,3.193499999999986],[0.2805208333333333,-0.1213011542497377,3.2043999999761468],[0.2663541666666667,-0.18090241343126964,3.2223999999761475],[0.2663541666666667,-0.18090241343126964,3.2932999999523105],[0.1993750000000001,-0.19706190975865684,3.308499999999995],[0.1993750000000001,-0.19706190975865684,3.34379999995231],[0.18739583333333343,-0.20566631689401887,3.4026000000238383],[0.18739583333333343,-0.20566631689401887,3.4167999999523033],[0.15374999999999991,-0.12004197271773345,3.4271000000238416],[0.15374999999999991,-0.12004197271773345,3.437600000023835],[0.11041666666666666,-0.1040923399790137,3.454499999999996],[0.11041666666666666,-0.1040923399790137,3.4782999999523128],[0.10104166666666667,-0.08625393494228756,3.4876999999284664],[0.10104166666666667,-0.08625393494228756,3.504199999928474],[0.02374999999999995,0.02476390346274924,3.5207999999523025],[0.02374999999999995,0.02476390346274924,3.5603999999761555],[-0.009583333333333381,0.03966421825813217,3.5712999999523163]]","[0.00010000002383492301,0.0346999999284634,0.0759999999999934,0.08810000002382878,0.13419999992846954,0.17260000002383435,0.21199999999998909,0.23019999992847318,0.2628999999761561,0.29760000002383435,0.30699999999998795,0.345299999952303,0.3889999999999958,0.40419999992846556,0.4471999999284719,0.48719999992846397,0.4971999999284691,0.5532999999523156,0.5901000000238383,0.6057999999523105,0.62110000002383,0.6651999999284612,0.6784999999999997,0.6941000000238375,0.726100000023834,0.7376000000238321,0.7801999999284703,0.8119999999999976,0.8309999999999889,0.8411999999284632,0.920600000023839,0.9281000000238322,0.9488999999761489,0.9709999999999894,0.9926999999284618,1.0306999999284727,1.0436000000238295,1.0556999999284642,1.075499999999991,1.0886999999284654,1.1041999999284684,1.195999999999998,1.2041999999284627,1.2208999999761545,1.2421999999284736,1.259699999928472,1.2946999999284685,1.3897999999523023,1.4044999999999987,1.4208999999761573,1.4592999999523073,1.5071999999284742,1.5207999999523025,1.5252999999523098,1.5686000000238352,1.5789999999999935,1.5876000000238406,1.6146000000238416,1.622199999928469,1.637999999999991,1.6728999999761527,1.6923999999761463,1.724600000023841,1.737600000023832,1.7597999999523068,1.7711000000238357,1.7906000000238294,1.8103999999761555,1.8281999999284722,1.8603999999761527,1.8718999999761508,1.8957999999523025,1.909399999976145,2.133499999999998,2.1413999999761444,2.1753999999761504,2.197199999928472,2.217600000023836,2.243199999928464,2.258299999952314,2.276100000023831,2.331299999952307,2.3761000000238397,2.415100000023841,2.4538999999761444,2.4666999999284656,2.4777999999523104,2.4934999999999974,2.5102999999523092,2.5706999999284648,2.5763999999761467,2.596199999928473,2.6756000000238345,2.679100000023837,2.6941000000238375,2.7052999999523024,2.7419999999999902,2.8158999999761534,2.835199999928463,2.8561999999284637,2.8657999999523156,2.884999999999991,2.9309999999999974,2.943199999928467,2.9893999999761576,3.0006999999284716,3.009799999952307,3.0208999999761517,3.1158999999761505,3.160999999999987,3.193499999999986,3.2043999999761468,3.2223999999761475,3.2932999999523105,3.308499999999995,3.34379999995231,3.4026000000238383,3.4167999999523033,3.4271000000238416,3.437600000023835,3.454499999999996,3.4782999999523128,3.4876999999284664,3.504199999928474,3.5207999999523025,3.5603999999761555,3.5712999999523163]","[1733105546705,1733105546738,1733105546780,1733105546792,1733105546838,1733105546876,1733105546916,1733105546934,1733105546967,1733105547001,1733105547011,1733105547049,1733105547093,1733105547108,1733105547151,1733105547191,1733105547201,1733105547257,1733105547294,1733105547310,1733105547325,1733105547369,1733105547382,1733105547398,1733105547430,1733105547441,1733105547484,1733105547516,1733105547535,1733105547545,1733105547624,1733105547632,1733105547653,1733105547675,1733105547696,1733105547734,1733105547747,1733105547759,1733105547779,1733105547792,1733105547808,1733105547900,1733105547908,1733105547925,1733105547946,1733105547964,1733105547998,1733105548094,1733105548108,1733105548125,1733105548163,1733105548211,1733105548225,1733105548229,1733105548272,1733105548283,1733105548291,1733105548318,1733105548326,1733105548342,1733105548377,1733105548396,1733105548428,1733105548441,1733105548464,1733105548475,1733105548494,1733105548514,1733105548532,1733105548564,1733105548576,1733105548600,1733105548613,1733105548837,1733105548845,1733105548879,1733105548901,1733105548921,1733105548947,1733105548962,1733105548980,1733105549035,1733105549080,1733105549119,1733105549158,1733105549170,1733105549182,1733105549197,1733105549214,1733105549274,1733105549280,1733105549300,1733105549379,1733105549383,1733105549398,1733105549409,1733105549446,1733105549520,1733105549539,1733105549560,1733105549570,1733105549589,1733105549635,1733105549647,1733105549693,1733105549704,1733105549714,1733105549725,1733105549820,1733105549865,1733105549897,1733105549908,1733105549926,1733105549997,1733105550012,1733105550048,1733105550106,1733105550121,1733105550131,1733105550141,1733105550158,1733105550182,1733105550191,1733105550208,1733105550225,1733105550264,1733105550275]","[[1091.4,303.9],[1092.9,310.3],[1092.9,310.3],[1120.8,323.7],[1120.8,323.7],[1156.1,330.1],[1156.1,330.1],[1165.5,340],[1165.5,340],[1179.5,349.4],[1179.5,349.4],[1178.3,354.6],[1178.3,354.6],[1183.6,373.1],[1183.6,373.1],[1216.5,393.2],[1216.5,393.2],[1204.1,418.3],[1204.1,418.3],[1175.4,442.9],[1175.4,442.9],[1150,472.3],[1150,472.3],[1077.9,478.4],[1077.9,478.4],[1018.5,496.1],[1018.5,496.1],[975.9,499],[975.9,499],[932.9,512.2],[932.9,512.2],[898.4,520.6],[898.4,520.6],[838.2,528.2],[759.2,536.5],[759.2,536.5],[705.2,552.4],[705.2,552.4],[696.4,557.9],[696.4,557.9],[672.1,560.1],[672.1,560.1],[650.7,566.2],[650.7,566.2],[619.2,575.5],[619.2,575.5],[581.2,588.8],[581.2,588.8],[598.3,578.9],[598.3,578.9],[598.3,578.9],[617.8,576.1],[617.8,576.1],[617.8,576.1],[681.3,544.8],[681.3,544.8],[709.7,536.8],[709.7,536.8],[744.8,511.5],[744.8,511.5],[744.8,511.5],[797.8,485.9],[797.8,485.9],[816.7,468.7],[856.6,468.6],[856.6,468.6],[897.9,460.1],[897.9,460.1],[963.6,440.6],[963.6,440.6],[983,440.4],[983,440.4],[995.7,425.6],[995.7,425.6],[1003,446.4],[1003,446.4],[1049.9,454.2],[1049.9,454.2],[1081.4,459.1],[1081.4,459.1],[1101.9,462.9],[1101.9,462.9],[1152.4,453.9],[1152.4,453.9],[1193.8,440.2],[1193.8,440.2],[1222.2,416.4],[1222.2,416.4],[1268.1,412.7],[1268.1,412.7],[1268.1,412.7],[1258.7,433.7],[1258.7,433.7],[1258.7,433.7],[1294.5,453.3],[1294.5,453.3],[1284.6,454.5],[1284.6,454.5],[1277.2,418],[1277.2,418],[1297.7,418],[1297.7,418],[1284.9,419.9],[1284.9,419.9],[1308.3,394.6],[1308.3,394.6],[1293.6,407.8],[1293.6,407.8],[1278,410.7],[1278,410.7],[1229.3,418.7],[1229.3,418.7],[1215.7,390.3],[1215.7,390.3],[1151.4,382.6],[1151.4,382.6],[1139.9,378.5],[1139.9,378.5],[1107.6,419.3],[1107.6,419.3],[1066,426.9],[1066,426.9],[1057,435.4],[1057,435.4],[982.8,488.3],[982.8,488.3],[950.8,495.4]]","[0,0.3527331528]","[0.3527331528,0.3527331528]","[-0.3527331528,0]","[-0.3527331528,-0.3527331528]","[0,0]","[0.3527331528,0]","[0,-0.3527331528]","[0.3527331528,-0.3527331528]",0,2,2,2,1,1,Tablet,5,1,7,3
