inst1_resp.keys,inst1_resp.rt,calibrationMouse.x,calibrationMouse.y,calibrationMouse.leftButton,calibrationMouse.midButton,calibrationMouse.rightButton,calibrationClick.x,calibrationClick.y,calibrationClick.leftButton,calibrationClick.midButton,calibrationClick.rightButton,calibrationClick.clicked_name,trialsc.thisRepN,trialsc.thisTrialN,trialsc.thisN,trialsc.thisIndex,trialsc.ran,calibration_x,calibration_y,participant,session,date,expName,psychopyVersion,OS,frameRate,ScreenRes_pixels,Camera_pixels,mouse_2.x,mouse_2.y,mouse_2.leftButton,mouse_2.midButton,mouse_2.rightButton,mouse_2.time,mouse_2.clicked_name,mouse.x,mouse.y,mouse.leftButton,mouse.midButton,mouse.rightButton,mouse.time,mouse.clicked_name,Choice,Trial,TrialDuration,MOUSE_GAZE,ET_GAZE,ET_GAZE_x_T,time,unixTime,ET_GAZE_NF,Loc_Option1_label,Loc_Option2_label,Loc_Cost_label,Loc_Qual_label,Loc_Option1_cost,Loc_Option2_cost,Loc_Option1_quality,Loc_Option2_quality,trials.thisRepN,trials.thisTrialN,trials.thisN,trials.thisIndex,trials.ran,Block,Device,cost1,qual1,cost2,qual2
space,4.1071,-0.095833333,0.196296296,1,0,0,-0.336458333,0.666666667,1,0,0,calibration_square,0,0,0,8,1,-0.33,0.67,37,001,2024-12-01_15h07.20.254,Attention_exp_legacy,2023.1.0,Win32,59.52380952,,,,,,,,,,,,,,,,,,,,,,,,,,,,,,,,,,,,,,,,,,,,
,,,,,,,-0.001041667,0.664814815,1,0,0,calibration_square,0,1,1,13,1,0,0.67,37,001,2024-12-01_15h07.20.254,Attention_exp_legacy,2023.1.0,Win32,59.52380952,,,,,,,,,,,,,,,,,,,,,,,,,,,,,,,,,,,,,,,,,,,,
,,,,,,,-0.330208333,0.011111111,1,0,0,,0,2,2,6,1,-0.33,0,37,001,2024-12-01_15h07.20.254,Attention_exp_legacy,2023.1.0,Win32,59.52380952,,,,,,,,,,,,,,,,,,,,,,,,,,,,,,,,,,,,,,,,,,,,
,,,,,,,0.673958333,0.681481481,1,0,0,,0,3,3,19,1,0.67,0.67,37,001,2024-12-01_15h07.20.254,Attention_exp_legacy,2023.1.0,Win32,59.52380952,,,,,,,,,,,,,,,,,,,,,,,,,,,,,,,,,,,,,,,,,,,,
,,,,,,,0.673958333,-0.664814815,1,0,0,calibration_square,0,4,4,20,1,0.67,-0.67,37,001,2024-12-01_15h07.20.254,Attention_exp_legacy,2023.1.0,Win32,59.52380952,,,,,,,,,,,,,,,,,,,,,,,,,,,,,,,,,,,,,,,,,,,,
,,,,,,,0.3375,-0.67037037,1,0,0,calibration_square,0,5,5,14,1,0.33,-0.67,37,001,2024-12-01_15h07.20.254,Attention_exp_legacy,2023.1.0,Win32,59.52380952,,,,,,,,,,,,,,,,,,,,,,,,,,,,,,,,,,,,,,,,,,,,
,,,,,,,0.009375,-0.32962963,1,0,0,calibration_square,0,6,6,10,1,0,-0.33,37,001,2024-12-01_15h07.20.254,Attention_exp_legacy,2023.1.0,Win32,59.52380952,,,,,,,,,,,,,,,,,,,,,,,,,,,,,,,,,,,,,,,,,,,,
,,,,,,,0.005208333,-0.675925926,1,0,0,calibration_square,0,7,7,9,1,0,-0.67,37,001,2024-12-01_15h07.20.254,Attention_exp_legacy,2023.1.0,Win32,59.52380952,,,,,,,,,,,,,,,,,,,,,,,,,,,,,,,,,,,,,,,,,,,,
,,,,,,,-0.670833333,-0.672222222,1,0,0,calibration_square,0,8,8,0,1,-0.67,-0.67,37,001,2024-12-01_15h07.20.254,Attention_exp_legacy,2023.1.0,Win32,59.52380952,,,,,,,,,,,,,,,,,,,,,,,,,,,,,,,,,,,,,,,,,,,,
,,,,,,,0.33125,0.67037037,1,0,0,calibration_square,0,9,9,18,1,0.33,0.67,37,001,2024-12-01_15h07.20.254,Attention_exp_legacy,2023.1.0,Win32,59.52380952,,,,,,,,,,,,,,,,,,,,,,,,,,,,,,,,,,,,,,,,,,,,
,,,,,,,-0.335416667,-0.664814815,1,0,0,calibration_square,0,10,10,4,1,-0.33,-0.67,37,001,2024-12-01_15h07.20.254,Attention_exp_legacy,2023.1.0,Win32,59.52380952,,,,,,,,,,,,,,,,,,,,,,,,,,,,,,,,,,,,,,,,,,,,
,,,,,,,-0.66875,0.333333333,1,0,0,calibration_square,0,11,11,3,1,-0.67,0.33,37,001,2024-12-01_15h07.20.254,Attention_exp_legacy,2023.1.0,Win32,59.52380952,,,,,,,,,,,,,,,,,,,,,,,,,,,,,,,,,,,,,,,,,,,,
,,,,,,,0.319791667,0.005555556,1,0,0,,0,12,12,16,1,0.33,0,37,001,2024-12-01_15h07.20.254,Attention_exp_legacy,2023.1.0,Win32,59.52380952,,,,,,,,,,,,,,,,,,,,,,,,,,,,,,,,,,,,,,,,,,,,
,,,,,,,-0.673958333,-0.009259259,1,0,0,calibration_square,0,13,13,2,1,-0.67,0,37,001,2024-12-01_15h07.20.254,Attention_exp_legacy,2023.1.0,Win32,59.52380952,,,,,,,,,,,,,,,,,,,,,,,,,,,,,,,,,,,,,,,,,,,,
,,,,,,,-0.320833333,-0.32962963,1,0,0,calibration_square,0,14,14,5,1,-0.33,-0.33,37,001,2024-12-01_15h07.20.254,Attention_exp_legacy,2023.1.0,Win32,59.52380952,,,,,,,,,,,,,,,,,,,,,,,,,,,,,,,,,,,,,,,,,,,,
,,,,,,,0.005208333,0.338888889,1,0,0,calibration_square,0,15,15,12,1,0,0.33,37,001,2024-12-01_15h07.20.254,Attention_exp_legacy,2023.1.0,Win32,59.52380952,,,,,,,,,,,,,,,,,,,,,,,,,,,,,,,,,,,,,,,,,,,,
,,,,,,,0.33125,-0.32037037,1,0,0,calibration_square,0,16,16,15,1,0.33,-0.33,37,001,2024-12-01_15h07.20.254,Attention_exp_legacy,2023.1.0,Win32,59.52380952,,,,,,,,,,,,,,,,,,,,,,,,,,,,,,,,,,,,,,,,,,,,
,,,,,,,-0.005208333,-0.007407407,1,0,0,calibration_square,0,17,17,11,1,0,0,37,001,2024-12-01_15h07.20.254,Attention_exp_legacy,2023.1.0,Win32,59.52380952,,,,,,,,,,,,,,,,,,,,,,,,,,,,,,,,,,,,,,,,,,,,
,,,,,,,-0.667708333,-0.333333333,1,0,0,calibration_square,0,18,18,1,1,-0.67,-0.33,37,001,2024-12-01_15h07.20.254,Attention_exp_legacy,2023.1.0,Win32,59.52380952,,,,,,,,,,,,,,,,,,,,,,,,,,,,,,,,,,,,,,,,,,,,
,,,,,,,-0.329166667,0.32962963,1,0,0,calibration_square,0,19,19,7,1,-0.33,0.33,37,001,2024-12-01_15h07.20.254,Attention_exp_legacy,2023.1.0,Win32,59.52380952,,,,,,,,,,,,,,,,,,,,,,,,,,,,,,,,,,,,,,,,,,,,
,,,,,,,0.329166667,0.324074074,1,0,0,calibration_square,0,20,20,17,1,0.33,0.33,37,001,2024-12-01_15h07.20.254,Attention_exp_legacy,2023.1.0,Win32,59.52380952,,,,,,,,,,,,,,,,,,,,,,,,,,,,,,,,,,,,,,,,,,,,
,,,,,,,,,,,,,,,,,,,,37,001,2024-12-01_15h07.20.254,Attention_exp_legacy,2023.1.0,Win32,59.52380952,"[1920,1080]","[640,480]",[0.023958333333333335],[-0.48518518518518516],[1],[0],[0],[2.5461000000238414],"[""StartButton""]",[0.0010416666666666667],[0.14074074074074075],[1],[0],[0],[3.9799000000357694],"[""Option1_label""]",Option1_label,1,4.991,"[[0.04895833333333333,-0.4111111111111111],[0.04895833333333333,-0.4111111111111111],[0.04895833333333333,-0.4111111111111111],[0.04895833333333333,-0.4111111111111111],[0.04895833333333333,-0.4111111111111111],[0.04895833333333333,-0.4111111111111111],[0.04895833333333333,-0.4111111111111111],[0.04895833333333333,-0.4111111111111111],[0.04895833333333333,-0.4111111111111111],[0.04895833333333333,-0.4111111111111111],[0.04895833333333333,-0.4111111111111111],[0.04895833333333333,-0.4111111111111111],[0.04895833333333333,-0.4111111111111111],[0.04895833333333333,-0.4111111111111111],[0.04895833333333333,-0.4111111111111111],[0.04895833333333333,-0.4111111111111111],[0.04895833333333333,-0.4111111111111111],[0.04895833333333333,-0.4111111111111111],[0.04895833333333333,-0.4111111111111111],[0.04895833333333333,-0.4111111111111111],[0.04895833333333333,-0.4111111111111111],[0.04895833333333333,-0.4111111111111111],[0.04895833333333333,-0.4111111111111111],[0.04895833333333333,-0.4111111111111111],[0.04895833333333333,-0.4111111111111111],[0.04895833333333333,-0.4111111111111111],[0.04895833333333333,-0.4111111111111111],[0.04895833333333333,-0.4111111111111111],[0.04895833333333333,-0.4111111111111111],[0.04895833333333333,-0.4111111111111111],[0.04895833333333333,-0.4111111111111111],[0.04895833333333333,-0.4111111111111111],[0.04895833333333333,-0.4111111111111111],[0.04895833333333333,-0.4111111111111111],[0.04895833333333333,-0.4111111111111111],[0.04895833333333333,-0.4111111111111111],[0.04895833333333333,-0.4111111111111111],[0.04895833333333333,-0.4111111111111111],[0.04895833333333333,-0.4111111111111111],[0.04895833333333333,-0.4111111111111111],[0.04895833333333333,-0.4111111111111111],[0.04895833333333333,-0.4111111111111111],[0.04895833333333333,-0.4111111111111111],[0.04895833333333333,-0.4111111111111111],[0.04895833333333333,-0.4111111111111111],[0.04895833333333333,-0.4111111111111111],[0.04895833333333333,-0.4111111111111111],[0.04895833333333333,-0.4111111111111111],[0.04895833333333333,-0.4111111111111111],[0.04895833333333333,-0.4111111111111111],[0.04895833333333333,-0.4111111111111111],[0.04895833333333333,-0.4111111111111111],[0.04895833333333333,-0.4111111111111111],[0.04895833333333333,-0.4111111111111111],[0.04895833333333333,-0.4111111111111111],[0.04895833333333333,-0.4111111111111111],[0.04895833333333333,-0.4111111111111111],[0.04895833333333333,-0.4111111111111111],[0.04895833333333333,-0.4111111111111111],[0.04895833333333333,-0.4111111111111111],[0.04895833333333333,-0.4111111111111111],[0.04895833333333333,-0.4111111111111111],[0.04895833333333333,-0.4111111111111111],[0.04895833333333333,-0.4111111111111111],[0.04895833333333333,-0.4111111111111111],[0.04895833333333333,-0.4111111111111111],[0.04895833333333333,-0.4111111111111111],[0.04895833333333333,-0.4111111111111111],[0.04895833333333333,-0.4111111111111111],[0.04895833333333333,-0.4111111111111111],[0.04895833333333333,-0.4111111111111111],[0.04895833333333333,-0.4111111111111111],[0.04895833333333333,-0.4111111111111111],[0.04895833333333333,-0.4111111111111111],[0.04895833333333333,-0.4111111111111111],[0.04895833333333333,-0.4111111111111111],[0.04895833333333333,-0.4111111111111111],[0.04895833333333333,-0.4111111111111111],[0.04895833333333333,-0.4111111111111111],[0.04895833333333333,-0.4111111111111111],[0.04895833333333333,-0.4111111111111111],[0.04895833333333333,-0.4111111111111111],[0.04895833333333333,-0.4111111111111111],[0.04895833333333333,-0.4111111111111111],[0.04895833333333333,-0.4111111111111111],[0.04895833333333333,-0.4111111111111111],[0.04895833333333333,-0.4111111111111111],[0.04895833333333333,-0.4111111111111111],[0.04895833333333333,-0.4111111111111111],[0.04895833333333333,-0.4111111111111111],[0.04895833333333333,-0.4111111111111111],[0.04895833333333333,-0.4111111111111111],[0.04895833333333333,-0.4111111111111111],[0.04895833333333333,-0.4111111111111111],[0.04895833333333333,-0.4111111111111111],[0.04895833333333333,-0.4111111111111111],[0.04895833333333333,-0.4111111111111111],[0.04895833333333333,-0.4111111111111111],[0.04895833333333333,-0.4111111111111111],[0.04895833333333333,-0.4111111111111111],[0.04895833333333333,-0.4111111111111111],[0.04895833333333333,-0.4111111111111111],[0.04895833333333333,-0.4111111111111111],[0.04895833333333333,-0.4111111111111111],[0.04895833333333333,-0.4111111111111111],[0.04895833333333333,-0.4111111111111111],[0.04895833333333333,-0.4111111111111111],[0.04895833333333333,-0.4111111111111111],[0.04895833333333333,-0.4111111111111111],[0.04895833333333333,-0.4111111111111111],[0.04895833333333333,-0.4111111111111111],[0.04895833333333333,-0.4111111111111111],[0.04895833333333333,-0.4111111111111111],[0.04895833333333333,-0.4111111111111111],[0.04895833333333333,-0.4111111111111111],[0.04895833333333333,-0.4111111111111111],[0.04895833333333333,-0.4111111111111111],[0.04895833333333333,-0.4111111111111111],[0.04895833333333333,-0.4111111111111111],[0.04895833333333333,-0.4111111111111111],[0.04895833333333333,-0.4111111111111111],[0.04895833333333333,-0.4111111111111111],[0.04895833333333333,-0.4111111111111111],[0.04895833333333333,-0.4111111111111111],[0.04895833333333333,-0.4111111111111111],[0.04895833333333333,-0.4111111111111111],[0.04895833333333333,-0.4111111111111111],[0.04895833333333333,-0.4111111111111111],[0.04895833333333333,-0.4111111111111111],[0.04895833333333333,-0.4111111111111111],[0.04895833333333333,-0.4111111111111111],[0.04895833333333333,-0.4111111111111111],[0.04895833333333333,-0.4111111111111111],[0.04895833333333333,-0.4111111111111111],[0.04895833333333333,-0.4111111111111111],[0.04895833333333333,-0.4111111111111111],[0.04895833333333333,-0.4111111111111111],[0.04895833333333333,-0.4111111111111111],[0.04895833333333333,-0.4111111111111111],[0.04895833333333333,-0.4111111111111111],[0.04895833333333333,-0.4111111111111111],[0.04895833333333333,-0.4111111111111111],[0.04895833333333333,-0.4111111111111111],[0.04895833333333333,-0.4111111111111111],[0.04895833333333333,-0.4111111111111111],[0.04895833333333333,-0.4111111111111111],[0.04895833333333333,-0.4111111111111111],[0.04895833333333333,-0.4111111111111111],[0.04895833333333333,-0.4111111111111111],[0.04895833333333333,-0.4111111111111111],[0.04895833333333333,-0.4111111111111111],[0.04895833333333333,-0.4111111111111111],[0.04895833333333333,-0.4111111111111111],[0.04895833333333333,-0.4111111111111111],[0.04895833333333333,-0.4111111111111111],[0.04895833333333333,-0.4111111111111111],[0.04895833333333333,-0.4111111111111111],[0.04895833333333333,-0.4111111111111111],[0.04895833333333333,-0.4111111111111111],[0.04895833333333333,-0.4111111111111111],[0.04895833333333333,-0.4111111111111111],[0.04895833333333333,-0.4111111111111111],[0.04895833333333333,-0.4111111111111111],[0.04791666666666667,-0.39444444444444443],[0.046875,-0.3814814814814815],[0.042708333333333334,-0.35555555555555557],[0.03333333333333333,-0.29814814814814816],[0.023958333333333335,-0.2462962962962963],[0.016666666666666666,-0.19814814814814816],[0.007291666666666667,-0.1648148148148148],[0.0020833333333333333,-0.14074074074074075],[0.0010416666666666667,-0.12037037037037036],[-0.003125,-0.0962962962962963],[-0.005208333333333333,-0.07777777777777778],[-0.007291666666666667,-0.06111111111111111],[-0.008333333333333333,-0.05],[-0.009375,-0.040740740740740744],[-0.010416666666666666,-0.022222222222222223],[-0.010416666666666666,-0.018518518518518517],[-0.010416666666666666,-0.001851851851851852],[-0.010416666666666666,0.005555555555555556],[-0.010416666666666666,0.014814814814814815],[-0.010416666666666666,0.025925925925925925],[-0.010416666666666666,0.040740740740740744],[-0.010416666666666666,0.05185185185185185],[-0.010416666666666666,0.06111111111111111],[-0.010416666666666666,0.07037037037037037],[-0.010416666666666666,0.08148148148148149],[-0.010416666666666666,0.08888888888888889],[-0.007291666666666667,0.09814814814814815],[-0.00625,0.10925925925925926],[-0.004166666666666667,0.11851851851851852],[-0.003125,0.12407407407407407],[-0.003125,0.12407407407407407],[-0.003125,0.12407407407407407],[-0.003125,0.12407407407407407],[-0.003125,0.12407407407407407],[-0.003125,0.12407407407407407],[-0.003125,0.1259259259259259],[-0.003125,0.12777777777777777],[-0.003125,0.12777777777777777],[-0.003125,0.12777777777777777],[-0.003125,0.12777777777777777],[-0.003125,0.12777777777777777],[-0.003125,0.12777777777777777],[-0.003125,0.12777777777777777],[-0.003125,0.12777777777777777],[-0.0020833333333333333,0.12962962962962962],[-0.0020833333333333333,0.12962962962962962],[-0.0020833333333333333,0.12962962962962962],[-0.0020833333333333333,0.12962962962962962],[-0.0010416666666666667,0.13148148148148148],[-0.0010416666666666667,0.13333333333333333],[-0.0010416666666666667,0.13333333333333333],[-0.0010416666666666667,0.13518518518518519],[-0.0010416666666666667,0.13518518518518519],[0,0.13518518518518519],[0,0.13518518518518519],[0,0.1388888888888889],[0,0.14074074074074075],[0,0.14074074074074075],[0.0010416666666666667,0.14074074074074075],[0.0010416666666666667,0.14074074074074075],[0.0010416666666666667,0.14074074074074075],[0.0010416666666666667,0.14074074074074075],[0.0010416666666666667,0.14074074074074075],[0.0010416666666666667,0.14074074074074075],[0.0010416666666666667,0.14074074074074075],[0.0010416666666666667,0.14074074074074075],[0.0010416666666666667,0.14074074074074075],[0.0010416666666666667,0.14074074074074075],[0.0010416666666666667,0.14074074074074075],[0.0010416666666666667,0.14074074074074075],[0.0010416666666666667,0.14074074074074075],[0.0010416666666666667,0.14074074074074075],[0.0010416666666666667,0.14074074074074075],[0.0010416666666666667,0.14074074074074075],[0.0010416666666666667,0.14074074074074075],[0.0010416666666666667,0.14074074074074075],[0.0010416666666666667,0.14074074074074075],[0.0010416666666666667,0.14074074074074075],[0.0010416666666666667,0.14074074074074075],[0.0010416666666666667,0.14074074074074075],[0.0010416666666666667,0.14074074074074075],[0.0010416666666666667,0.14074074074074075],[0.0010416666666666667,0.14074074074074075],[0.0010416666666666667,0.14074074074074075],[0.0010416666666666667,0.14074074074074075],[0.0010416666666666667,0.14074074074074075],[0.0010416666666666667,0.14074074074074075],[0.0010416666666666667,0.14074074074074075],[0.0010416666666666667,0.14074074074074075],[0.0010416666666666667,0.14074074074074075],[0.0010416666666666667,0.14074074074074075],[0.0010416666666666667,0.14074074074074075],[0.0010416666666666667,0.14074074074074075],[0.0010416666666666667,0.14074074074074075],[0.0010416666666666667,0.14074074074074075],[0.0010416666666666667,0.14074074074074075],[0.0010416666666666667,0.14074074074074075],[0.0010416666666666667,0.14074074074074075],[0.0010416666666666667,0.1388888888888889],[0.0010416666666666667,0.13703703703703704],[0.0010416666666666667,0.12777777777777777],[0.0010416666666666667,0.12037037037037036],[0.0010416666666666667,0.11481481481481481],[0.0010416666666666667,0.10925925925925926],[0.0010416666666666667,0.1],[0.0010416666666666667,0.09444444444444444],[0.0010416666666666667,0.08703703703703704],[0.0010416666666666667,0.08333333333333333],[0,0.07407407407407407],[-0.0010416666666666667,0.06481481481481481],[-0.0020833333333333333,0.05925925925925926],[-0.003125,0.05],[-0.003125,0.03888888888888889],[-0.003125,0.02962962962962963],[-0.005208333333333333,0.016666666666666666],[-0.00625,0],[-0.007291666666666667,-0.011111111111111112],[-0.007291666666666667,-0.024074074074074074],[-0.007291666666666667,-0.03518518518518519],[-0.009375,-0.044444444444444446],[-0.010416666666666666,-0.06111111111111111],[-0.0125,-0.0962962962962963],[-0.015625,-0.11851851851851852],[-0.015625,-0.12962962962962962],[-0.016666666666666666,-0.14814814814814814],[-0.016666666666666666,-0.16111111111111112],[-0.016666666666666666,-0.17222222222222222],[-0.016666666666666666,-0.18518518518518517],[-0.016666666666666666,-0.19444444444444445],[-0.016666666666666666,-0.2074074074074074],[-0.01875,-0.22037037037037038],[-0.01875,-0.23703703703703705],[-0.01875,-0.25],[-0.01875,-0.25555555555555554],[-0.01875,-0.26481481481481484],[-0.01875,-0.2833333333333333]]","[[-0.07958333333333331,0.15999999999999995],[-0.07958333333333331,0.15999999999999995],[-0.06822916666666666,0.15833333333333333],[-0.058333333333333334,0.152962962962963],[-0.058437500000000024,0.12148148148148152],[-0.058541666666666714,0.09000000000000004],[-0.05249999999999998,0.07222222222222222],[-0.04645833333333336,0.0544444444444444],[-0.04885416666666664,0.028518518518518478],[-0.051041666666666666,0.01592592592592597],[-0.0375,0.015000000000000043],[-0.036562500000000026,0.0016666666666666245],[-0.042708333333333334,0.000925925925925926],[-0.058333333333333334,0.004074074074074159],[-0.06989583333333335,0.022037037037036994],[-0.0704166666666667,0.021296296296296296],[-0.07322916666666662,0.009444444444444486],[-0.0751041666666667,-0.005740740740740783],[-0.06854166666666663,-0.012777777777777735],[-0.06197916666666667,-0.0198148148148149],[-0.07208333333333337,-0.03685185185185181],[-0.07562500000000003,-0.04611111111111107],[-0.07000000000000005,-0.0514814814814814],[-0.05552083333333328,-0.060555555555555536],[-0.05166666666666669,-0.08351851851851856],[-0.06166666666666672,-0.07611111111111116],[-0.06187499999999998,-0.07185185185185188],[-0.06749999999999995,-0.06444444444444447],[-0.07916666666666666,-0.044444444444444446],[-0.08562500000000005,-0.03629629629629634],[-0.07135416666666666,-0.0198148148148149],[-0.07135416666666666,-0.0198148148148149],[-0.057083333333333285,-0.003333333333333249],[-0.06208333333333336,-0.01055555555555564],[-0.0626041666666667,-0.019259259259259216],[-0.051979166666666646,-0.024814814814814772],[-0.03687499999999998,-0.027777777777777776],[-0.03864583333333336,-0.02166666666666675],[-0.0359375,-0.015370370370370286],[-0.03177083333333333,0.006666666666666709],[-0.0234375,0.023333333333333376],[-0.04208333333333331,0.042407407407407366],[-0.06072916666666662,0.06148148148148157],[-0.06072916666666662,0.06148148148148157],[-0.06927083333333334,0.10037037037037046],[-0.08760416666666669,0.11444444444444436],[-0.0984375,0.13351851851851856],[-0.1109375,0.13833333333333342],[-0.11770833333333333,0.12685185185185185],[-0.12447916666666667,0.11537037037037029],[-0.13489583333333333,0.07759259259259255],[-0.13489583333333333,0.07759259259259255],[-0.1546875,0.057037037037036956],[-0.15739583333333335,0.014814814814814815],[-0.16770833333333332,-0.015555555555555513],[-0.1866666666666667,-0.023148148148148147],[-0.196875,-0.011111111111111112],[-0.1907291666666667,0.004444444444444402],[-0.18791666666666665,0.00592592592592601],[-0.19302083333333328,0.0003703703703704546],[-0.19333333333333336,0.0031481481481482323],[-0.19864583333333338,0.014074074074074116],[-0.20260416666666667,0.021481481481481525],[-0.19635416666666666,0.03740740740740749],[-0.19635416666666666,0.03740740740740749],[-0.1766666666666667,0.04314814814814806],[-0.15666666666666665,0.02444444444444453],[-0.14010416666666667,0.012407407407407492],[-0.14010416666666667,0.012407407407407492],[-0.12989583333333338,-0.006666666666666709],[-0.11177083333333329,-0.008888888888888804],[-0.084375,0.006296296296296254],[-0.084375,0.006296296296296254],[-0.07166666666666661,0.005000000000000084],[-0.04812500000000005,0.00722222222222218],[-0.025937499999999978,0.012962962962962963],[-0.025937499999999978,0.012962962962962963],[-0.01906249999999995,0.0012962962962963806],[-0.02041666666666669,0.009814814814814731],[-0.013437499999999976,0.019999999999999917],[-0.014999999999999977,0.027222222222222307],[-0.016875000000000046,0.04277777777777782],[-0.016875000000000046,0.04277777777777782],[-0.02333333333333331,0.05555555555555555],[-0.041875000000000044,0.05555555555555555],[-0.03770833333333338,0.07092592592592584],[-0.03114583333333331,0.07259259259259268],[-0.0328125,0.053703703703703705],[-0.029062499999999977,0.055740740740740785],[-0.025625000000000023,0.0625925925925925],[-0.020624999999999952,0.05740740740740741],[-0.007083333333333286,0.0551851851851851],[-0.007083333333333286,0.0551851851851851],[-0.021249999999999977,0.04944444444444453],[-0.04041666666666662,0.052962962962963],[-0.04041666666666662,0.052962962962963],[-0.04750000000000002,0.06925925925925921],[-0.06166666666666672,0.06574074074074074],[-0.08229166666666667,0.05055555555555547],[-0.09468749999999998,0.05592592592592601],[-0.11843750000000004,0.08759259259259251],[-0.13947916666666665,0.09259259259259259],[-0.15062500000000004,0.09574074074074082],[-0.16156250000000003,0.08037037037037033],[-0.1664583333333333,0.07888888888888893],[-0.15895833333333337,0.06944444444444445],[-0.15895833333333337,0.06944444444444445],[-0.1514583333333333,0.059999999999999956],[-0.15614583333333332,0.06944444444444445],[-0.1460416666666667,0.0764814814814814],[-0.12562500000000001,0.09833333333333337],[-0.12000000000000005,0.0794444444444444],[-0.10791666666666669,0.07888888888888893],[-0.11218750000000005,0.058333333333333334],[-0.11666666666666667,0.056296296296296254],[-0.1171875,0.0448148148148149],[-0.12875000000000003,0.04888888888888885],[-0.14031250000000003,0.052962962962963],[-0.14354166666666662,0.04722222222222222],[-0.15510416666666665,0.05555555555555555],[-0.18093750000000006,0.04000000000000004],[-0.18093750000000006,0.04000000000000004],[-0.1851041666666667,0.027962962962963005],[-0.1967708333333333,0.014259259259259343],[-0.1998958333333333,0.04296296296296305],[-0.1998958333333333,0.04296296296296305],[-0.20302083333333332,0.07166666666666675],[-0.21000000000000002,0.0955555555555556],[-0.16854166666666662,0.11333333333333341],[-0.16854166666666662,0.11333333333333341],[-0.1280208333333333,0.12462962962962955],[-0.08697916666666666,0.12888888888888894],[-0.04593750000000003,0.1331481481481481],[-0.04593750000000003,0.1331481481481481],[-0.0013541666666666192,0.16111111111111112],[0.05145833333333331,0.17925925925925917],[0.1053124999999999,0.18074074074074079],[0.14291666666666672,0.17296296296296293],[0.1805208333333333,0.16518518518518527],[0.22197916666666656,0.16222222222222227],[0.21052083333333324,0.16018518518518518],[0.21052083333333324,0.16018518518518518],[0.2,0.1646296296296296],[0.20458333333333342,0.1925925925925926],[0.1961458333333333,0.18314814814814812],[0.1881249999999999,0.15907407407407403],[0.17510416666666656,0.13648148148148156],[0.17510416666666656,0.13648148148148156],[0.15968749999999995,0.1388888888888889],[0.15656249999999997,0.11555555555555551],[0.16083333333333344,0.11648148148148144],[0.1681250000000001,0.08944444444444435],[0.1681250000000001,0.08944444444444435],[0.1640625,0.09092592592592597],[0.1640625,0.09092592592592597],[0.16593749999999996,0.051666666666666625],[0.15958333333333338,0.01722222222222214],[0.15677083333333333,0.01185185185185181],[0.15677083333333333,0.01185185185185181],[0.15510416666666677,0.007407407407407408],[0.1482291666666666,0.008148148148148106],[0.1273958333333333,-0.027777777777777776],[0.1068749999999999,-0.03722222222222227],[0.08510416666666672,-0.05592592592592591],[0.08510416666666672,-0.05592592592592591],[0.04354166666666662,-0.05333333333333336],[0.02791666666666662,-0.0705555555555556],[0.02791666666666662,-0.0705555555555556],[0.019687499999999976,-0.026851851851851852],[0.006562499999999953,-0.0035185185185184764],[0.006562499999999953,-0.0035185185185184764],[-0.006666666666666643,0.05388888888888893],[-0.0048958333333333805,0.10796296296296289],[-0.001145833333333357,0.16592592592592598],[-0.001145833333333357,0.16592592592592598],[-0.002812500000000047,0.20833333333333334],[-0.008437500000000023,0.24092592592592596],[-0.025833333333333285,0.20925925925925926],[-0.02645833333333331,0.18425925925925926],[-0.006666666666666643,0.18925925925925935],[-0.024270833333333287,0.16500000000000004],[-0.034062500000000044,0.15111111111111114],[-0.03885416666666662,0.10333333333333325],[-0.05239583333333329,0.06277777777777774],[-0.07916666666666666,0.0198148148148149],[-0.06041666666666667,0.006481481481481481],[-0.04020833333333336,0.004444444444444402],[-0.014374999999999952,0.051666666666666625],[-0.008437500000000023,0.08148148148148149],[-0.008437500000000023,0.08148148148148149],[-0.029375000000000047,0.06092592592592588],[-0.029375000000000047,0.06092592592592588],[-0.02374999999999995,0.038703703703703664],[-0.006666666666666643,-0.006296296296296254],[-0.00635416666666669,-0.04888888888888885],[-0.00635416666666669,-0.04888888888888885],[-0.01583333333333338,-0.09944444444444442],[-0.00791666666666669,-0.11814814814814817],[-0.0032291666666666905,-0.14759259259259258],[-0.01416666666666669,-0.18518518518518517],[-0.02333333333333331,-0.18833333333333332],[-0.017499999999999953,-0.19074074074074074],[0.011562500000000024,-0.20870370370370367],[0.011562500000000024,-0.20870370370370367],[0.04083333333333338,-0.18574074074074076],[0.06197916666666667,-0.14370370370370375],[0.10447916666666662,-0.09592592592592594],[0.10447916666666662,-0.09592592592592594],[0.121875,-0.0492592592592593],[0.14968750000000006,-0.02240740740740745],[0.1415625000000001,-0.007407407407407408],[0.1415625000000001,-0.007407407407407408],[0.15395833333333328,0.0031481481481482323],[0.15395833333333328,0.0031481481481482323],[0.15593750000000003,-0.03814814814814819],[0.17135416666666667,-0.03925925925925934],[0.1571875000000001,-0.03314814814814811],[0.15104166666666666,-0.035740740740740656],[0.12781250000000005,-0.06500000000000004],[0.12781250000000005,-0.06500000000000004],[0.09458333333333328,-0.08888888888888889],[0.09822916666666662,-0.07777777777777778],[0.09604166666666672,-0.09833333333333337],[0.12385416666666677,-0.0977777777777778],[0.09958333333333323,-0.0940740740740741],[0.11427083333333338,-0.06703703703703702],[0.11583333333333339,-0.07999999999999997],[0.1259375000000001,-0.08129629629629626],[0.12531249999999997,-0.10407407407407405],[0.1203125,-0.0772222222222222],[0.12531249999999997,-0.055740740740740785],[0.1267708333333334,-0.06185185185185181],[0.11947916666666672,-0.04592592592592584],[0.09114583333333333,-0.07388888888888885],[0.1125,-0.09388888888888887],[0.10354166666666677,-0.11981481481481479],[0.09645833333333324,-0.11314814814814819],[0.07927083333333323,-0.09759259259259258],[0.05635416666666669,-0.09351851851851851],[0.033958333333333354,-0.11148148148148146],[0.03104166666666662,-0.10666666666666672],[0.01572916666666669,-0.11888888888888886],[-0.016666666666666666,-0.14777777777777779],[-0.042604166666666644,-0.13370370370370369],[-0.06145833333333333,-0.1051851851851852],[-0.06864583333333331,-0.08722222222222227],[-0.06041666666666667,-0.06574074074074074],[-0.058854166666666666,-0.06370370370370367],[-0.04666666666666662,-0.06648148148148143],[-0.02677083333333338,-0.056296296296296254],[-0.033958333333333354,-0.09092592592592597],[-0.029999999999999954,-0.11666666666666667],[-0.008958333333333356,-0.1257407407407407],[-0.00791666666666669,-0.11092592592592589],[-0.01395833333333331,-0.11055555555555553],[-0.010520833333333358,-0.10611111111111113],[-0.019791666666666666,-0.12129629629629629],[-0.025416666666666643,-0.1403703703703704],[-0.04479166666666667,-0.1522222222222222],[-0.05333333333333338,-0.1624074074074074],[-0.05635416666666669,-0.17740740740740743],[-0.059583333333333384,-0.17333333333333337],[-0.059583333333333384,-0.17333333333333337],[-0.052083333333333336,-0.13129629629629624],[-0.04885416666666664,-0.16148148148148145],[-0.04885416666666664,-0.16148148148148145],[-0.03583333333333331,-0.152962962962963],[-0.03718750000000005,-0.12037037037037036],[-0.0546875,-0.09962962962962965],[-0.0546875,-0.09962962962962965],[-0.06072916666666662,-0.09203703703703701],[-0.05531250000000002,-0.06518518518518517],[-0.05531250000000002,-0.06518518518518517],[-0.03937499999999995,-0.052037037037037076],[-0.03937499999999995,-0.052037037037037076],[-0.03854166666666667,-0.020370370370370372],[-0.03854166666666667,-0.020370370370370372],[-0.03947916666666664,-0.000925925925925926],[-0.05499999999999995,-0.021296296296296296],[-0.04208333333333331,-0.0014814814814813973],[-0.03822916666666672,-0.00592592592592601],[-0.027499999999999976,-0.02388888888888885],[-0.0006250000000000236,-0.030000000000000086],[0.011979166666666667,-0.012407407407407492],[0.014895833333333285,-0.019999999999999917],[-0.009895833333333333,-0.01722222222222214],[-0.009895833333333333,-0.01722222222222214],[-0.013645833333333357,0.012037037037037037],[-0.01260416666666669,0.028703703703703703],[-0.00458333333333331,0.039074074074074115],[-0.00458333333333331,0.039074074074074115],[-0.006979166666666714,0.03888888888888889],[-0.004375000000000047,0.028518518518518478],[-0.015416666666666618,0.014074074074074116],[-0.03187500000000002,-0.0011111111111111532],[-0.04479166666666667,-0.008703703703703788],[-0.04479166666666667,-0.008703703703703788],[-0.05260416666666667,0.0025925925925925505],[-0.044062499999999956,0.012037037037037037]]","[[-0.07958333333333331,0.15999999999999995,0.0003000000119186552],[-0.07958333333333331,0.15999999999999995,0.03939999997615473],[-0.06822916666666666,0.15833333333333333,0.05330000001191593],[-0.058333333333333334,0.152962962962963,0.06989999997615826],[-0.058437500000000024,0.12148148148148152,0.08669999998808464],[-0.058541666666666714,0.09000000000000004,0.1033000000119273],[-0.05249999999999998,0.07222222222222222,0.12019999998807407],[-0.04645833333333336,0.0544444444444444,0.1366999999880818],[-0.04885416666666664,0.028518518518518478,0.15330000001192445],[-0.051041666666666666,0.01592592592592597,0.1700000000000017],[-0.0375,0.015000000000000043,0.1869999999999976],[-0.036562500000000026,0.0016666666666666245,0.20369999998807486],[-0.042708333333333334,0.000925925925925926,0.21999999999999886],[-0.058333333333333334,0.004074074074074159,0.23669999998807612],[-0.06989583333333335,0.022037037037036994,0.25369999998808623],[-0.0704166666666667,0.021296296296296296,0.27010000002384515],[-0.07322916666666662,0.009444444444444486,0.2866999999880875],[-0.0751041666666667,-0.005740740740740783,0.3033000000119159],[-0.06854166666666663,-0.012777777777777735,0.32049999999999557],[-0.06197916666666667,-0.0198148148148149,0.33800000000000807],[-0.07208333333333337,-0.03685185185185181,0.3534999999999968],[-0.07562500000000003,-0.04611111111111107,0.37000000000000455],[-0.07000000000000005,-0.0514814814814814,0.3868000000119167],[-0.05552083333333328,-0.060555555555555536,0.40330000001192445],[-0.05166666666666669,-0.08351851851851856,0.4200000000000017],[-0.06166666666666672,-0.07611111111111116,0.43660000002384436],[-0.06187499999999998,-0.07185185185185188,0.45350000000000534],[-0.06749999999999995,-0.06444444444444447,0.4713000000119223],[-0.07916666666666666,-0.044444444444444446,0.4899999999999949],[-0.08562500000000005,-0.03629629629629634,0.5043000000119235],[-0.07135416666666666,-0.0198148148148149,0.519999999999996],[-0.07135416666666666,-0.0198148148148149,0.5366000000238387],[-0.057083333333333285,-0.003333333333333249,0.5534999999999997],[-0.06208333333333336,-0.01055555555555564,0.571800000011919],[-0.0626041666666667,-0.019259259259259216,0.5875000000000057],[-0.051979166666666646,-0.024814814814814772,0.6048000000119202],[-0.03687499999999998,-0.027777777777777776,0.6200000000000045],[-0.03864583333333336,-0.02166666666666675,0.6366000000238472],[-0.0359375,-0.015370370370370286,0.6533000000119245],[-0.03177083333333333,0.006666666666666709,0.6700000000000017],[-0.0234375,0.023333333333333376,0.6866000000238444],[-0.04208333333333331,0.042407407407407366,0.7033000000119216],[-0.06072916666666662,0.06148148148148157,0.7199999999999989],[-0.06072916666666662,0.06148148148148157,0.7366999999880761],[-0.06927083333333334,0.10037037037037046,0.7533999999761534],[-0.08760416666666669,0.11444444444444436,0.769999999999996],[-0.0984375,0.13351851851851856,0.7866000000238387],[-0.1109375,0.13833333333333342,0.8073999999761554],[-0.11770833333333333,0.12685185185185185,0.8228000000119238],[-0.12447916666666667,0.11537037037037029,0.8393999999761661],[-0.13489583333333333,0.07759259259259255,0.8568000000119156],[-0.13489583333333333,0.07759259259259255,0.8700000000000045],[-0.1546875,0.057037037037036956,0.8866999999880818],[-0.15739583333333335,0.014814814814814815,0.9031999999880753],[-0.16770833333333332,-0.015555555555555513,0.9200000000000017],[-0.1866666666666667,-0.023148148148148147,0.9366000000238444],[-0.196875,-0.011111111111111112,0.9556999999880844],[-0.1907291666666667,0.004444444444444402,0.9736000000238363],[-0.18791666666666665,0.00592592592592601,0.9899999999999949],[-0.19302083333333328,0.0003703703703704546,1.0065000000000026],[-0.19333333333333336,0.0031481481481482323,1.0234999999999985],[-0.19864583333333338,0.014074074074074116,1.0398000000119225],[-0.20260416666666667,0.021481481481481525,1.0570000000000022],[-0.19635416666666666,0.03740740740740749,1.075399999976156],[-0.19635416666666666,0.03740740740740749,1.08660000002385],[-0.1766666666666667,0.04314814814814806,1.1033000000119273],[-0.15666666666666665,0.02444444444444453,1.1200000000000045],[-0.14010416666666667,0.012407407407407492,1.1366000000238472],[-0.14010416666666667,0.012407407407407492,1.153399999976159],[-0.12989583333333338,-0.006666666666666709,1.1700000000000017],[-0.11177083333333329,-0.008888888888888804,1.1869999999999976],[-0.084375,0.006296296296296254,1.2033999999761562],[-0.084375,0.006296296296296254,1.2199999999999989],[-0.07166666666666661,0.005000000000000084,1.2366000000238415],[-0.04812500000000005,0.00722222222222218,1.2536000000238374],[-0.025937499999999978,0.012962962962962963,1.269899999976161],[-0.025937499999999978,0.012962962962962963,1.2866000000238387],[-0.01906249999999995,0.0012962962962963806,1.303300000011916],[-0.02041666666666669,0.009814814814814731,1.3200000000000074],[-0.013437499999999976,0.019999999999999917,1.33660000002385],[-0.014999999999999977,0.027222222222222307,1.3548999999761548],[-0.016875000000000046,0.04277777777777782,1.3708999999761602],[-0.016875000000000046,0.04277777777777782,1.3866999999880818],[-0.02333333333333331,0.05555555555555555,1.4033000000119245],[-0.041875000000000044,0.05555555555555555,1.4226999999880832],[-0.03770833333333338,0.07092592592592584,1.4373000000119163],[-0.03114583333333331,0.07259259259259268,1.4543000000119264],[-0.0328125,0.053703703703703705,1.4703999999761663],[-0.029062499999999977,0.055740740740740785,1.4908999999761647],[-0.025625000000000023,0.0625925925925925,1.5066000000238375],[-0.020624999999999952,0.05740740740740741,1.521600000023838],[-0.007083333333333286,0.0551851851851851,1.5371999999880757],[-0.007083333333333286,0.0551851851851851,1.5534999999999997],[-0.021249999999999977,0.04944444444444453,1.5700000000000074],[-0.04041666666666662,0.052962962962963,1.5913000000119268],[-0.04041666666666662,0.052962962962963,1.6033000000119273],[-0.04750000000000002,0.06925925925925921,1.6200000000000045],[-0.06166666666666672,0.06574074074074074,1.6366999999880818],[-0.08229166666666667,0.05055555555555547,1.653399999976159],[-0.09468749999999998,0.05592592592592601,1.6698999999761526],[-0.11843750000000004,0.08759259259259251,1.6878999999761533],[-0.13947916666666665,0.09259259259259259,1.7036999999880749],[-0.15062500000000004,0.09574074074074082,1.7199999999999989],[-0.16156250000000003,0.08037037037037033,1.7366000000238415],[-0.1664583333333333,0.07888888888888893,1.7551999999880792],[-0.15895833333333337,0.06944444444444445,1.7750000000000057],[-0.15895833333333337,0.06944444444444445,1.7866999999880875],[-0.1514583333333333,0.059999999999999956,1.8033999999761647],[-0.15614583333333332,0.06944444444444445,1.8236999999880794],[-0.1460416666666667,0.0764814814814814,1.839500000000001],[-0.12562500000000001,0.09833333333333337,1.8553999999761572],[-0.12000000000000005,0.0794444444444444,1.8731999999880742],[-0.10791666666666669,0.07888888888888893,1.890500000000003],[-0.11218750000000005,0.058333333333333334,1.9063000000119246],[-0.11666666666666667,0.056296296296296254,1.9200000000000017],[-0.1171875,0.0448148148148149,1.9366000000238444],[-0.12875000000000003,0.04888888888888885,1.9546999999880796],[-0.14031250000000003,0.052962962962963,1.9738999999761546],[-0.14354166666666662,0.04722222222222222,1.9895000000000067],[-0.15510416666666665,0.05555555555555555,2.0066999999880863],[-0.18093750000000006,0.04000000000000004,2.021600000023838],[-0.18093750000000006,0.04000000000000004,2.0366000000238387],[-0.1851041666666667,0.027962962962963005,2.0533999999761647],[-0.1967708333333333,0.014259259259259343,2.0703999999761606],[-0.1998958333333333,0.04296296296296305,2.0875000000000057],[-0.1998958333333333,0.04296296296296305,2.1033000000119273],[-0.20302083333333332,0.07166666666666675,2.1200000000000045],[-0.21000000000000002,0.0955555555555556,2.136600000023847],[-0.16854166666666662,0.11333333333333341,2.15419999998808],[-0.16854166666666662,0.11333333333333341,2.1698999999761526],[-0.1280208333333333,0.12462962962962955,2.186699999988079],[-0.08697916666666666,0.12888888888888894,2.2036000000238403],[-0.04593750000000003,0.1331481481481481,2.2205000000000013],[-0.04593750000000003,0.1331481481481481,2.2366000000238415],[-0.0013541666666666192,0.16111111111111112,2.2533000000119188],[0.05145833333333331,0.17925925925925917,2.270800000011917],[0.1053124999999999,0.18074074074074079,2.288699999988083],[0.14291666666666672,0.17296296296296293,2.3059999999999974],[0.1805208333333333,0.16518518518518527,2.323300000011926],[0.22197916666666656,0.16222222222222227,2.3386000000238454],[0.21052083333333324,0.16018518518518518,2.3576999999880854],[0.21052083333333324,0.16018518518518518,2.3700000000000045],[0.2,0.1646296296296296,2.386699999988082],[0.20458333333333342,0.1925925925925926,2.4036999999880777],[0.1961458333333333,0.18314814814814812,2.4201999999880854],[0.1881249999999999,0.15907407407407403,2.439100000023842],[0.17510416666666656,0.13648148148148156,2.458399999976166],[0.17510416666666656,0.13648148148148156,2.469999999999999],[0.15968749999999995,0.1388888888888889,2.4866000000238415],[0.15656249999999997,0.11555555555555551,2.5049999999999955],[0.16083333333333344,0.11648148148148144,2.521800000011922],[0.1681250000000001,0.08944444444444435,2.541499999999999],[0.1681250000000001,0.08944444444444435,2.5548999999761577],[0.1640625,0.09092592592592597,2.5700000000000074],[0.1640625,0.09092592592592597,2.58660000002385],[0.16593749999999996,0.051666666666666625,2.6033000000119273],[0.15958333333333338,0.01722222222222214,2.6208000000119256],[0.15677083333333333,0.01185185185185181,2.6373999999761537],[0.15677083333333333,0.01185185185185181,2.6536999999880777],[0.15510416666666677,0.007407407407407408,2.6701000000238366],[0.1482291666666666,0.008148148148148106,2.691500000000005],[0.1273958333333333,-0.027777777777777776,2.707499999999996],[0.1068749999999999,-0.03722222222222227,2.7248999999761594],[0.08510416666666672,-0.05592592592592591,2.743100000023844],[0.08510416666666672,-0.05592592592592591,2.754000000000005],[0.04354166666666662,-0.05333333333333336,2.770100000023845],[0.02791666666666662,-0.0705555555555556,2.7936000000238437],[0.02791666666666662,-0.0705555555555556,2.8034999999999997],[0.019687499999999976,-0.026851851851851852,2.8203999999761606],[0.006562499999999953,-0.0035185185185184764,2.8406000000238407],[0.006562499999999953,-0.0035185185185184764,2.856399999976162],[-0.006666666666666643,0.05388888888888893,2.8701000000238395],[-0.0048958333333333805,0.10796296296296289,2.886699999988082],[-0.001145833333333357,0.16592592592592598,2.9051000000238503],[-0.001145833333333357,0.16592592592592598,2.9201000000238366],[-0.002812500000000047,0.20833333333333334,2.936800000011928],[-0.008437500000000023,0.24092592592592596,2.957600000023845],[-0.025833333333333285,0.20925925925925926,2.972199999988078],[-0.02645833333333331,0.18425925925925926,2.9873000000119276],[-0.006666666666666643,0.18925925925925935,3.006300000011919],[-0.024270833333333287,0.16500000000000004,3.020899999976166],[-0.034062500000000044,0.15111111111111114,3.0368000000119224],[-0.03885416666666662,0.10333333333333325,3.054199999988086],[-0.05239583333333329,0.06277777777777774,3.0721000000238377],[-0.07916666666666666,0.0198148148148149,3.086899999976154],[-0.06041666666666667,0.006481481481481481,3.103399999976162],[-0.04020833333333336,0.004444444444444402,3.1201000000238395],[-0.014374999999999952,0.051666666666666625,3.138300000011924],[-0.008437500000000023,0.08148148148148149,3.154399999976164],[-0.008437500000000023,0.08148148148148149,3.1700000000000017],[-0.029375000000000047,0.06092592592592588,3.1911000000238374],[-0.029375000000000047,0.06092592592592588,3.2035000000000053],[-0.02374999999999995,0.038703703703703664,3.220100000023848],[-0.006666666666666643,-0.006296296296296254,3.2366000000238415],[-0.00635416666666669,-0.04888888888888885,3.2533000000119188],[-0.00635416666666669,-0.04888888888888885,3.269899999976161],[-0.01583333333333338,-0.09944444444444442,3.2866999999880875],[-0.00791666666666669,-0.11814814814814817,3.303300000011916],[-0.0032291666666666905,-0.14759259259259258,3.3228000000119238],[-0.01416666666666669,-0.18518518518518517,3.339500000000001],[-0.02333333333333331,-0.18833333333333332,3.3546999999880853],[-0.017499999999999953,-0.19074074074074074,3.3698999999761554],[0.011562500000000024,-0.20870370370370367,3.386699999988082],[0.011562500000000024,-0.20870370370370367,3.4031999999880753],[0.04083333333333338,-0.18574074074074076,3.4200000000000017],[0.06197916666666667,-0.14370370370370375,3.4366000000238444],[0.10447916666666662,-0.09592592592592594,3.4533000000119216],[0.10447916666666662,-0.09592592592592594,3.472199999988078],[0.121875,-0.0492592592592593,3.486699999988076],[0.14968750000000006,-0.02240740740740745,3.5041999999880744],[0.1415625000000001,-0.007407407407407408,3.5201999999880798],[0.1415625000000001,-0.007407407407407408,3.5388999999761666],[0.15395833333333328,0.0031481481481482323,3.5538000000119183],[0.15395833333333328,0.0031481481481482323,3.5700000000000074],[0.15593750000000003,-0.03814814814814819,3.590300000011922],[0.17135416666666667,-0.03925925925925934,3.6066999999880807],[0.1571875000000001,-0.03314814814814811,3.622100000023849],[0.15104166666666666,-0.035740740740740656,3.6368999999761655],[0.12781250000000005,-0.06500000000000004,3.6555000000000035],[0.12781250000000005,-0.06500000000000004,3.6701000000238366],[0.09458333333333328,-0.08888888888888889,3.686699999988079],[0.09822916666666662,-0.07777777777777778,3.703399999976156],[0.09604166666666672,-0.09833333333333337,3.719899999976164],[0.12385416666666677,-0.0977777777777778,3.7406000000238464],[0.09958333333333323,-0.0940740740740741,3.7568000000119213],[0.11427083333333338,-0.06703703703703702,3.771500000000003],[0.11583333333333339,-0.07999999999999997,3.7901999999880758],[0.1259375000000001,-0.08129629629629626,3.8075000000000045],[0.12531249999999997,-0.10407407407407405,3.822500000000005],[0.1203125,-0.0772222222222222,3.8366999999880846],[0.12531249999999997,-0.055740740740740785,3.8533000000119273],[0.1267708333333334,-0.06185185185185181,3.870399999976158],[0.11947916666666672,-0.04592592592592584,3.886600000023847],[0.09114583333333333,-0.07388888888888885,3.9033000000119245],[0.1125,-0.09388888888888887,3.9198999999761526],[0.10354166666666677,-0.11981481481481479,3.936800000011928],[0.09645833333333324,-0.11314814814814819,3.9540000000000077],[0.07927083333333323,-0.09759259259259258,3.969899999976164],[0.05635416666666669,-0.09351851851851851,3.9866000000238415],[0.033958333333333354,-0.11148148148148146,4.003399999976153],[0.03104166666666662,-0.10666666666666672,4.019999999999996],[0.01572916666666669,-0.11888888888888886,4.036600000023839],[-0.016666666666666666,-0.14777777777777779,4.053300000011916],[-0.042604166666666644,-0.13370370370370369,4.070000000000007],[-0.06145833333333333,-0.1051851851851852,4.087699999988075],[-0.06864583333333331,-0.08722222222222227,4.103300000011927],[-0.06041666666666667,-0.06574074074074074,4.119899999976155],[-0.058854166666666666,-0.06370370370370367,4.136600000023847],[-0.04666666666666662,-0.06648148148148143,4.155199999988085],[-0.02677083333333338,-0.056296296296296254,4.170399999976155],[-0.033958333333333354,-0.09092592592592597,4.186699999988079],[-0.029999999999999954,-0.11666666666666667,4.203199999988087],[-0.008958333333333356,-0.1257407407407407,4.220500000000001],[-0.00791666666666669,-0.11092592592592589,4.2366000000238415],[-0.01395833333333331,-0.11055555555555553,4.253300000011919],[-0.010520833333333358,-0.10611111111111113,4.269999999999996],[-0.019791666666666666,-0.12129629629629629,4.286500000000004],[-0.025416666666666643,-0.1403703703703704,4.303199999988081],[-0.04479166666666667,-0.1522222222222222,4.320499999999996],[-0.05333333333333338,-0.1624074074074074,4.33660000002385],[-0.05635416666666669,-0.17740740740740743,4.354100000023848],[-0.059583333333333384,-0.17333333333333337,4.374699999988081],[-0.059583333333333384,-0.17333333333333337,4.386800000011917],[-0.052083333333333336,-0.13129629629629624,4.403399999976159],[-0.04885416666666664,-0.16148148148148145,4.426600000023839],[-0.04885416666666664,-0.16148148148148145,4.436600000023844],[-0.03583333333333331,-0.152962962962963,4.453500000000005],[-0.03718750000000005,-0.12037037037037036,4.470100000023848],[-0.0546875,-0.09962962962962965,4.493699999988081],[-0.0546875,-0.09962962962962965,4.503399999976153],[-0.06072916666666662,-0.09203703703703701,4.520100000023845],[-0.05531250000000002,-0.06518518518518517,4.5366999999880875],[-0.05531250000000002,-0.06518518518518517,4.560199999988086],[-0.03937499999999995,-0.052037037037037076,4.570199999988077],[-0.03937499999999995,-0.052037037037037076,4.587000000000003],[-0.03854166666666667,-0.020370370370370372,4.603600000023846],[-0.03854166666666667,-0.020370370370370372,4.625199999988084],[-0.03947916666666664,-0.000925925925925926,4.636699999988082],[-0.05499999999999995,-0.021296296296296296,4.653600000023843],[-0.04208333333333331,-0.0014814814814813973,4.673699999988074],[-0.03822916666666672,-0.00592592592592601,4.689899999976163],[-0.027499999999999976,-0.02388888888888885,4.705800000011919],[-0.0006250000000000236,-0.030000000000000086,4.723399999976166],[0.011979166666666667,-0.012407407407407492,4.739100000023839],[0.014895833333333285,-0.019999999999999917,4.757399999976158],[-0.009895833333333333,-0.01722222222222214,4.776600000023848],[-0.009895833333333333,-0.01722222222222214,4.786800000011922],[-0.013645833333333357,0.012037037037037037,4.8035],[-0.01260416666666669,0.028703703703703703,4.821300000011917],[-0.00458333333333331,0.039074074074074115,4.841800000011929],[-0.00458333333333331,0.039074074074074115,4.854100000023848],[-0.006979166666666714,0.03888888888888889,4.8701000000238395],[-0.004375000000000047,0.028518518518518478,4.8886000000238425],[-0.015416666666666618,0.014074074074074116,4.909100000023841],[-0.03187500000000002,-0.0011111111111111532,4.924800000011928],[-0.04479166666666667,-0.008703703703703788,4.941500000000005],[-0.04479166666666667,-0.008703703703703788,4.954000000000008],[-0.05260416666666667,0.0025925925925925505,4.974100000023839],[-0.044062499999999956,0.012037037037037037,4.991]]","[0.0003000000119186552,0.03939999997615473,0.05330000001191593,0.06989999997615826,0.08669999998808464,0.1033000000119273,0.12019999998807407,0.1366999999880818,0.15330000001192445,0.1700000000000017,0.1869999999999976,0.20369999998807486,0.21999999999999886,0.23669999998807612,0.25369999998808623,0.27010000002384515,0.2866999999880875,0.3033000000119159,0.32049999999999557,0.33800000000000807,0.3534999999999968,0.37000000000000455,0.3868000000119167,0.40330000001192445,0.4200000000000017,0.43660000002384436,0.45350000000000534,0.4713000000119223,0.4899999999999949,0.5043000000119235,0.519999999999996,0.5366000000238387,0.5534999999999997,0.571800000011919,0.5875000000000057,0.6048000000119202,0.6200000000000045,0.6366000000238472,0.6533000000119245,0.6700000000000017,0.6866000000238444,0.7033000000119216,0.7199999999999989,0.7366999999880761,0.7533999999761534,0.769999999999996,0.7866000000238387,0.8073999999761554,0.8228000000119238,0.8393999999761661,0.8568000000119156,0.8700000000000045,0.8866999999880818,0.9031999999880753,0.9200000000000017,0.9366000000238444,0.9556999999880844,0.9736000000238363,0.9899999999999949,1.0065000000000026,1.0234999999999985,1.0398000000119225,1.0570000000000022,1.075399999976156,1.08660000002385,1.1033000000119273,1.1200000000000045,1.1366000000238472,1.153399999976159,1.1700000000000017,1.1869999999999976,1.2033999999761562,1.2199999999999989,1.2366000000238415,1.2536000000238374,1.269899999976161,1.2866000000238387,1.303300000011916,1.3200000000000074,1.33660000002385,1.3548999999761548,1.3708999999761602,1.3866999999880818,1.4033000000119245,1.4226999999880832,1.4373000000119163,1.4543000000119264,1.4703999999761663,1.4908999999761647,1.5066000000238375,1.521600000023838,1.5371999999880757,1.5534999999999997,1.5700000000000074,1.5913000000119268,1.6033000000119273,1.6200000000000045,1.6366999999880818,1.653399999976159,1.6698999999761526,1.6878999999761533,1.7036999999880749,1.7199999999999989,1.7366000000238415,1.7551999999880792,1.7750000000000057,1.7866999999880875,1.8033999999761647,1.8236999999880794,1.839500000000001,1.8553999999761572,1.8731999999880742,1.890500000000003,1.9063000000119246,1.9200000000000017,1.9366000000238444,1.9546999999880796,1.9738999999761546,1.9895000000000067,2.0066999999880863,2.021600000023838,2.0366000000238387,2.0533999999761647,2.0703999999761606,2.0875000000000057,2.1033000000119273,2.1200000000000045,2.136600000023847,2.15419999998808,2.1698999999761526,2.186699999988079,2.2036000000238403,2.2205000000000013,2.2366000000238415,2.2533000000119188,2.270800000011917,2.288699999988083,2.3059999999999974,2.323300000011926,2.3386000000238454,2.3576999999880854,2.3700000000000045,2.386699999988082,2.4036999999880777,2.4201999999880854,2.439100000023842,2.458399999976166,2.469999999999999,2.4866000000238415,2.5049999999999955,2.521800000011922,2.541499999999999,2.5548999999761577,2.5700000000000074,2.58660000002385,2.6033000000119273,2.6208000000119256,2.6373999999761537,2.6536999999880777,2.6701000000238366,2.691500000000005,2.707499999999996,2.7248999999761594,2.743100000023844,2.754000000000005,2.770100000023845,2.7936000000238437,2.8034999999999997,2.8203999999761606,2.8406000000238407,2.856399999976162,2.8701000000238395,2.886699999988082,2.9051000000238503,2.9201000000238366,2.936800000011928,2.957600000023845,2.972199999988078,2.9873000000119276,3.006300000011919,3.020899999976166,3.0368000000119224,3.054199999988086,3.0721000000238377,3.086899999976154,3.103399999976162,3.1201000000238395,3.138300000011924,3.154399999976164,3.1700000000000017,3.1911000000238374,3.2035000000000053,3.220100000023848,3.2366000000238415,3.2533000000119188,3.269899999976161,3.2866999999880875,3.303300000011916,3.3228000000119238,3.339500000000001,3.3546999999880853,3.3698999999761554,3.386699999988082,3.4031999999880753,3.4200000000000017,3.4366000000238444,3.4533000000119216,3.472199999988078,3.486699999988076,3.5041999999880744,3.5201999999880798,3.5388999999761666,3.5538000000119183,3.5700000000000074,3.590300000011922,3.6066999999880807,3.622100000023849,3.6368999999761655,3.6555000000000035,3.6701000000238366,3.686699999988079,3.703399999976156,3.719899999976164,3.7406000000238464,3.7568000000119213,3.771500000000003,3.7901999999880758,3.8075000000000045,3.822500000000005,3.8366999999880846,3.8533000000119273,3.870399999976158,3.886600000023847,3.9033000000119245,3.9198999999761526,3.936800000011928,3.9540000000000077,3.969899999976164,3.9866000000238415,4.003399999976153,4.019999999999996,4.036600000023839,4.053300000011916,4.070000000000007,4.087699999988075,4.103300000011927,4.119899999976155,4.136600000023847,4.155199999988085,4.170399999976155,4.186699999988079,4.203199999988087,4.220500000000001,4.2366000000238415,4.253300000011919,4.269999999999996,4.286500000000004,4.303199999988081,4.320499999999996,4.33660000002385,4.354100000023848,4.374699999988081,4.386800000011917,4.403399999976159,4.426600000023839,4.436600000023844,4.453500000000005,4.470100000023848,4.493699999988081,4.503399999976153,4.520100000023845,4.5366999999880875,4.560199999988086,4.570199999988077,4.587000000000003,4.603600000023846,4.625199999988084,4.636699999988082,4.653600000023843,4.673699999988074,4.689899999976163,4.705800000011919,4.723399999976166,4.739100000023839,4.757399999976158,4.776600000023848,4.786800000011922,4.8035,4.821300000011917,4.841800000011929,4.854100000023848,4.8701000000238395,4.8886000000238425,4.909100000023841,4.924800000011928,4.941500000000005,4.954000000000008,4.974100000023839,4.991]","[1733036885941,1733036885974,1733036885988,1733036886004,1733036886021,1733036886038,1733036886055,1733036886071,1733036886088,1733036886104,1733036886121,1733036886138,1733036886154,1733036886171,1733036886188,1733036886205,1733036886221,1733036886238,1733036886255,1733036886272,1733036886288,1733036886304,1733036886321,1733036886338,1733036886354,1733036886371,1733036886388,1733036886406,1733036886425,1733036886439,1733036886454,1733036886471,1733036886488,1733036886506,1733036886522,1733036886539,1733036886555,1733036886571,1733036886588,1733036886605,1733036886621,1733036886638,1733036886654,1733036886671,1733036886688,1733036886704,1733036886721,1733036886742,1733036886757,1733036886774,1733036886791,1733036886804,1733036886821,1733036886838,1733036886855,1733036886871,1733036886890,1733036886908,1733036886924,1733036886941,1733036886958,1733036886974,1733036886992,1733036887010,1733036887021,1733036887038,1733036887054,1733036887071,1733036887088,1733036887104,1733036887122,1733036887138,1733036887155,1733036887171,1733036887188,1733036887204,1733036887221,1733036887238,1733036887254,1733036887271,1733036887289,1733036887305,1733036887321,1733036887338,1733036887357,1733036887372,1733036887389,1733036887405,1733036887425,1733036887441,1733036887456,1733036887472,1733036887488,1733036887505,1733036887526,1733036887538,1733036887555,1733036887571,1733036887588,1733036887604,1733036887622,1733036887638,1733036887654,1733036887671,1733036887690,1733036887709,1733036887721,1733036887738,1733036887758,1733036887774,1733036887790,1733036887808,1733036887825,1733036887841,1733036887854,1733036887871,1733036887889,1733036887908,1733036887924,1733036887941,1733036887956,1733036887971,1733036887988,1733036888005,1733036888022,1733036888038,1733036888055,1733036888071,1733036888089,1733036888104,1733036888121,1733036888138,1733036888155,1733036888171,1733036888188,1733036888205,1733036888223,1733036888241,1733036888258,1733036888273,1733036888292,1733036888305,1733036888321,1733036888338,1733036888355,1733036888374,1733036888393,1733036888405,1733036888421,1733036888439,1733036888456,1733036888476,1733036888489,1733036888505,1733036888521,1733036888538,1733036888555,1733036888572,1733036888588,1733036888605,1733036888626,1733036888642,1733036888659,1733036888678,1733036888689,1733036888705,1733036888728,1733036888738,1733036888755,1733036888775,1733036888791,1733036888805,1733036888821,1733036888840,1733036888855,1733036888871,1733036888892,1733036888907,1733036888922,1733036888941,1733036888955,1733036888971,1733036888989,1733036889007,1733036889021,1733036889038,1733036889055,1733036889073,1733036889089,1733036889105,1733036889126,1733036889138,1733036889155,1733036889171,1733036889188,1733036889204,1733036889221,1733036889238,1733036889257,1733036889274,1733036889289,1733036889304,1733036889321,1733036889338,1733036889355,1733036889371,1733036889388,1733036889407,1733036889421,1733036889439,1733036889455,1733036889473,1733036889488,1733036889505,1733036889525,1733036889541,1733036889557,1733036889571,1733036889590,1733036889605,1733036889621,1733036889638,1733036889654,1733036889675,1733036889691,1733036889706,1733036889725,1733036889742,1733036889757,1733036889771,1733036889788,1733036889805,1733036889821,1733036889838,1733036889854,1733036889871,1733036889888,1733036889904,1733036889921,1733036889938,1733036889955,1733036889971,1733036889988,1733036890004,1733036890022,1733036890038,1733036890054,1733036890071,1733036890090,1733036890105,1733036890121,1733036890138,1733036890155,1733036890171,1733036890188,1733036890204,1733036890221,1733036890238,1733036890255,1733036890271,1733036890289,1733036890309,1733036890321,1733036890338,1733036890361,1733036890371,1733036890388,1733036890405,1733036890428,1733036890438,1733036890455,1733036890471,1733036890495,1733036890505,1733036890521,1733036890538,1733036890560,1733036890571,1733036890588,1733036890608,1733036890624,1733036890640,1733036890658,1733036890674,1733036890692,1733036890711,1733036890721,1733036890738,1733036890756,1733036890776,1733036890789,1733036890805,1733036890823,1733036890844,1733036890859,1733036890876,1733036890889,1733036890909,1733036890926]","[[883.6,626.4],[883.6,626.4],[894.5,625.5],[904,622.6],[903.9,605.6],[903.8,588.6],[909.6,579],[915.4,569.4],[913.1,555.4],[911,548.6],[924,548.1],[924.9,540.9],[919,540.5],[904,542.2],[892.9,551.9],[892.4,551.5],[889.7,545.1],[887.9,536.9],[894.2,533.1],[900.5,529.3],[890.8,520.1],[887.4,515.1],[892.8,512.2],[906.7,507.3],[910.4,494.9],[900.8,498.9],[900.6,501.2],[895.2,505.2],[884,516],[877.8,520.4],[891.5,529.3],[891.5,529.3],[905.2,538.2],[900.4,534.3],[899.9,529.6],[910.1,526.6],[924.6,525],[922.9,528.3],[925.5,531.7],[929.5,543.6],[937.5,552.6],[919.6,562.9],[901.7,573.2],[901.7,573.2],[893.5,594.2],[875.9,601.8],[865.5,612.1],[853.5,614.7],[847,608.5],[840.5,602.3],[830.5,581.9],[830.5,581.9],[811.5,570.8],[808.9,548],[799,531.6],[780.8,527.5],[771,534],[776.9,542.4],[779.6,543.2],[774.7,540.2],[774.4,541.7],[769.3,547.6],[765.5,551.6],[771.5,560.2],[771.5,560.2],[790.4,563.3],[809.6,553.2],[825.5,546.7],[825.5,546.7],[835.3,536.4],[852.7,535.2],[879,543.4],[879,543.4],[891.2,542.7],[913.8,543.9],[935.1,547],[935.1,547],[941.7,540.7],[940.4,545.3],[947.1,550.8],[945.6,554.7],[943.8,563.1],[943.8,563.1],[937.6,570],[919.8,570],[923.8,578.3],[930.1,579.2],[928.5,569],[932.1,570.1],[935.4,573.8],[940.2,571],[953.2,569.8],[953.2,569.8],[939.6,566.7],[921.2,568.6],[921.2,568.6],[914.4,577.4],[900.8,575.5],[881,567.3],[869.1,570.2],[846.3,587.3],[826.1,590],[815.4,591.7],[804.9,583.4],[800.2,582.6],[807.4,577.5],[807.4,577.5],[814.6,572.4],[810.1,577.5],[819.8,581.3],[839.4,593.1],[844.8,582.9],[856.4,582.6],[852.3,571.5],[848,570.4],[847.5,564.2],[836.4,566.4],[825.3,568.6],[822.2,565.5],[811.1,570],[786.3,561.6],[786.3,561.6],[782.3,555.1],[771.1,547.7],[768.1,563.2],[768.1,563.2],[765.1,578.7],[758.4,591.6],[798.2,601.2],[798.2,601.2],[837.1,607.3],[876.5,609.6],[915.9,611.9],[915.9,611.9],[958.7,627],[1009.4,636.8],[1061.1,637.6],[1097.2,633.4],[1133.3,629.2],[1173.1,627.6],[1162.1,626.5],[1162.1,626.5],[1152,628.9],[1156.4,644],[1148.3,638.9],[1140.6,625.9],[1128.1,613.7],[1128.1,613.7],[1113.3,615],[1110.3,602.4],[1114.4,602.9],[1121.4,588.3],[1121.4,588.3],[1117.5,589.1],[1117.5,589.1],[1119.3,567.9],[1113.2,549.3],[1110.5,546.4],[1110.5,546.4],[1108.9,544],[1102.3,544.4],[1082.3,525],[1062.6,519.9],[1041.7,509.8],[1041.7,509.8],[1001.8,511.2],[986.8,501.9],[986.8,501.9],[978.9,525.5],[966.3,538.1],[966.3,538.1],[953.6,569.1],[955.3,598.3],[958.9,629.6],[958.9,629.6],[957.3,652.5],[951.9,670.1],[935.2,653],[934.6,639.5],[953.6,642.2],[936.7,629.1],[927.3,621.6],[922.7,595.8],[909.7,573.9],[884,550.7],[902,543.5],[921.4,542.4],[946.2,567.9],[951.9,584],[951.9,584],[931.8,572.9],[931.8,572.9],[937.2,560.9],[953.6,536.6],[953.9,513.6],[953.9,513.6],[944.8,486.3],[952.4,476.2],[956.9,460.3],[946.4,440],[937.6,438.3],[943.2,437],[971.1,427.3],[971.1,427.3],[999.2,439.7],[1019.5,462.4],[1060.3,488.2],[1060.3,488.2],[1077,513.4],[1103.7,527.9],[1095.9,536],[1095.9,536],[1107.8,541.7],[1107.8,541.7],[1109.7,519.4],[1124.5,518.8],[1110.9,522.1],[1105,520.7],[1082.7,504.9],[1082.7,504.9],[1050.8,492],[1054.3,498],[1052.2,486.9],[1078.9,487.2],[1055.6,489.2],[1069.7,503.8],[1071.2,496.8],[1080.9,496.1],[1080.3,483.8],[1075.5,498.3],[1080.3,509.9],[1081.7,506.6],[1074.7,515.2],[1047.5,500.1],[1068,489.3],[1059.4,475.3],[1052.6,478.9],[1036.1,487.3],[1014.1,489.5],[992.6,479.8],[989.8,482.4],[975.1,475.8],[944,460.2],[919.1,467.8],[901,483.2],[894.1,492.9],[902,504.5],[903.5,505.6],[915.2,504.1],[934.3,509.6],[927.4,490.9],[931.2,477],[951.4,472.1],[952.4,480.1],[946.6,480.3],[949.9,482.7],[941,474.5],[935.6,464.2],[917,457.8],[908.8,452.3],[905.9,444.2],[902.8,446.4],[902.8,446.4],[910,469.1],[913.1,452.8],[913.1,452.8],[925.6,457.4],[924.3,475],[907.5,486.2],[907.5,486.2],[901.7,490.3],[906.9,504.8],[906.9,504.8],[922.2,511.9],[922.2,511.9],[923,529],[923,529],[922.1,539.5],[907.2,528.5],[919.6,539.2],[923.3,536.8],[933.6,527.1],[959.4,523.8],[971.5,533.3],[974.3,529.2],[950.5,530.7],[950.5,530.7],[946.9,546.5],[947.9,555.5],[955.6,561.1],[955.6,561.1],[953.3,561],[955.8,555.4],[945.2,547.6],[929.4,539.4],[917,535.3],[917,535.3],[909.5,541.4],[917.7,546.5]]","[0,0.151169218]","[0.151169218,0.151169218]","[-0.151169218,0]","[-0.151169218,-0.151169218]","[0,0]","[0.151169218,0]","[0,-0.151169218]","[0.151169218,-0.151169218]",0,0,0,0,1,1,Smartphone,7,7,15,9
