inst1_resp.keys,inst1_resp.rt,calibrationMouse.x,calibrationMouse.y,calibrationMouse.leftButton,calibrationMouse.midButton,calibrationMouse.rightButton,calibrationClick.x,calibrationClick.y,calibrationClick.leftButton,calibrationClick.midButton,calibrationClick.rightButton,calibrationClick.clicked_name,trialsc.thisRepN,trialsc.thisTrialN,trialsc.thisN,trialsc.thisIndex,trialsc.ran,calibration_x,calibration_y,participant,session,date,expName,psychopyVersion,OS,frameRate,ScreenRes_pixels,Camera_pixels,mouse_2.x,mouse_2.y,mouse_2.leftButton,mouse_2.midButton,mouse_2.rightButton,mouse_2.time,mouse_2.clicked_name,mouse.x,mouse.y,mouse.leftButton,mouse.midButton,mouse.rightButton,mouse.time,mouse.clicked_name,Choice,Trial,TrialDuration,MOUSE_GAZE,ET_GAZE,ET_GAZE_x_T,time,unixTime,ET_GAZE_NF,Loc_Option1_label,Loc_Option2_label,Loc_Cost_label,Loc_Qual_label,Loc_Option1_cost,Loc_Option2_cost,Loc_Option1_quality,Loc_Option2_quality,trials.thisRepN,trials.thisTrialN,trials.thisN,trials.thisIndex,trials.ran,Block,Device,cost1,qual1,cost2,qual2
space,1.2473,0.24375,-0.190740741,1,0,0,-0.666666667,0.337037037,1,0,0,calibration_square,0,0,0,3,1,-0.67,0.33,21,001,2024-12-02_13h10.17.060,Attention_exp_legacy,2023.1.0,Win32,60.60606061,,,,,,,,,,,,,,,,,,,,,,,,,,,,,,,,,,,,,,,,,,,,
,,,,,,,0.671875,0.677777778,1,0,0,calibration_square,0,1,1,19,1,0.67,0.67,21,001,2024-12-02_13h10.17.060,Attention_exp_legacy,2023.1.0,Win32,60.60606061,,,,,,,,,,,,,,,,,,,,,,,,,,,,,,,,,,,,,,,,,,,,
,,,,,,,-0.332291667,0.361111111,1,0,0,,0,2,2,7,1,-0.33,0.33,21,001,2024-12-02_13h10.17.060,Attention_exp_legacy,2023.1.0,Win32,60.60606061,,,,,,,,,,,,,,,,,,,,,,,,,,,,,,,,,,,,,,,,,,,,
,,,,,,,0.336458333,0.005555556,1,0,0,calibration_square,0,3,3,16,1,0.33,0,21,001,2024-12-02_13h10.17.060,Attention_exp_legacy,2023.1.0,Win32,60.60606061,,,,,,,,,,,,,,,,,,,,,,,,,,,,,,,,,,,,,,,,,,,,
,,,,,,,-0.673958333,0.011111111,1,0,0,,0,4,4,2,1,-0.67,0,21,001,2024-12-02_13h10.17.060,Attention_exp_legacy,2023.1.0,Win32,60.60606061,,,,,,,,,,,,,,,,,,,,,,,,,,,,,,,,,,,,,,,,,,,,
,,,,,,,0.001041667,0,1,0,0,calibration_square,0,5,5,11,1,0,0,21,001,2024-12-02_13h10.17.060,Attention_exp_legacy,2023.1.0,Win32,60.60606061,,,,,,,,,,,,,,,,,,,,,,,,,,,,,,,,,,,,,,,,,,,,
,,,,,,,-0.010416667,0.688888889,1,0,0,,0,6,6,13,1,0,0.67,21,001,2024-12-02_13h10.17.060,Attention_exp_legacy,2023.1.0,Win32,60.60606061,,,,,,,,,,,,,,,,,,,,,,,,,,,,,,,,,,,,,,,,,,,,
,,,,,,,-0.008333333,-0.668518519,1,0,0,calibration_square,0,7,7,9,1,0,-0.67,21,001,2024-12-02_13h10.17.060,Attention_exp_legacy,2023.1.0,Win32,60.60606061,,,,,,,,,,,,,,,,,,,,,,,,,,,,,,,,,,,,,,,,,,,,
,,,,,,,-0.660416667,-0.648148148,1,0,0,,0,8,8,0,1,-0.67,-0.67,21,001,2024-12-02_13h10.17.060,Attention_exp_legacy,2023.1.0,Win32,60.60606061,,,,,,,,,,,,,,,,,,,,,,,,,,,,,,,,,,,,,,,,,,,,
,,,,,,,-0.338541667,0.012962963,1,0,0,,0,9,9,6,1,-0.33,0,21,001,2024-12-02_13h10.17.060,Attention_exp_legacy,2023.1.0,Win32,60.60606061,,,,,,,,,,,,,,,,,,,,,,,,,,,,,,,,,,,,,,,,,,,,
,,,,,,,-0.320833333,-0.677777778,1,0,0,calibration_square,0,10,10,4,1,-0.33,-0.67,21,001,2024-12-02_13h10.17.060,Attention_exp_legacy,2023.1.0,Win32,60.60606061,,,,,,,,,,,,,,,,,,,,,,,,,,,,,,,,,,,,,,,,,,,,
,,,,,,,0.329166667,0.681481481,1,0,0,,0,11,11,18,1,0.33,0.67,21,001,2024-12-02_13h10.17.060,Attention_exp_legacy,2023.1.0,Win32,60.60606061,,,,,,,,,,,,,,,,,,,,,,,,,,,,,,,,,,,,,,,,,,,,
,,,,,,,0.332291667,-0.333333333,1,0,0,calibration_square,0,12,12,15,1,0.33,-0.33,21,001,2024-12-02_13h10.17.060,Attention_exp_legacy,2023.1.0,Win32,60.60606061,,,,,,,,,,,,,,,,,,,,,,,,,,,,,,,,,,,,,,,,,,,,
,,,,,,,-0.330208333,-0.331481481,1,0,0,calibration_square,0,13,13,5,1,-0.33,-0.33,21,001,2024-12-02_13h10.17.060,Attention_exp_legacy,2023.1.0,Win32,60.60606061,,,,,,,,,,,,,,,,,,,,,,,,,,,,,,,,,,,,,,,,,,,,
,,,,,,,0,0.338888889,1,0,0,calibration_square,0,14,14,12,1,0,0.33,21,001,2024-12-02_13h10.17.060,Attention_exp_legacy,2023.1.0,Win32,60.60606061,,,,,,,,,,,,,,,,,,,,,,,,,,,,,,,,,,,,,,,,,,,,
,,,,,,,-0.345833333,0.675925926,1,0,0,,0,15,15,8,1,-0.33,0.67,21,001,2024-12-02_13h10.17.060,Attention_exp_legacy,2023.1.0,Win32,60.60606061,,,,,,,,,,,,,,,,,,,,,,,,,,,,,,,,,,,,,,,,,,,,
,,,,,,,0.672916667,-0.657407407,1,0,0,,0,16,16,20,1,0.67,-0.67,21,001,2024-12-02_13h10.17.060,Attention_exp_legacy,2023.1.0,Win32,60.60606061,,,,,,,,,,,,,,,,,,,,,,,,,,,,,,,,,,,,,,,,,,,,
,,,,,,,-0.684375,-0.344444444,1,0,0,,0,17,17,1,1,-0.67,-0.33,21,001,2024-12-02_13h10.17.060,Attention_exp_legacy,2023.1.0,Win32,60.60606061,,,,,,,,,,,,,,,,,,,,,,,,,,,,,,,,,,,,,,,,,,,,
,,,,,,,0.344791667,0.322222222,1,0,0,,0,18,18,17,1,0.33,0.33,21,001,2024-12-02_13h10.17.060,Attention_exp_legacy,2023.1.0,Win32,60.60606061,,,,,,,,,,,,,,,,,,,,,,,,,,,,,,,,,,,,,,,,,,,,
,,,,,,,0.346875,-0.677777778,1,0,0,,0,19,19,14,1,0.33,-0.67,21,001,2024-12-02_13h10.17.060,Attention_exp_legacy,2023.1.0,Win32,60.60606061,,,,,,,,,,,,,,,,,,,,,,,,,,,,,,,,,,,,,,,,,,,,
,,,,,,,-0.002083333,-0.333333333,1,0,0,calibration_square,0,20,20,10,1,0,-0.33,21,001,2024-12-02_13h10.17.060,Attention_exp_legacy,2023.1.0,Win32,60.60606061,,,,,,,,,,,,,,,,,,,,,,,,,,,,,,,,,,,,,,,,,,,,
,,,,,,,,,,,,,,,,,,,,21,001,2024-12-02_13h10.17.060,Attention_exp_legacy,2023.1.0,Win32,60.60606061,"[1920,1080]","[640,480]",[0.016666666666666666],[-0.5148148148148148],[1],[0],[0],[1.0963999999994414],"[""StartButton""]",[0.04375],[0.31296296296296294],[1],[0],[0],[3.3223999999994405],"[""Option1_label""]",Option1_label,1,4.3454,"[[0.016666666666666666,-0.5092592592592593],[0.016666666666666666,-0.5092592592592593],[0.016666666666666666,-0.5092592592592593],[0.016666666666666666,-0.5092592592592593],[0.016666666666666666,-0.5092592592592593],[0.016666666666666666,-0.5092592592592593],[0.016666666666666666,-0.5092592592592593],[0.016666666666666666,-0.5092592592592593],[0.016666666666666666,-0.5092592592592593],[0.016666666666666666,-0.5092592592592593],[0.016666666666666666,-0.5092592592592593],[0.016666666666666666,-0.5092592592592593],[0.016666666666666666,-0.5092592592592593],[0.016666666666666666,-0.5092592592592593],[0.016666666666666666,-0.5092592592592593],[0.016666666666666666,-0.5092592592592593],[0.016666666666666666,-0.5092592592592593],[0.016666666666666666,-0.5092592592592593],[0.016666666666666666,-0.5092592592592593],[0.016666666666666666,-0.5092592592592593],[0.016666666666666666,-0.5092592592592593],[0.016666666666666666,-0.5092592592592593],[0.016666666666666666,-0.5092592592592593],[0.016666666666666666,-0.5092592592592593],[0.016666666666666666,-0.5092592592592593],[0.016666666666666666,-0.5092592592592593],[0.016666666666666666,-0.5092592592592593],[0.016666666666666666,-0.5092592592592593],[0.016666666666666666,-0.5092592592592593],[0.016666666666666666,-0.5092592592592593],[0.016666666666666666,-0.5092592592592593],[0.016666666666666666,-0.5092592592592593],[0.016666666666666666,-0.5092592592592593],[0.016666666666666666,-0.5092592592592593],[0.016666666666666666,-0.5092592592592593],[0.016666666666666666,-0.5092592592592593],[0.016666666666666666,-0.5092592592592593],[0.016666666666666666,-0.5092592592592593],[0.016666666666666666,-0.5092592592592593],[0.016666666666666666,-0.5092592592592593],[0.016666666666666666,-0.5092592592592593],[0.016666666666666666,-0.5092592592592593],[0.016666666666666666,-0.5092592592592593],[0.016666666666666666,-0.5092592592592593],[0.016666666666666666,-0.5092592592592593],[0.016666666666666666,-0.5092592592592593],[0.016666666666666666,-0.5092592592592593],[0.016666666666666666,-0.5092592592592593],[0.016666666666666666,-0.5092592592592593],[0.016666666666666666,-0.5092592592592593],[0.016666666666666666,-0.5092592592592593],[0.016666666666666666,-0.5092592592592593],[0.016666666666666666,-0.5092592592592593],[0.016666666666666666,-0.5092592592592593],[0.016666666666666666,-0.5092592592592593],[0.016666666666666666,-0.5092592592592593],[0.016666666666666666,-0.5092592592592593],[0.016666666666666666,-0.5092592592592593],[0.016666666666666666,-0.5092592592592593],[0.016666666666666666,-0.5092592592592593],[0.016666666666666666,-0.5092592592592593],[0.016666666666666666,-0.5092592592592593],[0.016666666666666666,-0.5092592592592593],[0.016666666666666666,-0.5092592592592593],[0.016666666666666666,-0.5092592592592593],[0.016666666666666666,-0.5092592592592593],[0.016666666666666666,-0.5092592592592593],[0.016666666666666666,-0.5092592592592593],[0.016666666666666666,-0.5092592592592593],[0.016666666666666666,-0.5092592592592593],[0.016666666666666666,-0.5092592592592593],[0.016666666666666666,-0.5092592592592593],[0.016666666666666666,-0.5092592592592593],[0.016666666666666666,-0.5092592592592593],[0.016666666666666666,-0.5092592592592593],[0.016666666666666666,-0.5092592592592593],[0.016666666666666666,-0.5092592592592593],[0.016666666666666666,-0.5092592592592593],[0.016666666666666666,-0.5092592592592593],[0.016666666666666666,-0.5092592592592593],[0.016666666666666666,-0.5092592592592593],[0.016666666666666666,-0.5092592592592593],[0.016666666666666666,-0.5092592592592593],[0.016666666666666666,-0.5092592592592593],[0.016666666666666666,-0.5092592592592593],[0.016666666666666666,-0.5092592592592593],[0.016666666666666666,-0.5092592592592593],[0.016666666666666666,-0.5092592592592593],[0.016666666666666666,-0.5092592592592593],[0.016666666666666666,-0.5092592592592593],[0.016666666666666666,-0.5092592592592593],[0.016666666666666666,-0.5092592592592593],[0.016666666666666666,-0.5092592592592593],[0.016666666666666666,-0.5092592592592593],[0.016666666666666666,-0.5092592592592593],[0.016666666666666666,-0.5092592592592593],[0.016666666666666666,-0.5092592592592593],[0.016666666666666666,-0.5092592592592593],[0.016666666666666666,-0.5092592592592593],[0.016666666666666666,-0.5092592592592593],[0.016666666666666666,-0.5092592592592593],[0.016666666666666666,-0.5092592592592593],[0.016666666666666666,-0.5092592592592593],[0.016666666666666666,-0.5092592592592593],[0.016666666666666666,-0.5092592592592593],[0.016666666666666666,-0.5092592592592593],[0.016666666666666666,-0.49074074074074076],[0.020833333333333332,-0.4537037037037037],[0.023958333333333335,-0.39814814814814814],[0.028125,-0.34444444444444444],[0.035416666666666666,-0.27037037037037037],[0.03854166666666667,-0.22592592592592592],[0.04375,-0.17962962962962964],[0.05,-0.13333333333333333],[0.05416666666666667,-0.07962962962962963],[0.058333333333333334,-0.027777777777777776],[0.06145833333333333,0.009259259259259259],[0.06354166666666666,0.03333333333333333],[0.065625,0.04814814814814815],[0.06666666666666667,0.06481481481481481],[0.06666666666666667,0.07962962962962963],[0.06770833333333333,0.09259259259259259],[0.06770833333333333,0.10740740740740741],[0.06770833333333333,0.12407407407407407],[0.06770833333333333,0.14444444444444443],[0.06770833333333333,0.16666666666666666],[0.06770833333333333,0.1925925925925926],[0.065625,0.2074074074074074],[0.06354166666666666,0.22037037037037038],[0.0625,0.23148148148148148],[0.06041666666666667,0.24259259259259258],[0.057291666666666664,0.2574074074074074],[0.053125,0.2777777777777778],[0.052083333333333336,0.2833333333333333],[0.046875,0.29814814814814816],[0.04479166666666667,0.3037037037037037],[0.04479166666666667,0.3074074074074074],[0.04479166666666667,0.30925925925925923],[0.04479166666666667,0.30925925925925923],[0.04479166666666667,0.30925925925925923],[0.04479166666666667,0.3111111111111111],[0.04479166666666667,0.3111111111111111],[0.04479166666666667,0.3111111111111111],[0.04479166666666667,0.3111111111111111],[0.04479166666666667,0.3111111111111111],[0.04479166666666667,0.3111111111111111],[0.04479166666666667,0.3111111111111111],[0.04479166666666667,0.3111111111111111],[0.04479166666666667,0.3111111111111111],[0.04479166666666667,0.3111111111111111],[0.04479166666666667,0.3111111111111111],[0.04479166666666667,0.3111111111111111],[0.04479166666666667,0.3111111111111111],[0.04479166666666667,0.3111111111111111],[0.04375,0.31296296296296294],[0.04375,0.31296296296296294],[0.04375,0.31296296296296294],[0.04375,0.31296296296296294],[0.04375,0.31296296296296294],[0.04375,0.31296296296296294],[0.04375,0.31296296296296294],[0.04375,0.31296296296296294],[0.04375,0.31296296296296294],[0.04375,0.31296296296296294],[0.04375,0.31296296296296294],[0.04375,0.31296296296296294],[0.04375,0.31296296296296294],[0.04375,0.31296296296296294],[0.04375,0.31296296296296294],[0.04375,0.31296296296296294],[0.04375,0.31296296296296294],[0.04375,0.31296296296296294],[0.04375,0.31296296296296294],[0.04375,0.31296296296296294],[0.04375,0.31296296296296294],[0.04375,0.31296296296296294],[0.04375,0.31296296296296294],[0.04375,0.31296296296296294],[0.04375,0.31296296296296294],[0.04375,0.31296296296296294],[0.04375,0.31296296296296294],[0.04375,0.31296296296296294],[0.04375,0.31296296296296294],[0.04375,0.31296296296296294],[0.04375,0.31296296296296294],[0.04375,0.31296296296296294],[0.04375,0.31296296296296294],[0.04375,0.31296296296296294],[0.04375,0.31296296296296294],[0.04375,0.31296296296296294],[0.04375,0.31296296296296294],[0.04375,0.31296296296296294],[0.04375,0.31296296296296294],[0.04375,0.31296296296296294],[0.04375,0.31296296296296294],[0.04375,0.31296296296296294],[0.04375,0.31296296296296294],[0.04375,0.31296296296296294],[0.04375,0.31296296296296294],[0.04375,0.31296296296296294],[0.04375,0.31296296296296294],[0.04375,0.31296296296296294],[0.04375,0.31296296296296294],[0.04375,0.31296296296296294],[0.04375,0.31296296296296294],[0.04375,0.31296296296296294],[0.04375,0.31296296296296294],[0.04375,0.31296296296296294],[0.04375,0.31296296296296294],[0.04375,0.31296296296296294],[0.04375,0.31296296296296294],[0.04375,0.31296296296296294],[0.04375,0.31296296296296294],[0.04375,0.31296296296296294],[0.04375,0.31296296296296294],[0.04375,0.31296296296296294],[0.04375,0.31296296296296294],[0.04375,0.31296296296296294],[0.04375,0.31296296296296294],[0.04375,0.31296296296296294],[0.04375,0.31296296296296294],[0.04375,0.31296296296296294],[0.04375,0.31296296296296294],[0.04375,0.31296296296296294],[0.04375,0.31296296296296294],[0.04375,0.31296296296296294],[0.04375,0.31296296296296294],[0.04375,0.31296296296296294],[0.04375,0.31296296296296294],[0.04375,0.31296296296296294],[0.04375,0.31296296296296294],[0.04375,0.31296296296296294],[0.04375,0.31296296296296294],[0.04375,0.31296296296296294],[0.04375,0.31296296296296294],[0.04375,0.31296296296296294],[0.04375,0.31296296296296294],[0.04375,0.31296296296296294],[0.04375,0.31296296296296294],[0.04375,0.31296296296296294],[0.04375,0.31296296296296294],[0.04375,0.31296296296296294],[0.04375,0.31296296296296294],[0.04375,0.31296296296296294],[0.04375,0.31296296296296294],[0.04375,0.31296296296296294],[0.04375,0.31296296296296294],[0.04375,0.31296296296296294],[0.04375,0.31296296296296294],[0.04375,0.31296296296296294],[0.04375,0.31296296296296294],[0.04375,0.31296296296296294],[0.04375,0.31296296296296294],[0.04375,0.31296296296296294],[0.04375,0.31296296296296294],[0.04375,0.31296296296296294],[0.04375,0.31296296296296294],[0.04375,0.31296296296296294],[0.04375,0.31296296296296294],[0.04375,0.31296296296296294],[0.04375,0.31296296296296294]]","[[-0.042604166666666644,0.26648148148148143],[-0.042604166666666644,0.26648148148148143],[-0.03291666666666669,0.26777777777777784],[-0.03291666666666669,0.26777777777777784],[-0.018437500000000048,0.24074074074074073],[-0.0009374999999999763,0.22666666666666663],[0.02666666666666669,0.20092592592592592],[0.03729166666666662,0.18944444444444436],[0.04739583333333333,0.18703703703703703],[0.04739583333333333,0.18703703703703703],[0.05770833333333331,0.17166666666666675],[0.05270833333333336,0.11796296296296305],[0.06729166666666657,0.10018518518518522],[0.07697916666666677,0.08666666666666659],[0.08156249999999995,0.08074074074074078],[0.08156249999999995,0.08074074074074078],[0.09708333333333338,0.075],[0.09979166666666663,0.059999999999999956],[0.09427083333333333,0.060370370370370414],[0.08739583333333342,0.05851851851851856],[0.08104166666666662,0.04759259259259268],[0.07541666666666676,0.03555555555555564],[0.06697916666666662,0.07111111111111107],[0.03968750000000002,0.048333333333333374],[0.03125,0.035740740740740656],[0.014583333333333334,0.004814814814814857],[-0.011874999999999976,-0.02240740740740745],[-0.027083333333333334,-0.06814814814814817],[-0.04229166666666669,-0.11388888888888889],[-0.036458333333333336,-0.15611111111111114],[-0.030624999999999975,-0.1983333333333334],[-0.02791666666666662,-0.21537037037037038],[-0.023958333333333335,-0.2537037037037037],[-0.023958333333333335,-0.2537037037037037],[-0.008124999999999953,-0.28851851851851856],[-0.003333333333333381,-0.2601851851851852],[0.009687499999999953,-0.21351851851851855],[0.019375000000000024,-0.21129629629629634],[0.022395833333333334,-0.1933333333333333],[0.022395833333333334,-0.1933333333333333],[0.04770833333333328,-0.1388888888888889],[0.05541666666666671,-0.0653703703703704],[0.06312500000000003,0.008148148148148106],[0.06708333333333343,0.041111111111111195],[0.08177083333333333,0.07574074074074069],[0.08385416666666666,0.12925925925925918],[0.03312499999999995,0.15018518518518523],[-0.009375,0.1574074074074074],[-0.042499999999999954,0.1824074074074074],[-0.07520833333333338,0.1868518518518518],[-0.14562499999999995,0.15907407407407403],[-0.14562499999999995,0.15907407407407403],[-0.20437500000000006,0.08611111111111111],[-0.25281250000000005,0.07592592592592592],[-0.294375,0.08111111111111102],[-0.3285416666666666,0.07518518518518523],[-0.36270833333333335,0.06925925925925921],[-0.35375,0.03092592592592601],[-0.3530208333333333,0.006296296296296254],[-0.3733333333333333,0.007037037037036953],[-0.3888541666666666,0.027407407407407325],[-0.37135416666666665,0.05259259259259255],[-0.35812499999999997,0.11148148148148157],[-0.35812499999999997,0.11148148148148157],[-0.35437500000000005,0.10259259259259255],[-0.3476041666666667,0.10018518518518522],[-0.34822916666666665,0.1088888888888888],[-0.35822916666666665,0.10907407407407403],[-0.3611458333333334,0.10981481481481473],[-0.3611458333333334,0.10981481481481473],[-0.3640625,0.11055555555555564],[-0.35270833333333335,0.12722222222222232],[-0.35041666666666665,0.122037037037037],[-0.33656250000000004,0.13259259259259262],[-0.32270833333333326,0.14314814814814805],[-0.32270833333333326,0.14314814814814805],[-0.2929166666666667,0.1725925925925927],[-0.2560416666666666,0.16925925925925922],[-0.22208333333333338,0.17222222222222222],[-0.17687499999999995,0.17388888888888884],[-0.13010416666666663,0.1735185185185186],[-0.09375,0.1507407407407407],[-0.05666666666666664,0.11333333333333341],[-0.0078125,0.14222222222222214],[0.011874999999999976,0.14629629629629629],[0.03229166666666667,0.1624074074074075],[0.0359375,0.1646296296296296],[0.034895833333333334,0.18888888888888888],[0.03677083333333329,0.20685185185185193],[0.04750000000000002,0.20259259259259255],[0.06166666666666672,0.22851851851851848],[0.08302083333333338,0.2959259259259258],[0.10437500000000005,0.3633333333333334],[0.12302083333333323,0.38629629629629636],[0.1384375000000001,0.4005555555555555],[0.1384375000000001,0.4005555555555555],[0.1618750000000001,0.4103703703703704],[0.1618750000000001,0.4103703703703704],[0.1915625000000001,0.4068518518518519],[0.1915625000000001,0.4068518518518519],[0.18260416666666662,0.4053703703703703],[0.18260416666666662,0.4053703703703703],[0.15364583333333334,0.40925925925925927],[0.15364583333333334,0.40925925925925927],[0.11010416666666671,0.38870370370370366],[0.11010416666666671,0.38870370370370366],[0.07156250000000004,0.337037037037037],[0.07156250000000004,0.337037037037037],[0.04052083333333331,0.3368518518518518],[0.04052083333333331,0.3368518518518518],[0.005104166666666643,0.3374074074074075],[0.005104166666666643,0.3374074074074075],[-0.002499999999999976,0.3387037037037037],[-0.002499999999999976,0.3387037037037037],[-0.025625000000000023,0.34888888888888886],[-0.025625000000000023,0.34888888888888886],[-0.03854166666666667,0.331111111111111],[-0.03854166666666667,0.331111111111111],[-0.05666666666666664,0.32759259259259255],[-0.05666666666666664,0.32759259259259255],[-0.03822916666666672,0.30166666666666664],[-0.03822916666666672,0.30166666666666664],[0.0012500000000000473,0.25629629629629624],[0.0012500000000000473,0.25629629629629624],[0.04375,0.3135185185185184],[0.04375,0.3135185185185184],[0.050729166666666714,0.32685185185185184],[0.050729166666666714,0.32685185185185184],[0.06177083333333329,0.2788888888888889],[0.06177083333333329,0.2788888888888889],[0.07906250000000009,0.20407407407407416],[0.07927083333333323,0.16018518518518518],[0.09822916666666662,0.11611111111111119],[0.09822916666666662,0.11611111111111119],[0.11020833333333328,0.10851851851851856],[0.11791666666666671,0.07351851851851861],[0.14656250000000004,0.04092592592592597],[0.1484375,0.06666666666666667],[0.15114583333333323,0.046296296296296294],[0.18479166666666677,0.043703703703703745],[0.20833333333333334,0.027962962962963005],[0.21437499999999995,0.024074074074074074],[0.22520833333333337,0.01055555555555564],[0.23604166666666657,-0.002962962962963005],[0.22781250000000006,-0.03777777777777774],[0.20645833333333338,-0.06185185185185181],[0.17395833333333333,-0.06296296296296296],[0.17395833333333333,-0.06296296296296296],[0.16677083333333323,-0.0868518518518518],[0.15197916666666675,-0.09203703703703701],[0.13177083333333334,-0.06814814814814817],[0.07895833333333328,-0.0787037037037037],[0.041770833333333354,-0.075],[-0.005312500000000024,-0.11222222222222226],[-0.05427083333333336,-0.13111111111111112],[-0.10114583333333335,-0.15777777777777777],[-0.13166666666666665,-0.16870370370370374],[-0.15458333333333332,-0.16796296296296295],[-0.17708333333333334,-0.18870370370370365],[-0.17708333333333334,-0.18870370370370365],[-0.18760416666666668,-0.2094444444444445],[-0.18614583333333337,-0.2207407407407407],[-0.18614583333333337,-0.2207407407407407],[-0.15031249999999996,-0.19370370370370374],[-0.13635416666666664,-0.18481481481481485],[-0.13635416666666664,-0.18481481481481485],[-0.11322916666666671,-0.15037037037037035],[-0.09395833333333338,-0.09240740740740737],[-0.08197916666666671,-0.02240740740740745],[-0.07000000000000005,0.04759259259259268],[-0.0859375,0.08259259259259263],[-0.0859375,0.08259259259259263],[-0.09249999999999996,0.08851851851851844],[-0.07177083333333331,0.08425925925925926],[-0.06531250000000005,0.06777777777777783],[-0.06020833333333329,0.04314814814814806],[-0.036354166666666646,0.07703703703703708],[-0.036354166666666646,0.07703703703703708],[-0.025625000000000023,0.06833333333333329],[-0.00010416666666669035,0.0485185185185186],[0.03770833333333338,0.02962962962962963],[0.07833333333333338,-0.008333333333333333],[0.11885416666666657,-0.018888888888888972],[0.12729166666666672,-0.01592592592592597],[0.11333333333333329,-0.021481481481481525],[0.0921875,-0.005000000000000084],[0.07854166666666676,0.018518518518518517],[0.08302083333333338,0.010370370370370412],[0.08583333333333343,0.03814814814814819],[0.08583333333333343,0.03814814814814819],[0.0787499999999999,0.03537037037037041],[0.07156250000000004,0.02296296296296292],[0.03989583333333328,0.03129629629629625],[0.03989583333333328,0.03129629629629625],[0.04468749999999998,0.06555555555555552],[0.04468749999999998,0.06555555555555552],[0.05510416666666664,0.0668518518518519],[0.049479166666666664,0.04537037037037037],[0.05333333333333338,0.004629629629629629],[0.05531250000000002,0.014259259259259343],[0.04229166666666669,0.01518518518518527],[0.027708333333333356,0.009074074074074031],[0.024479166666666666,-0.007037037037036953],[0.022500000000000023,-0.006666666666666709],[0.04468749999999998,-0.009814814814814731],[0.03135416666666669,-0.034444444444444486],[0.035104166666666714,-0.01055555555555564],[0.04114583333333333,0.029814814814814856],[0.041979166666666616,0.05259259259259255],[0.042916666666666714,0.020740740740740823],[0.04385416666666669,-0.011111111111111112],[0.06635416666666671,-0.005555555555555556],[0.06635416666666671,-0.005555555555555556],[0.06291666666666665,-0.00851851851851856],[0.05635416666666669,-0.028703703703703703],[0.03916666666666669,-0.053703703703703705],[0.027708333333333356,-0.06981481481481479],[0.016250000000000025,-0.08592592592592588],[0.030312500000000023,-0.06074074074074076],[0.035625000000000046,-0.059999999999999956],[0.03104166666666662,-0.025925925925925925],[0.04010416666666667,0.013888888888888888],[0.024270833333333287,0.0022222222222223064],[0.019895833333333356,0.049629629629629544],[0.017499999999999953,0.10740740740740741],[0.018229166666666668,0.16814814814814807],[0.021041666666666715,0.2012962962962964],[0.02322916666666662,0.25574074074074077],[0.008854166666666666,0.28481481481481474],[0.008749999999999977,0.3346296296296297],[0.019375000000000024,0.3527777777777778],[0.011562500000000024,0.37537037037037047],[0.00010416666666669035,0.4301851851851851],[0.0034374999999999527,0.4281481481481482],[0.002291666666666714,0.4390740740740741],[0.00635416666666669,0.4607407407407407],[0.008958333333333356,0.4918518518518519],[0.008958333333333356,0.4918518518518519],[0.012187500000000047,0.5016666666666666],[0.012187500000000047,0.5016666666666666],[0.002708333333333357,0.48870370370370364],[0.002708333333333357,0.48870370370370364],[-0.011874999999999976,0.4992592592592593],[-0.011874999999999976,0.4992592592592593],[-0.018229166666666668,0.4896296296296296],[-0.021562500000000047,0.47555555555555545],[-0.013229166666666714,0.4492592592592593],[-0.013229166666666714,0.4492592592592593],[-0.013854166666666619,0.46888888888888897],[-0.013854166666666619,0.46888888888888897],[-0.019479166666666714,0.4351851851851852],[-0.019479166666666714,0.4351851851851852],[-0.029375000000000047,0.41351851851851845],[-0.029375000000000047,0.41351851851851845],[-0.03739583333333331,0.38499999999999995],[-0.03739583333333331,0.38499999999999995],[-0.03729166666666662,0.3514814814814814],[-0.03729166666666662,0.3514814814814814],[-0.022291666666666644,0.3427777777777778],[-0.022291666666666644,0.3427777777777778],[0.0012500000000000473,0.3425925925925926]]","[[-0.042604166666666644,0.26648148148148143,0.00029999999981811243],[-0.042604166666666644,0.26648148148148143,0.036099999999628096],[-0.03291666666666669,0.26777777777777784,0.04550000000000409],[-0.03291666666666669,0.26777777777777784,0.062299999999815725],[-0.018437500000000048,0.24074074074074073,0.07889999999944308],[-0.0009374999999999763,0.22666666666666663,0.09550000000000125],[0.02666666666666669,0.20092592592592592,0.11219999999925534],[0.03729166666666662,0.18944444444444436,0.1287999999998135],[0.04739583333333333,0.18703703703703703,0.14559999999963225],[0.04739583333333333,0.18703703703703703,0.16239999999944388],[0.05770833333333331,0.17166666666666675,0.1788999999994445],[0.05270833333333336,0.11796296296296305,0.20029999999981385],[0.06729166666666657,0.10018518518518522,0.21529999999981442],[0.07697916666666677,0.08666666666666659,0.23129999999981976],[0.08156249999999995,0.08074074074074078,0.24559999999962656],[0.08156249999999995,0.08074074074074078,0.262199999999261],[0.09708333333333338,0.075,0.2787999999998192],[0.09979166666666663,0.059999999999999956,0.2955999999996308],[0.09427083333333333,0.060370370370370414,0.31209999999963145],[0.08739583333333342,0.05851851851851856,0.3288999999994431],[0.08104166666666662,0.04759259259259268,0.345599999999628],[0.07541666666666676,0.03555555555555564,0.3622999999998129],[0.06697916666666662,0.07111111111111107,0.3787999999998135],[0.03968750000000002,0.048333333333333374,0.3955000000000055],[0.03125,0.035740740740740656,0.4121999999992596],[0.014583333333333334,0.004814814814814857,0.4288999999994445],[-0.011874999999999976,-0.02240740740740745,0.44550000000000267],[-0.027083333333333334,-0.06814814814814817,0.464500000000001],[-0.04229166666666669,-0.11388888888888889,0.47889999999944166],[-0.036458333333333336,-0.15611111111111114,0.49549999999999983],[-0.030624999999999975,-0.1983333333333334,0.5120999999996272],[-0.02791666666666662,-0.21537037037037038,0.5288999999994459],[-0.023958333333333335,-0.2537037037037037,0.5455000000000041],[-0.023958333333333335,-0.2537037037037037,0.5622999999998157],[-0.008124999999999953,-0.28851851851851856,0.5787999999998164],[-0.003333333333333381,-0.2601851851851852,0.5953999999994437],[0.009687499999999953,-0.21351851851851855,0.6121999999992553],[0.019375000000000024,-0.21129629629629634,0.6287999999998135],[0.022395833333333334,-0.1933333333333333,0.6453999999994409],[0.022395833333333334,-0.1933333333333333,0.6623999999994439],[0.04770833333333328,-0.1388888888888889,0.6787999999998178],[0.05541666666666671,-0.0653703703703704,0.6955000000000027],[0.06312500000000003,0.008148148148148106,0.71209999999963],[0.06708333333333343,0.041111111111111195,0.7287999999998149],[0.08177083333333333,0.07574074074074069,0.7454999999999998],[0.08385416666666666,0.12925925925925918,0.7635999999996272],[0.03312499999999995,0.15018518518518523,0.7788999999994459],[-0.009375,0.1574074074074074,0.7955999999996308],[-0.042499999999999954,0.1824074074074074,0.8120999999996315],[-0.07520833333333338,0.1868518518518518,0.8287999999998164],[-0.14562499999999995,0.15907407407407403,0.8455000000000013],[-0.14562499999999995,0.15907407407407403,0.862599999999631],[-0.20437500000000006,0.08611111111111111,0.8790000000000049],[-0.25281250000000005,0.07592592592592592,0.8955000000000055],[-0.294375,0.08111111111111102,0.9120999999996329],[-0.3285416666666666,0.07518518518518523,0.9287999999998178],[-0.36270833333333335,0.06925925925925921,0.9455000000000027],[-0.35375,0.03092592592592601,0.9621999999992568],[-0.3530208333333333,0.006296296296296254,0.9787999999998149],[-0.3733333333333333,0.007037037037036953,0.9953999999994423],[-0.3888541666666666,0.027407407407407325,1.0120999999996272],[-0.37135416666666665,0.05259259259259255,1.0287999999998192],[-0.35812499999999997,0.11148148148148157,1.045500000000004],[-0.35812499999999997,0.11148148148148157,1.0620999999996315],[-0.35437500000000005,0.10259259259259255,1.0787999999998164],[-0.3476041666666667,0.10018518518518522,1.0957999999998194],[-0.34822916666666665,0.1088888888888888,1.1120999999996286],[-0.35822916666666665,0.10907407407407403,1.1287999999998135],[-0.3611458333333334,0.10981481481481473,1.1455000000000055],[-0.3611458333333334,0.10981481481481473,1.1622999999998171],[-0.3640625,0.11055555555555564,1.1786999999992602],[-0.35270833333333335,0.12722222222222232,1.1975000000000051],[-0.35041666666666665,0.122037037037037,1.2142999999998167],[-0.33656250000000004,0.13259259259259262,1.231799999999815],[-0.32270833333333326,0.14314814814814805,1.2454999999999998],[-0.32270833333333326,0.14314814814814805,1.2620999999996272],[-0.2929166666666667,0.1725925925925927,1.2787999999998192],[-0.2560416666666666,0.16925925925925922,1.29619999999926],[-0.22208333333333338,0.17222222222222222,1.3122999999998157],[-0.17687499999999995,0.17388888888888884,1.3287999999998164],[-0.13010416666666663,0.1735185185185186,1.3455000000000013],[-0.09375,0.1507407407407407,1.3631999999992601],[-0.05666666666666664,0.11333333333333341,1.3788999999994473],[-0.0078125,0.14222222222222214,1.3955000000000055],[0.011874999999999976,0.14629629629629629,1.4121999999992596],[0.03229166666666667,0.1624074074074075,1.4287999999998178],[0.0359375,0.1646296296296296,1.4455000000000027],[0.034895833333333334,0.18888888888888888,1.4621999999992568],[0.03677083333333329,0.20685185185185193,1.4815999999996308],[0.04750000000000002,0.20259259259259255,1.4955999999996266],[0.06166666666666672,0.22851851851851848,1.5120999999996272],[0.08302083333333338,0.2959259259259258,1.5287999999998192],[0.10437500000000005,0.3633333333333334,1.545500000000004],[0.12302083333333323,0.38629629629629636,1.5621999999992582],[0.1384375000000001,0.4005555555555555,1.5787999999998164],[0.1384375000000001,0.4005555555555555,1.5955000000000013],[0.1618750000000001,0.4103703703703704,1.6120999999996286],[0.1618750000000001,0.4103703703703704,1.6287999999998135],[0.1915625000000001,0.4068518518518519,1.6455000000000055],[0.1915625000000001,0.4068518518518519,1.6621999999992596],[0.18260416666666662,0.4053703703703703,1.6787999999998178],[0.18260416666666662,0.4053703703703703,1.6955000000000027],[0.15364583333333334,0.40925925925925927,1.71209999999963],[0.15364583333333334,0.40925925925925927,1.728799999999815],[0.11010416666666671,0.38870370370370366,1.7453999999994423],[0.11010416666666671,0.38870370370370366,1.762199999999261],[0.07156250000000004,0.337037037037037,1.7820000000000036],[0.07156250000000004,0.337037037037037,1.7955999999996308],[0.04052083333333331,0.3368518518518518,1.8125],[0.04052083333333331,0.3368518518518518,1.8290000000000006],[0.005104166666666643,0.3374074074074075,1.848599999999628],[0.005104166666666643,0.3374074074074075,1.8623999999994467],[-0.002499999999999976,0.3387037037037037,1.8790999999996316],[-0.002499999999999976,0.3387037037037037,1.8955000000000055],[-0.025625000000000023,0.34888888888888886,1.9151999999992597],[-0.025625000000000023,0.34888888888888886,1.9288999999994445],[-0.03854166666666667,0.331111111111111,1.9455999999996294],[-0.03854166666666667,0.331111111111111,1.962399999999441],[-0.05666666666666664,0.32759259259259255,1.9818999999994418],[-0.05666666666666664,0.32759259259259255,1.9954999999999998],[-0.03822916666666672,0.30166666666666664,2.0122999999998186],[-0.03822916666666672,0.30166666666666664,2.0335000000000036],[0.0012500000000000473,0.25629629629629624,2.045899999999442],[0.0012500000000000473,0.25629629629629624,2.0623999999994425],[0.04375,0.3135185185185184,2.0830000000000055],[0.04375,0.3135185185185184,2.0955000000000013],[0.050729166666666714,0.32685185185185184,2.112299999999813],[0.050729166666666714,0.32685185185185184,2.1288999999994473],[0.06177083333333329,0.2788888888888889,2.1485000000000056],[0.06177083333333329,0.2788888888888889,2.1625000000000014],[0.07906250000000009,0.20407407407407416,2.1788999999994445],[0.07927083333333323,0.16018518518518518,2.1955999999996294],[0.09822916666666662,0.11611111111111119,2.217299999999817],[0.09822916666666662,0.11611111111111119,2.228999999999999],[0.11020833333333328,0.10851851851851856,2.2455999999996266],[0.11791666666666671,0.07351851851851861,2.2622999999998186],[0.14656250000000004,0.04092592592592597,2.2808999999994413],[0.1484375,0.06666666666666667,2.29619999999926],[0.15114583333333323,0.046296296296296294,2.3120999999996315],[0.18479166666666677,0.043703703703703745,2.328899999999443],[0.20833333333333334,0.027962962962963005,2.347699999999257],[0.21437499999999995,0.024074074074074074,2.3655000000000044],[0.22520833333333337,0.01055555555555564,2.380799999999816],[0.23604166666666657,-0.002962962962963005,2.3955000000000055],[0.22781250000000006,-0.03777777777777774,2.412099999999633],[0.20645833333333338,-0.06185185185185181,2.429099999999629],[0.17395833333333333,-0.06296296296296296,2.4455000000000027],[0.17395833333333333,-0.06296296296296296,2.4621999999992568],[0.16677083333333323,-0.0868518518518518,2.478799999999815],[0.15197916666666675,-0.09203703703703701,2.4955999999996266],[0.13177083333333334,-0.06814814814814817,2.512099999999627],[0.07895833333333328,-0.0787037037037037,2.5307999999998145],[0.041770833333333354,-0.075,2.545500000000004],[-0.005312500000000024,-0.11222222222222226,2.5645000000000024],[-0.05427083333333336,-0.13111111111111112,2.581000000000003],[-0.10114583333333335,-0.15777777777777777,2.5975000000000037],[-0.13166666666666665,-0.16870370370370374,2.614099999999631],[-0.15458333333333332,-0.16796296296296295,2.6287999999998135],[-0.17708333333333334,-0.18870370370370365,2.6455000000000055],[-0.17708333333333334,-0.18870370370370365,2.662099999999633],[-0.18760416666666668,-0.2094444444444445,2.6786999999992602],[-0.18614583333333337,-0.2207407407407407,2.6955000000000027],[-0.18614583333333337,-0.2207407407407407,2.7120000000000033],[-0.15031249999999996,-0.19370370370370374,2.7288999999994417],[-0.13635416666666664,-0.18481481481481485,2.7455],[-0.13635416666666664,-0.18481481481481485,2.762199999999261],[-0.11322916666666671,-0.15037037037037035,2.778799999999819],[-0.09395833333333338,-0.09240740740740737,2.7953999999994465],[-0.08197916666666671,-0.02240740740740745,2.8120999999996315],[-0.07000000000000005,0.04759259259259268,2.8287999999998164],[-0.0859375,0.08259259259259263,2.8455000000000013],[-0.0859375,0.08259259259259263,2.862299999999813],[-0.09249999999999996,0.08851851851851844,2.8788999999994473],[-0.07177083333333331,0.08425925925925926,2.8960999999996275],[-0.06531250000000005,0.06777777777777783,2.912099999999633],[-0.06020833333333329,0.04314814814814806,2.9287999999998178],[-0.036354166666666646,0.07703703703703708,2.945399999999445],[-0.036354166666666646,0.07703703703703708,2.9622999999998143],[-0.025625000000000023,0.06833333333333329,2.978799999999815],[-0.00010416666666669035,0.0485185185185186,2.9953999999994423],[0.03770833333333338,0.02962962962962963,3.012099999999627],[0.07833333333333338,-0.008333333333333333,3.028799999999819],[0.11885416666666657,-0.018888888888888972,3.0453999999994465],[0.12729166666666672,-0.01592592592592597,3.065299999999816],[0.11333333333333329,-0.021481481481481525,3.0790999999996274],[0.0921875,-0.005000000000000084,3.0953999999994437],[0.07854166666666676,0.018518518518518517,3.1121999999992553],[0.08302083333333338,0.010370370370370412,3.1287999999998135],[0.08583333333333343,0.03814814814814819,3.1455000000000055],[0.08583333333333343,0.03814814814814819,3.1621999999992596],[0.0787499999999999,0.03537037037037041,3.1787999999998178],[0.07156250000000004,0.02296296296296292,3.1955000000000027],[0.03989583333333328,0.03129629629629625,3.214899999999446],[0.03989583333333328,0.03129629629629625,3.228799999999815],[0.04468749999999998,0.06555555555555552,3.2455],[0.04468749999999998,0.06555555555555552,3.262099999999627],[0.05510416666666664,0.0668518518518519,3.278799999999819],[0.049479166666666664,0.04537037037037037,3.2956999999992576],[0.05333333333333338,0.004629629629629629,3.312199999999258],[0.05531250000000002,0.014259259259259343,3.329199999999254],[0.04229166666666669,0.01518518518518527,3.3455000000000013],[0.027708333333333356,0.009074074074074031,3.363500000000002],[0.024479166666666666,-0.007037037037036953,3.3787999999998135],[0.022500000000000023,-0.006666666666666709,3.395399999999441],[0.04468749999999998,-0.009814814814814731,3.4121999999992596],[0.03135416666666669,-0.034444444444444486,3.4287999999998178],[0.035104166666666714,-0.01055555555555564,3.446000000000005],[0.04114583333333333,0.029814814814814856,3.4625000000000057],[0.041979166666666616,0.05259259259259255,3.478799999999815],[0.042916666666666714,0.020740740740740823,3.496000000000002],[0.04385416666666669,-0.011111111111111112,3.512099999999627],[0.06635416666666671,-0.005555555555555556,3.5328999999994437],[0.06635416666666671,-0.005555555555555556,3.55069999999926],[0.06291666666666665,-0.00851851851851856,3.567],[0.05635416666666669,-0.028703703703703703,3.581399999999441],[0.03916666666666669,-0.053703703703703705,3.595599999999628],[0.027708333333333356,-0.06981481481481479,3.6120999999996286],[0.016250000000000025,-0.08592592592592588,3.6287999999998135],[0.030312500000000023,-0.06074074074074076,3.6488999999994434],[0.035625000000000046,-0.059999999999999956,3.6642999999998196],[0.03104166666666662,-0.025925925925925925,3.6787999999998178],[0.04010416666666667,0.013888888888888888,3.6955000000000027],[0.024270833333333287,0.0022222222222223064,3.7121999999992568],[0.019895833333333356,0.049629629629629544,3.728799999999815],[0.017499999999999953,0.10740740740740741,3.7455],[0.018229166666666668,0.16814814814814807,3.762199999999261],[0.021041666666666715,0.2012962962962964,3.778799999999819],[0.02322916666666662,0.25574074074074077,3.7953999999994465],[0.008854166666666666,0.28481481481481474,3.8120999999996315],[0.008749999999999977,0.3346296296296297,3.8287999999998164],[0.019375000000000024,0.3527777777777778,3.8453999999994437],[0.011562500000000024,0.37537037037037047,3.862299999999813],[0.00010416666666669035,0.4301851851851851,3.8787999999998135],[0.0034374999999999527,0.4281481481481482,3.8955999999996322],[0.002291666666666714,0.4390740740740741,3.912099999999633],[0.00635416666666669,0.4607407407407407,3.9286999999992602],[0.008958333333333356,0.4918518518518519,3.945399999999445],[0.008958333333333356,0.4918518518518519,3.9622999999998143],[0.012187500000000047,0.5016666666666666,3.978799999999815],[0.012187500000000047,0.5016666666666666,3.9953999999994423],[0.002708333333333357,0.48870370370370364,4.012099999999627],[0.002708333333333357,0.48870370370370364,4.0286999999992545],[-0.011874999999999976,0.4992592592592593,4.045500000000004],[-0.011874999999999976,0.4992592592592593,4.062199999999258],[-0.018229166666666668,0.4896296296296296,4.078799999999816],[-0.021562500000000047,0.47555555555555545,4.099799999999817],[-0.013229166666666714,0.4492592592592593,4.1160999999996335],[-0.013229166666666714,0.4492592592592593,4.128699999999256],[-0.013854166666666619,0.46888888888888897,4.1455000000000055],[-0.013854166666666619,0.46888888888888897,4.162099999999633],[-0.019479166666666714,0.4351851851851852,4.178799999999818],[-0.019479166666666714,0.4351851851851852,4.195399999999445],[-0.029375000000000047,0.41351851851851845,4.212500000000006],[-0.029375000000000047,0.41351851851851845,4.228699999999257],[-0.03739583333333331,0.38499999999999995,4.2455],[-0.03739583333333331,0.38499999999999995,4.262099999999627],[-0.03729166666666662,0.3514814814814814,4.2786999999992545],[-0.03729166666666662,0.3514814814814814,4.2953999999994465],[-0.022291666666666644,0.3427777777777778,4.3120999999996315],[-0.022291666666666644,0.3427777777777778,4.328899999999443],[0.0012500000000000473,0.3425925925925926,4.345399999999444]]","[0.00029999999981811243,0.036099999999628096,0.04550000000000409,0.062299999999815725,0.07889999999944308,0.09550000000000125,0.11219999999925534,0.1287999999998135,0.14559999999963225,0.16239999999944388,0.1788999999994445,0.20029999999981385,0.21529999999981442,0.23129999999981976,0.24559999999962656,0.262199999999261,0.2787999999998192,0.2955999999996308,0.31209999999963145,0.3288999999994431,0.345599999999628,0.3622999999998129,0.3787999999998135,0.3955000000000055,0.4121999999992596,0.4288999999994445,0.44550000000000267,0.464500000000001,0.47889999999944166,0.49549999999999983,0.5120999999996272,0.5288999999994459,0.5455000000000041,0.5622999999998157,0.5787999999998164,0.5953999999994437,0.6121999999992553,0.6287999999998135,0.6453999999994409,0.6623999999994439,0.6787999999998178,0.6955000000000027,0.71209999999963,0.7287999999998149,0.7454999999999998,0.7635999999996272,0.7788999999994459,0.7955999999996308,0.8120999999996315,0.8287999999998164,0.8455000000000013,0.862599999999631,0.8790000000000049,0.8955000000000055,0.9120999999996329,0.9287999999998178,0.9455000000000027,0.9621999999992568,0.9787999999998149,0.9953999999994423,1.0120999999996272,1.0287999999998192,1.045500000000004,1.0620999999996315,1.0787999999998164,1.0957999999998194,1.1120999999996286,1.1287999999998135,1.1455000000000055,1.1622999999998171,1.1786999999992602,1.1975000000000051,1.2142999999998167,1.231799999999815,1.2454999999999998,1.2620999999996272,1.2787999999998192,1.29619999999926,1.3122999999998157,1.3287999999998164,1.3455000000000013,1.3631999999992601,1.3788999999994473,1.3955000000000055,1.4121999999992596,1.4287999999998178,1.4455000000000027,1.4621999999992568,1.4815999999996308,1.4955999999996266,1.5120999999996272,1.5287999999998192,1.545500000000004,1.5621999999992582,1.5787999999998164,1.5955000000000013,1.6120999999996286,1.6287999999998135,1.6455000000000055,1.6621999999992596,1.6787999999998178,1.6955000000000027,1.71209999999963,1.728799999999815,1.7453999999994423,1.762199999999261,1.7820000000000036,1.7955999999996308,1.8125,1.8290000000000006,1.848599999999628,1.8623999999994467,1.8790999999996316,1.8955000000000055,1.9151999999992597,1.9288999999994445,1.9455999999996294,1.962399999999441,1.9818999999994418,1.9954999999999998,2.0122999999998186,2.0335000000000036,2.045899999999442,2.0623999999994425,2.0830000000000055,2.0955000000000013,2.112299999999813,2.1288999999994473,2.1485000000000056,2.1625000000000014,2.1788999999994445,2.1955999999996294,2.217299999999817,2.228999999999999,2.2455999999996266,2.2622999999998186,2.2808999999994413,2.29619999999926,2.3120999999996315,2.328899999999443,2.347699999999257,2.3655000000000044,2.380799999999816,2.3955000000000055,2.412099999999633,2.429099999999629,2.4455000000000027,2.4621999999992568,2.478799999999815,2.4955999999996266,2.512099999999627,2.5307999999998145,2.545500000000004,2.5645000000000024,2.581000000000003,2.5975000000000037,2.614099999999631,2.6287999999998135,2.6455000000000055,2.662099999999633,2.6786999999992602,2.6955000000000027,2.7120000000000033,2.7288999999994417,2.7455,2.762199999999261,2.778799999999819,2.7953999999994465,2.8120999999996315,2.8287999999998164,2.8455000000000013,2.862299999999813,2.8788999999994473,2.8960999999996275,2.912099999999633,2.9287999999998178,2.945399999999445,2.9622999999998143,2.978799999999815,2.9953999999994423,3.012099999999627,3.028799999999819,3.0453999999994465,3.065299999999816,3.0790999999996274,3.0953999999994437,3.1121999999992553,3.1287999999998135,3.1455000000000055,3.1621999999992596,3.1787999999998178,3.1955000000000027,3.214899999999446,3.228799999999815,3.2455,3.262099999999627,3.278799999999819,3.2956999999992576,3.312199999999258,3.329199999999254,3.3455000000000013,3.363500000000002,3.3787999999998135,3.395399999999441,3.4121999999992596,3.4287999999998178,3.446000000000005,3.4625000000000057,3.478799999999815,3.496000000000002,3.512099999999627,3.5328999999994437,3.55069999999926,3.567,3.581399999999441,3.595599999999628,3.6120999999996286,3.6287999999998135,3.6488999999994434,3.6642999999998196,3.6787999999998178,3.6955000000000027,3.7121999999992568,3.728799999999815,3.7455,3.762199999999261,3.778799999999819,3.7953999999994465,3.8120999999996315,3.8287999999998164,3.8453999999994437,3.862299999999813,3.8787999999998135,3.8955999999996322,3.912099999999633,3.9286999999992602,3.945399999999445,3.9622999999998143,3.978799999999815,3.9953999999994423,4.012099999999627,4.0286999999992545,4.045500000000004,4.062199999999258,4.078799999999816,4.099799999999817,4.1160999999996335,4.128699999999256,4.1455000000000055,4.162099999999633,4.178799999999818,4.195399999999445,4.212500000000006,4.228699999999257,4.2455,4.262099999999627,4.2786999999992545,4.2953999999994465,4.3120999999996315,4.328899999999443,4.345399999999444]","[1733116257072,1733116257102,1733116257111,1733116257128,1733116257144,1733116257161,1733116257178,1733116257194,1733116257211,1733116257228,1733116257244,1733116257266,1733116257281,1733116257297,1733116257311,1733116257328,1733116257344,1733116257361,1733116257378,1733116257394,1733116257411,1733116257428,1733116257444,1733116257461,1733116257478,1733116257494,1733116257511,1733116257530,1733116257544,1733116257561,1733116257578,1733116257594,1733116257611,1733116257628,1733116257644,1733116257661,1733116257678,1733116257694,1733116257711,1733116257728,1733116257744,1733116257761,1733116257778,1733116257794,1733116257811,1733116257829,1733116257844,1733116257861,1733116257878,1733116257894,1733116257911,1733116257928,1733116257944,1733116257961,1733116257978,1733116257994,1733116258011,1733116258028,1733116258044,1733116258061,1733116258078,1733116258094,1733116258111,1733116258128,1733116258144,1733116258161,1733116258178,1733116258194,1733116258211,1733116258228,1733116258244,1733116258263,1733116258280,1733116258297,1733116258311,1733116258328,1733116258344,1733116258362,1733116258378,1733116258394,1733116258411,1733116258429,1733116258444,1733116258461,1733116258478,1733116258494,1733116258511,1733116258528,1733116258547,1733116258561,1733116258578,1733116258594,1733116258611,1733116258628,1733116258644,1733116258661,1733116258678,1733116258694,1733116258711,1733116258728,1733116258744,1733116258761,1733116258778,1733116258794,1733116258811,1733116258828,1733116258847,1733116258861,1733116258878,1733116258894,1733116258914,1733116258928,1733116258945,1733116258961,1733116258981,1733116258994,1733116259011,1733116259028,1733116259047,1733116259061,1733116259078,1733116259099,1733116259111,1733116259128,1733116259148,1733116259161,1733116259178,1733116259194,1733116259214,1733116259228,1733116259244,1733116259261,1733116259283,1733116259294,1733116259311,1733116259328,1733116259346,1733116259362,1733116259378,1733116259394,1733116259413,1733116259431,1733116259446,1733116259461,1733116259478,1733116259495,1733116259511,1733116259528,1733116259544,1733116259561,1733116259578,1733116259596,1733116259611,1733116259630,1733116259646,1733116259663,1733116259679,1733116259694,1733116259711,1733116259728,1733116259744,1733116259761,1733116259777,1733116259794,1733116259811,1733116259828,1733116259844,1733116259861,1733116259878,1733116259894,1733116259911,1733116259928,1733116259944,1733116259962,1733116259978,1733116259994,1733116260011,1733116260028,1733116260044,1733116260061,1733116260078,1733116260094,1733116260111,1733116260131,1733116260144,1733116260161,1733116260178,1733116260194,1733116260211,1733116260228,1733116260244,1733116260261,1733116260280,1733116260294,1733116260311,1733116260328,1733116260344,1733116260361,1733116260378,1733116260395,1733116260411,1733116260429,1733116260444,1733116260461,1733116260478,1733116260494,1733116260511,1733116260528,1733116260544,1733116260561,1733116260578,1733116260598,1733116260616,1733116260632,1733116260647,1733116260661,1733116260678,1733116260694,1733116260714,1733116260730,1733116260744,1733116260761,1733116260778,1733116260794,1733116260811,1733116260828,1733116260844,1733116260861,1733116260878,1733116260894,1733116260911,1733116260928,1733116260944,1733116260961,1733116260978,1733116260994,1733116261011,1733116261028,1733116261044,1733116261061,1733116261078,1733116261094,1733116261111,1733116261128,1733116261144,1733116261165,1733116261181,1733116261194,1733116261211,1733116261228,1733116261244,1733116261261,1733116261278,1733116261294,1733116261311,1733116261328,1733116261344,1733116261361,1733116261378,1733116261394,1733116261411]","[[919.1,683.9],[919.1,683.9],[928.4,684.6],[928.4,684.6],[942.3,670],[959.1,662.4],[985.6,648.5],[995.8,642.3],[1005.5,641],[1005.5,641],[1015.4,632.7],[1010.6,603.7],[1024.6,594.1],[1033.9,586.8],[1038.3,583.6],[1038.3,583.6],[1053.2,580.5],[1055.8,572.4],[1050.5,572.6],[1043.9,571.6],[1037.8,565.7],[1032.4,559.2],[1024.3,578.4],[998.1,566.1],[990,559.3],[974,542.6],[948.6,527.9],[934,503.2],[919.4,478.5],[925,455.7],[930.6,432.9],[933.2,423.7],[937,403],[937,403],[952.2,384.2],[956.8,399.5],[969.3,424.7],[978.6,425.9],[981.5,435.6],[981.5,435.6],[1005.8,465],[1013.2,504.7],[1020.6,544.4],[1024.4,562.2],[1038.5,580.9],[1040.5,609.8],[991.8,621.1],[951,625],[919.2,638.5],[887.8,640.9],[820.2,625.9],[820.2,625.9],[763.8,586.5],[717.3,581],[677.4,583.8],[644.6,580.6],[611.8,577.4],[620.4,556.7],[621.1,543.4],[601.6,543.8],[586.7,554.8],[603.5,568.4],[616.2,600.2],[616.2,600.2],[619.8,595.4],[626.3,594.1],[625.7,598.8],[616.1,598.9],[613.3,599.3],[613.3,599.3],[610.5,599.7],[621.4,608.7],[623.6,605.9],[636.9,611.6],[650.2,617.3],[650.2,617.3],[678.8,633.2],[714.2,631.4],[746.8,633],[790.2,633.9],[835.1,633.7],[870,621.4],[905.6,601.2],[952.5,616.8],[971.4,619],[991,627.7],[994.5,628.9],[993.5,642],[995.3,651.7],[1005.6,649.4],[1019.2,663.4],[1039.7,699.8],[1060.2,736.2],[1078.1,748.6],[1092.9,756.3],[1092.9,756.3],[1115.4,761.6],[1115.4,761.6],[1143.9,759.7],[1143.9,759.7],[1135.3,758.9],[1135.3,758.9],[1107.5,761],[1107.5,761],[1065.7,749.9],[1065.7,749.9],[1028.7,722],[1028.7,722],[998.9,721.9],[998.9,721.9],[964.9,722.2],[964.9,722.2],[957.6,722.9],[957.6,722.9],[935.4,728.4],[935.4,728.4],[923,718.8],[923,718.8],[905.6,716.9],[905.6,716.9],[923.3,702.9],[923.3,702.9],[961.2,678.4],[961.2,678.4],[1002,709.3],[1002,709.3],[1008.7,716.5],[1008.7,716.5],[1019.3,690.6],[1019.3,690.6],[1035.9,650.2],[1036.1,626.5],[1054.3,602.7],[1054.3,602.7],[1065.8,598.6],[1073.2,579.7],[1100.7,562.1],[1102.5,576],[1105.1,565],[1137.4,563.6],[1160,555.1],[1165.8,553],[1176.2,545.7],[1186.6,538.4],[1178.7,519.6],[1158.2,506.6],[1127,506],[1127,506],[1120.1,493.1],[1105.9,490.3],[1086.5,503.2],[1035.8,497.5],[1000.1,499.5],[954.9,479.4],[907.9,469.2],[862.9,454.8],[833.6,448.9],[811.6,449.3],[790,438.1],[790,438.1],[779.9,426.9],[781.3,420.8],[781.3,420.8],[815.7,435.4],[829.1,440.2],[829.1,440.2],[851.3,458.8],[869.8,490.1],[881.3,527.9],[892.8,565.7],[877.5,584.6],[877.5,584.6],[871.2,587.8],[891.1,585.5],[897.3,576.6],[902.2,563.3],[925.1,581.6],[925.1,581.6],[935.4,576.9],[959.9,566.2],[996.2,556],[1035.2,535.5],[1074.1,529.8],[1082.2,531.4],[1068.8,528.4],[1048.5,537.3],[1035.4,550],[1039.7,545.6],[1042.4,560.6],[1042.4,560.6],[1035.6,559.1],[1028.7,552.4],[998.3,556.9],[998.3,556.9],[1002.9,575.4],[1002.9,575.4],[1012.9,576.1],[1007.5,564.5],[1011.2,542.5],[1013.1,547.7],[1000.6,548.2],[986.6,544.9],[983.5,536.2],[981.6,536.4],[1002.9,534.7],[990.1,521.4],[993.7,534.3],[999.5,556.1],[1000.3,568.4],[1001.2,551.2],[1002.1,534],[1023.7,537],[1023.7,537],[1020.4,535.4],[1014.1,524.5],[997.6,511],[986.6,502.3],[975.6,493.6],[989.1,507.2],[994.2,507.6],[989.8,526],[998.5,547.5],[983.3,541.2],[979.1,566.8],[976.8,598],[977.5,630.8],[980.2,648.7],[982.3,678.1],[968.5,693.8],[968.4,720.7],[978.6,730.5],[971.1,742.7],[960.1,772.3],[963.3,771.2],[962.2,777.1],[966.1,788.8],[968.6,805.6],[968.6,805.6],[971.7,810.9],[971.7,810.9],[962.6,803.9],[962.6,803.9],[948.6,809.6],[948.6,809.6],[942.5,804.4],[939.3,796.8],[947.3,782.6],[947.3,782.6],[946.7,793.2],[946.7,793.2],[941.3,775],[941.3,775],[931.8,763.3],[931.8,763.3],[924.1,747.9],[924.1,747.9],[924.2,729.8],[924.2,729.8],[938.6,725.1],[938.6,725.1],[961.2,725]]","[0,0.3527331528]","[0.3527331528,0.3527331528]","[-0.3527331528,-0.3527331528]","[-0.3527331528,0]","[0,-0.3527331528]","[0.3527331528,-0.3527331528]","[0,0]","[0.3527331528,0]",0,0,0,0,1,3,Tablet,11,9,9,1
,,,,,,,,,,,,,,,,,,,,21,001,2024-12-02_13h10.17.060,Attention_exp_legacy,2023.1.0,Win32,60.60606061,,,,,,,,,,[0.053125],[0.3],[1],[0],[0],[2.363500000000002],"[""Option1_label""]",Option1_label,2,3.3792,"[[0.04375,0.31296296296296294],[0.04375,0.31296296296296294],[0.04375,0.31296296296296294],[0.04375,0.31296296296296294],[0.04375,0.31296296296296294],[0.04375,0.31296296296296294],[0.04375,0.31296296296296294],[0.04375,0.31296296296296294],[0.04375,0.31296296296296294],[0.04375,0.31296296296296294],[0.04375,0.31296296296296294],[0.04375,0.31296296296296294],[0.04375,0.31296296296296294],[0.04375,0.31296296296296294],[0.04375,0.31296296296296294],[0.04375,0.31296296296296294],[0.04375,0.31296296296296294],[0.04375,0.31296296296296294],[0.04375,0.31296296296296294],[0.04375,0.31296296296296294],[0.04375,0.31296296296296294],[0.04375,0.31296296296296294],[0.04375,0.31296296296296294],[0.04375,0.31296296296296294],[0.04375,0.31296296296296294],[0.04375,0.31296296296296294],[0.04375,0.31296296296296294],[0.04375,0.31296296296296294],[0.04375,0.31296296296296294],[0.04375,0.31296296296296294],[0.04375,0.31296296296296294],[0.04375,0.31296296296296294],[0.04375,0.31296296296296294],[0.04375,0.31296296296296294],[0.04375,0.31296296296296294],[0.04375,0.31296296296296294],[0.04375,0.31296296296296294],[0.04375,0.31296296296296294],[0.04375,0.31296296296296294],[0.04375,0.31296296296296294],[0.04375,0.31296296296296294],[0.04375,0.31296296296296294],[0.04375,0.31296296296296294],[0.04375,0.31296296296296294],[0.04375,0.31296296296296294],[0.04375,0.31296296296296294],[0.04375,0.31296296296296294],[0.04375,0.31296296296296294],[0.04375,0.31296296296296294],[0.04375,0.31296296296296294],[0.04375,0.31296296296296294],[0.04375,0.31296296296296294],[0.04375,0.31296296296296294],[0.04375,0.31296296296296294],[0.04375,0.31296296296296294],[0.04375,0.31296296296296294],[0.04375,0.31296296296296294],[0.04375,0.31296296296296294],[0.04375,0.31296296296296294],[0.04375,0.31296296296296294],[0.04375,0.31296296296296294],[0.04375,0.31296296296296294],[0.04375,0.31296296296296294],[0.04375,0.31296296296296294],[0.04375,0.31296296296296294],[0.04375,0.31296296296296294],[0.04791666666666667,0.31296296296296294],[0.052083333333333336,0.31296296296296294],[0.058333333333333334,0.31666666666666665],[0.06666666666666667,0.31851851851851853],[0.07395833333333333,0.31851851851851853],[0.084375,0.31851851851851853],[0.09270833333333334,0.32037037037037036],[0.09791666666666667,0.32037037037037036],[0.10729166666666666,0.32592592592592595],[0.11041666666666666,0.32592592592592595],[0.11458333333333333,0.3277777777777778],[0.12708333333333333,0.3296296296296296],[0.13333333333333333,0.3333333333333333],[0.14375,0.3351851851851852],[0.15520833333333334,0.3351851851851852],[0.17291666666666666,0.3351851851851852],[0.196875,0.3351851851851852],[0.22291666666666668,0.3351851851851852],[0.25,0.3351851851851852],[0.278125,0.3351851851851852],[0.30625,0.3351851851851852],[0.32916666666666666,0.3351851851851852],[0.33645833333333336,0.3351851851851852],[0.33958333333333335,0.3351851851851852],[0.33958333333333335,0.3351851851851852],[0.33958333333333335,0.3351851851851852],[0.33958333333333335,0.3351851851851852],[0.33958333333333335,0.3351851851851852],[0.33958333333333335,0.3351851851851852],[0.33958333333333335,0.3351851851851852],[0.33958333333333335,0.3351851851851852],[0.33958333333333335,0.3351851851851852],[0.33958333333333335,0.3351851851851852],[0.33958333333333335,0.3351851851851852],[0.33958333333333335,0.3351851851851852],[0.33958333333333335,0.3351851851851852],[0.33958333333333335,0.3351851851851852],[0.33958333333333335,0.3351851851851852],[0.33958333333333335,0.3351851851851852],[0.33958333333333335,0.3351851851851852],[0.33958333333333335,0.3351851851851852],[0.33958333333333335,0.3351851851851852],[0.33958333333333335,0.3351851851851852],[0.33958333333333335,0.3351851851851852],[0.33958333333333335,0.3351851851851852],[0.33958333333333335,0.3351851851851852],[0.33958333333333335,0.3351851851851852],[0.33958333333333335,0.3351851851851852],[0.33958333333333335,0.3351851851851852],[0.3385416666666667,0.3351851851851852],[0.3375,0.3333333333333333],[0.33645833333333336,0.3333333333333333],[0.33541666666666664,0.3314814814814815],[0.334375,0.3296296296296296],[0.3333333333333333,0.3296296296296296],[0.3333333333333333,0.3277777777777778],[0.33229166666666665,0.3277777777777778],[0.33229166666666665,0.3277777777777778],[0.33125,0.3277777777777778],[0.325,0.32592592592592595],[0.3145833333333333,0.31851851851851853],[0.2947916666666667,0.31666666666666665],[0.26666666666666666,0.3074074074074074],[0.23020833333333332,0.3],[0.1875,0.3],[0.13541666666666666,0.3],[0.09583333333333334,0.3],[0.06979166666666667,0.3],[0.057291666666666664,0.3],[0.053125,0.3],[0.053125,0.3],[0.053125,0.3],[0.053125,0.3],[0.053125,0.3],[0.053125,0.3],[0.053125,0.3],[0.053125,0.3],[0.053125,0.3],[0.053125,0.3],[0.053125,0.3],[0.053125,0.3],[0.053125,0.3],[0.053125,0.3],[0.053125,0.3],[0.053125,0.3],[0.053125,0.3],[0.053125,0.3],[0.053125,0.3],[0.053125,0.3],[0.053125,0.3],[0.053125,0.3],[0.053125,0.3],[0.053125,0.3],[0.053125,0.3],[0.053125,0.3],[0.053125,0.3],[0.053125,0.3],[0.053125,0.3],[0.053125,0.3],[0.053125,0.3],[0.053125,0.3],[0.053125,0.3],[0.053125,0.3],[0.053125,0.3],[0.053125,0.3],[0.051041666666666666,0.3],[0.051041666666666666,0.29814814814814816],[0.05,0.29814814814814816],[0.04895833333333333,0.29814814814814816],[0.04895833333333333,0.29814814814814816],[0.04895833333333333,0.29814814814814816],[0.04895833333333333,0.29814814814814816],[0.04895833333333333,0.29814814814814816],[0.04895833333333333,0.29814814814814816],[0.04895833333333333,0.29814814814814816],[0.04895833333333333,0.29814814814814816],[0.04895833333333333,0.29814814814814816],[0.04895833333333333,0.29814814814814816],[0.04895833333333333,0.29814814814814816],[0.04895833333333333,0.29814814814814816],[0.04895833333333333,0.29814814814814816],[0.04895833333333333,0.29814814814814816],[0.04895833333333333,0.29814814814814816],[0.04895833333333333,0.29814814814814816],[0.04895833333333333,0.29814814814814816],[0.04895833333333333,0.29814814814814816],[0.04895833333333333,0.29814814814814816],[0.04895833333333333,0.29814814814814816],[0.04895833333333333,0.29814814814814816],[0.04895833333333333,0.29814814814814816],[0.04895833333333333,0.29814814814814816],[0.04895833333333333,0.29814814814814816],[0.04895833333333333,0.29814814814814816],[0.04895833333333333,0.29814814814814816],[0.04895833333333333,0.29814814814814816],[0.04895833333333333,0.29814814814814816],[0.04895833333333333,0.29814814814814816],[0.04895833333333333,0.29814814814814816]]","[[-0.3672916666666667,0.04203703703703712],[-0.36447916666666663,0.04462962962962967],[-0.36604166666666665,0.0514814814814814],[-0.36875,0.07259259259259268],[-0.36302083333333335,0.1081481481481481],[-0.3572916666666667,0.14370370370370375],[-0.3577083333333333,0.15259259259259256],[-0.3577083333333333,0.15259259259259256],[-0.35812499999999997,0.16148148148148156],[-0.3538541666666667,0.14759259259259266],[-0.35885416666666664,0.11944444444444445],[-0.3720833333333334,0.09407407407407399],[-0.3720833333333334,0.09407407407407399],[-0.3853125,0.06870370370370374],[-0.3845833333333334,0.042407407407407366],[-0.3788541666666667,0.04407407407407399],[-0.38333333333333336,0.011481481481481566],[-0.37822916666666667,-0.021296296296296296],[-0.37833333333333335,-0.051666666666666625],[-0.3784374999999999,-0.08203703703703706],[-0.38156249999999997,-0.06574074074074074],[-0.3754166666666666,-0.03518518518518519],[-0.36447916666666663,-0.036666666666666584],[-0.35354166666666664,-0.03814814814814819],[-0.3608333333333333,-0.01703703703703712],[-0.37312500000000004,-0.02388888888888885],[-0.3733333333333333,-0.032407407407407406],[-0.38312499999999994,-0.040740740740740744],[-0.36447916666666663,-0.02370370370370362],[-0.3458333333333333,-0.006666666666666709],[-0.30114583333333333,-0.017407407407407365],[-0.2564583333333334,-0.02814814814814823],[-0.21968749999999998,-0.024074074074074074],[-0.1829166666666667,-0.019999999999999917],[-0.13708333333333336,-0.025925925925925925],[-0.09125000000000003,-0.03185185185185194],[-0.05010416666666669,-0.021481481481481525],[-0.008229166666666643,-0.018518518518518517],[0.01395833333333331,-0.027222222222222307],[0.03999999999999997,-0.006111111111111027],[0.04208333333333331,0.011111111111111112],[0.05,0.007962962962962878],[0.059895833333333336,0.02833333333333325],[0.06979166666666667,0.04870370370370362],[0.08583333333333343,0.07981481481481485],[0.10187499999999995,0.11092592592592589],[0.11291666666666676,0.12518518518518523],[0.12322916666666663,0.14685185185185176],[0.12322916666666663,0.14685185185185176],[0.13697916666666668,0.17814814814814822],[0.1462500000000001,0.1566666666666667],[0.15552083333333327,0.13518518518518519],[0.17374999999999996,0.12370370370370362],[0.1931250000000001,0.105925925925926],[0.1931250000000001,0.105925925925926],[0.21677083333333325,0.07092592592592584],[0.24031250000000004,0.02166666666666675],[0.2542708333333332,-0.020740740740740823],[0.27791666666666665,-0.05555555555555555],[0.3015625,-0.09037037037037039],[0.3015625,-0.09037037037037039],[0.32177083333333345,-0.13481481481481483],[0.32177083333333345,-0.13481481481481483],[0.3125,-0.1051851851851852],[0.3125,-0.1051851851851852],[0.2877083333333334,-0.08518518518518518],[0.2877083333333334,-0.08518518518518518],[0.25812499999999994,-0.08481481481481483],[0.25812499999999994,-0.08481481481481483],[0.23010416666666675,-0.08703703703703704],[0.23010416666666675,-0.08703703703703704],[0.19697916666666657,-0.06648148148148143],[0.19697916666666657,-0.06648148148148143],[0.16041666666666668,-0.07537037037037035],[0.13854166666666667,-0.06074074074074076],[0.13854166666666667,-0.06074074074074076],[0.10666666666666676,-0.04888888888888885],[0.10666666666666676,-0.04888888888888885],[0.09375,-0.02240740740740745],[0.09375,-0.02240740740740745],[0.07020833333333343,-0.02388888888888885],[0.09583333333333334,-0.05907407407407403],[0.09583333333333334,-0.05907407407407403],[0.1224999999999999,-0.08314814814814811],[0.1224999999999999,-0.08314814814814811],[0.1453125,-0.10759259259259263],[0.1736458333333334,-0.10333333333333336],[0.19427083333333334,-0.11388888888888889],[0.21166666666666673,-0.10351851851851848],[0.24020833333333325,-0.17462962962962966],[0.2672916666666666,-0.205],[0.27541666666666675,-0.25],[0.27625000000000005,-0.2838888888888889],[0.25802083333333337,-0.3351851851851852],[0.26666666666666666,-0.3303703703703703],[0.2515625,-0.3066666666666667],[0.23666666666666672,-0.29888888888888887],[0.2303124999999999,-0.28185185185185185],[0.2193749999999999,-0.27814814814814814],[0.19197916666666662,-0.21796296296296294],[0.18312499999999995,-0.1235185185185185],[0.1806250000000001,-0.05888888888888891],[0.20052083333333334,-0.038703703703703664],[0.22041666666666657,-0.018518518518518517],[0.2163541666666667,-0.03740740740740749],[0.24802083333333325,-0.07611111111111116],[0.26364583333333325,-0.10111111111111115],[0.27927083333333325,-0.12611111111111115],[0.2994791666666667,-0.13777777777777775],[0.31395833333333345,-0.17833333333333334],[0.3224999999999999,-0.24518518518518514],[0.3433333333333332,-0.29981481481481476],[0.35968749999999994,-0.29314814814814816],[0.36208333333333326,-0.2690740740740741],[0.36208333333333326,-0.2690740740740741],[0.3805208333333333,-0.26481481481481484],[0.3779166666666666,-0.2801851851851852],[0.38406250000000003,-0.3194444444444444],[0.38791666666666674,-0.3314814814814815],[0.38875000000000004,-0.34018518518518515],[0.40083333333333326,-0.34148148148148144],[0.4070833333333333,-0.3794444444444444],[0.3954166666666666,-0.4051851851851852],[0.3837500000000001,-0.4309259259259259],[0.3875,-0.4714814814814815],[0.3836458333333333,-0.4905555555555555],[0.3836458333333333,-0.4905555555555555],[0.3394791666666668,-0.4172222222222222],[0.30791666666666656,-0.37407407407407406],[0.28135416666666657,-0.3416666666666667],[0.27927083333333325,-0.35407407407407404],[0.271875,-0.35037037037037033],[0.24656250000000005,-0.33111111111111113],[0.21947916666666673,-0.27925925925925926],[0.19239583333333338,-0.22740740740740742],[0.16354166666666667,-0.22092592592592594],[0.13781249999999995,-0.2346296296296296],[0.15239583333333329,-0.23499999999999996],[0.15239583333333329,-0.23499999999999996],[0.15125000000000005,-0.26740740740740737],[0.1486458333333334,-0.3007407407407407],[0.12458333333333324,-0.2927777777777778],[0.09145833333333328,-0.21425925925925923],[0.0884375000000001,-0.13574074074074077],[0.0853125000000001,-0.09148148148148144],[0.06958333333333329,-0.075],[0.05791666666666669,-0.04259259259259259],[0.04624999999999998,-0.010185185185185186],[0.04624999999999998,-0.010185185185185186],[0.04624999999999998,-0.010185185185185186],[0.017499999999999953,-0.03925925925925934],[0.004375000000000047,-0.023148148148148147],[-0.003541666666666643,0.020370370370370372],[-0.011458333333333333,0.06407407407407412],[0.005312500000000024,0.005370370370370328],[0.009895833333333333,-0.06888888888888887],[0.015625,-0.1361111111111111],[0.01229166666666662,-0.17333333333333337],[0.005208333333333333,-0.18370370370370367],[0.017812500000000023,-0.1977777777777778],[0.03989583333333328,-0.23333333333333334],[0.034375,-0.20833333333333334],[0.034375,-0.20833333333333334],[0.03333333333333333,-0.21425925925925923],[0.035000000000000024,-0.2479629629629629],[0.009687499999999953,-0.23981481481481481],[0.0015625,-0.21592592592592597],[-0.01552083333333331,-0.19000000000000003],[-0.0048958333333333805,-0.19018518518518515],[0.005729166666666666,-0.19037037037037038],[-0.007187499999999976,-0.182962962962963],[-0.009583333333333381,-0.14740740740740746],[0.004375000000000047,-0.16018518518518518],[0.007395833333333357,-0.18499999999999997],[0.007395833333333357,-0.18499999999999997],[0.027395833333333286,-0.1983333333333334],[0.041666666666666664,-0.22259259259259256],[0.03875000000000005,-0.2625925925925926],[0.06666666666666667,-0.29666666666666663],[0.08916666666666657,-0.30833333333333335],[0.11166666666666672,-0.32],[0.09947916666666666,-0.2814814814814815],[0.08802083333333334,-0.24388888888888888],[0.06791666666666671,-0.20907407407407402],[0.04781249999999997,-0.1742592592592593],[0.0018749999999999527,-0.1359259259259259],[0.0018749999999999527,-0.1359259259259259],[-0.01604166666666664,-0.1007407407407407],[-0.03791666666666664,-0.05185185185185185],[-0.0875,-0.006111111111111027],[-0.1486458333333334,0.04092592592592597],[-0.20979166666666665,0.08796296296296297],[-0.20979166666666665,0.08796296296296297],[-0.22302083333333336,0.11018518518518519],[-0.22302083333333336,0.11018518518518519],[-0.24104166666666665,0.11629629629629622],[-0.2546875,0.12148148148148152],[-0.2546875,0.12148148148148152],[-0.27062499999999995,0.14962962962962956],[-0.27062499999999995,0.14962962962962956],[-0.2616666666666667,0.1655555555555555],[-0.2616666666666667,0.1655555555555555],[-0.2703125,0.1737037037037036],[-0.2577083333333333,0.1507407407407407]]","[[-0.3672916666666667,0.04203703703703712,0.000099999999626732],[-0.36447916666666663,0.04462962962962967,0.015700000000180125],[-0.36604166666666665,0.0514814814814814,0.03159999999962082],[-0.36875,0.07259259259259268,0.045999999999999375],[-0.36302083333333335,0.1081481481481481,0.064900000000371],[-0.3572916666666667,0.14370370370370375,0.07929999999981163],[-0.3577083333333333,0.15259259259259256,0.0959000000003698],[-0.3577083333333333,0.15259259259259256,0.11259999999962389],[-0.35812499999999997,0.16148148148148156,0.1292999999998088],[-0.3538541666666667,0.14759259259259266,0.14590000000036696],[-0.35885416666666664,0.11944444444444445,0.1627000000001857],[-0.3720833333333334,0.09407407407407399,0.1794000000003706],[-0.3720833333333334,0.09407407407407399,0.19599999999999795],[-0.3853125,0.06870370370370374,0.2125999999996253],[-0.3845833333333334,0.042407407407407366,0.2292999999998102],[-0.3788541666666667,0.04407407407407399,0.2459999999999951],[-0.38333333333333336,0.011481481481481566,0.26309999999962486],[-0.37822916666666667,-0.021296296296296296,0.27929999999980737],[-0.37833333333333335,-0.051666666666666625,0.29749999999999943],[-0.3784374999999999,-0.08203703703703706,0.31259999999962673],[-0.38156249999999997,-0.06574074074074074,0.32929999999981163],[-0.3754166666666666,-0.03518518518518519,0.34599999999999653],[-0.36447916666666663,-0.036666666666666584,0.3625999999996239],[-0.35354166666666664,-0.03814814814814819,0.3792999999998088],[-0.3608333333333333,-0.01703703703703712,0.39640000000036935],[-0.37312500000000004,-0.02388888888888885,0.41259999999962105],[-0.3733333333333333,-0.032407407407407406,0.43120000000018166],[-0.38312499999999994,-0.040740740740740744,0.44599999999999795],[-0.36447916666666663,-0.02370370370370362,0.4625999999996253],[-0.3458333333333333,-0.006666666666666709,0.47940000000036775],[-0.30114583333333333,-0.017407407407407365,0.4964999999999975],[-0.2564583333333334,-0.02814814814814823,0.5125999999996225],[-0.21968749999999998,-0.024074074074074074,0.5292000000001806],[-0.1829166666666667,-0.019999999999999917,0.5459999999999994],[-0.13708333333333336,-0.025925925925925925,0.5625999999996267],[-0.09125000000000003,-0.03185185185185194,0.5792999999998116],[-0.05010416666666669,-0.021481481481481525,0.5972999999998123],[-0.008229166666666643,-0.018518518518518517,0.6125999999996239],[0.01395833333333331,-0.027222222222222307,0.6317999999998136],[0.03999999999999997,-0.006111111111111027,0.645900000000367],[0.04208333333333331,0.011111111111111112,0.662599999999621],[0.05,0.007962962962962878,0.679299999999813],[0.059895833333333336,0.02833333333333325,0.6985999999996224],[0.06979166666666667,0.04870370370370362,0.7127000000001829],[0.08583333333333343,0.07981481481481485,0.7292999999998102],[0.10187499999999995,0.11092592592592589,0.7459999999999951],[0.11291666666666676,0.12518518518518523,0.7625999999996225],[0.12322916666666663,0.14685185185185176,0.779400000000372],[0.12322916666666663,0.14685185185185176,0.7959999999999994],[0.13697916666666668,0.17814814814814822,0.8125999999996267],[0.1462500000000001,0.1566666666666667,0.8294000000003692],[0.15552083333333327,0.13518518518518519,0.8459999999999965],[0.17374999999999996,0.12370370370370362,0.8644000000003658],[0.1931250000000001,0.105925925925926,0.8792999999998088],[0.1931250000000001,0.105925925925926,0.8960999999996275],[0.21677083333333325,0.07092592592592584,0.912599999999621],[0.24031250000000004,0.02166666666666675,0.929299999999813],[0.2542708333333332,-0.020740740740740823,0.945999999999998],[0.27791666666666665,-0.05555555555555555,0.9627000000001829],[0.3015625,-0.09037037037037039,0.9792999999998102],[0.3015625,-0.09037037037037039,0.9960999999996218],[0.32177083333333345,-0.13481481481481483,1.0125999999996225],[0.32177083333333345,-0.13481481481481483,1.0292999999998074],[0.3125,-0.1051851851851852,1.0459999999999994],[0.3125,-0.1051851851851852,1.0625999999996267],[0.2877083333333334,-0.08518518518518518,1.0794000000003692],[0.2877083333333334,-0.08518518518518518,1.1002999999998124],[0.25812499999999994,-0.08481481481481483,1.1129000000003657],[0.25812499999999994,-0.08481481481481483,1.1292999999998088],[0.23010416666666675,-0.08703703703703704,1.1507000000001852],[0.23010416666666675,-0.08703703703703704,1.1627999999998124],[0.19697916666666657,-0.06648148148148143,1.1794999999999973],[0.19697916666666657,-0.06648148148148143,1.1962000000001822],[0.16041666666666668,-0.07537037037037035,1.2172999999998098],[0.13854166666666667,-0.06074074074074076,1.2325999999996213],[0.13854166666666667,-0.06074074074074076,1.2459999999999951],[0.10666666666666676,-0.04888888888888885,1.2629000000003714],[0.10666666666666676,-0.04888888888888885,1.2840999999996257],[0.09375,-0.02240740740740745,1.296099999999626],[0.09375,-0.02240740740740745,1.3127000000001843],[0.07020833333333343,-0.02388888888888885,1.3322999999998117],[0.09583333333333334,-0.05907407407407403,1.349499999999999],[0.09583333333333334,-0.05907407407407403,1.3627000000001814],[0.1224999999999999,-0.08314814814814811,1.379499999999993],[0.1224999999999999,-0.08314814814814811,1.3997999999998072],[0.1453125,-0.10759259259259263,1.4127999999998124],[0.1736458333333334,-0.10333333333333336,1.429599999999624],[0.19427083333333334,-0.11388888888888889,1.4460999999996247],[0.21166666666666673,-0.10351851851851848,1.4649000000003696],[0.24020833333333325,-0.17462962962962966,1.4794000000003678],[0.2672916666666666,-0.205,1.4992999999998133],[0.27541666666666675,-0.25,1.5149999999999935],[0.27625000000000005,-0.2838888888888889,1.529400000000372],[0.25802083333333337,-0.3351851851851852,1.546099999999626],[0.26666666666666666,-0.3303703703703703,1.5674000000003687],[0.2515625,-0.3066666666666667,1.5824000000003693],[0.23666666666666672,-0.29888888888888887,1.5984999999999943],[0.2303124999999999,-0.28185185185185185,1.6127999999998082],[0.2193749999999999,-0.27814814814814814,1.6292999999998088],[0.19197916666666662,-0.21796296296296294,1.6459999999999937],[0.18312499999999995,-0.1235185185185185,1.6629999999999967],[0.1806250000000001,-0.05888888888888891,1.679299999999813],[0.20052083333333334,-0.038703703703703664,1.695999999999998],[0.22041666666666657,-0.018518518518518517,1.7125999999996253],[0.2163541666666667,-0.03740740740740749,1.7292000000001835],[0.24802083333333325,-0.07611111111111116,1.7459999999999951],[0.26364583333333325,-0.10111111111111115,1.7625999999996225],[0.27927083333333325,-0.12611111111111115,1.7792999999998074],[0.2994791666666667,-0.13777777777777775,1.7962999999998104],[0.31395833333333345,-0.17833333333333334,1.8125999999996267],[0.3224999999999999,-0.24518518518518514,1.8292999999998116],[0.3433333333333332,-0.29981481481481476,1.8460999999996233],[0.35968749999999994,-0.29314814814814816,1.8652000000001863],[0.36208333333333326,-0.2690740740740741,1.881999999999998],[0.36208333333333326,-0.2690740740740741,1.8960999999996275],[0.3805208333333333,-0.26481481481481484,1.9152999999998102],[0.3779166666666666,-0.2801851851851852,1.9294999999999973],[0.38406250000000003,-0.3194444444444444,1.9460999999996247],[0.38791666666666674,-0.3314814814814815,1.965700000000183],[0.38875000000000004,-0.34018518518518515,1.9797999999998126],[0.40083333333333326,-0.34148148148148144,1.9970999999996266],[0.4070833333333333,-0.3794444444444444,2.0159000000003715],[0.3954166666666666,-0.4051851851851852,2.0332000000001855],[0.3837500000000001,-0.4309259259259259,2.0479999999999947],[0.3875,-0.4714814814814815,2.0625999999996267],[0.3836458333333333,-0.4905555555555555,2.0824000000003693],[0.3836458333333333,-0.4905555555555555,2.096499999999999],[0.3394791666666668,-0.4172222222222222,2.1127000000001814],[0.30791666666666656,-0.37407407407407406,2.1312999999998112],[0.28135416666666657,-0.3416666666666667,2.1459999999999937],[0.27927083333333325,-0.35407407407407404,2.1627000000001857],[0.271875,-0.35037037037037033,2.182299999999813],[0.24656250000000005,-0.33111111111111113,2.19870000000018],[0.21947916666666673,-0.27925925925925926,2.212700000000183],[0.19239583333333338,-0.22740740740740742,2.231499999999997],[0.16354166666666667,-0.22092592592592594,2.246099999999622],[0.13781249999999995,-0.2346296296296296,2.264599999999625],[0.15239583333333329,-0.23499999999999996,2.2792000000001806],[0.15239583333333329,-0.23499999999999996,2.2959000000003726],[0.15125000000000005,-0.26740740740740737,2.3125999999996267],[0.1486458333333334,-0.3007407407407407,2.329200000000185],[0.12458333333333324,-0.2927777777777778,2.3459999999999965],[0.09145833333333328,-0.21425925925925923,2.3644999999999996],[0.0884375000000001,-0.13574074074074077,2.379299999999809],[0.0853125000000001,-0.09148148148148144,2.3987999999998095],[0.06958333333333329,-0.075,2.4127999999998124],[0.05791666666666669,-0.04259259259259259,2.429299999999813],[0.04624999999999998,-0.010185185185185186,2.4509999999999934],[0.04624999999999998,-0.010185185185185186,2.4840999999996214],[0.04624999999999998,-0.010185185185185186,2.488999999999997],[0.017499999999999953,-0.03925925925925934,2.497599999999622],[0.004375000000000047,-0.023148148148148147,2.5125999999996225],[-0.003541666666666643,0.020370370370370372,2.5292000000001806],[-0.011458333333333333,0.06407407407407412,2.5459000000003726],[0.005312500000000024,0.005370370370370328,2.5627000000001843],[0.009895833333333333,-0.06888888888888887,2.579400000000369],[0.015625,-0.1361111111111111,2.597700000000181],[0.01229166666666662,-0.17333333333333337,2.612599999999624],[0.005208333333333333,-0.18370370370370367,2.629200000000182],[0.017812500000000023,-0.1977777777777778,2.645900000000367],[0.03989583333333328,-0.23333333333333334,2.662599999999621],[0.034375,-0.20833333333333334,2.679299999999813],[0.034375,-0.20833333333333334,2.6962000000001822],[0.03333333333333333,-0.21425925925925923,2.712700000000183],[0.035000000000000024,-0.2479629629629629,2.72929999999981],[0.009687499999999953,-0.23981481481481481,2.7459000000003684],[0.0015625,-0.21592592592592597,2.7625999999996225],[-0.01552083333333331,-0.19000000000000003,2.7792999999998074],[-0.0048958333333333805,-0.19018518518518515,2.7959999999999994],[0.005729166666666666,-0.19037037037037038,2.8127000000001843],[-0.007187499999999976,-0.182962962962963,2.8292999999998116],[-0.009583333333333381,-0.14740740740740746,2.8477999999998076],[0.004375000000000047,-0.16018518518518518,2.8657000000001815],[0.007395833333333357,-0.18499999999999997,2.8815999999996222],[0.007395833333333357,-0.18499999999999997,2.8959999999999937],[0.027395833333333286,-0.1983333333333334,2.9124999999999943],[0.041666666666666664,-0.22259259259259256,2.9292000000001863],[0.03875000000000005,-0.2625925925925926,2.945900000000371],[0.06666666666666667,-0.29666666666666663,2.9625999999996253],[0.08916666666666657,-0.30833333333333335,2.97929999999981],[0.11166666666666672,-0.32,2.995999999999995],[0.09947916666666666,-0.2814814814814815,3.0125999999996225],[0.08802083333333334,-0.24388888888888888,3.0292999999998074],[0.06791666666666671,-0.20907407407407402,3.0459999999999994],[0.04781249999999997,-0.1742592592592593,3.0625999999996267],[0.0018749999999999527,-0.1359259259259259,3.0792999999998116],[0.0018749999999999527,-0.1359259259259259,3.0960999999996233],[-0.01604166666666664,-0.1007407407407407,3.112599999999624],[-0.03791666666666664,-0.05185185185185185,3.129299999999809],[-0.0875,-0.006111111111111027,3.145900000000367],[-0.1486458333333334,0.04092592592592597,3.162599999999621],[-0.20979166666666665,0.08796296296296297,3.179299999999813],[-0.20979166666666665,0.08796296296296297,3.196299999999809],[-0.22302083333333336,0.11018518518518519,3.2125999999996253],[-0.22302083333333336,0.11018518518518519,3.2292000000001835],[-0.24104166666666665,0.11629629629629622,3.2459000000003684],[-0.2546875,0.12148148148148152,3.2659000000003715],[-0.2546875,0.12148148148148152,3.2792999999998074],[-0.27062499999999995,0.14962962962962956,3.296099999999626],[-0.27062499999999995,0.14962962962962956,3.3125999999996267],[-0.2616666666666667,0.1655555555555555,3.3292999999998116],[-0.2616666666666667,0.1655555555555555,3.34590000000037],[-0.2703125,0.1737037037037036,3.362599999999624],[-0.2577083333333333,0.1507407407407407,3.379200000000182]]","[0.000099999999626732,0.015700000000180125,0.03159999999962082,0.045999999999999375,0.064900000000371,0.07929999999981163,0.0959000000003698,0.11259999999962389,0.1292999999998088,0.14590000000036696,0.1627000000001857,0.1794000000003706,0.19599999999999795,0.2125999999996253,0.2292999999998102,0.2459999999999951,0.26309999999962486,0.27929999999980737,0.29749999999999943,0.31259999999962673,0.32929999999981163,0.34599999999999653,0.3625999999996239,0.3792999999998088,0.39640000000036935,0.41259999999962105,0.43120000000018166,0.44599999999999795,0.4625999999996253,0.47940000000036775,0.4964999999999975,0.5125999999996225,0.5292000000001806,0.5459999999999994,0.5625999999996267,0.5792999999998116,0.5972999999998123,0.6125999999996239,0.6317999999998136,0.645900000000367,0.662599999999621,0.679299999999813,0.6985999999996224,0.7127000000001829,0.7292999999998102,0.7459999999999951,0.7625999999996225,0.779400000000372,0.7959999999999994,0.8125999999996267,0.8294000000003692,0.8459999999999965,0.8644000000003658,0.8792999999998088,0.8960999999996275,0.912599999999621,0.929299999999813,0.945999999999998,0.9627000000001829,0.9792999999998102,0.9960999999996218,1.0125999999996225,1.0292999999998074,1.0459999999999994,1.0625999999996267,1.0794000000003692,1.1002999999998124,1.1129000000003657,1.1292999999998088,1.1507000000001852,1.1627999999998124,1.1794999999999973,1.1962000000001822,1.2172999999998098,1.2325999999996213,1.2459999999999951,1.2629000000003714,1.2840999999996257,1.296099999999626,1.3127000000001843,1.3322999999998117,1.349499999999999,1.3627000000001814,1.379499999999993,1.3997999999998072,1.4127999999998124,1.429599999999624,1.4460999999996247,1.4649000000003696,1.4794000000003678,1.4992999999998133,1.5149999999999935,1.529400000000372,1.546099999999626,1.5674000000003687,1.5824000000003693,1.5984999999999943,1.6127999999998082,1.6292999999998088,1.6459999999999937,1.6629999999999967,1.679299999999813,1.695999999999998,1.7125999999996253,1.7292000000001835,1.7459999999999951,1.7625999999996225,1.7792999999998074,1.7962999999998104,1.8125999999996267,1.8292999999998116,1.8460999999996233,1.8652000000001863,1.881999999999998,1.8960999999996275,1.9152999999998102,1.9294999999999973,1.9460999999996247,1.965700000000183,1.9797999999998126,1.9970999999996266,2.0159000000003715,2.0332000000001855,2.0479999999999947,2.0625999999996267,2.0824000000003693,2.096499999999999,2.1127000000001814,2.1312999999998112,2.1459999999999937,2.1627000000001857,2.182299999999813,2.19870000000018,2.212700000000183,2.231499999999997,2.246099999999622,2.264599999999625,2.2792000000001806,2.2959000000003726,2.3125999999996267,2.329200000000185,2.3459999999999965,2.3644999999999996,2.379299999999809,2.3987999999998095,2.4127999999998124,2.429299999999813,2.4509999999999934,2.4840999999996214,2.488999999999997,2.497599999999622,2.5125999999996225,2.5292000000001806,2.5459000000003726,2.5627000000001843,2.579400000000369,2.597700000000181,2.612599999999624,2.629200000000182,2.645900000000367,2.662599999999621,2.679299999999813,2.6962000000001822,2.712700000000183,2.72929999999981,2.7459000000003684,2.7625999999996225,2.7792999999998074,2.7959999999999994,2.8127000000001843,2.8292999999998116,2.8477999999998076,2.8657000000001815,2.8815999999996222,2.8959999999999937,2.9124999999999943,2.9292000000001863,2.945900000000371,2.9625999999996253,2.97929999999981,2.995999999999995,3.0125999999996225,3.0292999999998074,3.0459999999999994,3.0625999999996267,3.0792999999998116,3.0960999999996233,3.112599999999624,3.129299999999809,3.145900000000367,3.162599999999621,3.179299999999813,3.196299999999809,3.2125999999996253,3.2292000000001835,3.2459000000003684,3.2659000000003715,3.2792999999998074,3.296099999999626,3.3125999999996267,3.3292999999998116,3.34590000000037,3.362599999999624,3.379200000000182]","[1733116262433,1733116262447,1733116262463,1733116262477,1733116262496,1733116262511,1733116262527,1733116262544,1733116262561,1733116262577,1733116262594,1733116262611,1733116262628,1733116262644,1733116262661,1733116262677,1733116262695,1733116262711,1733116262729,1733116262744,1733116262761,1733116262777,1733116262794,1733116262811,1733116262828,1733116262844,1733116262863,1733116262877,1733116262894,1733116262911,1733116262928,1733116262944,1733116262961,1733116262978,1733116262994,1733116263011,1733116263029,1733116263044,1733116263063,1733116263077,1733116263094,1733116263111,1733116263130,1733116263144,1733116263161,1733116263177,1733116263194,1733116263211,1733116263228,1733116263244,1733116263261,1733116263278,1733116263296,1733116263311,1733116263328,1733116263344,1733116263361,1733116263378,1733116263394,1733116263411,1733116263428,1733116263444,1733116263461,1733116263477,1733116263494,1733116263511,1733116263532,1733116263544,1733116263561,1733116263582,1733116263594,1733116263611,1733116263628,1733116263649,1733116263664,1733116263678,1733116263694,1733116263716,1733116263728,1733116263744,1733116263764,1733116263781,1733116263794,1733116263811,1733116263831,1733116263844,1733116263861,1733116263878,1733116263896,1733116263911,1733116263931,1733116263947,1733116263961,1733116263978,1733116263999,1733116264014,1733116264030,1733116264044,1733116264061,1733116264077,1733116264095,1733116264111,1733116264128,1733116264144,1733116264161,1733116264177,1733116264194,1733116264211,1733116264228,1733116264244,1733116264261,1733116264278,1733116264297,1733116264314,1733116264328,1733116264347,1733116264361,1733116264378,1733116264397,1733116264411,1733116264429,1733116264447,1733116264465,1733116264479,1733116264494,1733116264514,1733116264528,1733116264544,1733116264563,1733116264578,1733116264594,1733116264614,1733116264630,1733116264644,1733116264663,1733116264678,1733116264696,1733116264711,1733116264727,1733116264744,1733116264761,1733116264777,1733116264796,1733116264811,1733116264830,1733116264844,1733116264861,1733116264882,1733116264916,1733116264921,1733116264929,1733116264944,1733116264961,1733116264977,1733116264994,1733116265011,1733116265029,1733116265044,1733116265061,1733116265077,1733116265094,1733116265111,1733116265128,1733116265144,1733116265161,1733116265177,1733116265194,1733116265211,1733116265228,1733116265244,1733116265261,1733116265279,1733116265297,1733116265313,1733116265328,1733116265344,1733116265361,1733116265377,1733116265394,1733116265411,1733116265428,1733116265444,1733116265461,1733116265477,1733116265494,1733116265511,1733116265528,1733116265544,1733116265561,1733116265577,1733116265594,1733116265611,1733116265628,1733116265644,1733116265661,1733116265677,1733116265697,1733116265711,1733116265728,1733116265744,1733116265761,1733116265777,1733116265794,1733116265811]","[[607.4,562.7],[610.1,564.1],[608.6,567.8],[606,579.2],[611.5,598.4],[617,617.6],[616.6,622.4],[616.6,622.4],[616.2,627.2],[620.3,619.7],[615.5,604.5],[602.8,590.8],[602.8,590.8],[590.1,577.1],[590.8,562.9],[596.3,563.8],[592,546.2],[596.9,528.5],[596.8,512.1],[596.7,495.7],[593.7,504.5],[599.6,521],[610.1,520.2],[620.6,519.4],[613.6,530.8],[601.8,527.1],[601.6,522.5],[592.2,518],[610.1,527.2],[628,536.4],[670.9,530.6],[713.8,524.8],[749.1,527],[784.4,529.2],[828.4,526],[872.4,522.8],[911.9,528.4],[952.1,530],[973.4,525.3],[998.4,536.7],[1000.4,546],[1008,544.3],[1017.5,555.3],[1027,566.3],[1042.4,583.1],[1057.8,599.9],[1068.4,607.6],[1078.3,619.3],[1078.3,619.3],[1091.5,636.2],[1100.4,624.6],[1109.3,613],[1126.8,606.8],[1145.4,597.2],[1145.4,597.2],[1168.1,578.3],[1190.7,551.7],[1204.1,528.8],[1226.8,510],[1249.5,491.2],[1249.5,491.2],[1268.9,467.2],[1268.9,467.2],[1260,483.2],[1260,483.2],[1236.2,494],[1236.2,494],[1207.8,494.2],[1207.8,494.2],[1180.9,493],[1180.9,493],[1149.1,504.1],[1149.1,504.1],[1114,499.3],[1093,507.2],[1093,507.2],[1062.4,513.6],[1062.4,513.6],[1050,527.9],[1050,527.9],[1027.4,527.1],[1052,508.1],[1052,508.1],[1077.6,495.1],[1077.6,495.1],[1099.5,481.9],[1126.7,484.2],[1146.5,478.5],[1163.2,484.1],[1190.6,445.7],[1216.6,429.3],[1224.4,405],[1225.2,386.7],[1207.7,359],[1216,361.6],[1201.5,374.4],[1187.2,378.6],[1181.1,387.8],[1170.6,389.8],[1144.3,422.3],[1135.8,473.3],[1133.4,508.2],[1152.5,519.1],[1171.6,530],[1167.7,519.8],[1198.1,498.9],[1213.1,485.4],[1228.1,471.9],[1247.5,465.6],[1261.4,443.7],[1269.6,407.6],[1289.6,378.1],[1305.3,381.7],[1307.6,394.7],[1307.6,394.7],[1325.3,397],[1322.8,388.7],[1328.7,367.5],[1332.4,361],[1333.2,356.3],[1344.8,355.6],[1350.8,335.1],[1339.6,321.2],[1328.4,307.3],[1332,285.4],[1328.3,275.1],[1328.3,275.1],[1285.9,314.7],[1255.6,338],[1230.1,355.5],[1228.1,348.8],[1221,350.8],[1196.7,361.2],[1170.7,389.2],[1144.7,417.2],[1117,420.7],[1092.3,413.3],[1106.3,413.1],[1106.3,413.1],[1105.2,395.6],[1102.7,377.6],[1079.6,381.9],[1047.8,424.3],[1044.9,466.7],[1041.9,490.6],[1026.8,499.5],[1015.6,517],[1004.4,534.5],[1004.4,534.5],[1004.4,534.5],[976.8,518.8],[964.2,527.5],[956.6,551],[949,574.6],[965.1,542.9],[969.5,502.8],[975,466.5],[971.8,446.4],[965,440.8],[977.1,433.2],[998.3,414],[993,427.5],[993,427.5],[992,424.3],[993.6,406.1],[969.3,410.5],[961.5,423.4],[945.1,437.4],[955.3,437.3],[965.5,437.2],[953.1,441.2],[950.8,460.4],[964.2,453.5],[967.1,440.1],[967.1,440.1],[986.3,432.9],[1000,419.8],[997.2,398.2],[1024,379.8],[1045.6,373.5],[1067.2,367.2],[1055.5,388],[1044.5,408.3],[1025.2,427.1],[1005.9,445.9],[961.8,466.6],[961.8,466.6],[944.6,485.6],[923.6,512],[876,536.7],[817.3,562.1],[758.6,587.5],[758.6,587.5],[745.9,599.5],[745.9,599.5],[728.6,602.8],[715.5,605.6],[715.5,605.6],[700.2,620.8],[700.2,620.8],[708.8,629.4],[708.8,629.4],[700.5,633.8],[712.6,621.4]]","[0,0.3527331528]","[0.3527331528,0.3527331528]","[-0.3527331528,-0.3527331528]","[-0.3527331528,0]","[0,-0.3527331528]","[0.3527331528,-0.3527331528]","[0,0]","[0.3527331528,0]",0,1,1,1,1,3,Tablet,5,5,13,7
