inst1_resp.keys,inst1_resp.rt,calibrationMouse.x,calibrationMouse.y,calibrationMouse.leftButton,calibrationMouse.midButton,calibrationMouse.rightButton,calibrationClick.x,calibrationClick.y,calibrationClick.leftButton,calibrationClick.midButton,calibrationClick.rightButton,trialsc.thisRepN,trialsc.thisTrialN,trialsc.thisN,trialsc.thisIndex,trialsc.ran,calibration_x,calibration_y,participant,session,date,expName,psychopyVersion,OS,frameRate,calibrationClick.clicked_name,ScreenRes_pixels,Camera_pixels,mouse_2.x,mouse_2.y,mouse_2.leftButton,mouse_2.midButton,mouse_2.rightButton,mouse_2.time,mouse_2.clicked_name,mouse.x,mouse.y,mouse.leftButton,mouse.midButton,mouse.rightButton,mouse.time,mouse.clicked_name,Choice,Trial,TrialDuration,MOUSE_GAZE,ET_GAZE,ET_GAZE_x_T,time,unixTime,ET_GAZE_NF,Loc_Option1_label,Loc_Option2_label,Loc_Cost_label,Loc_Qual_label,Loc_Option1_cost,Loc_Option2_cost,Loc_Option1_quality,Loc_Option2_quality,trials.thisRepN,trials.thisTrialN,trials.thisN,trials.thisIndex,trials.ran,Block,Device,cost1,qual1,cost2,qual2
space,3.3719,0.030208333,-0.038888889,1,0,0,0.671875,-0.664814815,0,0,0,0,0,0,20,1,0.67,-0.67,22,001,2024-12-02_11h50.21.392,Attention_exp_legacy,2023.1.0,Win32,59.88023952,,,,,,,,,,,,,,,,,,,,,,,,,,,,,,,,,,,,,,,,,,,,,
,,,,,,,0.671875,-0.664814815,1,0,0,0,1,1,2,1,-0.67,0,22,001,2024-12-02_11h50.21.392,Attention_exp_legacy,2023.1.0,Win32,59.88023952,,,,,,,,,,,,,,,,,,,,,,,,,,,,,,,,,,,,,,,,,,,,,
,,,,,,,-0.666666667,0.32962963,1,0,0,0,2,2,3,1,-0.67,0.33,22,001,2024-12-02_11h50.21.392,Attention_exp_legacy,2023.1.0,Win32,59.88023952,calibration_square,,,,,,,,,,,,,,,,,,,,,,,,,,,,,,,,,,,,,,,,,,,,
,,,,,,,-0.002083333,0.012962963,1,0,0,0,3,3,11,1,0,0,22,001,2024-12-02_11h50.21.392,Attention_exp_legacy,2023.1.0,Win32,59.88023952,,,,,,,,,,,,,,,,,,,,,,,,,,,,,,,,,,,,,,,,,,,,,
,,,,,,,0.341666667,-0.648148148,1,0,0,0,4,4,14,1,0.33,-0.67,22,001,2024-12-02_11h50.21.392,Attention_exp_legacy,2023.1.0,Win32,59.88023952,,,,,,,,,,,,,,,,,,,,,,,,,,,,,,,,,,,,,,,,,,,,,
,,,,,,,-0.336458333,-0.335185185,1,0,0,0,5,5,5,1,-0.33,-0.33,22,001,2024-12-02_11h50.21.392,Attention_exp_legacy,2023.1.0,Win32,59.88023952,calibration_square,,,,,,,,,,,,,,,,,,,,,,,,,,,,,,,,,,,,,,,,,,,,
,,,,,,,-0.004166667,-0.325925926,1,0,0,0,6,6,10,1,0,-0.33,22,001,2024-12-02_11h50.21.392,Attention_exp_legacy,2023.1.0,Win32,59.88023952,calibration_square,,,,,,,,,,,,,,,,,,,,,,,,,,,,,,,,,,,,,,,,,,,,
,,,,,,,-0.016666667,0.662962963,1,0,0,0,7,7,13,1,0,0.67,22,001,2024-12-02_11h50.21.392,Attention_exp_legacy,2023.1.0,Win32,59.88023952,,,,,,,,,,,,,,,,,,,,,,,,,,,,,,,,,,,,,,,,,,,,,
,,,,,,,0.339583333,0.361111111,1,0,0,0,8,8,17,1,0.33,0.33,22,001,2024-12-02_11h50.21.392,Attention_exp_legacy,2023.1.0,Win32,59.88023952,,,,,,,,,,,,,,,,,,,,,,,,,,,,,,,,,,,,,,,,,,,,,
,,,,,,,0.004166667,0.337037037,1,0,0,0,9,9,12,1,0,0.33,22,001,2024-12-02_11h50.21.392,Attention_exp_legacy,2023.1.0,Win32,59.88023952,calibration_square,,,,,,,,,,,,,,,,,,,,,,,,,,,,,,,,,,,,,,,,,,,,
,,,,,,,-0.320833333,-0.001851852,1,0,0,0,10,10,6,1,-0.33,0,22,001,2024-12-02_11h50.21.392,Attention_exp_legacy,2023.1.0,Win32,59.88023952,calibration_square,,,,,,,,,,,,,,,,,,,,,,,,,,,,,,,,,,,,,,,,,,,,
,,,,,,,0.003125,-0.674074074,1,0,0,0,11,11,9,1,0,-0.67,22,001,2024-12-02_11h50.21.392,Attention_exp_legacy,2023.1.0,Win32,59.88023952,calibration_square,,,,,,,,,,,,,,,,,,,,,,,,,,,,,,,,,,,,,,,,,,,,
,,,,,,,0.315625,-0.335185185,1,0,0,0,12,12,15,1,0.33,-0.33,22,001,2024-12-02_11h50.21.392,Attention_exp_legacy,2023.1.0,Win32,59.88023952,,,,,,,,,,,,,,,,,,,,,,,,,,,,,,,,,,,,,,,,,,,,,
,,,,,,,-0.677083333,-0.67037037,1,0,0,0,13,13,0,1,-0.67,-0.67,22,001,2024-12-02_11h50.21.392,Attention_exp_legacy,2023.1.0,Win32,59.88023952,calibration_square,,,,,,,,,,,,,,,,,,,,,,,,,,,,,,,,,,,,,,,,,,,,
,,,,,,,-0.328125,0.338888889,1,0,0,0,14,14,7,1,-0.33,0.33,22,001,2024-12-02_11h50.21.392,Attention_exp_legacy,2023.1.0,Win32,59.88023952,calibration_square,,,,,,,,,,,,,,,,,,,,,,,,,,,,,,,,,,,,,,,,,,,,
,,,,,,,0.670833333,0.648148148,1,0,0,0,15,15,19,1,0.67,0.67,22,001,2024-12-02_11h50.21.392,Attention_exp_legacy,2023.1.0,Win32,59.88023952,,,,,,,,,,,,,,,,,,,,,,,,,,,,,,,,,,,,,,,,,,,,,
,,,,,,,-0.31875,0.664814815,1,0,0,0,16,16,8,1,-0.33,0.67,22,001,2024-12-02_11h50.21.392,Attention_exp_legacy,2023.1.0,Win32,59.88023952,,,,,,,,,,,,,,,,,,,,,,,,,,,,,,,,,,,,,,,,,,,,,
,,,,,,,0.347916667,0.677777778,1,0,0,0,17,17,18,1,0.33,0.67,22,001,2024-12-02_11h50.21.392,Attention_exp_legacy,2023.1.0,Win32,59.88023952,,,,,,,,,,,,,,,,,,,,,,,,,,,,,,,,,,,,,,,,,,,,,
,,,,,,,-0.342708333,-0.67037037,1,0,0,0,18,18,4,1,-0.33,-0.67,22,001,2024-12-02_11h50.21.392,Attention_exp_legacy,2023.1.0,Win32,59.88023952,,,,,,,,,,,,,,,,,,,,,,,,,,,,,,,,,,,,,,,,,,,,,
,,,,,,,0.329166667,0.005555556,1,0,0,0,19,19,16,1,0.33,0,22,001,2024-12-02_11h50.21.392,Attention_exp_legacy,2023.1.0,Win32,59.88023952,calibration_square,,,,,,,,,,,,,,,,,,,,,,,,,,,,,,,,,,,,,,,,,,,,
,,,,,,,-0.675,-0.325925926,1,0,0,0,20,20,1,1,-0.67,-0.33,22,001,2024-12-02_11h50.21.392,Attention_exp_legacy,2023.1.0,Win32,59.88023952,calibration_square,,,,,,,,,,,,,,,,,,,,,,,,,,,,,,,,,,,,,,,,,,,,
,,,,,,,,,,,,,,,,,,,22,001,2024-12-02_11h50.21.392,Attention_exp_legacy,2023.1.0,Win32,59.88023952,,"[1920,1080]","[640,480]",[0.0375],[-0.5111111111111111],[1],[0],[0],[1.859699999999954],"[""StartButton""]","[-0.025,-0.004166666666666667]","[0.4148148148148148,0.39814814814814814]","[1,1]","[0,0]","[0,0]","[3.0599000000000203,3.2379999999999995]","[""Option1_label"",""Option1_label""]",Option1_label,1,4.0786,"[[0.051041666666666666,-0.037037037037037035],[0.051041666666666666,-0.037037037037037035],[0.051041666666666666,-0.037037037037037035],[0.051041666666666666,-0.037037037037037035],[0.051041666666666666,-0.037037037037037035],[0.051041666666666666,-0.037037037037037035],[0.051041666666666666,-0.037037037037037035],[0.051041666666666666,-0.037037037037037035],[0.051041666666666666,-0.037037037037037035],[0.051041666666666666,-0.037037037037037035],[0.051041666666666666,-0.037037037037037035],[0.051041666666666666,-0.037037037037037035],[0.051041666666666666,-0.037037037037037035],[0.051041666666666666,-0.037037037037037035],[0.051041666666666666,-0.037037037037037035],[0.051041666666666666,-0.037037037037037035],[0.051041666666666666,-0.037037037037037035],[0.051041666666666666,-0.037037037037037035],[0.051041666666666666,-0.037037037037037035],[0.051041666666666666,-0.037037037037037035],[0.051041666666666666,-0.037037037037037035],[0.051041666666666666,-0.037037037037037035],[0.051041666666666666,-0.037037037037037035],[0.051041666666666666,-0.037037037037037035],[0.051041666666666666,-0.037037037037037035],[0.051041666666666666,-0.037037037037037035],[0.051041666666666666,-0.037037037037037035],[0.051041666666666666,-0.037037037037037035],[0.051041666666666666,-0.037037037037037035],[0.051041666666666666,-0.037037037037037035],[0.051041666666666666,-0.037037037037037035],[0.051041666666666666,-0.037037037037037035],[0.051041666666666666,-0.037037037037037035],[0.051041666666666666,-0.037037037037037035],[0.051041666666666666,-0.037037037037037035],[0.051041666666666666,-0.037037037037037035],[0.051041666666666666,-0.037037037037037035],[0.04895833333333333,-0.037037037037037035],[0.046875,-0.037037037037037035],[0.041666666666666664,-0.037037037037037035],[0.03229166666666667,-0.037037037037037035],[0.017708333333333333,-0.03148148148148148],[0.0010416666666666667,-0.011111111111111112],[-0.014583333333333334,0.012962962962962963],[-0.023958333333333335,0.040740740740740744],[-0.03125,0.07407407407407407],[-0.035416666666666666,0.11481481481481481],[-0.03958333333333333,0.1574074074074074],[-0.04583333333333333,0.17777777777777778],[-0.04583333333333333,0.17777777777777778],[-0.04583333333333333,0.17777777777777778],[-0.04583333333333333,0.17777777777777778],[-0.04583333333333333,0.17777777777777778],[-0.04583333333333333,0.17777777777777778],[-0.04583333333333333,0.17777777777777778],[-0.04583333333333333,0.17777777777777778],[-0.04583333333333333,0.17777777777777778],[-0.04583333333333333,0.17777777777777778],[-0.04583333333333333,0.17777777777777778],[-0.04583333333333333,0.17777777777777778],[-0.04583333333333333,0.17777777777777778],[-0.04583333333333333,0.17777777777777778],[-0.04583333333333333,0.17777777777777778],[-0.04583333333333333,0.17777777777777778],[-0.04583333333333333,0.17777777777777778],[-0.04583333333333333,0.17777777777777778],[-0.04583333333333333,0.17777777777777778],[-0.04583333333333333,0.17777777777777778],[-0.04583333333333333,0.17777777777777778],[-0.04583333333333333,0.17777777777777778],[-0.04583333333333333,0.17777777777777778],[-0.04583333333333333,0.17777777777777778],[-0.04583333333333333,0.17777777777777778],[-0.04583333333333333,0.17777777777777778],[-0.04583333333333333,0.17777777777777778],[-0.04583333333333333,0.17777777777777778],[-0.04583333333333333,0.17777777777777778],[-0.04583333333333333,0.17777777777777778],[-0.04583333333333333,0.17777777777777778],[-0.04583333333333333,0.17777777777777778],[-0.04583333333333333,0.17777777777777778],[-0.04583333333333333,0.17777777777777778],[-0.04583333333333333,0.17777777777777778],[-0.04583333333333333,0.17777777777777778],[-0.04583333333333333,0.17777777777777778],[-0.04583333333333333,0.17777777777777778],[-0.051041666666666666,0.1685185185185185],[-0.051041666666666666,0.16666666666666666],[-0.051041666666666666,0.16666666666666666],[-0.04895833333333333,0.16666666666666666],[-0.04895833333333333,0.16666666666666666],[-0.04895833333333333,0.16666666666666666],[-0.04895833333333333,0.16666666666666666],[-0.04895833333333333,0.16666666666666666],[-0.04895833333333333,0.16666666666666666],[-0.04895833333333333,0.16666666666666666],[-0.04895833333333333,0.16666666666666666],[-0.04895833333333333,0.16666666666666666],[-0.04895833333333333,0.16666666666666666],[-0.04895833333333333,0.16666666666666666],[-0.04895833333333333,0.16666666666666666],[-0.04895833333333333,0.16666666666666666],[-0.04895833333333333,0.16666666666666666],[-0.04895833333333333,0.16666666666666666],[-0.04895833333333333,0.16666666666666666],[-0.04895833333333333,0.16666666666666666],[-0.04895833333333333,0.16666666666666666],[-0.04895833333333333,0.16666666666666666],[-0.04895833333333333,0.16666666666666666],[-0.04895833333333333,0.16666666666666666],[-0.04895833333333333,0.16666666666666666],[-0.04895833333333333,0.16666666666666666],[-0.04895833333333333,0.16666666666666666],[-0.04895833333333333,0.16666666666666666],[-0.04895833333333333,0.16666666666666666],[-0.04895833333333333,0.16666666666666666],[-0.04895833333333333,0.16666666666666666],[-0.04895833333333333,0.16666666666666666],[-0.04895833333333333,0.16666666666666666],[-0.04895833333333333,0.16666666666666666],[-0.04895833333333333,0.16666666666666666],[-0.04895833333333333,0.16666666666666666],[-0.04895833333333333,0.16666666666666666],[-0.04895833333333333,0.16666666666666666],[-0.04895833333333333,0.16666666666666666],[-0.04895833333333333,0.16666666666666666],[-0.04895833333333333,0.16666666666666666],[-0.04895833333333333,0.16666666666666666],[-0.04895833333333333,0.16666666666666666],[-0.04895833333333333,0.16666666666666666],[-0.04895833333333333,0.16666666666666666],[-0.04895833333333333,0.16666666666666666],[-0.04895833333333333,0.16666666666666666],[-0.04895833333333333,0.16666666666666666],[-0.04895833333333333,0.16666666666666666],[-0.04791666666666667,0.16666666666666666],[-0.04791666666666667,0.16666666666666666],[-0.04791666666666667,0.16666666666666666],[-0.04583333333333333,0.1685185185185185],[-0.04479166666666667,0.1685185185185185],[-0.04375,0.17037037037037037],[-0.040625,0.17222222222222222],[-0.03854166666666667,0.17407407407407408],[-0.036458333333333336,0.17407407407407408],[-0.03125,0.17777777777777778],[-0.025,0.1814814814814815],[-0.013541666666666667,0.1814814814814815],[0.0020833333333333333,0.1814814814814815],[0.020833333333333332,0.1814814814814815],[0.03958333333333333,0.1814814814814815],[0.059375,0.1814814814814815],[0.07395833333333333,0.17222222222222222],[0.09583333333333334,0.16296296296296298],[0.11458333333333333,0.1537037037037037],[0.14583333333333334,0.13518518518518519],[0.18333333333333332,0.11296296296296296],[0.2552083333333333,0.07037037037037037],[0.29583333333333334,0.046296296296296294],[0.32708333333333334,0.03148148148148148],[0.353125,0.018518518518518517],[0.3697916666666667,0.009259259259259259],[0.3770833333333333,0.007407407407407408],[0.378125,0.005555555555555556],[0.378125,0.005555555555555556],[0.37604166666666666,0.005555555555555556],[0.3541666666666667,0.011111111111111112],[0.34270833333333334,0.027777777777777776],[0.3072916666666667,0.07407407407407407],[0.2625,0.14629629629629629],[0.18020833333333333,0.2462962962962963],[0.125,0.29814814814814816],[0.06875,0.34444444444444444],[0.030208333333333334,0.37222222222222223],[0.003125,0.3925925925925926],[-0.0125,0.40555555555555556],[-0.022916666666666665,0.4111111111111111],[-0.025,0.4148148148148148],[-0.025,0.4148148148148148],[-0.025,0.4148148148148148],[-0.025,0.4148148148148148],[-0.025,0.4148148148148148],[-0.025,0.4148148148148148],[-0.025,0.4148148148148148],[-0.025,0.4148148148148148],[-0.025,0.4148148148148148],[-0.025,0.4148148148148148],[-0.025,0.4148148148148148],[-0.025,0.4148148148148148],[-0.025,0.4148148148148148],[-0.017708333333333333,0.4111111111111111],[-0.014583333333333334,0.4074074074074074],[-0.008333333333333333,0.40185185185185185],[-0.005208333333333333,0.39814814814814814],[-0.004166666666666667,0.39814814814814814],[-0.004166666666666667,0.39814814814814814],[-0.004166666666666667,0.39814814814814814],[-0.004166666666666667,0.39814814814814814],[-0.004166666666666667,0.39814814814814814],[-0.004166666666666667,0.39814814814814814],[-0.004166666666666667,0.39814814814814814],[-0.004166666666666667,0.39814814814814814],[-0.004166666666666667,0.39814814814814814],[-0.004166666666666667,0.39814814814814814],[-0.004166666666666667,0.39814814814814814],[-0.004166666666666667,0.39814814814814814],[-0.004166666666666667,0.39814814814814814],[-0.004166666666666667,0.39814814814814814],[-0.004166666666666667,0.39814814814814814],[-0.004166666666666667,0.39814814814814814],[-0.004166666666666667,0.39814814814814814],[-0.004166666666666667,0.39814814814814814],[0,0.3925925925925926],[0.00625,0.387037037037037],[0.0125,0.38333333333333336],[0.03125,0.3685185185185185],[0.0625,0.34629629629629627],[0.08125,0.3277777777777778],[0.096875,0.31296296296296294],[0.109375,0.29814814814814816],[0.11770833333333333,0.2796296296296296],[0.12395833333333334,0.26481481481481484],[0.12916666666666668,0.24444444444444444],[0.13229166666666667,0.22777777777777777],[0.13541666666666666,0.2074074074074074],[0.13541666666666666,0.1925925925925926],[0.13645833333333332,0.17037037037037037],[0.13645833333333332,0.16666666666666666],[0.13645833333333332,0.16666666666666666],[0.13645833333333332,0.16666666666666666],[0.13645833333333332,0.16666666666666666],[0.13645833333333332,0.16666666666666666],[0.13645833333333332,0.16666666666666666],[0.13645833333333332,0.16666666666666666],[0.13645833333333332,0.16666666666666666],[0.13645833333333332,0.16666666666666666],[0.13645833333333332,0.16666666666666666],[0.13645833333333332,0.16666666666666666],[0.13645833333333332,0.16666666666666666],[0.13645833333333332,0.16666666666666666],[0.13645833333333332,0.16666666666666666],[0.13645833333333332,0.16666666666666666],[0.13645833333333332,0.16666666666666666],[0.13645833333333332,0.16666666666666666],[0.13645833333333332,0.16666666666666666],[0.13645833333333332,0.16666666666666666]]","[[-0.19249999999999995,0.05814814814814811],[-0.19249999999999995,0.05814814814814811],[-0.19249999999999995,0.05814814814814811],[-0.15281250000000005,0.03981481481481482],[-0.13624999999999995,0.04888888888888885],[-0.12177083333333331,0.04611111111111107],[-0.13083333333333336,0.042407407407407366],[-0.10750000000000005,0.06759259259259259],[-0.10885416666666667,0.06925925925925921],[-0.1502083333333334,0.046481481481481526],[-0.20833333333333334,0.0198148148148149],[-0.20833333333333334,0.0198148148148149],[-0.20520833333333333,0.014814814814814815],[-0.20520833333333333,0.014814814814814815],[-0.20718749999999997,0.014629629629629588],[-0.1907291666666667,0.057037037037036956],[-0.15552083333333327,0.08537037037037042],[-0.13552083333333337,0.11259259259259251],[-0.13447916666666668,0.10740740740740741],[-0.14437500000000003,0.07111111111111107],[-0.17593749999999997,0.06796296296296304],[-0.15895833333333337,0.09907407407407408],[-0.13052083333333328,0.1359259259259259],[-0.14624999999999996,0.1300000000000001],[-0.1748958333333333,0.13425925925925927],[-0.23666666666666672,0.12518518518518523],[-0.29583333333333334,0.10685185185185193],[-0.34750000000000003,0.08000000000000008],[-0.3384375,0.0764814814814814],[-0.3508333333333333,0.07518518518518523],[-0.39114583333333336,0.08074074074074078],[-0.41208333333333336,0.11129629629629634],[-0.4591666666666666,0.1361111111111111],[-0.5230208333333334,0.18296296296296288],[-0.5688541666666667,0.21481481481481482],[-0.6288541666666667,0.2270370370370371],[-0.6914583333333333,0.2485185185185186],[-0.7461458333333333,0.2737037037037036],[-0.71875,0.277962962962963],[-0.6544791666666666,0.2983333333333334],[-0.533125,0.3114814814814816],[-0.533125,0.3114814814814816],[-0.46958333333333335,0.28351851851851856],[-0.46958333333333335,0.28351851851851856],[-0.40687500000000004,0.2270370370370371],[-0.40687500000000004,0.2270370370370371],[-0.325,0.16425925925925935],[-0.325,0.16425925925925935],[-0.221875,0.09259259259259259],[-0.221875,0.09259259259259259],[-0.09572916666666664,0.030555555555555555],[0.033854166666666664,-0.024074074074074074],[0.13770833333333338,-0.07925925925925928],[0.17625000000000005,-0.08111111111111113],[0.12312500000000005,-0.127962962962963],[0.07000000000000005,-0.17481481481481478],[0.07739583333333329,-0.17240740740740745],[0.10062499999999991,-0.15648148148148147],[0.11218750000000005,-0.15240740740740744],[0.05302083333333331,-0.1022222222222222],[0.010208333333333286,-0.0198148148148149],[-0.058749999999999976,0.024074074074074074],[-0.115625,0.09074074074074075],[-0.21947916666666673,0.14370370370370375],[-0.2525,0.22277777777777769],[-0.3015625,0.30462962962962964],[-0.3532291666666667,0.33259259259259266],[-0.40520833333333334,0.3755555555555555],[-0.4675,0.42740740740740735],[-0.48031250000000003,0.4420370370370371],[-0.4666666666666667,0.4564814814814815],[-0.4418750000000001,0.49796296296296294],[-0.44177083333333333,0.47388888888888886],[-0.42468750000000005,0.43574074074074065],[-0.3877083333333334,0.44944444444444454],[-0.3476041666666667,0.456111111111111],[-0.3397916666666667,0.4487037037037036],[-0.3242708333333333,0.4381481481481482],[-0.27927083333333336,0.44240740740740736],[-0.24406249999999996,0.45703703703703696],[-0.26020833333333326,0.418888888888889],[-0.2647916666666667,0.3848148148148147],[-0.17635416666666662,0.4094444444444445],[-0.07489583333333331,0.41796296296296304],[-0.04072916666666669,0.3707407407407408],[0.0005208333333333333,0.3475925925925927],[0.0756249999999999,0.36870370370370376],[0.1165625000000001,0.3501851851851852],[0.1476041666666667,0.30407407407407416],[0.1884375000000001,0.24759259259259267],[0.225,0.22037037037037038],[0.24677083333333344,0.1801851851851851],[0.20166666666666658,0.13777777777777775],[0.16145833333333334,0.1307407407407408],[0.16416666666666657,0.14814814814814814],[0.1727083333333333,0.14574074074074084],[0.11989583333333324,0.12333333333333338],[0.09354166666666662,0.14370370370370375],[0.08541666666666667,0.19074074074074074],[0.07729166666666672,0.23777777777777773],[0.06791666666666671,0.2740740740740741],[0.07302083333333324,0.3227777777777777],[0.08895833333333343,0.35648148148148145],[0.08125,0.37537037037037047],[0.04552083333333338,0.39462962962962966],[-0.007500000000000047,0.42851851851851847],[-0.02020833333333331,0.4729629629629629],[-0.06395833333333331,0.4772222222222223],[-0.1296875,0.4751851851851852],[-0.19583333333333333,0.46833333333333327],[-0.23447916666666668,0.45333333333333325],[-0.27614583333333337,0.4300000000000001],[-0.33187500000000003,0.41333333333333344],[-0.381875,0.39222222222222214],[-0.42697916666666663,0.33000000000000007],[-0.4678125,0.2757407407407407],[-0.47270833333333334,0.230925925925926],[-0.4610416666666667,0.21648148148148144],[-0.4317708333333333,0.17314814814814813],[-0.40208333333333335,0.1346296296296297],[-0.4080208333333334,0.10444444444444441],[-0.44989583333333333,0.08740740740740749],[-0.44072916666666667,0.08092592592592601],[-0.4514583333333333,0.07166666666666675],[-0.37395833333333334,0.10185185185185185],[-0.28937499999999994,0.10962962962962972],[-0.24385416666666668,0.10962962962962972],[-0.17531249999999995,0.08351851851851856],[-0.1310416666666666,0.09148148148148144],[-0.06218750000000005,0.10685185185185193],[-0.001145833333333357,0.14592592592592585],[0.08802083333333334,0.13962962962962958],[0.12479166666666662,0.12370370370370362],[0.20354166666666676,0.13259259259259262],[0.18979166666666672,0.12685185185185185],[0.1618750000000001,0.122037037037037],[0.17781250000000004,0.0977777777777777],[0.18520833333333328,0.10944444444444448],[0.20791666666666658,0.11314814814814819],[0.20989583333333334,0.10870370370370379],[0.17385416666666675,0.03814814814814819],[0.1772916666666667,0.026666666666666623],[0.16906249999999995,-0.010185185185185186],[0.14739583333333334,-0.0492592592592593],[0.10343749999999995,-0.1051851851851852],[0.08802083333333334,-0.15796296296296297],[0.019166666666666644,-0.15703703703703706],[-0.005729166666666666,-0.16814814814814816],[-0.08156249999999995,-0.22888888888888892],[-0.16124999999999995,-0.28888888888888886],[-0.17583333333333329,-0.2553703703703703],[-0.1984375,-0.26296296296296295],[-0.24229166666666668,-0.23629629629629634],[-0.26916666666666667,-0.26370370370370366],[-0.23364583333333327,-0.24407407407407408],[-0.20656249999999995,-0.22870370370370371],[-0.15114583333333337,-0.23333333333333334],[-0.11895833333333337,-0.2294444444444444],[-0.11895833333333337,-0.2294444444444444],[-0.04072916666666669,-0.1935185185185185],[-0.010208333333333286,-0.15999999999999995],[0.09322916666666667,-0.15611111111111114],[0.1798958333333334,-0.15259259259259256],[0.3008333333333333,-0.1588888888888889],[0.3775000000000001,-0.11407407407407412],[0.4033333333333334,-0.10777777777777775],[0.4257291666666667,-0.12444444444444443],[0.4305208333333333,-0.15925925925925927],[0.40302083333333344,-0.2022222222222222],[0.3889583333333334,-0.21055555555555552],[0.41291666666666677,-0.20537037037037034],[0.37479166666666663,-0.2383333333333333],[0.3563541666666666,-0.24018518518518517],[0.29572916666666677,-0.2609259259259259],[0.24749999999999991,-0.2905555555555555],[0.25760416666666663,-0.30925925925925923],[0.25760416666666663,-0.30925925925925923],[0.240625,-0.3164814814814814],[0.21749999999999994,-0.28166666666666673],[0.21843750000000003,-0.2477777777777778],[0.20593750000000005,-0.2485185185185185],[0.2,-0.3072222222222222],[0.1772916666666667,-0.33722222222222226],[0.11437499999999995,-0.38],[0.11437499999999995,-0.38],[0.09364583333333343,-0.4038888888888889],[0.09427083333333333,-0.38981481481481484],[0.09427083333333333,-0.38981481481481484],[0.05270833333333336,-0.3861111111111111],[0.05270833333333336,-0.3861111111111111],[0.03572916666666662,-0.3937037037037037],[0.03572916666666662,-0.3937037037037037],[-0.0002083333333333807,-0.4316666666666667],[-0.0002083333333333807,-0.4316666666666667],[-0.03927083333333338,-0.4559259259259259],[-0.049583333333333354,-0.4505555555555556],[-0.08875000000000005,-0.44722222222222224],[-0.12749999999999997,-0.40796296296296297],[-0.12593749999999998,-0.3483333333333334],[-0.12000000000000005,-0.3205555555555556],[-0.1508333333333333,-0.347037037037037],[-0.159375,-0.36314814814814816],[-0.16177083333333328,-0.3638888888888889],[-0.13729166666666662,-0.36666666666666664],[-0.10739583333333336,-0.3648148148148148],[-0.10093749999999997,-0.37],[-0.0625,-0.32629629629629625],[-0.04624999999999998,-0.2705555555555556],[-0.07989583333333337,-0.23648148148148146],[-0.11791666666666671,-0.1705555555555556],[-0.11770833333333333,-0.13129629629629624],[-0.15520833333333334,-0.06092592592592588],[-0.16416666666666668,-0.000925925925925926],[-0.17291666666666666,0.051666666666666625],[-0.20718749999999997,0.09981481481481477],[-0.2139583333333333,0.07833333333333325],[-0.21354166666666666,0.06611111111111119],[-0.22385416666666663,0.032037037037036954],[-0.22385416666666663,0.032037037037036954],[-0.18083333333333335,-0.036666666666666584],[-0.13843749999999996,-0.15907407407407403],[-0.11437499999999995,-0.24462962962962967],[-0.021145833333333287,-0.32],[0.015312500000000047,-0.3557407407407408],[0.06749999999999995,-0.40185185185185185],[0.12541666666666676,-0.4431481481481482],[0.15052083333333333,-0.4374074074074074],[0.1304166666666667,-0.42666666666666664],[0.14583333333333334,-0.4396296296296296],[0.1352083333333333,-0.43499999999999994],[0.1352083333333333,-0.43499999999999994],[0.1203125,-0.35962962962962963],[0.13604166666666656,-0.3153703703703704],[0.11229166666666662,-0.3168518518518519],[0.09614583333333329,-0.30888888888888894],[0.06427083333333337,-0.2905555555555555],[0.04604166666666672,-0.26777777777777784],[0.042708333333333334,-0.2490740740740741],[0.07239583333333334,-0.23981481481481481],[0.0990624999999999,-0.23296296296296298],[0.14010416666666667,-0.22240740740740744],[0.16062500000000005,-0.24462962962962967],[0.15364583333333334,-0.23129629629629625],[0.1273958333333333,-0.19500000000000003],[0.13989583333333327,-0.2088888888888889]]","[[-0.19249999999999995,0.05814814814814811,0.0003000000000454861],[-0.19249999999999995,0.05814814814814811,0.040500000000001535],[-0.19249999999999995,0.05814814814814811,0.04520000000006519],[-0.15281250000000005,0.03981481481481482,0.061900000000022715],[-0.13624999999999995,0.04888888888888885,0.07870000000006883],[-0.12177083333333331,0.04611111111111107,0.09550000000000125],[-0.13083333333333336,0.042407407407407366,0.11200000000000188],[-0.10750000000000005,0.06759259259259259,0.1285999999999774],[-0.10885416666666667,0.06925925925925921,0.14840000000002362],[-0.1502083333333334,0.046481481481481526,0.16449999999999676],[-0.20833333333333334,0.0198148148148149,0.17909999999997694],[-0.20833333333333334,0.0198148148148149,0.20290000000002095],[-0.20520833333333333,0.014814814814814815,0.2188000000000443],[-0.20520833333333333,0.014814814814814815,0.2287000000000674],[-0.20718749999999997,0.014629629629629588,0.24520000000006803],[-0.1907291666666667,0.057037037037036956,0.26200000000000045],[-0.15552083333333327,0.08537037037037042,0.278599999999976],[-0.13552083333333337,0.11259259259259251,0.2954000000000221],[-0.13447916666666668,0.10740740740740741,0.3119000000000227],[-0.14437500000000003,0.07111111111111107,0.32849999999999824],[-0.17593749999999997,0.06796296296296304,0.34559999999997615],[-0.15895833333333337,0.09907407407407408,0.3619000000000199],[-0.13052083333333328,0.1359259259259259,0.3785999999999774],[-0.14624999999999996,0.1300000000000001,0.3952000000000666],[-0.1748958333333333,0.13425925925925927,0.41199999999999903],[-0.23666666666666672,0.12518518518518523,0.42909999999997694],[-0.29583333333333334,0.10685185185185193,0.447499999999998],[-0.34750000000000003,0.08000000000000008,0.4619000000000213],[-0.3384375,0.0764814814814814,0.4787000000000674],[-0.3508333333333333,0.07518518518518523,0.49520000000006803],[-0.39114583333333336,0.08074074074074078,0.5120000000000005],[-0.41208333333333336,0.11129629629629634,0.5285000000000011],[-0.4591666666666666,0.1361111111111111,0.5483000000000473],[-0.5230208333333334,0.18296296296296288,0.5648000000000479],[-0.5688541666666667,0.21481481481481482,0.5785999999999731],[-0.6288541666666667,0.2270370370370371,0.5957000000000718],[-0.6914583333333333,0.2485185185185186,0.6120000000000019],[-0.7461458333333333,0.2737037037037036,0.6325000000000003],[-0.71875,0.277962962962963,0.6485999999999734],[-0.6544791666666666,0.2983333333333334,0.6620999999999739],[-0.533125,0.3114814814814816,0.6835999999999771],[-0.533125,0.3114814814814816,0.6954000000000207],[-0.46958333333333335,0.28351851851851856,0.7122000000000668],[-0.46958333333333335,0.28351851851851856,0.7365999999999744],[-0.40687500000000004,0.2270370370370371,0.7455999999999747],[-0.40687500000000004,0.2270370370370371,0.7620999999999754],[-0.325,0.16425925925925935,0.783900000000024],[-0.325,0.16425925925925935,0.7959000000000245],[-0.221875,0.09259259259259259,0.8120999999999725],[-0.221875,0.09259259259259259,0.8284999999999982],[-0.09572916666666664,0.030555555555555555,0.8454000000000192],[0.033854166666666664,-0.024074074074074074,0.8652000000000655],[0.13770833333333338,-0.07925925925925928,0.8785999999999774],[0.17625000000000005,-0.08111111111111113,0.8952000000000666],[0.12312500000000005,-0.127962962962963,0.911999999999999],[0.07000000000000005,-0.17481481481481478,0.9285999999999746],[0.07739583333333329,-0.17240740740740745,0.9487000000000663],[0.10062499999999991,-0.15648148148148147,0.9639000000000237],[0.11218750000000005,-0.15240740740740744,0.9785999999999788],[0.05302083333333331,-0.1022222222222222,0.9953000000000429],[0.010208333333333286,-0.0198148148148149,1.015400000000021],[-0.058749999999999976,0.024074074074074074,1.0288000000000466],[-0.115625,0.09074074074074075,1.045499999999997],[-0.21947916666666673,0.14370370370370375,1.0619000000000227],[-0.2525,0.22277777777777769,1.0785999999999731],[-0.3015625,0.30462962962962964,1.0950999999999738],[-0.3532291666666667,0.33259259259259266,1.1119000000000199],[-0.40520833333333334,0.3755555555555555,1.1284999999999954],[-0.4675,0.42740740740740735,1.1474000000000188],[-0.48031250000000003,0.4420370370370371,1.1619000000000241],[-0.4666666666666667,0.4564814814814815,1.1784999999999997],[-0.4418750000000001,0.49796296296296294,1.1952000000000709],[-0.44177083333333333,0.47388888888888886,1.2119999999999962],[-0.42468750000000005,0.43574074074074065,1.2285999999999788],[-0.3877083333333334,0.44944444444444454,1.2474999999999952],[-0.3476041666666667,0.456111111111111,1.2624000000000208],[-0.3397916666666667,0.4487037037037036,1.2787000000000717],[-0.3242708333333333,0.4381481481481482,1.2952000000000652],[-0.27927083333333336,0.44240740740740736,1.3119000000000227],[-0.24406249999999996,0.45703703703703696,1.3285999999999731],[-0.26020833333333326,0.418888888888889,1.3477000000000672],[-0.2647916666666667,0.3848148148148147,1.3619000000000199],[-0.17635416666666662,0.4094444444444445,1.3785999999999774],[-0.07489583333333331,0.41796296296296304,1.3952000000000666],[-0.04072916666666669,0.3707407407407408,1.4119000000000241],[0.0005208333333333333,0.3475925925925927,1.4284999999999997],[0.0756249999999999,0.36870370370370376,1.4484000000000208],[0.1165625000000001,0.3501851851851852,1.4620999999999782],[0.1476041666666667,0.30407407407407416,1.4785999999999788],[0.1884375000000001,0.24759259259259267,1.4954999999999998],[0.225,0.22037037037037038,1.5120000000000005],[0.24677083333333344,0.1801851851851851,1.528500000000001],[0.20166666666666658,0.13777777777777775,1.54770000000007],[0.16145833333333334,0.1307407407407408,1.5619000000000227],[0.16416666666666657,0.14814814814814814,1.5785999999999731],[0.1727083333333333,0.14574074074074084,1.5950999999999738],[0.11989583333333324,0.12333333333333338,1.6120000000000019],[0.09354166666666662,0.14370370370370375,1.6284999999999954],[0.08541666666666667,0.19074074074074074,1.6475000000000009],[0.07729166666666672,0.23777777777777773,1.6619000000000241],[0.06791666666666671,0.2740740740740741,1.6787000000000702],[0.07302083333333324,0.3227777777777777,1.6953000000000458],[0.08895833333333343,0.35648148148148145,1.7119999999999962],[0.08125,0.37537037037037047,1.7284999999999968],[0.04552083333333338,0.39462962962962966,1.7485999999999748],[-0.007500000000000047,0.42851851851851847,1.7658000000000484],[-0.02020833333333331,0.4729629629629629,1.7817000000000718],[-0.06395833333333331,0.4772222222222223,1.7972000000000676],[-0.1296875,0.4751851851851852,1.8119999999999976],[-0.19583333333333333,0.46833333333333327,1.8284999999999982],[-0.23447916666666668,0.45333333333333325,1.8485000000000014],[-0.27614583333333337,0.4300000000000001,1.8640999999999721],[-0.33187500000000003,0.41333333333333344,1.8785999999999774],[-0.381875,0.39222222222222214,1.8952000000000666],[-0.42697916666666663,0.33000000000000007,1.9119000000000241],[-0.4678125,0.2757407407407407,1.9285999999999746],[-0.47270833333333334,0.230925925925926,1.9484000000000208],[-0.4610416666666667,0.21648148148148144,1.9639999999999986],[-0.4317708333333333,0.17314814814814813,1.9785999999999788],[-0.40208333333333335,0.1346296296296297,1.995200000000068],[-0.4080208333333334,0.10444444444444441,2.0119000000000185],[-0.44989583333333333,0.08740740740740749,2.028500000000001],[-0.44072916666666667,0.08092592592592601,2.0475999999999743],[-0.4514583333333333,0.07166666666666675,2.061800000000048],[-0.37395833333333334,0.10185185185185185,2.078599999999973],[-0.28937499999999994,0.10962962962962972,2.0950999999999738],[-0.24385416666666668,0.10962962962962972,2.11190000000002],[-0.17531249999999995,0.08351851851851856,2.1284999999999954],[-0.1310416666666666,0.09148148148148144,2.147500000000001],[-0.06218750000000005,0.10685185185185193,2.161800000000042],[-0.001145833333333357,0.14592592592592585,2.1785999999999746],[0.08802083333333334,0.13962962962962958,2.1984999999999957],[0.12479166666666662,0.12370370370370362,2.2142000000000692],[0.20354166666666676,0.13259259259259262,2.2287000000000674],[0.18979166666666672,0.12685185185185185,2.249300000000048],[0.1618750000000001,0.122037037037037,2.266200000000069],[0.17781250000000004,0.0977777777777777,2.2787000000000717],[0.18520833333333328,0.10944444444444448,2.295200000000065],[0.20791666666666658,0.11314814814814819,2.3134999999999977],[0.20989583333333334,0.10870370370370379,2.333900000000021],[0.17385416666666675,0.03814814814814819,2.347900000000024],[0.1772916666666667,0.026666666666666623,2.3622000000000654],[0.16906249999999995,-0.010185185185185186,2.378700000000066],[0.14739583333333334,-0.0492592592592593,2.398700000000069],[0.10343749999999995,-0.1051851851851852,2.413400000000024],[0.08802083333333334,-0.15796296296296297,2.42890000000002],[0.019166666666666644,-0.15703703703703706,2.448900000000023],[-0.005729166666666666,-0.16814814814814816,2.464599999999976],[-0.08156249999999995,-0.22888888888888892,2.4789000000000243],[-0.16124999999999995,-0.28888888888888886,2.4955],[-0.17583333333333329,-0.2553703703703703,2.5144000000000233],[-0.1984375,-0.26296296296296295,2.5289999999999964],[-0.24229166666666668,-0.23629629629629634,2.5467000000000652],[-0.26916666666666667,-0.26370370370370366,2.565599999999975],[-0.23364583333333327,-0.24407407407407408,2.5799999999999983],[-0.20656249999999995,-0.22870370370370371,2.5955000000000013],[-0.15114583333333337,-0.23333333333333334,2.61640000000002],[-0.11895833333333337,-0.2294444444444444,2.6340000000000003],[-0.11895833333333337,-0.2294444444444444,2.6453000000000486],[-0.04072916666666669,-0.1935185185185185,2.6623000000000445],[-0.010208333333333286,-0.15999999999999995,2.6809999999999974],[0.09322916666666667,-0.15611111111111114,2.6977000000000686],[0.1798958333333334,-0.15259259259259256,2.7124999999999986],[0.3008333333333333,-0.1588888888888889,2.728599999999979],[0.3775000000000001,-0.11407407407407412,2.7495999999999725],[0.4033333333333334,-0.10777777777777775,2.7650999999999755],[0.4257291666666667,-0.12444444444444443,2.7804000000000215],[0.4305208333333333,-0.15925925925925927,2.795300000000047],[0.40302083333333344,-0.2022222222222222,2.8143000000000455],[0.3889583333333334,-0.21055555555555552,2.8328000000000486],[0.41291666666666677,-0.20537037037037034,2.847800000000042],[0.37479166666666663,-0.2383333333333333,2.862000000000002],[0.3563541666666666,-0.24018518518518517,2.8809000000000253],[0.29572916666666677,-0.2609259259259259,2.8954999999999984],[0.24749999999999991,-0.2905555555555555,2.912099999999974],[0.25760416666666663,-0.30925925925925923,2.9348000000000454],[0.25760416666666663,-0.30925925925925923,2.9454999999999956],[0.240625,-0.3164814814814814,2.9619000000000213],[0.21749999999999994,-0.28166666666666673,2.9787000000000674],[0.21843750000000003,-0.2477777777777778,2.997499999999995],[0.20593750000000005,-0.2485185185185185,3.0119000000000185],[0.2,-0.3072222222222222,3.0288000000000466],[0.1772916666666667,-0.33722222222222226,3.0489999999999995],[0.11437499999999995,-0.38,3.0673000000000457],[0.11437499999999995,-0.38,3.078599999999973],[0.09364583333333343,-0.4038888888888889,3.0952000000000695],[0.09427083333333333,-0.38981481481481484,3.116300000000045],[0.09427083333333333,-0.38981481481481484,3.1284999999999954],[0.05270833333333336,-0.3861111111111111,3.1453000000000486],[0.05270833333333336,-0.3861111111111111,3.169099999999972],[0.03572916666666662,-0.3937037037037037,3.1787000000000702],[0.03572916666666662,-0.3937037037037037,3.1954000000000207],[-0.0002083333333333807,-0.4316666666666667,3.212099999999978],[-0.0002083333333333807,-0.4316666666666667,3.23970000000007],[-0.03927083333333338,-0.4559259259259259,3.245400000000025],[-0.049583333333333354,-0.4505555555555556,3.2657000000000664],[-0.08875000000000005,-0.44722222222222224,3.282300000000042],[-0.12749999999999997,-0.40796296296296297,3.2989000000000246],[-0.12593749999999998,-0.3483333333333334,3.313900000000025],[-0.12000000000000005,-0.3205555555555556,3.330800000000046],[-0.1508333333333333,-0.347037037037037,3.3485999999999763],[-0.159375,-0.36314814814814816,3.3639000000000223],[-0.16177083333333328,-0.3638888888888889,3.3784999999999954],[-0.13729166666666662,-0.36666666666666664,3.3952000000000666],[-0.10739583333333336,-0.3648148148148148,3.412099999999974],[-0.10093749999999997,-0.37,3.4325999999999723],[-0.0625,-0.32629629629629625,3.448900000000023],[-0.04624999999999998,-0.2705555555555556,3.4640999999999735],[-0.07989583333333337,-0.23648148148148146,3.478499999999997],[-0.11791666666666671,-0.1705555555555556,3.495200000000068],[-0.11770833333333333,-0.13129629629629624,3.5120000000000005],[-0.15520833333333334,-0.06092592592592588,3.533099999999976],[-0.16416666666666668,-0.000925925925925926,3.5495999999999768],[-0.17291666666666666,0.051666666666666625,3.5644000000000204],[-0.20718749999999997,0.09981481481481477,3.581700000000069],[-0.2139583333333333,0.07833333333333325,3.598099999999974],[-0.21354166666666666,0.06611111111111119,3.6143000000000427],[-0.22385416666666663,0.032037037037036954,3.6337000000000685],[-0.22385416666666663,0.032037037037036954,3.6454000000000235],[-0.18083333333333335,-0.036666666666666584,3.662099999999974],[-0.13843749999999996,-0.15907407407407403,3.678800000000045],[-0.11437499999999995,-0.24462962962962967,3.6978000000000435],[-0.021145833333333287,-0.32,3.712099999999978],[0.015312500000000047,-0.3557407407407408,3.7288000000000423],[0.06749999999999995,-0.40185185185185185,3.749900000000025],[0.12541666666666676,-0.4431481481481482,3.765300000000046],[0.15052083333333333,-0.4374074074074074,3.7812000000000694],[0.1304166666666667,-0.42666666666666664,3.795400000000022],[0.14583333333333334,-0.4396296296296296,3.8119000000000227],[0.1352083333333333,-0.43499999999999994,3.832499999999996],[0.1352083333333333,-0.43499999999999994,3.847300000000047],[0.1203125,-0.35962962962962963,3.8630999999999744],[0.13604166666666656,-0.3153703703703704,3.884700000000066],[0.11229166666666662,-0.3168518518518519,3.898800000000044],[0.09614583333333329,-0.30888888888888894,3.9140999999999764],[0.06427083333333337,-0.2905555555555555,3.9284000000000248],[0.04604166666666672,-0.26777777777777784,3.945200000000071],[0.042708333333333334,-0.2490740740740741,3.9655999999999736],[0.07239583333333334,-0.23981481481481481,3.978599999999979],[0.0990624999999999,-0.23296296296296298,3.9950999999999723],[0.14010416666666667,-0.22240740740740744,4.0120000000000005],[0.16062500000000005,-0.24462962962962967,4.029300000000042],[0.15364583333333334,-0.23129629629629625,4.045499999999997],[0.1273958333333333,-0.19500000000000003,4.061900000000023],[0.13989583333333327,-0.2088888888888889,4.078599999999973]]","[0.0003000000000454861,0.040500000000001535,0.04520000000006519,0.061900000000022715,0.07870000000006883,0.09550000000000125,0.11200000000000188,0.1285999999999774,0.14840000000002362,0.16449999999999676,0.17909999999997694,0.20290000000002095,0.2188000000000443,0.2287000000000674,0.24520000000006803,0.26200000000000045,0.278599999999976,0.2954000000000221,0.3119000000000227,0.32849999999999824,0.34559999999997615,0.3619000000000199,0.3785999999999774,0.3952000000000666,0.41199999999999903,0.42909999999997694,0.447499999999998,0.4619000000000213,0.4787000000000674,0.49520000000006803,0.5120000000000005,0.5285000000000011,0.5483000000000473,0.5648000000000479,0.5785999999999731,0.5957000000000718,0.6120000000000019,0.6325000000000003,0.6485999999999734,0.6620999999999739,0.6835999999999771,0.6954000000000207,0.7122000000000668,0.7365999999999744,0.7455999999999747,0.7620999999999754,0.783900000000024,0.7959000000000245,0.8120999999999725,0.8284999999999982,0.8454000000000192,0.8652000000000655,0.8785999999999774,0.8952000000000666,0.911999999999999,0.9285999999999746,0.9487000000000663,0.9639000000000237,0.9785999999999788,0.9953000000000429,1.015400000000021,1.0288000000000466,1.045499999999997,1.0619000000000227,1.0785999999999731,1.0950999999999738,1.1119000000000199,1.1284999999999954,1.1474000000000188,1.1619000000000241,1.1784999999999997,1.1952000000000709,1.2119999999999962,1.2285999999999788,1.2474999999999952,1.2624000000000208,1.2787000000000717,1.2952000000000652,1.3119000000000227,1.3285999999999731,1.3477000000000672,1.3619000000000199,1.3785999999999774,1.3952000000000666,1.4119000000000241,1.4284999999999997,1.4484000000000208,1.4620999999999782,1.4785999999999788,1.4954999999999998,1.5120000000000005,1.528500000000001,1.54770000000007,1.5619000000000227,1.5785999999999731,1.5950999999999738,1.6120000000000019,1.6284999999999954,1.6475000000000009,1.6619000000000241,1.6787000000000702,1.6953000000000458,1.7119999999999962,1.7284999999999968,1.7485999999999748,1.7658000000000484,1.7817000000000718,1.7972000000000676,1.8119999999999976,1.8284999999999982,1.8485000000000014,1.8640999999999721,1.8785999999999774,1.8952000000000666,1.9119000000000241,1.9285999999999746,1.9484000000000208,1.9639999999999986,1.9785999999999788,1.995200000000068,2.0119000000000185,2.028500000000001,2.0475999999999743,2.061800000000048,2.078599999999973,2.0950999999999738,2.11190000000002,2.1284999999999954,2.147500000000001,2.161800000000042,2.1785999999999746,2.1984999999999957,2.2142000000000692,2.2287000000000674,2.249300000000048,2.266200000000069,2.2787000000000717,2.295200000000065,2.3134999999999977,2.333900000000021,2.347900000000024,2.3622000000000654,2.378700000000066,2.398700000000069,2.413400000000024,2.42890000000002,2.448900000000023,2.464599999999976,2.4789000000000243,2.4955,2.5144000000000233,2.5289999999999964,2.5467000000000652,2.565599999999975,2.5799999999999983,2.5955000000000013,2.61640000000002,2.6340000000000003,2.6453000000000486,2.6623000000000445,2.6809999999999974,2.6977000000000686,2.7124999999999986,2.728599999999979,2.7495999999999725,2.7650999999999755,2.7804000000000215,2.795300000000047,2.8143000000000455,2.8328000000000486,2.847800000000042,2.862000000000002,2.8809000000000253,2.8954999999999984,2.912099999999974,2.9348000000000454,2.9454999999999956,2.9619000000000213,2.9787000000000674,2.997499999999995,3.0119000000000185,3.0288000000000466,3.0489999999999995,3.0673000000000457,3.078599999999973,3.0952000000000695,3.116300000000045,3.1284999999999954,3.1453000000000486,3.169099999999972,3.1787000000000702,3.1954000000000207,3.212099999999978,3.23970000000007,3.245400000000025,3.2657000000000664,3.282300000000042,3.2989000000000246,3.313900000000025,3.330800000000046,3.3485999999999763,3.3639000000000223,3.3784999999999954,3.3952000000000666,3.412099999999974,3.4325999999999723,3.448900000000023,3.4640999999999735,3.478499999999997,3.495200000000068,3.5120000000000005,3.533099999999976,3.5495999999999768,3.5644000000000204,3.581700000000069,3.598099999999974,3.6143000000000427,3.6337000000000685,3.6454000000000235,3.662099999999974,3.678800000000045,3.6978000000000435,3.712099999999978,3.7288000000000423,3.749900000000025,3.765300000000046,3.7812000000000694,3.795400000000022,3.8119000000000227,3.832499999999996,3.847300000000047,3.8630999999999744,3.884700000000066,3.898800000000044,3.9140999999999764,3.9284000000000248,3.945200000000071,3.9655999999999736,3.978599999999979,3.9950999999999723,4.0120000000000005,4.029300000000042,4.045499999999997,4.061900000000023,4.078599999999973]","[1733111465887,1733111465920,1733111465924,1733111465941,1733111465958,1733111465975,1733111465991,1733111466008,1733111466028,1733111466044,1733111466058,1733111466082,1733111466098,1733111466108,1733111466124,1733111466141,1733111466158,1733111466174,1733111466191,1733111466208,1733111466225,1733111466241,1733111466258,1733111466274,1733111466291,1733111466308,1733111466327,1733111466341,1733111466358,1733111466374,1733111466391,1733111466408,1733111466427,1733111466444,1733111466458,1733111466475,1733111466491,1733111466512,1733111466528,1733111466541,1733111466563,1733111466574,1733111466591,1733111466616,1733111466625,1733111466641,1733111466663,1733111466675,1733111466691,1733111466708,1733111466724,1733111466744,1733111466758,1733111466774,1733111466791,1733111466808,1733111466828,1733111466843,1733111466858,1733111466874,1733111466894,1733111466908,1733111466925,1733111466941,1733111466958,1733111466974,1733111466991,1733111467008,1733111467027,1733111467041,1733111467058,1733111467074,1733111467091,1733111467108,1733111467127,1733111467141,1733111467158,1733111467174,1733111467191,1733111467208,1733111467227,1733111467241,1733111467258,1733111467274,1733111467291,1733111467308,1733111467327,1733111467341,1733111467358,1733111467375,1733111467391,1733111467408,1733111467427,1733111467441,1733111467458,1733111467474,1733111467491,1733111467508,1733111467527,1733111467541,1733111467558,1733111467574,1733111467591,1733111467608,1733111467628,1733111467645,1733111467661,1733111467676,1733111467691,1733111467708,1733111467728,1733111467743,1733111467758,1733111467774,1733111467791,1733111467808,1733111467827,1733111467843,1733111467858,1733111467874,1733111467891,1733111467908,1733111467927,1733111467941,1733111467958,1733111467974,1733111467991,1733111468008,1733111468027,1733111468041,1733111468058,1733111468078,1733111468093,1733111468108,1733111468128,1733111468145,1733111468158,1733111468174,1733111468193,1733111468213,1733111468227,1733111468241,1733111468258,1733111468278,1733111468293,1733111468308,1733111468328,1733111468344,1733111468358,1733111468375,1733111468394,1733111468408,1733111468426,1733111468445,1733111468459,1733111468475,1733111468495,1733111468513,1733111468524,1733111468541,1733111468560,1733111468577,1733111468592,1733111468608,1733111468629,1733111468644,1733111468660,1733111468674,1733111468693,1733111468712,1733111468727,1733111468741,1733111468760,1733111468775,1733111468791,1733111468814,1733111468825,1733111468841,1733111468858,1733111468877,1733111468891,1733111468908,1733111468928,1733111468946,1733111468958,1733111468974,1733111468995,1733111469008,1733111469024,1733111469048,1733111469058,1733111469074,1733111469091,1733111469119,1733111469125,1733111469145,1733111469161,1733111469178,1733111469193,1733111469210,1733111469228,1733111469243,1733111469258,1733111469274,1733111469291,1733111469312,1733111469328,1733111469343,1733111469358,1733111469374,1733111469391,1733111469412,1733111469429,1733111469443,1733111469461,1733111469477,1733111469493,1733111469513,1733111469524,1733111469541,1733111469558,1733111469577,1733111469591,1733111469608,1733111469629,1733111469644,1733111469660,1733111469674,1733111469691,1733111469712,1733111469726,1733111469742,1733111469764,1733111469778,1733111469793,1733111469808,1733111469824,1733111469845,1733111469858,1733111469874,1733111469891,1733111469908,1733111469925,1733111469941,1733111469958]","[[775.2,571.4],[775.2,571.4],[775.2,571.4],[813.3,561.5],[829.2,566.4],[843.1,564.9],[834.4,562.9],[856.8,576.5],[855.5,577.4],[815.8,565.1],[760,550.7],[760,550.7],[763,548],[763,548],[761.1,547.9],[776.9,570.8],[810.7,586.1],[829.9,600.8],[830.9,598],[821.4,578.4],[791.1,576.7],[807.4,593.5],[834.7,613.4],[819.6,610.2],[792.1,612.5],[732.8,607.6],[676,597.7],[626.4,583.2],[635.1,581.3],[623.2,580.6],[584.5,583.6],[564.4,600.1],[519.2,613.5],[457.9,638.8],[413.9,656],[356.3,662.6],[296.2,674.2],[243.7,687.8],[270,690.1],[331.7,701.1],[448.2,708.2],[448.2,708.2],[509.2,693.1],[509.2,693.1],[569.4,662.6],[569.4,662.6],[648,628.7],[648,628.7],[747,590],[747,590],[868.1,556.5],[992.5,527],[1092.2,497.2],[1129.2,496.2],[1078.2,470.9],[1027.2,445.6],[1034.3,446.9],[1056.6,455.5],[1067.7,457.7],[1010.9,484.8],[969.8,529.3],[903.6,553],[849,589],[749.3,617.6],[717.6,660.3],[670.5,704.5],[620.9,719.6],[571,742.8],[511.2,770.8],[498.9,778.7],[512,786.5],[535.8,808.9],[535.9,795.9],[552.3,775.3],[587.8,782.7],[626.3,786.3],[633.8,782.3],[648.7,776.6],[691.9,778.9],[725.7,786.8],[710.2,766.2],[705.8,747.8],[790.7,761.1],[888.1,765.7],[920.9,740.2],[960.5,727.7],[1032.6,739.1],[1071.9,729.1],[1101.7,704.2],[1140.9,673.7],[1176,659],[1196.9,637.3],[1153.6,614.4],[1115,610.6],[1117.6,620],[1125.8,618.7],[1075.1,606.6],[1049.8,617.6],[1042,643],[1034.2,668.4],[1025.2,688],[1030.1,714.3],[1045.4,732.5],[1038,742.7],[1003.7,753.1],[952.8,771.4],[940.6,795.4],[898.6,797.7],[835.5,796.6],[772,792.9],[734.9,784.8],[694.9,772.2],[641.4,763.2],[593.4,751.8],[550.1,718.2],[510.9,688.9],[506.2,664.7],[517.4,656.9],[545.5,633.5],[574,612.7],[568.3,596.4],[528.1,587.2],[536.9,583.7],[526.6,578.7],[601,595],[682.2,599.2],[725.9,599.2],[791.7,585.1],[834.2,589.4],[900.3,597.7],[958.9,618.8],[1044.5,615.4],[1079.8,606.8],[1155.4,611.6],[1142.2,608.5],[1115.4,605.9],[1130.7,592.8],[1137.8,599.1],[1159.6,601.1],[1161.5,598.7],[1126.9,560.6],[1130.2,554.4],[1122.3,534.5],[1101.5,513.4],[1059.3,483.2],[1044.5,454.7],[978.4,455.2],[954.5,449.2],[881.7,416.4],[805.2,384],[791.2,402.1],[769.5,398],[727.4,412.4],[701.6,397.6],[735.7,408.2],[761.7,416.5],[814.9,414],[845.8,416.1],[845.8,416.1],[920.9,435.5],[950.2,453.6],[1049.5,455.7],[1132.7,457.6],[1248.8,454.2],[1322.4,478.4],[1347.2,481.8],[1368.7,472.8],[1373.3,454],[1346.9,430.8],[1333.4,426.3],[1356.4,429.1],[1319.8,411.3],[1302.1,410.3],[1243.9,399.1],[1197.6,383.1],[1207.3,373],[1207.3,373],[1191,369.1],[1168.8,387.9],[1169.7,406.2],[1157.7,405.8],[1152,374.1],[1130.2,357.9],[1069.8,334.8],[1069.8,334.8],[1049.9,321.9],[1050.5,329.5],[1050.5,329.5],[1010.6,331.5],[1010.6,331.5],[994.3,327.4],[994.3,327.4],[959.8,306.9],[959.8,306.9],[922.3,293.8],[912.4,296.7],[874.8,298.5],[837.6,319.7],[839.1,351.9],[844.8,366.9],[815.2,352.6],[807,343.9],[804.7,343.5],[828.2,342],[856.9,343],[863.1,340.2],[900,363.8],[915.6,393.9],[883.3,412.3],[846.8,447.9],[847,469.1],[811,507.1],[802.4,539.5],[794,567.9],[761.1,593.9],[754.6,582.3],[755,575.7],[745.1,557.3],[745.1,557.3],[786.4,520.2],[827.1,454.1],[850.2,407.9],[939.7,367.2],[974.7,347.9],[1024.8,323],[1080.4,300.7],[1104.5,303.8],[1085.2,309.6],[1100,302.6],[1089.8,305.1],[1089.8,305.1],[1075.5,345.8],[1090.6,369.7],[1067.8,368.9],[1052.3,373.2],[1021.7,383.1],[1004.2,395.4],[1001,405.5],[1029.5,410.5],[1055.1,414.2],[1094.5,419.9],[1114.2,407.9],[1107.5,415.1],[1082.3,434.7],[1094.3,427.2]]","[0,0.3527331528]","[0.3527331528,0.3527331528]","[-0.3527331528,-0.3527331528]","[-0.3527331528,0]","[0,-0.3527331528]","[0.3527331528,-0.3527331528]","[0,0]","[0.3527331528,0]",0,0,0,0,1,1,Tablet,7,7,15,9
,,,,,,,,,,,,,,,,,,,22,001,2024-12-02_11h50.21.392,Attention_exp_legacy,2023.1.0,Win32,59.88023952,,,,,,,,,,,[0.296875],[0.37962962962962965],[1],[0],[0],[1.8668000000000475],"[""Option2_label""]",Option2_label,2,2.8689,"[[0.16666666666666666,0.046296296296296294],[0.16666666666666666,0.046296296296296294],[0.16666666666666666,0.046296296296296294],[0.16666666666666666,0.046296296296296294],[0.16666666666666666,0.046296296296296294],[0.16666666666666666,0.046296296296296294],[0.16666666666666666,0.046296296296296294],[0.16666666666666666,0.044444444444444446],[0.165625,0.044444444444444446],[0.165625,0.046296296296296294],[0.165625,0.046296296296296294],[0.165625,0.046296296296296294],[0.165625,0.046296296296296294],[0.165625,0.046296296296296294],[0.165625,0.046296296296296294],[0.165625,0.046296296296296294],[0.165625,0.046296296296296294],[0.165625,0.046296296296296294],[0.165625,0.046296296296296294],[0.165625,0.046296296296296294],[0.165625,0.046296296296296294],[0.165625,0.046296296296296294],[0.165625,0.046296296296296294],[0.165625,0.046296296296296294],[0.165625,0.046296296296296294],[0.165625,0.046296296296296294],[0.165625,0.046296296296296294],[0.165625,0.046296296296296294],[0.165625,0.046296296296296294],[0.165625,0.046296296296296294],[0.165625,0.046296296296296294],[0.165625,0.046296296296296294],[0.165625,0.046296296296296294],[0.165625,0.046296296296296294],[0.165625,0.046296296296296294],[0.165625,0.046296296296296294],[0.165625,0.046296296296296294],[0.165625,0.046296296296296294],[0.165625,0.046296296296296294],[0.165625,0.046296296296296294],[0.165625,0.046296296296296294],[0.165625,0.046296296296296294],[0.165625,0.046296296296296294],[0.165625,0.046296296296296294],[0.165625,0.046296296296296294],[0.165625,0.046296296296296294],[0.165625,0.046296296296296294],[0.165625,0.046296296296296294],[0.165625,0.046296296296296294],[0.165625,0.046296296296296294],[0.165625,0.046296296296296294],[0.165625,0.046296296296296294],[0.165625,0.046296296296296294],[0.165625,0.046296296296296294],[0.165625,0.046296296296296294],[0.165625,0.046296296296296294],[0.165625,0.046296296296296294],[0.165625,0.046296296296296294],[0.165625,0.046296296296296294],[0.165625,0.046296296296296294],[0.165625,0.046296296296296294],[0.165625,0.046296296296296294],[0.165625,0.046296296296296294],[0.165625,0.046296296296296294],[0.165625,0.046296296296296294],[0.165625,0.046296296296296294],[0.165625,0.046296296296296294],[0.165625,0.046296296296296294],[0.165625,0.046296296296296294],[0.165625,0.046296296296296294],[0.165625,0.046296296296296294],[0.165625,0.046296296296296294],[0.165625,0.046296296296296294],[0.165625,0.046296296296296294],[0.165625,0.046296296296296294],[0.165625,0.046296296296296294],[0.165625,0.046296296296296294],[0.165625,0.046296296296296294],[0.165625,0.046296296296296294],[0.165625,0.046296296296296294],[0.165625,0.046296296296296294],[0.165625,0.046296296296296294],[0.165625,0.046296296296296294],[0.165625,0.046296296296296294],[0.165625,0.046296296296296294],[0.165625,0.046296296296296294],[0.165625,0.046296296296296294],[0.165625,0.046296296296296294],[0.165625,0.046296296296296294],[0.165625,0.046296296296296294],[0.16875,0.046296296296296294],[0.17083333333333334,0.05],[0.17916666666666667,0.06666666666666667],[0.18333333333333332,0.07962962962962963],[0.18854166666666666,0.09444444444444444],[0.196875,0.11296296296296296],[0.20625,0.13703703703703704],[0.215625,0.16111111111111112],[0.225,0.18333333333333332],[0.23125,0.2074074074074074],[0.2375,0.22407407407407406],[0.240625,0.2351851851851852],[0.24375,0.24259259259259258],[0.246875,0.2537037037037037],[0.2520833333333333,0.26666666666666666],[0.2604166666666667,0.29259259259259257],[0.2677083333333333,0.3111111111111111],[0.2760416666666667,0.3296296296296296],[0.28541666666666665,0.34814814814814815],[0.290625,0.362962962962963],[0.2947916666666667,0.37592592592592594],[0.296875,0.37962962962962965],[0.296875,0.37962962962962965],[0.296875,0.37962962962962965],[0.296875,0.37962962962962965],[0.296875,0.37962962962962965],[0.296875,0.37962962962962965],[0.296875,0.37962962962962965],[0.296875,0.37962962962962965],[0.296875,0.37962962962962965],[0.296875,0.37962962962962965],[0.296875,0.37962962962962965],[0.296875,0.37962962962962965],[0.296875,0.37962962962962965],[0.296875,0.37962962962962965],[0.296875,0.37962962962962965],[0.296875,0.37962962962962965],[0.296875,0.37962962962962965],[0.296875,0.37962962962962965],[0.296875,0.37962962962962965],[0.296875,0.37962962962962965],[0.296875,0.37962962962962965],[0.296875,0.37962962962962965],[0.296875,0.37962962962962965],[0.296875,0.37962962962962965],[0.296875,0.37962962962962965],[0.296875,0.37962962962962965],[0.296875,0.37962962962962965],[0.296875,0.37962962962962965],[0.29583333333333334,0.37962962962962965],[0.29583333333333334,0.37962962962962965],[0.29583333333333334,0.37962962962962965],[0.29583333333333334,0.37962962962962965],[0.29583333333333334,0.37962962962962965],[0.29583333333333334,0.37962962962962965],[0.29583333333333334,0.37962962962962965],[0.29583333333333334,0.37962962962962965],[0.29583333333333334,0.37962962962962965],[0.29583333333333334,0.37962962962962965],[0.29583333333333334,0.37962962962962965],[0.29583333333333334,0.37962962962962965],[0.29583333333333334,0.37962962962962965],[0.29583333333333334,0.37962962962962965],[0.29583333333333334,0.37962962962962965],[0.29583333333333334,0.37962962962962965],[0.29583333333333334,0.37962962962962965],[0.2947916666666667,0.37962962962962965],[0.2947916666666667,0.37962962962962965],[0.29375,0.37962962962962965],[0.29375,0.37962962962962965],[0.2916666666666667,0.37962962962962965],[0.2916666666666667,0.37777777777777777],[0.290625,0.37592592592592594],[0.290625,0.37592592592592594],[0.290625,0.37592592592592594],[0.290625,0.37592592592592594],[0.290625,0.37592592592592594],[0.290625,0.37592592592592594],[0.290625,0.37592592592592594],[0.290625,0.37592592592592594],[0.290625,0.37592592592592594],[0.290625,0.37592592592592594],[0.28958333333333336,0.37407407407407406]]","[[0.31760416666666674,0.09962962962962954],[0.2985416666666666,0.07018518518518514],[0.2794791666666666,0.040740740740740744],[0.2639583333333334,0.025370370370370456],[0.2484375,0.009999999999999959],[0.23177083333333334,-0.002407407407407323],[0.23687500000000009,-0.009629629629629714],[0.2482291666666666,0.002407407407407323],[0.21083333333333343,-0.022222222222222223],[0.17833333333333337,-0.06296296296296296],[0.12406249999999991,-0.11870370370370374],[0.12406249999999991,-0.11870370370370374],[0.13739583333333344,-0.12759259259259256],[0.11427083333333338,-0.12148148148148152],[0.11427083333333338,-0.12148148148148152],[0.10541666666666671,-0.12148148148148152],[0.10541666666666671,-0.12148148148148152],[0.0900000000000001,-0.1287037037037037],[0.0900000000000001,-0.1287037037037037],[0.04697916666666669,-0.16351851851851854],[0.04697916666666669,-0.16351851851851854],[0.021354166666666667,-0.12740740740740744],[0.0006250000000000236,-0.12240740740740745],[-0.009791666666666643,-0.10870370370370368],[-0.011666666666666714,-0.06518518518518517],[0.0009374999999999763,0.020740740740740823],[-0.04364583333333331,0.06888888888888897],[-0.010520833333333358,0.12296296296296293],[0.022083333333333382,0.22166666666666676],[0.05239583333333329,0.3242592592592593],[0.09541666666666657,0.462037037037037],[0.09427083333333333,0.4831481481481481],[0.090625,0.5362962962962964],[0.09718749999999995,0.6362962962962964],[0.10479166666666657,0.7142592592592594],[0.05635416666666669,0.7362962962962963],[0.03729166666666662,0.7796296296296297],[-0.03864583333333336,0.8046296296296296],[-0.12479166666666662,0.7892592592592593],[-0.2063541666666667,0.7533333333333333],[-0.27374999999999994,0.7335185185185186],[-0.34645833333333337,0.7170370370370371],[-0.42781250000000004,0.6803703703703703],[-0.5305208333333333,0.606851851851852],[-0.5976041666666667,0.5455555555555556],[-0.6158333333333333,0.5211111111111111],[-0.635625,0.419074074074074],[-0.6397916666666668,0.31444444444444436],[-0.643125,0.20611111111111102],[-0.6733333333333333,0.15555555555555556],[-0.7188541666666667,0.0911111111111112],[-0.7273958333333332,0.06148148148148157],[-0.7359375,0.03185185185185194],[-0.7234375,0.011296296296296339],[-0.7101041666666668,-0.031111111111111027],[-0.7030208333333333,-0.05425925925925928],[-0.6903125,0.002962962962963005],[-0.6573958333333334,0.0787037037037037],[-0.615,0.14833333333333337],[-0.5879166666666666,0.20685185185185193],[-0.5529166666666666,0.25759259259259265],[-0.556875,0.305925925925926],[-0.5608333333333333,0.35425925925925916],[-0.5541666666666667,0.38129629629629624],[-0.58,0.4192592592592592],[-0.5995833333333334,0.43796296296296294],[-0.6044791666666666,0.48092592592592603],[-0.6613541666666667,0.4744444444444445],[-0.7159375,0.4711111111111111],[-0.7297916666666667,0.45],[-0.7307291666666667,0.4335185185185186],[-0.6976041666666667,0.4270370370370371],[-0.6644791666666666,0.42055555555555557],[-0.5960416666666667,0.3903703703703703],[-0.5315625,0.3588888888888888],[-0.45812499999999995,0.3551851851851851],[-0.399375,0.3272222222222223],[-0.28093750000000006,0.318888888888889],[-0.1742708333333333,0.3135185185185184],[-0.05552083333333328,0.32629629629629636],[0.003125,0.31074074074074065],[0.08822916666666672,0.3277777777777778],[0.17843749999999994,0.34629629629629627],[0.2021874999999999,0.365925925925926],[0.2259375000000001,0.38555555555555565],[0.23125,0.3696296296296297],[0.2365624999999999,0.3537037037037037],[0.19989583333333344,0.34629629629629627],[0.1772916666666667,0.3235185185185186],[0.1658333333333334,0.29074074074074074],[0.18552083333333325,0.26796296296296307],[0.19197916666666662,0.23962962962962958],[0.1896874999999999,0.1935185185185185],[0.19802083333333323,0.17222222222222222],[0.19260416666666677,0.14462962962962966],[0.20697916666666671,0.13222222222222219],[0.22583333333333327,0.11648148148148144],[0.2513541666666666,0.08499999999999996],[0.2609375,0.06314814814814819],[0.2679166666666667,0.07185185185185176],[0.26760416666666675,0.08203703703703695],[0.22260416666666671,0.024814814814814772],[0.1881249999999999,-0.015370370370370286],[0.15479166666666658,-0.03796296296296296],[0.1352083333333333,-0.05425925925925928],[0.12541666666666676,-0.08574074074074076],[0.11114583333333337,-0.11388888888888889],[0.07604166666666666,-0.12740740740740744],[0.042812500000000024,-0.13518518518518519],[0.05687500000000002,-0.14518518518518514],[0.06197916666666667,-0.21722222222222223],[0.0921875,-0.18740740740740738],[0.11552083333333343,-0.15833333333333333],[0.1396874999999999,-0.15999999999999995],[0.20416666666666666,-0.14888888888888885],[0.22864583333333333,-0.16407407407407412],[0.23156249999999995,-0.16166666666666668],[0.3021874999999999,-0.12888888888888894],[0.34958333333333325,-0.11870370370370374],[0.32874999999999993,-0.1742592592592593],[0.3402083333333332,-0.1712962962962963],[0.3558333333333332,-0.18944444444444447],[0.3714583333333332,-0.20759259259259263],[0.3802083333333333,-0.22185185185185188],[0.3486458333333334,-0.24888888888888885],[0.29364583333333344,-0.24148148148148144],[0.26020833333333326,-0.25166666666666665],[0.17447916666666666,-0.202962962962963],[0.11197916666666667,-0.1316666666666667],[0.03739583333333331,-0.058333333333333334],[-0.043958333333333384,0.03629629629629634],[-0.12531249999999997,0.09703703703703699],[-0.20666666666666664,0.15777777777777785],[-0.3025,0.2175925925925926],[-0.3983333333333333,0.2774074074074073],[-0.3983333333333333,0.2774074074074073],[-0.4007291666666667,0.3727777777777777],[-0.43947916666666664,0.4668518518518519],[-0.46031249999999996,0.4903703703703703],[-0.48114583333333333,0.5138888888888888],[-0.48114583333333333,0.5138888888888888],[-0.41510416666666666,0.45444444444444443],[-0.41510416666666666,0.45444444444444443],[-0.36614583333333334,0.40851851851851856],[-0.36614583333333334,0.40851851851851856],[-0.3296875,0.3394444444444444],[-0.3296875,0.3394444444444444],[-0.30625,0.3172222222222221],[-0.30625,0.3172222222222221],[-0.22218749999999995,0.28703703703703703],[-0.22218749999999995,0.28703703703703703],[-0.16843750000000005,0.247037037037037],[-0.16843750000000005,0.247037037037037],[-0.13843749999999996,0.18518518518518517],[-0.09427083333333333,0.05759259259259263],[-0.024479166666666666,-0.03185185185185194],[0.01729166666666669,-0.12740740740740744],[0.01739583333333338,-0.10851851851851856],[0.03083333333333336,-0.09944444444444442],[0.000416666666666643,-0.053148148148148125],[0.03343750000000002,-0.07388888888888885],[0.033854166666666664,-0.10870370370370368],[0.07916666666666666,-0.14537037037037037],[0.09812500000000005,-0.19611111111111107],[0.12750000000000009,-0.10462962962962963],[0.12791666666666662,-0.06629629629629631],[0.16510416666666666,-0.08055555555555556],[0.17520833333333338,-0.10407407407407405],[0.1890625,-0.13129629629629624],[0.2553124999999999,-0.13425925925925927],[0.29093749999999996,-0.1161111111111111],[0.3089583333333332,-0.08629629629629634],[0.3089583333333332,-0.08629629629629634]]","[[0.31760416666666674,0.09962962962962954,0.00009999999998200337],[0.2985416666666666,0.07018518518518514,0.016699999999957527],[0.2794791666666666,0.040740740740740744,0.03309999999997615],[0.2639583333333334,0.025370370370370456,0.05250000000000199],[0.2484375,0.009999999999999959,0.06669999999995468],[0.23177083333333334,-0.002407407407407323,0.08319999999995531],[0.23687500000000009,-0.009629629629629714,0.09969999999995593],[0.2482291666666666,0.002407407407407323,0.11880000000004998],[0.21083333333333343,-0.022222222222222223,0.13390000000002544],[0.17833333333333337,-0.06296296296296296,0.15150000000000574],[0.12406249999999991,-0.11870370370370374,0.1664000000000243],[0.12406249999999991,-0.11870370370370374,0.18330000000005242],[0.13739583333333344,-0.12759259259259256,0.19969999999995736],[0.11427083333333338,-0.12148148148148152,0.21680000000004895],[0.11427083333333338,-0.12148148148148152,0.23330000000004958],[0.10541666666666671,-0.12148148148148152,0.25],[0.10541666666666671,-0.12148148148148152,0.2664000000000257],[0.0900000000000001,-0.1287037037037037,0.28309999999997615],[0.0900000000000001,-0.1287037037037037,0.2996999999999588],[0.04697916666666669,-0.16351851851851854,0.3165000000000049],[0.04697916666666669,-0.16351851851851854,0.3330999999999804],[0.021354166666666667,-0.12740740740740744,0.34969999999995593],[0.0006250000000000236,-0.12240740740740745,0.36950000000000216],[-0.009791666666666643,-0.10870370370370368,0.3855000000000004],[-0.011666666666666714,-0.06518518518518517,0.3998000000000488],[0.0009374999999999763,0.020740740740740823,0.4164000000000243],[-0.04364583333333331,0.06888888888888897,0.43309999999998183],[-0.010520833333333358,0.12296296296296293,0.4519000000000233],[0.022083333333333382,0.22166666666666676,0.46650000000000347],[0.05239583333333329,0.3242592592592593,0.483099999999979],[0.09541666666666657,0.462037037037037,0.4996999999999545],[0.09427083333333333,0.4831481481481481,0.5165000000000006],[0.090625,0.5362962962962964,0.5333000000000467],[0.09718749999999995,0.6362962962962964,0.5529000000000224],[0.10479166666666657,0.7142592592592594,0.5664000000000229],[0.05635416666666669,0.7362962962962963,0.5830999999999804],[0.03729166666666662,0.7796296296296297,0.601800000000047],[-0.03864583333333336,0.8046296296296296,0.6164000000000271],[-0.12479166666666662,0.7892592592592593,0.6330999999999776],[-0.2063541666666667,0.7533333333333333,0.6521999999999579],[-0.27374999999999994,0.7335185185185186,0.6664000000000243],[-0.34645833333333337,0.7170370370370371,0.6831999999999567],[-0.42781250000000004,0.6803703703703703,0.6996999999999574],[-0.5305208333333333,0.606851851851852,0.7165000000000035],[-0.5976041666666667,0.5455555555555556,0.733099999999979],[-0.6158333333333333,0.5211111111111111,0.7520000000000024],[-0.635625,0.419074074074074,0.7689000000000235],[-0.6397916666666668,0.31444444444444436,0.7830999999999761],[-0.643125,0.20611111111111102,0.7996999999999588],[-0.6733333333333333,0.15555555555555556,0.8165000000000049],[-0.7188541666666667,0.0911111111111112,0.8330000000000055],[-0.7273958333333332,0.06148148148148157,0.8516999999999584],[-0.7359375,0.03185185185185194,0.8700000000000045],[-0.7234375,0.011296296296296339,0.8861999999999526],[-0.7101041666666668,-0.031111111111111027,0.8996999999999531],[-0.7030208333333333,-0.05425925925925928,0.9164999999999992],[-0.6903125,0.002962962962963005,0.9333000000000524],[-0.6573958333333334,0.0787037037037037,0.9518000000000484],[-0.615,0.14833333333333337,0.9665000000000035],[-0.5879166666666666,0.20685185185185193,0.983099999999979],[-0.5529166666666666,0.25759259259259265,0.9999000000000251],[-0.556875,0.305925925925926,1.0165000000000006],[-0.5608333333333333,0.35425925925925916,1.0330000000000013],[-0.5541666666666667,0.38129629629629624,1.0530999999999793],[-0.58,0.4192592592592592,1.0689000000000277],[-0.5995833333333334,0.43796296296296294,1.083300000000051],[-0.6044791666666666,0.48092592592592603,1.099699999999956],[-0.6613541666666667,0.4744444444444445,1.116500000000002],[-0.7159375,0.4711111111111111,1.1330000000000027],[-0.7297916666666667,0.45,1.149699999999953],[-0.7307291666666667,0.4335185185185186,1.1665999999999812],[-0.6976041666666667,0.4270370370370371,1.1830999999999818],[-0.6644791666666666,0.42055555555555557,1.1996999999999574],[-0.5960416666666667,0.3903703703703703,1.2165000000000035],[-0.5315625,0.3588888888888888,1.233099999999979],[-0.45812499999999995,0.3551851851851851,1.2520999999999773],[-0.399375,0.3272222222222223,1.2665999999999826],[-0.28093750000000006,0.318888888888889,1.2830999999999761],[-0.1742708333333333,0.3135185185185184,1.2996999999999588],[-0.05552083333333328,0.32629629629629636,1.3165000000000049],[0.003125,0.31074074074074065,1.3331999999999553],[0.08822916666666672,0.3277777777777778,1.3516999999999584],[0.17843749999999994,0.34629629629629627,1.3664000000000271],[0.2021874999999999,0.365925925925926,1.3831999999999596],[0.2259375000000001,0.38555555555555565,1.3995999999999782],[0.23125,0.3696296296296297,1.4164999999999992],[0.2365624999999999,0.3537037037037037,1.4330999999999818],[0.19989583333333344,0.34629629629629627,1.4519000000000233],[0.1772916666666667,0.3235185185185186,1.4664000000000286],[0.1658333333333334,0.29074074074074074,1.4831999999999539],[0.18552083333333325,0.26796296296296307,1.5025000000000048],[0.19197916666666662,0.23962962962962958,1.517000000000003],[0.1896874999999999,0.1935185185185185,1.5335999999999785],[0.19802083333333323,0.17222222222222222,1.554199999999959],[0.19260416666666677,0.14462962962962966,1.5684000000000253],[0.20697916666666671,0.13222222222222219,1.5831999999999553],[0.22583333333333327,0.11648148148148144,1.6000000000000014],[0.2513541666666666,0.08499999999999996,1.6194000000000273],[0.2609375,0.06314814814814819,1.6345999999999776],[0.2679166666666667,0.07185185185185176,1.652000000000001],[0.26760416666666675,0.08203703703703695,1.6689000000000291],[0.22260416666666671,0.024814814814814772,1.6834000000000273],[0.1881249999999999,-0.015370370370370286,1.699800000000046],[0.15479166666666658,-0.03796296296296296,1.7165999999999784],[0.1352083333333333,-0.05425925925925928,1.736199999999954],[0.12541666666666676,-0.08574074074074076,1.7520999999999773],[0.11114583333333337,-0.11388888888888889,1.7683000000000462],[0.07604166666666666,-0.12740740740740744,1.7831999999999582],[0.042812500000000024,-0.13518518518518519,1.802400000000027],[0.05687500000000002,-0.14518518518518514,1.8168000000000504],[0.06197916666666667,-0.21722222222222223,1.8335999999999828],[0.0921875,-0.18740740740740738,1.8500999999999763],[0.11552083333333343,-0.15833333333333333,1.8678000000000523],[0.1396874999999999,-0.15999999999999995,1.8830999999999776],[0.20416666666666666,-0.14888888888888885,1.899699999999953],[0.22864583333333333,-0.16407407407407412,1.9164999999999992],[0.23156249999999995,-0.16166666666666668,1.9330999999999818],[0.3021874999999999,-0.12888888888888894,1.9534000000000233],[0.34958333333333325,-0.11870370370370374,1.9695000000000036],[0.32874999999999993,-0.1742592592592593,1.983000000000004],[0.3402083333333332,-0.1712962962962963,1.9998000000000502],[0.3558333333333332,-0.18944444444444447,2.016900000000028],[0.3714583333333332,-0.20759259259259263,2.0330000000000013],[0.3802083333333333,-0.22185185185185188,2.0529000000000224],[0.3486458333333334,-0.24888888888888885,2.066500000000005],[0.29364583333333344,-0.24148148148148144,2.0830999999999804],[0.26020833333333326,-0.25166666666666665,2.099699999999956],[0.17447916666666666,-0.202962962962963,2.116400000000027],[0.11197916666666667,-0.1316666666666667,2.1330000000000027],[0.03739583333333331,-0.058333333333333334,2.152000000000001],[-0.043958333333333384,0.03629629629629634,2.1670000000000016],[-0.12531249999999997,0.09703703703703699,2.1831999999999567],[-0.20666666666666664,0.15777777777777785,2.1996999999999574],[-0.3025,0.2175925925925926,2.2186999999999557],[-0.3983333333333333,0.2774074074074073,2.2350999999999814],[-0.3983333333333333,0.2774074074074073,2.25],[-0.4007291666666667,0.3727777777777777,2.2665000000000006],[-0.43947916666666664,0.4668518518518519,2.2830000000000013],[-0.46031249999999996,0.4903703703703703,2.2996999999999588],[-0.48114583333333333,0.5138888888888888,2.321800000000046],[-0.48114583333333333,0.5138888888888888,2.3331999999999553],[-0.41510416666666666,0.45444444444444443,2.3601999999999563],[-0.41510416666666666,0.45444444444444443,2.3708000000000524],[-0.36614583333333334,0.40851851851851856,2.3838000000000505],[-0.36614583333333334,0.40851851851851856,2.399699999999953],[-0.3296875,0.3394444444444444,2.416499999999999],[-0.3296875,0.3394444444444444,2.433],[-0.30625,0.3172222222222221,2.449800000000046],[-0.30625,0.3172222222222221,2.4663000000000466],[-0.22218749999999995,0.28703703703703703,2.483000000000004],[-0.22218749999999995,0.28703703703703703,2.4996999999999545],[-0.16843750000000005,0.247037037037037,2.5165000000000006],[-0.16843750000000005,0.247037037037037,2.533099999999976],[-0.13843749999999996,0.18518518518518517,2.5499000000000294],[-0.09427083333333333,0.05759259259259263,2.5706999999999596],[-0.024479166666666666,-0.03185185185185194,2.5860000000000056],[0.01729166666666669,-0.12740740740740744,2.6024000000000242],[0.01739583333333338,-0.10851851851851856,2.616500000000002],[0.03083333333333336,-0.09944444444444442,2.6339000000000254],[0.000416666666666643,-0.053148148148148125,2.649800000000049],[0.03343750000000002,-0.07388888888888885,2.668900000000029],[0.033854166666666664,-0.10870370370370368,2.6833000000000524],[0.07916666666666666,-0.14537037037037037,2.700000000000003],[0.09812500000000005,-0.19611111111111107,2.7164000000000286],[0.12750000000000009,-0.10462962962962963,2.733000000000004],[0.12791666666666662,-0.06629629629629631,2.7518000000000526],[0.16510416666666666,-0.08055555555555556,2.7665000000000006],[0.17520833333333338,-0.10407407407407405,2.783099999999976],[0.1890625,-0.13129629629629624,2.7995999999999768],[0.2553124999999999,-0.13425925925925927,2.816500000000005],[0.29093749999999996,-0.1161111111111111,2.8330000000000055],[0.3089583333333332,-0.08629629629629634,2.851900000000029],[0.3089583333333332,-0.08629629629629634,2.868900000000025]]","[0.00009999999998200337,0.016699999999957527,0.03309999999997615,0.05250000000000199,0.06669999999995468,0.08319999999995531,0.09969999999995593,0.11880000000004998,0.13390000000002544,0.15150000000000574,0.1664000000000243,0.18330000000005242,0.19969999999995736,0.21680000000004895,0.23330000000004958,0.25,0.2664000000000257,0.28309999999997615,0.2996999999999588,0.3165000000000049,0.3330999999999804,0.34969999999995593,0.36950000000000216,0.3855000000000004,0.3998000000000488,0.4164000000000243,0.43309999999998183,0.4519000000000233,0.46650000000000347,0.483099999999979,0.4996999999999545,0.5165000000000006,0.5333000000000467,0.5529000000000224,0.5664000000000229,0.5830999999999804,0.601800000000047,0.6164000000000271,0.6330999999999776,0.6521999999999579,0.6664000000000243,0.6831999999999567,0.6996999999999574,0.7165000000000035,0.733099999999979,0.7520000000000024,0.7689000000000235,0.7830999999999761,0.7996999999999588,0.8165000000000049,0.8330000000000055,0.8516999999999584,0.8700000000000045,0.8861999999999526,0.8996999999999531,0.9164999999999992,0.9333000000000524,0.9518000000000484,0.9665000000000035,0.983099999999979,0.9999000000000251,1.0165000000000006,1.0330000000000013,1.0530999999999793,1.0689000000000277,1.083300000000051,1.099699999999956,1.116500000000002,1.1330000000000027,1.149699999999953,1.1665999999999812,1.1830999999999818,1.1996999999999574,1.2165000000000035,1.233099999999979,1.2520999999999773,1.2665999999999826,1.2830999999999761,1.2996999999999588,1.3165000000000049,1.3331999999999553,1.3516999999999584,1.3664000000000271,1.3831999999999596,1.3995999999999782,1.4164999999999992,1.4330999999999818,1.4519000000000233,1.4664000000000286,1.4831999999999539,1.5025000000000048,1.517000000000003,1.5335999999999785,1.554199999999959,1.5684000000000253,1.5831999999999553,1.6000000000000014,1.6194000000000273,1.6345999999999776,1.652000000000001,1.6689000000000291,1.6834000000000273,1.699800000000046,1.7165999999999784,1.736199999999954,1.7520999999999773,1.7683000000000462,1.7831999999999582,1.802400000000027,1.8168000000000504,1.8335999999999828,1.8500999999999763,1.8678000000000523,1.8830999999999776,1.899699999999953,1.9164999999999992,1.9330999999999818,1.9534000000000233,1.9695000000000036,1.983000000000004,1.9998000000000502,2.016900000000028,2.0330000000000013,2.0529000000000224,2.066500000000005,2.0830999999999804,2.099699999999956,2.116400000000027,2.1330000000000027,2.152000000000001,2.1670000000000016,2.1831999999999567,2.1996999999999574,2.2186999999999557,2.2350999999999814,2.25,2.2665000000000006,2.2830000000000013,2.2996999999999588,2.321800000000046,2.3331999999999553,2.3601999999999563,2.3708000000000524,2.3838000000000505,2.399699999999953,2.416499999999999,2.433,2.449800000000046,2.4663000000000466,2.483000000000004,2.4996999999999545,2.5165000000000006,2.533099999999976,2.5499000000000294,2.5706999999999596,2.5860000000000056,2.6024000000000242,2.616500000000002,2.6339000000000254,2.649800000000049,2.668900000000029,2.6833000000000524,2.700000000000003,2.7164000000000286,2.733000000000004,2.7518000000000526,2.7665000000000006,2.783099999999976,2.7995999999999768,2.816500000000005,2.8330000000000055,2.851900000000029,2.868900000000025]","[1733111470975,1733111470991,1733111471008,1733111471027,1733111471041,1733111471058,1733111471074,1733111471093,1733111471108,1733111471126,1733111471141,1733111471158,1733111471174,1733111471191,1733111471208,1733111471224,1733111471241,1733111471258,1733111471274,1733111471291,1733111471308,1733111471324,1733111471344,1733111471360,1733111471374,1733111471391,1733111471408,1733111471426,1733111471441,1733111471458,1733111471474,1733111471491,1733111471508,1733111471527,1733111471541,1733111471558,1733111471576,1733111471591,1733111471608,1733111471627,1733111471641,1733111471658,1733111471674,1733111471691,1733111471708,1733111471726,1733111471743,1733111471758,1733111471774,1733111471791,1733111471808,1733111471826,1733111471844,1733111471861,1733111471874,1733111471891,1733111471908,1733111471926,1733111471941,1733111471958,1733111471974,1733111471991,1733111472008,1733111472028,1733111472043,1733111472058,1733111472074,1733111472091,1733111472108,1733111472124,1733111472141,1733111472158,1733111472174,1733111472191,1733111472208,1733111472227,1733111472241,1733111472258,1733111472274,1733111472291,1733111472308,1733111472326,1733111472341,1733111472358,1733111472374,1733111472391,1733111472408,1733111472426,1733111472441,1733111472458,1733111472477,1733111472491,1733111472508,1733111472529,1733111472543,1733111472558,1733111472574,1733111472594,1733111472609,1733111472626,1733111472643,1733111472658,1733111472674,1733111472691,1733111472711,1733111472727,1733111472743,1733111472758,1733111472777,1733111472791,1733111472808,1733111472825,1733111472842,1733111472858,1733111472874,1733111472891,1733111472908,1733111472928,1733111472944,1733111472958,1733111472974,1733111472991,1733111473008,1733111473027,1733111473041,1733111473058,1733111473074,1733111473091,1733111473107,1733111473126,1733111473142,1733111473158,1733111473174,1733111473193,1733111473210,1733111473224,1733111473241,1733111473258,1733111473274,1733111473296,1733111473308,1733111473335,1733111473345,1733111473358,1733111473374,1733111473391,1733111473408,1733111473424,1733111473441,1733111473458,1733111473474,1733111473491,1733111473508,1733111473524,1733111473545,1733111473561,1733111473577,1733111473591,1733111473608,1733111473624,1733111473643,1733111473658,1733111473674,1733111473691,1733111473707,1733111473726,1733111473741,1733111473757,1733111473774,1733111473791,1733111473808,1733111473826,1733111473843]","[[1264.9,593.8],[1246.6,577.9],[1228.3,562],[1213.4,553.7],[1198.5,545.4],[1182.5,538.7],[1187.4,534.8],[1198.3,541.3],[1162.4,528],[1131.2,506],[1079.1,475.9],[1079.1,475.9],[1091.9,471.1],[1069.7,474.4],[1069.7,474.4],[1061.2,474.4],[1061.2,474.4],[1046.4,470.5],[1046.4,470.5],[1005.1,451.7],[1005.1,451.7],[980.5,471.2],[960.6,473.9],[950.6,481.3],[948.8,504.8],[960.9,551.2],[918.1,577.2],[949.9,606.4],[981.2,659.7],[1010.3,715.1],[1051.6,789.5],[1050.5,800.9],[1047,829.6],[1053.3,883.6],[1060.6,925.7],[1014.1,937.6],[995.8,961],[922.9,974.5],[840.2,966.2],[761.9,946.8],[697.2,936.1],[627.4,927.2],[549.3,907.4],[450.7,867.7],[386.3,834.6],[368.8,821.4],[349.8,766.3],[345.8,709.8],[342.6,651.3],[313.6,624],[269.9,589.2],[261.7,573.2],[253.5,557.2],[265.5,546.1],[278.3,523.2],[285.1,510.7],[297.3,541.6],[328.9,582.5],[369.6,620.1],[395.6,651.7],[429.2,679.1],[425.4,705.2],[421.6,731.3],[428,745.9],[403.2,766.4],[384.4,776.5],[379.7,799.7],[325.1,796.2],[272.7,794.4],[259.4,783],[258.5,774.1],[290.3,770.6],[322.1,767.1],[387.8,750.8],[449.7,733.8],[520.2,731.8],[576.6,716.7],[690.3,712.2],[792.7,709.3],[906.7,716.2],[963,707.8],[1044.7,717],[1131.3,727],[1154.1,737.6],[1176.9,748.2],[1182,739.6],[1187.1,731],[1151.9,727],[1130.2,714.7],[1119.2,697],[1138.1,684.7],[1144.3,669.4],[1142.1,644.5],[1150.1,633],[1144.9,618.1],[1158.7,611.4],[1176.8,602.9],[1201.3,585.9],[1210.5,574.1],[1217.2,578.8],[1216.9,584.3],[1173.7,553.4],[1140.6,531.7],[1108.6,519.5],[1089.8,510.7],[1080.4,493.7],[1066.7,478.5],[1033,471.2],[1001.1,467],[1014.6,461.6],[1019.5,422.7],[1048.5,438.8],[1070.9,454.5],[1094.1,453.6],[1156,459.6],[1179.5,451.4],[1182.3,452.7],[1250.1,470.4],[1295.6,475.9],[1275.6,445.9],[1286.6,447.5],[1301.6,437.7],[1316.6,427.9],[1325,420.2],[1294.7,405.6],[1241.9,409.6],[1209.8,404.1],[1127.5,430.4],[1067.5,468.9],[995.9,508.5],[917.8,559.6],[839.7,592.4],[761.6,625.2],[669.6,657.5],[577.6,689.8],[577.6,689.8],[575.3,741.3],[538.1,792.1],[518.1,804.8],[498.1,817.5],[498.1,817.5],[561.5,785.4],[561.5,785.4],[608.5,760.6],[608.5,760.6],[643.5,723.3],[643.5,723.3],[666,711.3],[666,711.3],[746.7,695],[746.7,695],[798.3,673.4],[798.3,673.4],[827.1,640],[869.5,571.1],[936.5,522.8],[976.6,471.2],[976.7,481.4],[989.6,486.3],[960.4,511.3],[992.1,500.1],[992.5,481.3],[1036,461.5],[1054.2,434.1],[1082.4,483.5],[1082.8,504.2],[1118.5,496.5],[1128.2,483.8],[1141.5,469.1],[1205.1,467.5],[1239.3,477.3],[1256.6,493.4],[1256.6,493.4]]","[0,0.3527331528]","[0.3527331528,0.3527331528]","[-0.3527331528,-0.3527331528]","[-0.3527331528,0]","[0,-0.3527331528]","[0.3527331528,-0.3527331528]","[0,0]","[0.3527331528,0]",0,1,1,1,1,1,Tablet,9,1,11,5
