inst1_resp.keys,inst1_resp.rt,calibrationMouse.x,calibrationMouse.y,calibrationMouse.leftButton,calibrationMouse.midButton,calibrationMouse.rightButton,calibrationClick.x,calibrationClick.y,calibrationClick.leftButton,calibrationClick.midButton,calibrationClick.rightButton,calibrationClick.clicked_name,trialsc.thisRepN,trialsc.thisTrialN,trialsc.thisN,trialsc.thisIndex,trialsc.ran,calibration_x,calibration_y,participant,session,date,expName,psychopyVersion,OS,frameRate,ScreenRes_pixels,Camera_pixels,mouse_2.x,mouse_2.y,mouse_2.leftButton,mouse_2.midButton,mouse_2.rightButton,mouse_2.time,mouse_2.clicked_name,mouse.x,mouse.y,mouse.leftButton,mouse.midButton,mouse.rightButton,mouse.time,mouse.clicked_name,Choice,Trial,TrialDuration,MOUSE_GAZE,ET_GAZE,ET_GAZE_x_T,time,unixTime,ET_GAZE_NF,Loc_Option1_label,Loc_Option2_label,Loc_Cost_label,Loc_Qual_label,Loc_Option1_cost,Loc_Option2_cost,Loc_Option1_quality,Loc_Option2_quality,trials.thisRepN,trials.thisTrialN,trials.thisN,trials.thisIndex,trials.ran,Block,Device,cost1,qual1,cost2,qual2
space,2.0167,-0.076041667,-0.207407407,1,0,0,-0.676041667,-0.337037037,1,0,0,calibration_square,0,0,0,1,1,-0.67,-0.33,06,001,2024-12-02_10h05.27.332,Attention_exp_legacy,2023.1.0,Win32,59.88023952,,,,,,,,,,,,,,,,,,,,,,,,,,,,,,,,,,,,,,,,,,,,
,,,,,,,-0.333333333,-0.675925926,1,0,0,calibration_square,0,1,1,4,1,-0.33,-0.67,06,001,2024-12-02_10h05.27.332,Attention_exp_legacy,2023.1.0,Win32,59.88023952,,,,,,,,,,,,,,,,,,,,,,,,,,,,,,,,,,,,,,,,,,,,
,,,,,,,-0.672916667,-0.674074074,1,0,0,calibration_square,0,2,2,0,1,-0.67,-0.67,06,001,2024-12-02_10h05.27.332,Attention_exp_legacy,2023.1.0,Win32,59.88023952,,,,,,,,,,,,,,,,,,,,,,,,,,,,,,,,,,,,,,,,,,,,
,,,,,,,-0.335416667,-0.331481481,1,0,0,calibration_square,0,3,3,5,1,-0.33,-0.33,06,001,2024-12-02_10h05.27.332,Attention_exp_legacy,2023.1.0,Win32,59.88023952,,,,,,,,,,,,,,,,,,,,,,,,,,,,,,,,,,,,,,,,,,,,
,,,,,,,0.335416667,-0.325925926,1,0,0,calibration_square,0,4,4,15,1,0.33,-0.33,06,001,2024-12-02_10h05.27.332,Attention_exp_legacy,2023.1.0,Win32,59.88023952,,,,,,,,,,,,,,,,,,,,,,,,,,,,,,,,,,,,,,,,,,,,
,,,,,,,0.011458333,-0.331481481,1,0,0,,0,5,5,10,1,0,-0.33,06,001,2024-12-02_10h05.27.332,Attention_exp_legacy,2023.1.0,Win32,59.88023952,,,,,,,,,,,,,,,,,,,,,,,,,,,,,,,,,,,,,,,,,,,,
,,,,,,,0.326041667,0.316666667,1,0,0,,0,6,6,17,1,0.33,0.33,06,001,2024-12-02_10h05.27.332,Attention_exp_legacy,2023.1.0,Win32,59.88023952,,,,,,,,,,,,,,,,,,,,,,,,,,,,,,,,,,,,,,,,,,,,
,,,,,,,-0.022916667,0.681481481,1,0,0,,0,7,7,13,1,0,0.67,06,001,2024-12-02_10h05.27.332,Attention_exp_legacy,2023.1.0,Win32,59.88023952,,,,,,,,,,,,,,,,,,,,,,,,,,,,,,,,,,,,,,,,,,,,
,,,,,,,0.333333333,-0.668518519,1,0,0,calibration_square,0,8,8,14,1,0.33,-0.67,06,001,2024-12-02_10h05.27.332,Attention_exp_legacy,2023.1.0,Win32,59.88023952,,,,,,,,,,,,,,,,,,,,,,,,,,,,,,,,,,,,,,,,,,,,
,,,,,,,-0.330208333,0.32037037,1,0,0,calibration_square,0,9,9,7,1,-0.33,0.33,06,001,2024-12-02_10h05.27.332,Attention_exp_legacy,2023.1.0,Win32,59.88023952,,,,,,,,,,,,,,,,,,,,,,,,,,,,,,,,,,,,,,,,,,,,
,,,,,,,-0.665625,0.011111111,1,0,0,,0,10,10,2,1,-0.67,0,06,001,2024-12-02_10h05.27.332,Attention_exp_legacy,2023.1.0,Win32,59.88023952,,,,,,,,,,,,,,,,,,,,,,,,,,,,,,,,,,,,,,,,,,,,
,,,,,,,0.33125,-0.007407407,1,0,0,calibration_square,0,11,11,16,1,0.33,0,06,001,2024-12-02_10h05.27.332,Attention_exp_legacy,2023.1.0,Win32,59.88023952,,,,,,,,,,,,,,,,,,,,,,,,,,,,,,,,,,,,,,,,,,,,
,,,,,,,0.665625,-0.67037037,1,0,0,calibration_square,0,12,12,20,1,0.67,-0.67,06,001,2024-12-02_10h05.27.332,Attention_exp_legacy,2023.1.0,Win32,59.88023952,,,,,,,,,,,,,,,,,,,,,,,,,,,,,,,,,,,,,,,,,,,,
,,,,,,,0.001041667,0.001851852,1,0,0,calibration_square,0,13,13,11,1,0,0,06,001,2024-12-02_10h05.27.332,Attention_exp_legacy,2023.1.0,Win32,59.88023952,,,,,,,,,,,,,,,,,,,,,,,,,,,,,,,,,,,,,,,,,,,,
,,,,,,,-0.002083333,-0.672222222,1,0,0,calibration_square,0,14,14,9,1,0,-0.67,06,001,2024-12-02_10h05.27.332,Attention_exp_legacy,2023.1.0,Win32,59.88023952,,,,,,,,,,,,,,,,,,,,,,,,,,,,,,,,,,,,,,,,,,,,
,,,,,,,0.66875,0.666666667,1,0,0,calibration_square,0,15,15,19,1,0.67,0.67,06,001,2024-12-02_10h05.27.332,Attention_exp_legacy,2023.1.0,Win32,59.88023952,,,,,,,,,,,,,,,,,,,,,,,,,,,,,,,,,,,,,,,,,,,,
,,,,,,,-0.002083333,0.331481481,1,0,0,calibration_square,0,16,16,12,1,0,0.33,06,001,2024-12-02_10h05.27.332,Attention_exp_legacy,2023.1.0,Win32,59.88023952,,,,,,,,,,,,,,,,,,,,,,,,,,,,,,,,,,,,,,,,,,,,
,,,,,,,0.347916667,0.67037037,1,0,0,,0,17,17,18,1,0.33,0.67,06,001,2024-12-02_10h05.27.332,Attention_exp_legacy,2023.1.0,Win32,59.88023952,,,,,,,,,,,,,,,,,,,,,,,,,,,,,,,,,,,,,,,,,,,,
,,,,,,,-0.321875,0.007407407,1,0,0,calibration_square,0,18,18,6,1,-0.33,0,06,001,2024-12-02_10h05.27.332,Attention_exp_legacy,2023.1.0,Win32,59.88023952,,,,,,,,,,,,,,,,,,,,,,,,,,,,,,,,,,,,,,,,,,,,
,,,,,,,-0.658333333,0.325925926,1,0,0,,0,19,19,3,1,-0.67,0.33,06,001,2024-12-02_10h05.27.332,Attention_exp_legacy,2023.1.0,Win32,59.88023952,,,,,,,,,,,,,,,,,,,,,,,,,,,,,,,,,,,,,,,,,,,,
,,,,,,,-0.338541667,0.677777778,1,0,0,calibration_square,0,20,20,8,1,-0.33,0.67,06,001,2024-12-02_10h05.27.332,Attention_exp_legacy,2023.1.0,Win32,59.88023952,,,,,,,,,,,,,,,,,,,,,,,,,,,,,,,,,,,,,,,,,,,,
,,,,,,,,,,,,,,,,,,,,06,001,2024-12-02_10h05.27.332,Attention_exp_legacy,2023.1.0,Win32,59.88023952,"[1920,1080]","[640,480]",[-0.009375],[-0.5203703703703704],[1],[0],[0],[1.6601000000238457],"[""StartButton""]","[0.15520833333333334,0.06875]","[-0.13518518518518519,0.4722222222222222]","[1,1]","[0,0]","[0,0]","[4.029800000071532,8.01389999997616]","[""Option1_label""]",Option1_label,1,9.0952,"[[-0.005208333333333333,-0.4777777777777778],[-0.005208333333333333,-0.4777777777777778],[-0.005208333333333333,-0.4777777777777778],[-0.005208333333333333,-0.4777777777777778],[-0.005208333333333333,-0.4777777777777778],[-0.005208333333333333,-0.4777777777777778],[-0.005208333333333333,-0.4777777777777778],[-0.005208333333333333,-0.4777777777777778],[-0.005208333333333333,-0.4777777777777778],[-0.005208333333333333,-0.4777777777777778],[-0.005208333333333333,-0.4777777777777778],[-0.005208333333333333,-0.4777777777777778],[-0.005208333333333333,-0.4777777777777778],[-0.005208333333333333,-0.4777777777777778],[-0.005208333333333333,-0.4777777777777778],[-0.005208333333333333,-0.4777777777777778],[-0.005208333333333333,-0.4777777777777778],[-0.005208333333333333,-0.4777777777777778],[-0.005208333333333333,-0.4777777777777778],[-0.005208333333333333,-0.4777777777777778],[-0.005208333333333333,-0.4777777777777778],[-0.005208333333333333,-0.4777777777777778],[-0.005208333333333333,-0.4777777777777778],[-0.005208333333333333,-0.4777777777777778],[-0.005208333333333333,-0.4777777777777778],[-0.005208333333333333,-0.4777777777777778],[-0.005208333333333333,-0.4777777777777778],[-0.005208333333333333,-0.4777777777777778],[-0.005208333333333333,-0.4777777777777778],[-0.005208333333333333,-0.4777777777777778],[-0.005208333333333333,-0.4777777777777778],[-0.005208333333333333,-0.4777777777777778],[-0.005208333333333333,-0.4777777777777778],[-0.005208333333333333,-0.4777777777777778],[-0.005208333333333333,-0.4740740740740741],[-0.005208333333333333,-0.4722222222222222],[-0.005208333333333333,-0.4722222222222222],[-0.004166666666666667,-0.4685185185185185],[-0.004166666666666667,-0.4685185185185185],[-0.004166666666666667,-0.4685185185185185],[-0.004166666666666667,-0.4685185185185185],[-0.004166666666666667,-0.4685185185185185],[-0.004166666666666667,-0.4685185185185185],[-0.004166666666666667,-0.4685185185185185],[-0.004166666666666667,-0.4685185185185185],[-0.004166666666666667,-0.4685185185185185],[-0.004166666666666667,-0.4685185185185185],[-0.004166666666666667,-0.4685185185185185],[-0.004166666666666667,-0.4685185185185185],[-0.004166666666666667,-0.4685185185185185],[-0.004166666666666667,-0.4685185185185185],[-0.004166666666666667,-0.4685185185185185],[0.010416666666666666,-0.46111111111111114],[0.015625,-0.45925925925925926],[0.01875,-0.45925925925925926],[0.03854166666666667,-0.45925925925925926],[0.05416666666666667,-0.45925925925925926],[0.059375,-0.45925925925925926],[0.10208333333333333,-0.46111111111111114],[0.10520833333333333,-0.46111111111111114],[0.1125,-0.46296296296296297],[0.11458333333333333,-0.4648148148148148],[0.11458333333333333,-0.4648148148148148],[0.11458333333333333,-0.4648148148148148],[0.11458333333333333,-0.4648148148148148],[0.11458333333333333,-0.4648148148148148],[0.11458333333333333,-0.4648148148148148],[0.11458333333333333,-0.4648148148148148],[0.11458333333333333,-0.4648148148148148],[0.11458333333333333,-0.4648148148148148],[0.11458333333333333,-0.4648148148148148],[0.11458333333333333,-0.4648148148148148],[0.11458333333333333,-0.4648148148148148],[0.11458333333333333,-0.4648148148148148],[0.11458333333333333,-0.4648148148148148],[0.11458333333333333,-0.4648148148148148],[0.11458333333333333,-0.4648148148148148],[0.11458333333333333,-0.4648148148148148],[0.11458333333333333,-0.4648148148148148],[0.11458333333333333,-0.4648148148148148],[0.11458333333333333,-0.4648148148148148],[0.11458333333333333,-0.4648148148148148],[0.11458333333333333,-0.4648148148148148],[0.11458333333333333,-0.4648148148148148],[0.11458333333333333,-0.4648148148148148],[0.11458333333333333,-0.4648148148148148],[0.11458333333333333,-0.4648148148148148],[0.11458333333333333,-0.4648148148148148],[0.11458333333333333,-0.4648148148148148],[0.11458333333333333,-0.4648148148148148],[0.11458333333333333,-0.4648148148148148],[0.11458333333333333,-0.4648148148148148],[0.11458333333333333,-0.4648148148148148],[0.11458333333333333,-0.4648148148148148],[0.11458333333333333,-0.4648148148148148],[0.11458333333333333,-0.4648148148148148],[0.11458333333333333,-0.4648148148148148],[0.11458333333333333,-0.4648148148148148],[0.11458333333333333,-0.4648148148148148],[0.11458333333333333,-0.4648148148148148],[0.11458333333333333,-0.4648148148148148],[0.11458333333333333,-0.4648148148148148],[0.11458333333333333,-0.4648148148148148],[0.11458333333333333,-0.4648148148148148],[0.11458333333333333,-0.4648148148148148],[0.11458333333333333,-0.4648148148148148],[0.11458333333333333,-0.4648148148148148],[0.11458333333333333,-0.4648148148148148],[0.11458333333333333,-0.4648148148148148],[0.11458333333333333,-0.4648148148148148],[0.11458333333333333,-0.4648148148148148],[0.11458333333333333,-0.4648148148148148],[0.11458333333333333,-0.4648148148148148],[0.11458333333333333,-0.4648148148148148],[0.115625,-0.4648148148148148],[0.13020833333333334,-0.42407407407407405],[0.146875,-0.34814814814814815],[0.15520833333333334,-0.3055555555555556],[0.16354166666666667,-0.2574074074074074],[0.16458333333333333,-0.2462962962962963],[0.16666666666666666,-0.16296296296296298],[0.16354166666666667,-0.1537037037037037],[0.16041666666666668,-0.14444444444444443],[0.15625,-0.13518518518518519],[0.15520833333333334,-0.13518518518518519],[0.15520833333333334,-0.13518518518518519],[0.15520833333333334,-0.13518518518518519],[0.15520833333333334,-0.13518518518518519],[0.15520833333333334,-0.13518518518518519],[0.15520833333333334,-0.13518518518518519],[0.15520833333333334,-0.13518518518518519],[0.15520833333333334,-0.13518518518518519],[0.15520833333333334,-0.13518518518518519],[0.15520833333333334,-0.13518518518518519],[0.15520833333333334,-0.13518518518518519],[0.15520833333333334,-0.13518518518518519],[0.15520833333333334,-0.13518518518518519],[0.15520833333333334,-0.13518518518518519],[0.15520833333333334,-0.13518518518518519],[0.15520833333333334,-0.13518518518518519],[0.15520833333333334,-0.13518518518518519],[0.15520833333333334,-0.13518518518518519],[0.15520833333333334,-0.13518518518518519],[0.153125,-0.13518518518518519],[0.13958333333333334,-0.08703703703703704],[0.13541666666666666,-0.018518518518518517],[0.12708333333333333,0.07407407407407407],[0.11979166666666667,0.17407407407407408],[0.10625,0.3388888888888889],[0.08229166666666667,0.5074074074074074],[0.078125,0.5555555555555556],[0.07395833333333333,0.5907407407407408],[0.07395833333333333,0.5907407407407408],[0.07395833333333333,0.5907407407407408],[0.07395833333333333,0.5907407407407408],[0.07395833333333333,0.5907407407407408],[0.07395833333333333,0.5907407407407408],[0.07395833333333333,0.5740740740740741],[0.07604166666666666,0.5537037037037037],[0.0875,0.4888888888888889],[0.090625,0.4685185185185185],[0.09583333333333334,0.43148148148148147],[0.1125,0.3388888888888889],[0.11354166666666667,0.32037037037037036],[0.11458333333333333,0.31296296296296294],[0.11666666666666667,0.30185185185185187],[0.11770833333333333,0.28888888888888886],[0.11770833333333333,0.28703703703703703],[0.11770833333333333,0.2851851851851852],[0.11770833333333333,0.2851851851851852],[0.11770833333333333,0.2851851851851852],[0.11770833333333333,0.2851851851851852],[0.11770833333333333,0.2851851851851852],[0.11770833333333333,0.2851851851851852],[0.11770833333333333,0.2851851851851852],[0.11770833333333333,0.2851851851851852],[0.11770833333333333,0.2851851851851852],[0.11770833333333333,0.2851851851851852],[0.11770833333333333,0.2851851851851852],[0.11770833333333333,0.2851851851851852],[0.11770833333333333,0.2851851851851852],[0.11770833333333333,0.2851851851851852],[0.11770833333333333,0.2851851851851852],[0.11770833333333333,0.2851851851851852],[0.11770833333333333,0.2851851851851852],[0.11770833333333333,0.2851851851851852],[0.11770833333333333,0.2851851851851852],[0.11770833333333333,0.2851851851851852],[0.11770833333333333,0.2851851851851852],[0.11770833333333333,0.2851851851851852],[0.11770833333333333,0.2851851851851852],[0.11770833333333333,0.2851851851851852],[0.11770833333333333,0.2851851851851852],[0.11770833333333333,0.2851851851851852],[0.11770833333333333,0.2851851851851852],[0.11770833333333333,0.2851851851851852],[0.11770833333333333,0.2851851851851852],[0.11770833333333333,0.2851851851851852],[0.11770833333333333,0.2851851851851852],[0.11770833333333333,0.2851851851851852],[0.11770833333333333,0.2851851851851852],[0.11770833333333333,0.2851851851851852],[0.11770833333333333,0.2851851851851852],[0.11770833333333333,0.2851851851851852],[0.11770833333333333,0.2851851851851852],[0.11770833333333333,0.2851851851851852],[0.11770833333333333,0.2851851851851852],[0.11770833333333333,0.2851851851851852],[0.11770833333333333,0.2851851851851852],[0.11770833333333333,0.2851851851851852],[0.11770833333333333,0.2851851851851852],[0.11770833333333333,0.2851851851851852],[0.11770833333333333,0.2851851851851852],[0.11770833333333333,0.2851851851851852],[0.11770833333333333,0.2851851851851852],[0.11770833333333333,0.2851851851851852],[0.11770833333333333,0.2851851851851852],[0.11770833333333333,0.2851851851851852],[0.11770833333333333,0.2851851851851852],[0.11770833333333333,0.2851851851851852],[0.11770833333333333,0.2851851851851852],[0.11770833333333333,0.2851851851851852],[0.11770833333333333,0.2851851851851852],[0.11770833333333333,0.2851851851851852],[0.11770833333333333,0.2851851851851852],[0.11770833333333333,0.2851851851851852],[0.11666666666666667,0.28888888888888886],[0.11354166666666667,0.29814814814814816],[0.1125,0.29814814814814816],[0.11041666666666666,0.3074074074074074],[0.10520833333333333,0.31666666666666665],[0.10416666666666667,0.32407407407407407],[0.1,0.3351851851851852],[0.09895833333333333,0.34814814814814815],[0.09895833333333333,0.35],[0.08854166666666667,0.3888888888888889],[0.08020833333333334,0.4148148148148148],[0.07708333333333334,0.43148148148148147],[0.07604166666666666,0.44074074074074077],[0.075,0.44814814814814813],[0.07083333333333333,0.4685185185185185],[0.06875,0.4722222222222222],[0.06875,0.4722222222222222],[0.06875,0.4722222222222222],[0.06875,0.4722222222222222],[0.06875,0.4722222222222222],[0.06875,0.4722222222222222],[0.06875,0.4722222222222222],[0.06875,0.4722222222222222],[0.06875,0.4722222222222222],[0.06875,0.4722222222222222],[0.06875,0.4722222222222222],[0.06875,0.4722222222222222],[0.06875,0.4722222222222222],[0.06875,0.4722222222222222],[0.06875,0.4722222222222222],[0.06875,0.4722222222222222],[0.06875,0.4722222222222222],[0.06875,0.4722222222222222],[0.06875,0.4722222222222222],[0.06875,0.4722222222222222],[0.06875,0.4722222222222222],[0.06875,0.4722222222222222],[0.06875,0.4722222222222222],[0.06875,0.4722222222222222],[0.06875,0.4722222222222222],[0.06875,0.4722222222222222],[0.06875,0.4722222222222222],[0.06875,0.4722222222222222],[0.06875,0.4722222222222222],[0.06875,0.4722222222222222],[0.06875,0.4722222222222222],[0.06875,0.4722222222222222],[0.06875,0.4722222222222222],[0.06875,0.4722222222222222],[0.06875,0.4722222222222222],[0.06875,0.4722222222222222],[0.06875,0.4722222222222222],[0.06875,0.4722222222222222],[0.06875,0.4722222222222222],[0.06875,0.4722222222222222]]","[[0.11770833333333333,0.32166666666666677],[0.11770833333333333,0.32166666666666677],[0.12979166666666658,0.30185185185185187],[0.12979166666666658,0.30185185185185187],[0.12281250000000009,0.27388888888888885],[0.12281250000000009,0.27388888888888885],[0.10593750000000005,0.2300000000000001],[0.10593750000000005,0.2300000000000001],[0.09166666666666666,0.18796296296296297],[0.09166666666666666,0.18796296296296297],[0.09281249999999991,0.1633333333333334],[0.09281249999999991,0.1633333333333334],[0.09281249999999991,0.1633333333333334],[0.08458333333333339,0.11037037037037041],[0.08458333333333339,0.11037037037037041],[0.07510416666666657,0.07851851851851847],[0.07510416666666657,0.07851851851851847],[0.058749999999999976,0.051111111111111156],[0.058749999999999976,0.051111111111111156],[-0.005416666666666714,0.05388888888888893],[-0.005416666666666714,0.05388888888888893],[-0.0484375,0.04666666666666675],[-0.0484375,0.04666666666666675],[-0.1063541666666667,0.023148148148148147],[-0.1063541666666667,0.023148148148148147],[-0.1508333333333333,0.0492592592592593],[-0.1508333333333333,0.0492592592592593],[-0.18885416666666663,0.08203703703703695],[-0.18885416666666663,0.08203703703703695],[-0.24177083333333335,0.10629629629629625],[-0.24177083333333335,0.10629629629629625],[-0.2898958333333333,0.11574074074074074],[-0.2898958333333333,0.11574074074074074],[-0.33229166666666665,0.18944444444444436],[-0.33229166666666665,0.18944444444444436],[-0.33229166666666665,0.18944444444444436],[-0.33572916666666663,0.2572222222222222],[-0.33572916666666663,0.2572222222222222],[-0.3373958333333333,0.3131481481481482],[-0.3373958333333333,0.3131481481481482],[-0.3021875,0.3253703703703705],[-0.3021875,0.3253703703703705],[-0.2794791666666666,0.35592592592592603],[-0.2794791666666666,0.35592592592592603],[-0.25333333333333335,0.36444444444444435],[-0.25333333333333335,0.36444444444444435],[-0.22124999999999997,0.3337037037037038],[-0.22124999999999997,0.3337037037037038],[-0.16395833333333332,0.32629629629629636],[-0.16395833333333332,0.32629629629629636],[-0.08229166666666667,0.31814814814814807],[-0.08229166666666667,0.31814814814814807],[-0.005729166666666666,0.33277777777777784],[-0.005729166666666666,0.33277777777777784],[0.07135416666666666,0.31740740740740736],[0.07135416666666666,0.31740740740740736],[0.09645833333333324,0.302962962962963],[0.09645833333333324,0.302962962962963],[0.09520833333333342,0.2653703703703703],[0.09520833333333342,0.2653703703703703],[0.11072916666666661,0.25259259259259254],[0.11072916666666661,0.25259259259259254],[0.11239583333333343,0.24277777777777781],[0.11239583333333343,0.24277777777777781],[0.08135416666666657,0.2625925925925925],[0.022187499999999954,0.2507407407407407],[-0.06322916666666671,0.23592592592592587],[-0.06322916666666671,0.23592592592592587],[-0.16124999999999995,0.23592592592592587],[-0.16124999999999995,0.23592592592592587],[-0.25333333333333335,0.2442592592592592],[-0.25333333333333335,0.2442592592592592],[-0.3389583333333333,0.27814814814814826],[-0.3389583333333333,0.27814814814814826],[-0.3876041666666667,0.2927777777777778],[-0.3876041666666667,0.2927777777777778],[-0.4262500000000001,0.32629629629629636],[-0.4262500000000001,0.32629629629629636],[-0.48020833333333335,0.3475925925925927],[-0.5211458333333333,0.35407407407407415],[-0.5211458333333333,0.35407407407407415],[-0.5195833333333334,0.35537037037037034],[-0.5195833333333334,0.35537037037037034],[-0.4946875,0.3918518518518519],[-0.4946875,0.3918518518518519],[-0.48093749999999996,0.4112962962962963],[-0.48093749999999996,0.4112962962962963],[-0.4671875,0.43074074074074076],[-0.4671875,0.43074074074074076],[-0.4711458333333333,0.4455555555555556],[-0.4711458333333333,0.4455555555555556],[-0.3998958333333333,0.5033333333333333],[-0.3998958333333333,0.5033333333333333],[-0.36614583333333334,0.5422222222222222],[-0.36614583333333334,0.5422222222222222],[-0.31364583333333335,0.5885185185185184],[-0.2391666666666667,0.6255555555555554],[-0.2391666666666667,0.6255555555555554],[-0.17145833333333335,0.6601851851851852],[-0.17145833333333335,0.6601851851851852],[-0.09093749999999995,0.6722222222222223],[-0.09093749999999995,0.6722222222222223],[-0.09093749999999995,0.6722222222222223],[0.011041666666666691,0.6807407407407408],[0.011041666666666691,0.6807407407407408],[0.08635416666666676,0.7157407407407408],[0.08635416666666676,0.7157407407407408],[0.13864583333333325,0.7162962962962962],[0.18427083333333344,0.7155555555555555],[0.18427083333333344,0.7155555555555555],[0.13583333333333342,0.6605555555555557],[0.13583333333333342,0.6605555555555557],[0.09249999999999996,0.5853703703703704],[0.09249999999999996,0.5853703703703704],[0.08010416666666677,0.5405555555555556],[0.08010416666666677,0.5405555555555556],[0.06333333333333328,0.5161111111111112],[0.06333333333333328,0.5161111111111112],[0.02666666666666669,0.3948148148148149],[0.02666666666666669,0.3948148148148149],[-0.017604166666666643,0.33203703703703696],[-0.017604166666666643,0.33203703703703696],[-0.05281250000000005,0.3255555555555555],[-0.05281250000000005,0.3255555555555555],[-0.05770833333333331,0.2627777777777777],[-0.05770833333333331,0.2627777777777777],[-0.05770833333333331,0.2627777777777777],[-0.026041666666666668,0.23740740740740748],[-0.026041666666666668,0.23740740740740748],[-0.026041666666666668,0.23740740740740748],[-0.034895833333333334,0.15777777777777785],[-0.034895833333333334,0.15777777777777785],[-0.029375000000000047,0.09055555555555551],[-0.029375000000000047,0.09055555555555551],[-0.008854166666666666,0.09407407407407399],[-0.008854166666666666,0.09407407407407399],[-0.03114583333333331,0.06296296296296296],[-0.03114583333333331,0.06296296296296296],[-0.05249999999999998,0.021296296296296296],[-0.05249999999999998,0.021296296296296296],[-0.04760416666666671,0.08129629629629626],[-0.04760416666666671,0.08129629629629626],[-0.05656249999999995,0.0985185185185186],[-0.09156249999999998,0.05722222222222218],[-0.09156249999999998,0.05722222222222218],[-0.08937499999999995,0.04000000000000004],[-0.08937499999999995,0.04000000000000004],[-0.10364583333333334,0.016851851851851896],[-0.08302083333333338,0.009259259259259259],[-0.08302083333333338,0.009259259259259259],[-0.0515625,0.006481481481481481],[-0.0515625,0.006481481481481481],[-0.0515625,0.006481481481481481],[-0.02020833333333331,-0.027037037037037078],[-0.02020833333333331,-0.027037037037037078],[0.027083333333333334,-0.05277777777777778],[0.027083333333333334,-0.05277777777777778],[0.04541666666666669,-0.09055555555555551],[0.04541666666666669,-0.09055555555555551],[0.08677083333333328,-0.1381481481481482],[0.08677083333333328,-0.1381481481481482],[0.10708333333333328,-0.1772222222222222],[0.10708333333333328,-0.1772222222222222],[0.1462500000000001,-0.1948148148148148],[0.1462500000000001,-0.1948148148148148],[0.1443749999999999,-0.19166666666666668],[0.1443749999999999,-0.19166666666666668],[0.14093749999999997,-0.2192592592592592],[0.14093749999999997,-0.2192592592592592],[0.1790625000000001,-0.18796296296296297],[0.1790625000000001,-0.18796296296296297],[0.1794791666666666,-0.19277777777777783],[0.1794791666666666,-0.19277777777777783],[0.17322916666666663,-0.18722222222222226],[0.17322916666666663,-0.18722222222222226],[0.15666666666666676,-0.18648148148148147],[0.15666666666666676,-0.18648148148148147],[0.16083333333333344,-0.1603703703703704],[0.16083333333333344,-0.1603703703703704],[0.14541666666666658,-0.13907407407407413],[0.14541666666666658,-0.13907407407407413],[0.14479166666666668,-0.13407407407407404],[0.14479166666666668,-0.13407407407407404],[0.13854166666666667,-0.11222222222222226],[0.13854166666666667,-0.11222222222222226],[0.13624999999999995,-0.11444444444444446],[0.13624999999999995,-0.11444444444444446],[0.1310416666666666,-0.1051851851851852],[0.1310416666666666,-0.1051851851851852],[0.10843749999999991,-0.1366666666666667],[0.10843749999999991,-0.1366666666666667],[0.08375000000000009,-0.1712962962962963],[0.07635416666666663,-0.16944444444444445],[0.07635416666666663,-0.16944444444444445],[0.057187499999999974,-0.07592592592592592],[0.057187499999999974,-0.07592592592592592],[0.02635416666666662,0.054259259259259174],[0.02635416666666662,0.054259259259259174],[-0.016145833333333335,0.10666666666666672],[-0.016145833333333335,0.10666666666666672],[-0.024583333333333356,0.20333333333333325],[-0.024583333333333356,0.20333333333333325],[-0.03250000000000005,0.23740740740740748],[-0.03250000000000005,0.23740740740740748],[-0.03708333333333336,0.2140740740740741],[-0.03708333333333336,0.2140740740740741],[-0.04666666666666662,0.2012962962962964],[-0.04666666666666662,0.2012962962962964],[-0.09416666666666665,0.19796296296296292],[-0.09416666666666665,0.19796296296296292],[-0.11875,0.21907407407407398],[-0.11875,0.21907407407407398],[-0.1515625,0.20425925925925917],[-0.1515625,0.20425925925925917],[-0.14395833333333338,0.11555555555555551],[-0.14395833333333338,0.11555555555555551],[-0.13812500000000003,-0.01444444444444436],[-0.13812500000000003,-0.01444444444444436],[-0.13656250000000003,-0.07999999999999997],[-0.13656250000000003,-0.07999999999999997],[-0.13645833333333332,-0.01444444444444436],[-0.16968749999999996,-0.005185185185185101],[-0.16968749999999996,-0.005185185185185101],[-0.16968749999999996,-0.005185185185185101],[-0.1664583333333333,0.062037037037037036],[-0.1664583333333333,0.062037037037037036],[-0.140625,0.13499999999999995],[-0.140625,0.13499999999999995],[-0.12937500000000005,0.1594444444444445],[-0.12937500000000005,0.1594444444444445],[-0.08343750000000003,0.11851851851851852],[-0.08343750000000003,0.11851851851851852],[-0.03145833333333338,0.10222222222222231],[-0.03145833333333338,0.10222222222222231],[-0.013645833333333357,0.08611111111111111],[-0.013645833333333357,0.08611111111111111],[0.02677083333333338,0.06592592592592597],[0.02677083333333338,0.06592592592592597],[0.06729166666666657,0.07185185185185176],[0.06729166666666657,0.07185185185185176],[0.0859375,-0.04685185185185177],[0.0859375,-0.04685185185185177],[0.109375,-0.14481481481481479],[0.109375,-0.14481481481481479],[0.11510416666666666,-0.22148148148148153],[0.11510416666666666,-0.22148148148148153],[0.11510416666666666,-0.22148148148148153],[0.11510416666666666,-0.22148148148148153],[0.10135416666666662,-0.3072222222222222],[0.12312500000000005,-0.3455555555555556],[0.12312500000000005,-0.3455555555555556],[0.12312500000000005,-0.3455555555555556],[0.11791666666666671,-0.32759259259259255],[0.11791666666666671,-0.32759259259259255],[0.10635416666666657,-0.3055555555555556],[0.10635416666666657,-0.3055555555555556],[0.09385416666666657,-0.3314814814814815],[0.09385416666666657,-0.3314814814814815],[0.06187499999999998,-0.36259259259259263],[0.06104166666666669,-0.3738888888888888],[0.06104166666666669,-0.3738888888888888],[0.05145833333333331,-0.395],[0.042812500000000024,-0.38796296296296295],[0.042812500000000024,-0.38796296296296295],[0.03093750000000005,-0.40907407407407403],[0.03093750000000005,-0.40907407407407403],[0.025937499999999978,-0.4035185185185185],[0.025937499999999978,-0.4035185185185185],[0.00625,-0.2616666666666667],[0.00625,-0.2616666666666667],[-0.03802083333333333,-0.19759259259259257],[-0.03802083333333333,-0.19759259259259257],[-0.08687499999999998,-0.15999999999999995],[-0.13624999999999995,-0.07833333333333335],[-0.13624999999999995,-0.07833333333333335],[-0.18562500000000004,0.003333333333333249],[-0.18562500000000004,0.003333333333333249],[-0.18562500000000004,0.003333333333333249],[-0.24833333333333332,0.07592592592592592],[-0.24833333333333332,0.07592592592592592],[-0.28250000000000003,0.12851851851851848]]","[[0.11770833333333333,0.32166666666666677,0.00030000007153319075],[0.11770833333333333,0.32166666666666677,0.18410000002384663],[0.12979166666666658,0.30185185185185187,0.2195000000000107],[0.12979166666666658,0.30185185185185187,0.2376000000238463],[0.12281250000000009,0.27388888888888885,0.24900000000000944],[0.12281250000000009,0.27388888888888885,0.352400000095372],[0.10593750000000005,0.2300000000000001,0.3866000000238472],[0.10593750000000005,0.2300000000000001,0.4208000000715231],[0.09166666666666666,0.18796296296296297,0.4426000000238446],[0.09166666666666666,0.18796296296296297,0.48790000009536527],[0.09281249999999991,0.1633333333333334,0.5100000000000051],[0.09281249999999991,0.1633333333333334,0.5208000000715316],[0.09281249999999991,0.1633333333333334,0.5267000000476827],[0.08458333333333339,0.11037037037037041,0.5941000000238432],[0.08458333333333339,0.11037037037037041,0.6043000000715324],[0.07510416666666657,0.07851851851851847,0.6136000000238511],[0.07510416666666657,0.07851851851851847,0.6539000000953763],[0.058749999999999976,0.051111111111111156,0.6841000000238466],[0.058749999999999976,0.051111111111111156,0.7076000000238452],[-0.005416666666666714,0.05388888888888893,0.7240000000000038],[-0.005416666666666714,0.05388888888888893,0.7507000000476864],[-0.0484375,0.04666666666666675,0.7632000000476893],[-0.0484375,0.04666666666666675,0.8141000000238421],[-0.1063541666666667,0.023148148148148147,0.8244000000953662],[-0.1063541666666667,0.023148148148148147,0.8644000000953724],[-0.1508333333333333,0.0492592592592593,0.9000000000000057],[-0.1508333333333333,0.0492592592592593,0.9148000000715228],[-0.18885416666666663,0.08203703703703695,0.9573000000715268],[-0.18885416666666663,0.08203703703703695,1.0144999999999982],[-0.24177083333333335,0.10629629629629625,1.0290000000000106],[-0.24177083333333335,0.10629629629629625,1.0421000000238507],[-0.2898958333333333,0.11574074074074074,1.0564000000953655],[-0.2898958333333333,0.11574074074074074,1.07350000000001],[-0.33229166666666665,0.18944444444444436,1.1081000000238532],[-0.33229166666666665,0.18944444444444436,1.1424999999999983],[-0.33229166666666665,0.18944444444444436,1.1721000000238462],[-0.33572916666666663,0.2572222222222222,1.1839999999999975],[-0.33572916666666663,0.2572222222222222,1.2181000000238527],[-0.3373958333333333,0.3131481481481482,1.2494999999999976],[-0.3373958333333333,0.3131481481481482,1.2683000000715339],[-0.3021875,0.3253703703703705,1.2775000000000034],[-0.3021875,0.3253703703703705,1.291200000047695],[-0.2794791666666666,0.35592592592592603,1.3440000000000083],[-0.2794791666666666,0.35592592592592603,1.3657000000476813],[-0.25333333333333335,0.36444444444444435,1.3840000000000003],[-0.25333333333333335,0.36444444444444435,1.4088000000715368],[-0.22124999999999997,0.3337037037037038,1.4258000000715327],[-0.22124999999999997,0.3337037037037038,1.4405000000000001],[-0.16395833333333332,0.32629629629629636,1.4678000000715343],[-0.16395833333333332,0.32629629629629636,1.5454000000953698],[-0.08229166666666667,0.31814814814814807,1.5775000000000006],[-0.08229166666666667,0.31814814814814807,1.6171000000238394],[-0.005729166666666666,0.33277777777777784,1.754200000047689],[-0.005729166666666666,0.33277777777777784,1.7670000000000101],[0.07135416666666666,0.31740740740740736,1.7773000000715342],[0.07135416666666666,0.31740740740740736,1.843900000095374],[0.09645833333333324,0.302962962962963,1.850700000047695],[0.09645833333333324,0.302962962962963,1.8628000000715303],[0.09520833333333342,0.2653703703703703,1.9627000000476897],[0.09520833333333342,0.2653703703703703,1.9745000000000061],[0.11072916666666661,0.25259259259259254,2.0716000000238495],[0.11072916666666661,0.25259259259259254,2.1273000000715285],[0.11239583333333343,0.24277777777777781,2.143900000095371],[0.11239583333333343,0.24277777777777781,2.160800000071532],[0.08135416666666657,0.2625925925925925,2.1772000000476908],[0.022187499999999954,0.2507407407407407,2.2063000000715363],[-0.06322916666666671,0.23592592592592587,2.2284000000953768],[-0.06322916666666671,0.23592592592592587,2.2439000000953655],[-0.16124999999999995,0.23592592592592587,2.269500000000008],[-0.16124999999999995,0.23592592592592587,2.285499999999999],[-0.25333333333333335,0.2442592592592592,2.3445000000000107],[-0.25333333333333335,0.2442592592592592,2.359000000000009],[-0.3389583333333333,0.27814814814814826,2.394800000071527],[-0.3389583333333333,0.27814814814814826,2.4181000000238413],[-0.3876041666666667,0.2927777777777778,2.4396000000238445],[-0.3876041666666667,0.2927777777777778,2.464500000000001],[-0.4262500000000001,0.32629629629629636,2.47280000007153],[-0.4262500000000001,0.32629629629629636,2.4907000000476813],[-0.48020833333333335,0.3475925925925927,2.5063000000715334],[-0.5211458333333333,0.35407407407407415,2.5281000000238407],[-0.5211458333333333,0.35407407407407415,2.5632000000476864],[-0.5195833333333334,0.35537037037037034,2.5729000000953732],[-0.5195833333333334,0.35537037037037034,2.610700000047686],[-0.4946875,0.3918518518518519,2.6314000000953683],[-0.4946875,0.3918518518518519,2.6526000000238525],[-0.48093749999999996,0.4112962962962963,2.6584000000953694],[-0.48093749999999996,0.4112962962962963,2.706200000047687],[-0.4671875,0.43074074074074076,2.7653000000715338],[-0.4671875,0.43074074074074076,2.7779000000953715],[-0.4711458333333333,0.4455555555555556,2.8191000000238517],[-0.4711458333333333,0.4455555555555556,2.833900000095369],[-0.3998958333333333,0.5033333333333333,2.8518000000715347],[-0.3998958333333333,0.5033333333333333,2.8843000000715335],[-0.36614583333333334,0.5422222222222222,2.9637000000476945],[-0.36614583333333334,0.5422222222222222,2.9753000000715275],[-0.31364583333333335,0.5885185185185184,2.9895000000000067],[-0.2391666666666667,0.6255555555555554,3.022900000095376],[-0.2391666666666667,0.6255555555555554,3.041100000023846],[-0.17145833333333335,0.6601851851851852,3.081200000047687],[-0.17145833333333335,0.6601851851851852,3.2098000000715246],[-0.09093749999999995,0.6722222222222223,3.275500000000008],[-0.09093749999999995,0.6722222222222223,3.2891000000238506],[-0.09093749999999995,0.6722222222222223,3.2949000000953674],[0.011041666666666691,0.6807407407407408,3.3741000000238444],[0.011041666666666691,0.6807407407407408,3.4001000000238406],[0.08635416666666676,0.7157407407407408,3.410600000023848],[0.08635416666666676,0.7157407407407408,3.424700000047693],[0.13864583333333325,0.7162962962962962,3.4398000000715285],[0.18427083333333344,0.7155555555555555,3.475900000095365],[0.18427083333333344,0.7155555555555555,3.546700000047693],[0.13583333333333342,0.6605555555555557,3.5562000000476814],[0.13583333333333342,0.6605555555555557,3.6219000000953656],[0.09249999999999996,0.5853703703703704,3.643600000023852],[0.09249999999999996,0.5853703703703704,3.653800000071527],[0.08010416666666677,0.5405555555555556,3.701900000095378],[0.08010416666666677,0.5405555555555556,3.794200000047681],[0.06333333333333328,0.5161111111111112,3.809900000095368],[0.06333333333333328,0.5161111111111112,3.836900000095369],[0.02666666666666669,0.3948148148148149,3.8461000000238528],[0.02666666666666669,0.3948148148148149,3.8575000000000017],[-0.017604166666666643,0.33203703703703696,3.9540000000000077],[-0.017604166666666643,0.33203703703703696,3.9668000000715296],[-0.05281250000000005,0.3255555555555555,3.9862000000476883],[-0.05281250000000005,0.3255555555555555,4.01910000002384],[-0.05770833333333331,0.2627777777777777,4.052300000071526],[-0.05770833333333331,0.2627777777777777,4.09670000004769],[-0.05770833333333331,0.2627777777777777,4.132500000000007],[-0.026041666666666668,0.23740740740740748,4.145200000047694],[-0.026041666666666668,0.23740740740740748,4.1895000000000095],[-0.026041666666666668,0.23740740740740748,4.216100000023843],[-0.034895833333333334,0.15777777777777785,4.240300000071528],[-0.034895833333333334,0.15777777777777785,4.259200000047684],[-0.029375000000000047,0.09055555555555551,4.272800000071527],[-0.029375000000000047,0.09055555555555551,4.289600000023853],[-0.008854166666666666,0.09407407407407399,4.306300000071531],[-0.008854166666666666,0.09407407407407399,4.327500000000001],[-0.03114583333333331,0.06296296296296296,4.36390000009537],[-0.03114583333333331,0.06296296296296296,4.3829000000953755],[-0.05249999999999998,0.021296296296296296,4.410000000000011],[-0.05249999999999998,0.021296296296296296,4.423000000000002],[-0.04760416666666671,0.08129629629629626,4.4395000000000095],[-0.04760416666666671,0.08129629629629626,4.460600000023845],[-0.05656249999999995,0.0985185185185186,4.472900000095365],[-0.09156249999999998,0.05722222222222218,4.531000000000006],[-0.09156249999999998,0.05722222222222218,4.541600000023848],[-0.08937499999999995,0.04000000000000004,4.562300000071531],[-0.08937499999999995,0.04000000000000004,4.575100000023852],[-0.10364583333333334,0.016851851851851896,4.589800000071534],[-0.08302083333333338,0.009259259259259259,4.617600000023842],[-0.08302083333333338,0.009259259259259259,4.661800000071537],[-0.0515625,0.006481481481481481,4.703700000047689],[-0.0515625,0.006481481481481481,4.995700000047691],[-0.0515625,0.006481481481481481,4.997300000071533],[-0.02020833333333331,-0.027037037037037078,5.0276000000238525],[-0.02020833333333331,-0.027037037037037078,5.039700000047688],[0.027083333333333334,-0.05277777777777778,5.101600000023851],[0.027083333333333334,-0.05277777777777778,5.120700000047691],[0.04541666666666669,-0.09055555555555551,5.217400000095367],[0.04541666666666669,-0.09055555555555551,5.232400000095367],[0.08677083333333328,-0.1381481481481482,5.2608000000715265],[0.08677083333333328,-0.1381481481481482,5.279400000095379],[0.10708333333333328,-0.1772222222222222,5.290100000023841],[0.10708333333333328,-0.1772222222222222,5.3404000000953715],[0.1462500000000001,-0.1948148148148148,5.348200000047683],[0.1462500000000001,-0.1948148148148148,5.358100000023853],[0.1443749999999999,-0.19166666666666668,5.37310000002384],[0.1443749999999999,-0.19166666666666668,5.416800000071532],[0.14093749999999997,-0.2192592592592592,5.424700000047693],[0.14093749999999997,-0.2192592592592592,5.4922000000476885],[0.1790625000000001,-0.18796296296296297,5.499499999999998],[0.1790625000000001,-0.18796296296296297,5.509900000095371],[0.1794791666666666,-0.19277777777777783,5.522800000071527],[0.1794791666666666,-0.19277777777777783,5.539600000023853],[0.17322916666666663,-0.18722222222222226,5.556200000047681],[0.17322916666666663,-0.18722222222222226,5.579100000023843],[0.15666666666666676,-0.18648148148148147,5.594000000000008],[0.15666666666666676,-0.18648148148148147,5.608300000071523],[0.16083333333333344,-0.1603703703703704,5.6228000000715355],[0.16083333333333344,-0.1603703703703704,5.640600000023852],[0.14541666666666658,-0.13907407407407413,5.673500000000004],[0.14541666666666658,-0.13907407407407413,5.716100000023843],[0.14479166666666668,-0.13407407407407404,5.742900000095375],[0.14479166666666668,-0.13407407407407404,5.810900000095373],[0.13854166666666667,-0.11222222222222226,5.822800000071524],[0.13854166666666667,-0.11222222222222226,5.865300000071528],[0.13624999999999995,-0.11444444444444446,5.874000000000009],[0.13624999999999995,-0.11444444444444446,5.899300000071534],[0.1310416666666666,-0.1051851851851852,5.970200000047683],[0.1310416666666666,-0.1051851851851852,6.001600000023842],[0.10843749999999991,-0.1366666666666667,6.037700000047693],[0.10843749999999991,-0.1366666666666667,6.07950000000001],[0.08375000000000009,-0.1712962962962963,6.089400000095367],[0.07635416666666663,-0.16944444444444445,6.210000000000008],[0.07635416666666663,-0.16944444444444445,6.251600000023842],[0.057187499999999974,-0.07592592592592592,6.260000000000005],[0.057187499999999974,-0.07592592592592592,6.272800000071527],[0.02635416666666662,0.054259259259259174,6.289500000000004],[0.02635416666666662,0.054259259259259174,6.3247000000476845],[-0.016145833333333335,0.10666666666666672,6.3629999999999995],[-0.016145833333333335,0.10666666666666672,6.5122000000476845],[-0.024583333333333356,0.20333333333333325,6.522700000047692],[-0.024583333333333356,0.20333333333333325,6.5479000000953675],[-0.03250000000000005,0.23740740740740748,6.585000000000008],[-0.03250000000000005,0.23740740740740748,6.645100000023845],[-0.03708333333333336,0.2140740740740741,6.6845],[-0.03708333333333336,0.2140740740740741,6.805500000000009],[-0.04666666666666662,0.2012962962962964,6.853100000023844],[-0.04666666666666662,0.2012962962962964,6.863400000095368],[-0.09416666666666665,0.19796296296296292,6.8728000000715355],[-0.09416666666666665,0.19796296296296292,6.889499999999998],[-0.11875,0.21907407407407398,6.906100000023841],[-0.11875,0.21907407407407398,6.995400000095373],[-0.1515625,0.20425925925925917,7.00710000002384],[-0.1515625,0.20425925925925917,7.0260000000000105],[-0.14395833333333338,0.11555555555555551,7.04020000004769],[-0.14395833333333338,0.11555555555555551,7.057300000071535],[-0.13812500000000003,-0.01444444444444436,7.087100000023852],[-0.13812500000000003,-0.01444444444444436,7.145200000047694],[-0.13656250000000003,-0.07999999999999997,7.1828000000715235],[-0.13656250000000003,-0.07999999999999997,7.208300000071532],[-0.13645833333333332,-0.01444444444444436,7.222700000047695],[-0.16968749999999996,-0.005185185185185101,7.246000000000009],[-0.16968749999999996,-0.005185185185185101,7.303200000047681],[-0.16968749999999996,-0.005185185185185101,7.324200000047682],[-0.1664583333333333,0.062037037037037036,7.33960000002385],[-0.1664583333333333,0.062037037037037036,7.37310000002384],[-0.140625,0.13499999999999995,7.414800000071523],[-0.140625,0.13499999999999995,7.427100000023842],[-0.12937500000000005,0.1594444444444445,7.440400000095366],[-0.12937500000000005,0.1594444444444445,7.468500000000006],[-0.08343750000000003,0.11851851851851852,7.507200000047689],[-0.08343750000000003,0.11851851851851852,7.599300000071537],[-0.03145833333333338,0.10222222222222231,7.669900000095367],[-0.03145833333333338,0.10222222222222231,7.6828000000715235],[-0.013645833333333357,0.08611111111111111,7.6969000000953685],[-0.013645833333333357,0.08611111111111111,7.829000000000008],[0.02677083333333338,0.06592592592592597,7.87290000009537],[0.02677083333333338,0.06592592592592597,7.896200000047685],[0.06729166666666657,0.07185185185185176,7.917300000071535],[0.06729166666666657,0.07185185185185176,7.927500000000009],[0.0859375,-0.04685185185185177,7.99790000009537],[0.0859375,-0.04685185185185177,8.009400000095368],[0.109375,-0.14481481481481479,8.028500000000008],[0.109375,-0.14481481481481479,8.040900000095377],[0.11510416666666666,-0.22148148148148153,8.056600000023849],[0.11510416666666666,-0.22148148148148153,8.081500000000005],[0.11510416666666666,-0.22148148148148153,8.099400000095372],[0.11510416666666666,-0.22148148148148153,8.127900000095366],[0.10135416666666662,-0.3072222222222222,8.139400000095378],[0.12312500000000005,-0.3455555555555556,8.161500000000004],[0.12312500000000005,-0.3455555555555556,8.209200000047687],[0.12312500000000005,-0.3455555555555556,8.232800000071535],[0.11791666666666671,-0.32759259259259255,8.244200000047684],[0.11791666666666671,-0.32759259259259255,8.258400000095378],[0.10635416666666657,-0.3055555555555556,8.323000000000008],[0.10635416666666657,-0.3055555555555556,8.335900000095378],[0.09385416666666657,-0.3314814814814815,8.344700000047695],[0.09385416666666657,-0.3314814814814815,8.356200000047693],[0.06187499999999998,-0.36259259259259263,8.372800000071535],[0.06104166666666669,-0.3738888888888888,8.403500000000008],[0.06104166666666669,-0.3738888888888888,8.464100000023848],[0.05145833333333331,-0.395,8.472700000047695],[0.042812500000000024,-0.38796296296296295,8.497600000023851],[0.042812500000000024,-0.38796296296296295,8.50910000002385],[0.03093750000000005,-0.40907407407407403,8.522800000071527],[0.03093750000000005,-0.40907407407407403,8.639200000047694],[0.025937499999999978,-0.4035185185185185,8.685500000000005],[0.025937499999999978,-0.4035185185185185,8.721000000000004],[0.00625,-0.2616666666666667,8.756],[0.00625,-0.2616666666666667,8.766600000023843],[-0.03802083333333333,-0.19759259259259257,8.774600000023852],[-0.03802083333333333,-0.19759259259259257,8.865400000095377],[-0.08687499999999998,-0.15999999999999995,8.873000000000005],[-0.13624999999999995,-0.07833333333333335,8.896],[-0.13624999999999995,-0.07833333333333335,8.906300000071525],[-0.18562500000000004,0.003333333333333249,8.922800000071533],[-0.18562500000000004,0.003333333333333249,9.00310000002385],[-0.18562500000000004,0.003333333333333249,9.00610000002385],[-0.24833333333333332,0.07592592592592592,9.022700000047692],[-0.24833333333333332,0.07592592592592592,9.072000000000003],[-0.28250000000000003,0.12851851851851848,9.095200000047683]]","[0.00030000007153319075,0.18410000002384663,0.2195000000000107,0.2376000000238463,0.24900000000000944,0.352400000095372,0.3866000000238472,0.4208000000715231,0.4426000000238446,0.48790000009536527,0.5100000000000051,0.5208000000715316,0.5267000000476827,0.5941000000238432,0.6043000000715324,0.6136000000238511,0.6539000000953763,0.6841000000238466,0.7076000000238452,0.7240000000000038,0.7507000000476864,0.7632000000476893,0.8141000000238421,0.8244000000953662,0.8644000000953724,0.9000000000000057,0.9148000000715228,0.9573000000715268,1.0144999999999982,1.0290000000000106,1.0421000000238507,1.0564000000953655,1.07350000000001,1.1081000000238532,1.1424999999999983,1.1721000000238462,1.1839999999999975,1.2181000000238527,1.2494999999999976,1.2683000000715339,1.2775000000000034,1.291200000047695,1.3440000000000083,1.3657000000476813,1.3840000000000003,1.4088000000715368,1.4258000000715327,1.4405000000000001,1.4678000000715343,1.5454000000953698,1.5775000000000006,1.6171000000238394,1.754200000047689,1.7670000000000101,1.7773000000715342,1.843900000095374,1.850700000047695,1.8628000000715303,1.9627000000476897,1.9745000000000061,2.0716000000238495,2.1273000000715285,2.143900000095371,2.160800000071532,2.1772000000476908,2.2063000000715363,2.2284000000953768,2.2439000000953655,2.269500000000008,2.285499999999999,2.3445000000000107,2.359000000000009,2.394800000071527,2.4181000000238413,2.4396000000238445,2.464500000000001,2.47280000007153,2.4907000000476813,2.5063000000715334,2.5281000000238407,2.5632000000476864,2.5729000000953732,2.610700000047686,2.6314000000953683,2.6526000000238525,2.6584000000953694,2.706200000047687,2.7653000000715338,2.7779000000953715,2.8191000000238517,2.833900000095369,2.8518000000715347,2.8843000000715335,2.9637000000476945,2.9753000000715275,2.9895000000000067,3.022900000095376,3.041100000023846,3.081200000047687,3.2098000000715246,3.275500000000008,3.2891000000238506,3.2949000000953674,3.3741000000238444,3.4001000000238406,3.410600000023848,3.424700000047693,3.4398000000715285,3.475900000095365,3.546700000047693,3.5562000000476814,3.6219000000953656,3.643600000023852,3.653800000071527,3.701900000095378,3.794200000047681,3.809900000095368,3.836900000095369,3.8461000000238528,3.8575000000000017,3.9540000000000077,3.9668000000715296,3.9862000000476883,4.01910000002384,4.052300000071526,4.09670000004769,4.132500000000007,4.145200000047694,4.1895000000000095,4.216100000023843,4.240300000071528,4.259200000047684,4.272800000071527,4.289600000023853,4.306300000071531,4.327500000000001,4.36390000009537,4.3829000000953755,4.410000000000011,4.423000000000002,4.4395000000000095,4.460600000023845,4.472900000095365,4.531000000000006,4.541600000023848,4.562300000071531,4.575100000023852,4.589800000071534,4.617600000023842,4.661800000071537,4.703700000047689,4.995700000047691,4.997300000071533,5.0276000000238525,5.039700000047688,5.101600000023851,5.120700000047691,5.217400000095367,5.232400000095367,5.2608000000715265,5.279400000095379,5.290100000023841,5.3404000000953715,5.348200000047683,5.358100000023853,5.37310000002384,5.416800000071532,5.424700000047693,5.4922000000476885,5.499499999999998,5.509900000095371,5.522800000071527,5.539600000023853,5.556200000047681,5.579100000023843,5.594000000000008,5.608300000071523,5.6228000000715355,5.640600000023852,5.673500000000004,5.716100000023843,5.742900000095375,5.810900000095373,5.822800000071524,5.865300000071528,5.874000000000009,5.899300000071534,5.970200000047683,6.001600000023842,6.037700000047693,6.07950000000001,6.089400000095367,6.210000000000008,6.251600000023842,6.260000000000005,6.272800000071527,6.289500000000004,6.3247000000476845,6.3629999999999995,6.5122000000476845,6.522700000047692,6.5479000000953675,6.585000000000008,6.645100000023845,6.6845,6.805500000000009,6.853100000023844,6.863400000095368,6.8728000000715355,6.889499999999998,6.906100000023841,6.995400000095373,7.00710000002384,7.0260000000000105,7.04020000004769,7.057300000071535,7.087100000023852,7.145200000047694,7.1828000000715235,7.208300000071532,7.222700000047695,7.246000000000009,7.303200000047681,7.324200000047682,7.33960000002385,7.37310000002384,7.414800000071523,7.427100000023842,7.440400000095366,7.468500000000006,7.507200000047689,7.599300000071537,7.669900000095367,7.6828000000715235,7.6969000000953685,7.829000000000008,7.87290000009537,7.896200000047685,7.917300000071535,7.927500000000009,7.99790000009537,8.009400000095368,8.028500000000008,8.040900000095377,8.056600000023849,8.081500000000005,8.099400000095372,8.127900000095366,8.139400000095378,8.161500000000004,8.209200000047687,8.232800000071535,8.244200000047684,8.258400000095378,8.323000000000008,8.335900000095378,8.344700000047695,8.356200000047693,8.372800000071535,8.403500000000008,8.464100000023848,8.472700000047695,8.497600000023851,8.50910000002385,8.522800000071527,8.639200000047694,8.685500000000005,8.721000000000004,8.756,8.766600000023843,8.774600000023852,8.865400000095377,8.873000000000005,8.896,8.906300000071525,8.922800000071533,9.00310000002385,9.00610000002385,9.022700000047692,9.072000000000003,9.095200000047683]","[1733105191504,1733105191621,1733105191656,1733105191674,1733105191686,1733105191789,1733105191823,1733105191857,1733105191879,1733105191924,1733105191947,1733105191957,1733105191963,1733105192031,1733105192041,1733105192050,1733105192090,1733105192121,1733105192144,1733105192161,1733105192187,1733105192200,1733105192251,1733105192261,1733105192301,1733105192337,1733105192351,1733105192394,1733105192451,1733105192465,1733105192479,1733105192493,1733105192510,1733105192545,1733105192579,1733105192609,1733105192621,1733105192655,1733105192686,1733105192705,1733105192714,1733105192728,1733105192781,1733105192802,1733105192821,1733105192845,1733105192862,1733105192877,1733105192904,1733105192982,1733105193014,1733105193054,1733105193191,1733105193204,1733105193214,1733105193280,1733105193287,1733105193299,1733105193399,1733105193411,1733105193508,1733105193564,1733105193580,1733105193597,1733105193614,1733105193643,1733105193665,1733105193680,1733105193706,1733105193722,1733105193781,1733105193796,1733105193831,1733105193855,1733105193876,1733105193901,1733105193909,1733105193927,1733105193943,1733105193965,1733105194000,1733105194010,1733105194047,1733105194068,1733105194089,1733105194095,1733105194143,1733105194202,1733105194214,1733105194256,1733105194271,1733105194288,1733105194321,1733105194400,1733105194412,1733105194426,1733105194459,1733105194478,1733105194518,1733105194646,1733105194712,1733105194726,1733105194731,1733105194811,1733105194837,1733105194847,1733105194861,1733105194877,1733105194912,1733105194983,1733105194993,1733105195059,1733105195080,1733105195090,1733105195138,1733105195231,1733105195246,1733105195273,1733105195283,1733105195294,1733105195391,1733105195403,1733105195423,1733105195456,1733105195489,1733105195534,1733105195569,1733105195582,1733105195626,1733105195653,1733105195677,1733105195696,1733105195709,1733105195726,1733105195743,1733105195764,1733105195800,1733105195819,1733105195847,1733105195860,1733105195876,1733105195897,1733105195909,1733105195968,1733105195978,1733105195999,1733105196012,1733105196026,1733105196054,1733105196098,1733105196140,1733105196432,1733105196434,1733105196464,1733105196476,1733105196538,1733105196557,1733105196654,1733105196669,1733105196697,1733105196716,1733105196727,1733105196777,1733105196785,1733105196795,1733105196810,1733105196853,1733105196861,1733105196929,1733105196936,1733105196946,1733105196959,1733105196976,1733105196993,1733105197016,1733105197031,1733105197045,1733105197059,1733105197077,1733105197110,1733105197153,1733105197180,1733105197247,1733105197259,1733105197302,1733105197311,1733105197336,1733105197407,1733105197438,1733105197474,1733105197516,1733105197526,1733105197647,1733105197688,1733105197697,1733105197709,1733105197726,1733105197761,1733105197800,1733105197949,1733105197959,1733105197984,1733105198022,1733105198082,1733105198121,1733105198242,1733105198290,1733105198300,1733105198309,1733105198326,1733105198343,1733105198432,1733105198444,1733105198463,1733105198477,1733105198494,1733105198524,1733105198582,1733105198619,1733105198645,1733105198659,1733105198683,1733105198740,1733105198761,1733105198776,1733105198810,1733105198851,1733105198864,1733105198877,1733105198905,1733105198944,1733105199036,1733105199106,1733105199119,1733105199133,1733105199266,1733105199309,1733105199333,1733105199354,1733105199364,1733105199435,1733105199446,1733105199465,1733105199477,1733105199493,1733105199518,1733105199536,1733105199564,1733105199576,1733105199598,1733105199646,1733105199669,1733105199681,1733105199695,1733105199759,1733105199772,1733105199781,1733105199793,1733105199809,1733105199840,1733105199901,1733105199909,1733105199934,1733105199946,1733105199959,1733105200076,1733105200122,1733105200158,1733105200193,1733105200203,1733105200211,1733105200302,1733105200310,1733105200333,1733105200343,1733105200359,1733105200440,1733105200443,1733105200459,1733105200509,1733105200532]","[[1073,713.7],[1073,713.7],[1084.6,703],[1084.6,703],[1077.9,687.9],[1077.9,687.9],[1061.7,664.2],[1061.7,664.2],[1048,641.5],[1048,641.5],[1049.1,628.2],[1049.1,628.2],[1049.1,628.2],[1041.2,599.6],[1041.2,599.6],[1032.1,582.4],[1032.1,582.4],[1016.4,567.6],[1016.4,567.6],[954.8,569.1],[954.8,569.1],[913.5,565.2],[913.5,565.2],[857.9,552.5],[857.9,552.5],[815.2,566.6],[815.2,566.6],[778.7,584.3],[778.7,584.3],[727.9,597.4],[727.9,597.4],[681.7,602.5],[681.7,602.5],[641,642.3],[641,642.3],[641,642.3],[637.7,678.9],[637.7,678.9],[636.1,709.1],[636.1,709.1],[669.9,715.7],[669.9,715.7],[691.7,732.2],[691.7,732.2],[716.8,736.8],[716.8,736.8],[747.6,720.2],[747.6,720.2],[802.6,716.2],[802.6,716.2],[881,711.8],[881,711.8],[954.5,719.7],[954.5,719.7],[1028.5,711.4],[1028.5,711.4],[1052.6,703.6],[1052.6,703.6],[1051.4,683.3],[1051.4,683.3],[1066.3,676.4],[1066.3,676.4],[1067.9,671.1],[1067.9,671.1],[1038.1,681.8],[981.3,675.4],[899.3,667.4],[899.3,667.4],[805.2,667.4],[805.2,667.4],[716.8,671.9],[716.8,671.9],[634.6,690.2],[634.6,690.2],[587.9,698.1],[587.9,698.1],[550.8,716.2],[550.8,716.2],[499,727.7],[459.7,731.2],[459.7,731.2],[461.2,731.9],[461.2,731.9],[485.1,751.6],[485.1,751.6],[498.3,762.1],[498.3,762.1],[511.5,772.6],[511.5,772.6],[507.7,780.6],[507.7,780.6],[576.1,811.8],[576.1,811.8],[608.5,832.8],[608.5,832.8],[658.9,857.8],[730.4,877.8],[730.4,877.8],[795.4,896.5],[795.4,896.5],[872.7,903],[872.7,903],[872.7,903],[970.6,907.6],[970.6,907.6],[1042.9,926.5],[1042.9,926.5],[1093.1,926.8],[1136.9,926.4],[1136.9,926.4],[1090.4,896.7],[1090.4,896.7],[1048.8,856.1],[1048.8,856.1],[1036.9,831.9],[1036.9,831.9],[1020.8,818.7],[1020.8,818.7],[985.6,753.2],[985.6,753.2],[943.1,719.3],[943.1,719.3],[909.3,715.8],[909.3,715.8],[904.6,681.9],[904.6,681.9],[904.6,681.9],[935,668.2],[935,668.2],[935,668.2],[926.5,625.2],[926.5,625.2],[931.8,588.9],[931.8,588.9],[951.5,590.8],[951.5,590.8],[930.1,574],[930.1,574],[909.6,551.5],[909.6,551.5],[914.3,583.9],[914.3,583.9],[905.7,593.2],[872.1,570.9],[872.1,570.9],[874.2,561.6],[874.2,561.6],[860.5,549.1],[880.3,545],[880.3,545],[910.5,543.5],[910.5,543.5],[910.5,543.5],[940.6,525.4],[940.6,525.4],[986,511.5],[986,511.5],[1003.6,491.1],[1003.6,491.1],[1043.3,465.4],[1043.3,465.4],[1062.8,444.3],[1062.8,444.3],[1100.4,434.8],[1100.4,434.8],[1098.6,436.5],[1098.6,436.5],[1095.3,421.6],[1095.3,421.6],[1131.9,438.5],[1131.9,438.5],[1132.3,435.9],[1132.3,435.9],[1126.3,438.9],[1126.3,438.9],[1110.4,439.3],[1110.4,439.3],[1114.4,453.4],[1114.4,453.4],[1099.6,464.9],[1099.6,464.9],[1099,467.6],[1099,467.6],[1093,479.4],[1093,479.4],[1090.8,478.2],[1090.8,478.2],[1085.8,483.2],[1085.8,483.2],[1064.1,466.2],[1064.1,466.2],[1040.4,447.5],[1033.3,448.5],[1033.3,448.5],[1014.9,499],[1014.9,499],[985.3,569.3],[985.3,569.3],[944.5,597.6],[944.5,597.6],[936.4,649.8],[936.4,649.8],[928.8,668.2],[928.8,668.2],[924.4,655.6],[924.4,655.6],[915.2,648.7],[915.2,648.7],[869.6,646.9],[869.6,646.9],[846,658.3],[846,658.3],[814.5,650.3],[814.5,650.3],[821.8,602.4],[821.8,602.4],[827.4,532.2],[827.4,532.2],[828.9,496.8],[828.9,496.8],[829,532.2],[797.1,537.2],[797.1,537.2],[797.1,537.2],[800.2,573.5],[800.2,573.5],[825,612.9],[825,612.9],[835.8,626.1],[835.8,626.1],[879.9,604],[879.9,604],[929.8,595.2],[929.8,595.2],[946.9,586.5],[946.9,586.5],[985.7,575.6],[985.7,575.6],[1024.6,578.8],[1024.6,578.8],[1042.5,514.7],[1042.5,514.7],[1065,461.8],[1065,461.8],[1070.5,420.4],[1070.5,420.4],[1070.5,420.4],[1070.5,420.4],[1057.3,374.1],[1078.2,353.4],[1078.2,353.4],[1078.2,353.4],[1073.2,363.1],[1073.2,363.1],[1062.1,375],[1062.1,375],[1050.1,361],[1050.1,361],[1019.4,344.2],[1018.6,338.1],[1018.6,338.1],[1009.4,326.7],[1001.1,330.5],[1001.1,330.5],[989.7,319.1],[989.7,319.1],[984.9,322.1],[984.9,322.1],[966,398.7],[966,398.7],[923.5,433.3],[923.5,433.3],[876.6,453.6],[829.2,497.7],[829.2,497.7],[781.8,541.8],[781.8,541.8],[781.8,541.8],[721.6,581],[721.6,581],[688.8,609.4]]","[0,0.5333]","[0.5333,0.5333]","[-0.5333,-0.5333]","[-0.5333,0]","[0,-0.5333]","[0.5333,-0.5333]","[0,0]","[0.5333,0]",0,0,0,0,1,3,Monitor,11,9,9,1
,,,,,,,,,,,,,,,,,,,,06,001,2024-12-02_10h05.27.332,Attention_exp_legacy,2023.1.0,Win32,59.88023952,,,,,,,,,,[0.3958333333333333],[0.5037037037037037],[1],[0],[0],[3.750100000023835],"[""Option2_label""]",Option2_label,2,4.7986,"[[0.06875,0.4722222222222222],[0.06875,0.4722222222222222],[0.06875,0.4722222222222222],[0.06875,0.4722222222222222],[0.06875,0.4722222222222222],[0.06875,0.4722222222222222],[0.06875,0.4722222222222222],[0.06875,0.4722222222222222],[0.06875,0.4722222222222222],[0.06875,0.4722222222222222],[0.06875,0.4722222222222222],[0.06875,0.4722222222222222],[0.06875,0.4722222222222222],[0.06875,0.4722222222222222],[0.06875,0.4722222222222222],[0.06875,0.4722222222222222],[0.06875,0.4722222222222222],[0.06875,0.4722222222222222],[0.06875,0.4722222222222222],[0.06875,0.4722222222222222],[0.06875,0.4722222222222222],[0.06875,0.4722222222222222],[0.06875,0.4722222222222222],[0.06875,0.4722222222222222],[0.06875,0.4722222222222222],[0.06875,0.4722222222222222],[0.06875,0.4722222222222222],[0.06875,0.4722222222222222],[0.06875,0.4722222222222222],[0.06875,0.4722222222222222],[0.06875,0.4722222222222222],[0.06875,0.4722222222222222],[0.06875,0.4722222222222222],[0.06875,0.4722222222222222],[0.06875,0.4722222222222222],[0.06875,0.4722222222222222],[0.06875,0.4722222222222222],[0.06875,0.4722222222222222],[0.06875,0.4722222222222222],[0.06875,0.4722222222222222],[0.06875,0.4722222222222222],[0.06875,0.4722222222222222],[0.06875,0.4722222222222222],[0.06875,0.4722222222222222],[0.06875,0.4722222222222222],[0.06875,0.4722222222222222],[0.06875,0.4722222222222222],[0.06875,0.4722222222222222],[0.06875,0.4722222222222222],[0.06875,0.4722222222222222],[0.06875,0.4722222222222222],[0.06875,0.4722222222222222],[0.06875,0.4722222222222222],[0.06875,0.4722222222222222],[0.06875,0.4722222222222222],[0.06875,0.4722222222222222],[0.06875,0.4722222222222222],[0.06875,0.4722222222222222],[0.06875,0.4722222222222222],[0.06875,0.4722222222222222],[0.06875,0.4722222222222222],[0.06875,0.4722222222222222],[0.06875,0.4722222222222222],[0.06875,0.4722222222222222],[0.06875,0.4722222222222222],[0.06875,0.4722222222222222],[0.06875,0.4722222222222222],[0.06875,0.4722222222222222],[0.06875,0.4722222222222222],[0.06875,0.4722222222222222],[0.06875,0.4722222222222222],[0.06875,0.4722222222222222],[0.06875,0.4722222222222222],[0.06875,0.4722222222222222],[0.06875,0.4722222222222222],[0.06875,0.4722222222222222],[0.06875,0.4722222222222222],[0.06875,0.4722222222222222],[0.06875,0.4722222222222222],[0.06875,0.4722222222222222],[0.06875,0.4722222222222222],[0.06875,0.4722222222222222],[0.06875,0.4722222222222222],[0.06875,0.4722222222222222],[0.06875,0.4722222222222222],[0.06875,0.4722222222222222],[0.06875,0.4722222222222222],[0.06875,0.4722222222222222],[0.06875,0.4722222222222222],[0.06875,0.4722222222222222],[0.06875,0.4722222222222222],[0.06875,0.4722222222222222],[0.06875,0.4722222222222222],[0.06875,0.4722222222222222],[0.06875,0.4722222222222222],[0.08125,0.4722222222222222],[0.08854166666666667,0.4722222222222222],[0.09791666666666667,0.4759259259259259],[0.14375,0.4888888888888889],[0.16770833333333332,0.49074074074074076],[0.190625,0.4962962962962963],[0.20208333333333334,0.4981481481481482],[0.22083333333333333,0.5018518518518519],[0.303125,0.5018518518518519],[0.31145833333333334,0.5018518518518519],[0.32083333333333336,0.5018518518518519],[0.3458333333333333,0.5018518518518519],[0.37604166666666666,0.5018518518518519],[0.390625,0.5018518518518519],[0.39375,0.5018518518518519],[0.3958333333333333,0.5037037037037037],[0.3958333333333333,0.5037037037037037],[0.3958333333333333,0.5037037037037037],[0.3958333333333333,0.5037037037037037],[0.3958333333333333,0.5037037037037037],[0.3958333333333333,0.5037037037037037],[0.3958333333333333,0.5037037037037037],[0.3958333333333333,0.5037037037037037],[0.3958333333333333,0.5037037037037037],[0.3958333333333333,0.5037037037037037],[0.3958333333333333,0.5037037037037037],[0.3958333333333333,0.5037037037037037],[0.3958333333333333,0.5037037037037037],[0.3958333333333333,0.5037037037037037],[0.3958333333333333,0.5037037037037037],[0.3958333333333333,0.5037037037037037],[0.3958333333333333,0.5037037037037037],[0.3958333333333333,0.5037037037037037],[0.3958333333333333,0.5037037037037037],[0.3958333333333333,0.5037037037037037],[0.3958333333333333,0.5037037037037037],[0.3958333333333333,0.5037037037037037],[0.3958333333333333,0.5037037037037037],[0.3958333333333333,0.5037037037037037],[0.3958333333333333,0.5037037037037037],[0.3958333333333333,0.5037037037037037],[0.3958333333333333,0.5037037037037037],[0.3958333333333333,0.5037037037037037],[0.3958333333333333,0.5037037037037037],[0.3958333333333333,0.5037037037037037],[0.3958333333333333,0.5037037037037037],[0.3958333333333333,0.5037037037037037],[0.3958333333333333,0.5037037037037037],[0.3958333333333333,0.5037037037037037],[0.3958333333333333,0.5037037037037037],[0.3958333333333333,0.5037037037037037],[0.3958333333333333,0.5037037037037037],[0.3958333333333333,0.5037037037037037],[0.3958333333333333,0.5037037037037037],[0.3958333333333333,0.5037037037037037],[0.3958333333333333,0.5037037037037037],[0.3958333333333333,0.5037037037037037],[0.3958333333333333,0.5037037037037037],[0.3958333333333333,0.5037037037037037],[0.3958333333333333,0.5037037037037037],[0.3958333333333333,0.5037037037037037]]","[[0.019270833333333334,-0.06555555555555552],[0.019270833333333334,-0.06555555555555552],[0.0037500000000000237,-0.12851851851851848],[0.0037500000000000237,-0.12851851851851848],[-0.012395833333333309,-0.13240740740740742],[-0.012395833333333309,-0.13240740740740742],[-0.028750000000000022,-0.1485185185185185],[-0.028750000000000022,-0.1485185185185185],[-0.008645833333333287,-0.1668518518518519],[-0.008645833333333287,-0.1668518518518519],[0.007500000000000047,-0.19370370370370374],[0.007500000000000047,-0.19370370370370374],[0.013645833333333357,-0.2559259259259259],[0.013645833333333357,-0.2559259259259259],[0.02322916666666662,-0.3109259259259259],[0.03104166666666662,-0.38],[0.03104166666666662,-0.38],[0.007187499999999976,-0.43037037037037035],[-0.041562499999999974,-0.46796296296296297],[-0.041562499999999974,-0.46796296296296297],[-0.08343750000000003,-0.5075925925925926],[-0.08343750000000003,-0.5075925925925926],[-0.11177083333333329,-0.5448148148148148],[-0.11177083333333329,-0.5448148148148148],[-0.11302083333333333,-0.5444444444444444],[-0.11302083333333333,-0.5444444444444444],[-0.11302083333333333,-0.5444444444444444],[-0.1172916666666667,-0.5266666666666666],[-0.1172916666666667,-0.5266666666666666],[-0.10114583333333335,-0.495],[-0.10114583333333335,-0.495],[-0.06583333333333338,-0.4381481481481482],[-0.06583333333333338,-0.4381481481481482],[-0.03885416666666662,-0.38685185185185184],[-0.03885416666666662,-0.38685185185185184],[-0.015416666666666618,-0.32018518518518513],[-0.015416666666666618,-0.32018518518518513],[0.06791666666666671,-0.26185185185185184],[0.06791666666666671,-0.26185185185185184],[0.1556250000000001,-0.21666666666666667],[0.1556250000000001,-0.21666666666666667],[0.2321875000000001,-0.1911111111111111],[0.3037499999999999,-0.17629629629629628],[0.3037499999999999,-0.17629629629629628],[0.34958333333333325,-0.1757407407407407],[0.34958333333333325,-0.1757407407407407],[0.3837500000000001,-0.167037037037037],[0.3837500000000001,-0.167037037037037],[0.41281249999999997,-0.18629629629629635],[0.43239583333333326,-0.19814814814814816],[0.43239583333333326,-0.19814814814814816],[0.4586458333333333,-0.18407407407407403],[0.4586458333333333,-0.18407407407407403],[0.44895833333333335,-0.2235185185185185],[0.44895833333333335,-0.2235185185185185],[0.38291666666666657,-0.15203703703703708],[0.3245833333333332,-0.09944444444444442],[0.3245833333333332,-0.09944444444444442],[0.2390625,-0.047037037037036995],[0.2390625,-0.047037037037036995],[0.2390625,-0.047037037037036995],[0.1640625,-0.028888888888888933],[0.1640625,-0.028888888888888933],[0.09177083333333323,-0.0020370370370370794],[0.09177083333333323,-0.0020370370370370794],[0.010312499999999976,0.011111111111111112],[0.010312499999999976,0.011111111111111112],[-0.07583333333333328,0.060370370370370414],[-0.07583333333333328,0.060370370370370414],[-0.07583333333333328,0.060370370370370414],[-0.1564583333333334,0.08814814814814818],[-0.1564583333333334,0.08814814814814818],[-0.24604166666666671,0.09796296296296292],[-0.24604166666666671,0.09796296296296292],[-0.32354166666666667,0.15629629629629627],[-0.32354166666666667,0.15629629629629627],[-0.335,0.125],[-0.335,0.125],[-0.3398958333333333,0.11222222222222226],[-0.3398958333333333,0.11222222222222226],[-0.2908333333333334,0.10703703703703696],[-0.2908333333333334,0.10703703703703696],[-0.22760416666666666,0.17611111111111116],[-0.22760416666666666,0.17611111111111116],[-0.19562499999999997,0.21814814814814806],[-0.19562499999999997,0.21814814814814806],[-0.14395833333333338,0.2718518518518518],[-0.14395833333333338,0.2718518518518518],[-0.1015625,0.302962962962963],[-0.1015625,0.302962962962963],[-0.044270833333333336,0.3381481481481482],[-0.044270833333333336,0.3381481481481482],[0.025416666666666643,0.39814814814814814],[0.025416666666666643,0.39814814814814814],[0.1234375,0.4411111111111112],[0.1234375,0.4411111111111112],[0.1508333333333333,0.3574074074074074],[0.1508333333333333,0.3574074074074074],[0.17708333333333334,0.29074074074074074],[0.17708333333333334,0.29074074074074074],[0.18864583333333323,0.21962962962962967],[0.18864583333333323,0.21962962962962967],[0.1834374999999999,0.08499999999999996],[0.1834374999999999,0.08499999999999996],[0.1710416666666667,-0.03796296296296296],[0.1710416666666667,-0.03796296296296296],[0.15791666666666657,-0.13370370370370369],[0.15791666666666657,-0.13370370370370369],[0.16114583333333338,-0.23444444444444448],[0.16114583333333338,-0.23444444444444448],[0.11864583333333342,-0.3624074074074074],[0.11864583333333342,-0.3624074074074074],[0.035000000000000024,-0.5262962962962963],[0.035000000000000024,-0.5262962962962963],[-0.04906250000000002,-0.6685185185185185],[-0.04906250000000002,-0.6685185185185185],[-0.0936458333333333,-0.6312962962962962],[-0.0936458333333333,-0.6312962962962962],[-0.11302083333333333,-0.6481481481481481],[-0.11302083333333333,-0.6481481481481481],[-0.13395833333333335,-0.6707407407407407],[-0.13395833333333335,-0.6707407407407407],[-0.14895833333333333,-0.674074074074074],[-0.14895833333333333,-0.674074074074074],[-0.14895833333333333,-0.674074074074074],[-0.14895833333333333,-0.674074074074074],[-0.13125,-0.6903703703703704],[-0.13125,-0.6903703703703704],[-0.14093749999999997,-0.6992592592592592],[-0.14093749999999997,-0.6992592592592592],[-0.15364583333333334,-0.6714814814814816],[-0.13083333333333336,-0.6003703703703703],[-0.13083333333333336,-0.6003703703703703],[-0.06760416666666665,-0.5516666666666666],[-0.06760416666666665,-0.5516666666666666],[-0.004999999999999952,-0.47185185185185186],[-0.004999999999999952,-0.47185185185185186],[0.051874999999999956,-0.46222222222222226],[0.051874999999999956,-0.46222222222222226],[0.06625000000000002,-0.4414814814814814],[0.06625000000000002,-0.4414814814814814],[0.07104166666666671,-0.4668518518518519],[0.07104166666666671,-0.4668518518518519],[0.103125,-0.4318518518518518],[0.103125,-0.4318518518518518],[0.15552083333333327,-0.35055555555555556],[0.15552083333333327,-0.35055555555555556],[0.209375,-0.3557407407407408],[0.209375,-0.3557407407407408],[0.2585416666666667,-0.36370370370370364],[0.2585416666666667,-0.36370370370370364],[0.2991666666666667,-0.3814814814814815],[0.2991666666666667,-0.3814814814814815],[0.3219791666666666,-0.37407407407407406],[0.3219791666666666,-0.37407407407407406],[0.3480208333333332,-0.40925925925925927]]","[[0.019270833333333334,-0.06555555555555552,0.00010000002384913387],[0.019270833333333334,-0.06555555555555552,0.012899999976156096],[0.0037500000000000237,-0.12851851851851848,0.02600000000001046],[0.0037500000000000237,-0.12851851851851848,0.07470000004768451],[-0.012395833333333309,-0.13240740740740742,0.08920000004768269],[-0.012395833333333309,-0.13240740740740742,0.10520000004768804],[-0.028750000000000022,-0.1485185185185185,0.12199999999999989],[-0.028750000000000022,-0.1485185185185185,0.16020000004768065],[-0.008645833333333287,-0.1668518518518519,0.17199999999999704],[-0.008645833333333287,-0.1668518518518519,0.18850000000000477],[0.007500000000000047,-0.19370370370370374,0.2837000000476877],[0.007500000000000047,-0.19370370370370374,0.3722999999523182],[0.013645833333333357,-0.2559259259259259,0.3912000000476894],[0.013645833333333357,-0.2559259259259259,0.40739999997616394],[0.02322916666666662,-0.3109259259259259,0.4218999999761621],[0.03104166666666662,-0.38,0.448799999952314],[0.03104166666666662,-0.38,0.5128999999761561],[0.007187499999999976,-0.43037037037037035,0.5218999999761564],[-0.041562499999999974,-0.46796296296296297,0.5437999999523129],[-0.041562499999999974,-0.46796296296296297,0.5552999999523252],[-0.08343750000000003,-0.5075925925925926,0.5721000000238519],[-0.08343750000000003,-0.5075925925925926,0.7041000000238427],[-0.11177083333333329,-0.5448148148148148,0.7322999999523176],[-0.11177083333333329,-0.5448148148148148,0.7442999999523181],[-0.11302083333333333,-0.5444444444444444,0.7552999999523138],[-0.11302083333333333,-0.5444444444444444,0.7720000000000056],[-0.11302083333333333,-0.5444444444444444,0.8091000000238466],[-0.1172916666666667,-0.5266666666666666,0.8415000000000106],[-0.1172916666666667,-0.5266666666666666,0.8756000000238515],[-0.10114583333333335,-0.495,0.8892999999523141],[-0.10114583333333335,-0.495,0.9099999999999966],[-0.06583333333333338,-0.4381481481481482,0.9242000000476907],[-0.06583333333333338,-0.4381481481481482,0.9433999999761653],[-0.03885416666666662,-0.38685185185185184,0.9978999999761555],[-0.03885416666666662,-0.38685185185185184,1.031000000000006],[-0.015416666666666618,-0.32018518518518513,1.0386000000238482],[-0.015416666666666618,-0.32018518518518513,1.0628999999761675],[0.06791666666666671,-0.26185185185185184,1.1012999999523174],[0.06791666666666671,-0.26185185185185184,1.1257999999523207],[0.1556250000000001,-0.21666666666666667,1.1396000000238473],[0.1556250000000001,-0.21666666666666667,1.1782999999523156],[0.2321875000000001,-0.1911111111111111,1.1885000000000048],[0.3037499999999999,-0.17629629629629628,1.2152999999523217],[0.3037499999999999,-0.17629629629629628,1.2306000000238413],[0.34958333333333325,-0.1757407407407407,1.2422000000476885],[0.34958333333333325,-0.1757407407407407,1.284100000023841],[0.3837500000000001,-0.167037037037037,1.2944999999999993],[0.3837500000000001,-0.167037037037037,1.3052000000476909],[0.41281249999999997,-0.18629629629629635,1.327899999976168],[0.43239583333333326,-0.19814814814814816,1.3628999999761646],[0.43239583333333326,-0.19814814814814816,1.4298999999761577],[0.4586458333333333,-0.18407407407407403,1.4660000000000082],[0.4586458333333333,-0.18407407407407403,1.532700000047683],[0.44895833333333335,-0.2235185185185185,1.54229999995232],[0.44895833333333335,-0.2235185185185185,1.5715000000000003],[0.38291666666666657,-0.15203703703703708,1.5795000000000101],[0.3245833333333332,-0.09944444444444442,1.605200000047688],[0.3245833333333332,-0.09944444444444442,1.6313999999761677],[0.2390625,-0.047037037037036995,1.641899999976161],[0.2390625,-0.047037037037036995,1.7532999999523184],[0.2390625,-0.047037037037036995,1.76010000002384],[0.1640625,-0.028888888888888933,1.8358999999761636],[0.1640625,-0.028888888888888933,1.8828999999761606],[0.09177083333333323,-0.0020370370370370794,1.8931000000238498],[0.09177083333333323,-0.0020370370370370794,1.90920000004769],[0.010312499999999976,0.011111111111111112,1.9337999999523134],[0.010312499999999976,0.011111111111111112,1.9493999999761655],[-0.07583333333333328,0.060370370370370414,1.960200000047692],[-0.07583333333333328,0.060370370370370414,1.9745000000000061],[-0.07583333333333328,0.060370370370370414,2.004000000000005],[-0.1564583333333334,0.08814814814814818,2.0160000000000053],[-0.1564583333333334,0.08814814814814818,2.04529999995232],[-0.24604166666666671,0.09796296296296292,2.055299999952325],[-0.24604166666666671,0.09796296296296292,2.074100000023847],[-0.32354166666666667,0.15629629629629627,2.1042000000476833],[-0.32354166666666667,0.15629629629629627,2.140399999976168],[-0.335,0.125,2.1551000000238503],[-0.335,0.125,2.2055000000000007],[-0.3398958333333333,0.11222222222222226,2.269500000000008],[-0.3398958333333333,0.11222222222222226,2.291100000023846],[-0.2908333333333334,0.10703703703703696,2.332299999952326],[-0.2908333333333334,0.10703703703703696,2.343500000000006],[-0.22760416666666666,0.17611111111111116,2.355200000047688],[-0.22760416666666666,0.17611111111111116,2.4406000000238492],[-0.19562499999999997,0.21814814814814806,2.4625000000000057],[-0.19562499999999997,0.21814814814814806,2.5052000000476937],[-0.14395833333333338,0.2718518518518518,2.5143999999761633],[-0.14395833333333338,0.2718518518518518,2.621799999952316],[-0.1015625,0.302962962962963,2.6592999999523244],[-0.1015625,0.302962962962963,2.67329999995232],[-0.044270833333333336,0.3381481481481482,2.688700000047689],[-0.044270833333333336,0.3381481481481482,2.7105000000000103],[0.025416666666666643,0.39814814814814814,2.7265000000000015],[0.025416666666666643,0.39814814814814814,2.8163999999761558],[0.1234375,0.4411111111111112,2.8268999999761633],[0.1234375,0.4411111111111112,2.8910000000000053],[0.1508333333333333,0.3574074074074074,2.9080000000000013],[0.1508333333333333,0.3574074074074074,2.920399999976155],[0.17708333333333334,0.29074074074074074,2.9718999999761593],[0.17708333333333334,0.29074074074074074,2.982399999976167],[0.18864583333333323,0.21962962962962967,3],[0.18864583333333323,0.21962962962962967,3.011100000023845],[0.1834374999999999,0.08499999999999996,3.0379999999999967],[0.1834374999999999,0.08499999999999996,3.110700000047686],[0.1710416666666667,-0.03796296296296296,3.122299999952318],[0.1710416666666667,-0.03796296296296296,3.13900000000001],[0.15791666666666657,-0.13370370370370369,3.2139999999999986],[0.15791666666666657,-0.13370370370370369,3.2492999999523136],[0.16114583333333338,-0.23444444444444448,3.285600000023848],[0.16114583333333338,-0.23444444444444448,3.3403999999761567],[0.11864583333333342,-0.3624074074074074,3.3468999999761593],[0.11864583333333342,-0.3624074074074074,3.3731000000238396],[0.035000000000000024,-0.5262962962962963,3.389299999952314],[0.035000000000000024,-0.5262962962962963,3.53120000004769],[-0.04906250000000002,-0.6685185185185185,3.5635000000000048],[-0.04906250000000002,-0.6685185185185185,3.5768999999761633],[-0.0936458333333333,-0.6312962962962962,3.5906000000238407],[-0.0936458333333333,-0.6312962962962962,3.6052999999523223],[-0.11302083333333333,-0.6481481481481481,3.6322999999523233],[-0.11302083333333333,-0.6481481481481481,3.64610000002385],[-0.13395833333333335,-0.6707407407407407,3.655200000047685],[-0.13395833333333335,-0.6707407407407407,3.683000000000007],[-0.14895833333333333,-0.674074074074074,3.7191000000238432],[-0.14895833333333333,-0.674074074074074,3.7367000000476907],[-0.14895833333333333,-0.674074074074074,3.753],[-0.14895833333333333,-0.674074074074074,3.7572999999523233],[-0.13125,-0.6903703703703704,3.8538999999761643],[-0.13125,-0.6903703703703704,3.8643999999761576],[-0.14093749999999997,-0.6992592592592592,3.875],[-0.14093749999999997,-0.6992592592592592,3.8885000000000076],[-0.15364583333333334,-0.6714814814814816,3.9053999999761686],[-0.13083333333333336,-0.6003703703703703,3.9467999999523187],[-0.13083333333333336,-0.6003703703703703,4.0388999999761666],[-0.06760416666666665,-0.5516666666666666,4.055299999952325],[-0.06760416666666665,-0.5516666666666666,4.120500000000007],[-0.004999999999999952,-0.47185185185185186,4.135799999952326],[-0.004999999999999952,-0.47185185185185186,4.157299999952315],[0.051874999999999956,-0.46222222222222226,4.253799999952321],[0.051874999999999956,-0.46222222222222226,4.283600000023839],[0.06625000000000002,-0.4414814814814814,4.3258999999761585],[0.06625000000000002,-0.4414814814814814,4.337899999976159],[0.07104166666666671,-0.4668518518518519,4.355200000047688],[0.07104166666666671,-0.4668518518518519,4.372600000023851],[0.103125,-0.4318518518518518,4.406500000000008],[0.103125,-0.4318518518518518,4.443700000047684],[0.15552083333333327,-0.35055555555555556,4.47679999995232],[0.15552083333333327,-0.35055555555555556,4.487200000047693],[0.209375,-0.3557407407407408,4.511799999952316],[0.209375,-0.3557407407407408,4.5217999999523215],[0.2585416666666667,-0.36370370370370364,4.533399999976169],[0.2585416666666667,-0.36370370370370364,4.580299999952317],[0.2991666666666667,-0.3814814814814815,4.62610000002384],[0.2991666666666667,-0.3814814814814815,4.66839999997616],[0.3219791666666666,-0.37407407407407406,4.699899999976168],[0.3219791666666666,-0.37407407407407406,4.7107999999523145],[0.3480208333333332,-0.40925925925925927,4.798600000023839]]","[0.00010000002384913387,0.012899999976156096,0.02600000000001046,0.07470000004768451,0.08920000004768269,0.10520000004768804,0.12199999999999989,0.16020000004768065,0.17199999999999704,0.18850000000000477,0.2837000000476877,0.3722999999523182,0.3912000000476894,0.40739999997616394,0.4218999999761621,0.448799999952314,0.5128999999761561,0.5218999999761564,0.5437999999523129,0.5552999999523252,0.5721000000238519,0.7041000000238427,0.7322999999523176,0.7442999999523181,0.7552999999523138,0.7720000000000056,0.8091000000238466,0.8415000000000106,0.8756000000238515,0.8892999999523141,0.9099999999999966,0.9242000000476907,0.9433999999761653,0.9978999999761555,1.031000000000006,1.0386000000238482,1.0628999999761675,1.1012999999523174,1.1257999999523207,1.1396000000238473,1.1782999999523156,1.1885000000000048,1.2152999999523217,1.2306000000238413,1.2422000000476885,1.284100000023841,1.2944999999999993,1.3052000000476909,1.327899999976168,1.3628999999761646,1.4298999999761577,1.4660000000000082,1.532700000047683,1.54229999995232,1.5715000000000003,1.5795000000000101,1.605200000047688,1.6313999999761677,1.641899999976161,1.7532999999523184,1.76010000002384,1.8358999999761636,1.8828999999761606,1.8931000000238498,1.90920000004769,1.9337999999523134,1.9493999999761655,1.960200000047692,1.9745000000000061,2.004000000000005,2.0160000000000053,2.04529999995232,2.055299999952325,2.074100000023847,2.1042000000476833,2.140399999976168,2.1551000000238503,2.2055000000000007,2.269500000000008,2.291100000023846,2.332299999952326,2.343500000000006,2.355200000047688,2.4406000000238492,2.4625000000000057,2.5052000000476937,2.5143999999761633,2.621799999952316,2.6592999999523244,2.67329999995232,2.688700000047689,2.7105000000000103,2.7265000000000015,2.8163999999761558,2.8268999999761633,2.8910000000000053,2.9080000000000013,2.920399999976155,2.9718999999761593,2.982399999976167,3,3.011100000023845,3.0379999999999967,3.110700000047686,3.122299999952318,3.13900000000001,3.2139999999999986,3.2492999999523136,3.285600000023848,3.3403999999761567,3.3468999999761593,3.3731000000238396,3.389299999952314,3.53120000004769,3.5635000000000048,3.5768999999761633,3.5906000000238407,3.6052999999523223,3.6322999999523233,3.64610000002385,3.655200000047685,3.683000000000007,3.7191000000238432,3.7367000000476907,3.753,3.7572999999523233,3.8538999999761643,3.8643999999761576,3.875,3.8885000000000076,3.9053999999761686,3.9467999999523187,4.0388999999761666,4.055299999952325,4.120500000000007,4.135799999952326,4.157299999952315,4.253799999952321,4.283600000023839,4.3258999999761585,4.337899999976159,4.355200000047688,4.372600000023851,4.406500000000008,4.443700000047684,4.47679999995232,4.487200000047693,4.511799999952316,4.5217999999523215,4.533399999976169,4.580299999952317,4.62610000002384,4.66839999997616,4.699899999976168,4.7107999999523145,4.798600000023839]","[1733105201574,1733105201584,1733105201597,1733105201645,1733105201660,1733105201676,1733105201693,1733105201731,1733105201743,1733105201759,1733105201854,1733105201943,1733105201962,1733105201978,1733105201993,1733105202020,1733105202084,1733105202093,1733105202115,1733105202126,1733105202143,1733105202275,1733105202303,1733105202315,1733105202326,1733105202343,1733105202380,1733105202412,1733105202446,1733105202460,1733105202481,1733105202495,1733105202514,1733105202569,1733105202602,1733105202609,1733105202634,1733105202672,1733105202697,1733105202710,1733105202749,1733105202759,1733105202786,1733105202801,1733105202813,1733105202855,1733105202865,1733105202876,1733105202899,1733105202934,1733105203001,1733105203037,1733105203103,1733105203113,1733105203142,1733105203150,1733105203176,1733105203202,1733105203213,1733105203324,1733105203331,1733105203407,1733105203454,1733105203464,1733105203480,1733105203505,1733105203520,1733105203531,1733105203545,1733105203575,1733105203587,1733105203616,1733105203626,1733105203645,1733105203675,1733105203711,1733105203726,1733105203776,1733105203840,1733105203862,1733105203903,1733105203914,1733105203926,1733105204011,1733105204033,1733105204076,1733105204085,1733105204193,1733105204230,1733105204244,1733105204259,1733105204281,1733105204297,1733105204387,1733105204398,1733105204462,1733105204479,1733105204491,1733105204543,1733105204553,1733105204571,1733105204582,1733105204609,1733105204681,1733105204693,1733105204710,1733105204785,1733105204820,1733105204856,1733105204911,1733105204918,1733105204944,1733105204960,1733105205102,1733105205134,1733105205148,1733105205161,1733105205176,1733105205203,1733105205217,1733105205226,1733105205254,1733105205290,1733105205307,1733105205324,1733105205328,1733105205425,1733105205435,1733105205446,1733105205459,1733105205476,1733105205518,1733105205610,1733105205626,1733105205691,1733105205707,1733105205728,1733105205825,1733105205854,1733105205897,1733105205909,1733105205926,1733105205943,1733105205977,1733105206014,1733105206048,1733105206058,1733105206083,1733105206093,1733105206104,1733105206151,1733105206197,1733105206239,1733105206271,1733105206282,1733105206369]","[[978.5,504.6],[978.5,504.6],[963.6,470.6],[963.6,470.6],[948.1,468.5],[948.1,468.5],[932.4,459.8],[932.4,459.8],[951.7,449.9],[951.7,449.9],[967.2,435.4],[967.2,435.4],[973.1,401.8],[973.1,401.8],[982.3,372.1],[989.8,334.8],[989.8,334.8],[966.9,307.6],[920.1,287.3],[920.1,287.3],[879.9,265.9],[879.9,265.9],[852.7,245.8],[852.7,245.8],[851.5,246],[851.5,246],[851.5,246],[847.4,255.6],[847.4,255.6],[862.9,272.7],[862.9,272.7],[896.8,303.4],[896.8,303.4],[922.7,331.1],[922.7,331.1],[945.2,367.1],[945.2,367.1],[1025.2,398.6],[1025.2,398.6],[1109.4,423],[1109.4,423],[1182.9,436.8],[1251.6,444.8],[1251.6,444.8],[1295.6,445.1],[1295.6,445.1],[1328.4,449.8],[1328.4,449.8],[1356.3,439.4],[1375.1,433],[1375.1,433],[1400.3,440.6],[1400.3,440.6],[1391,419.3],[1391,419.3],[1327.6,457.9],[1271.6,486.3],[1271.6,486.3],[1189.5,514.6],[1189.5,514.6],[1189.5,514.6],[1117.5,524.4],[1117.5,524.4],[1048.1,538.9],[1048.1,538.9],[969.9,546],[969.9,546],[887.2,572.6],[887.2,572.6],[887.2,572.6],[809.8,587.6],[809.8,587.6],[723.8,592.9],[723.8,592.9],[649.4,624.4],[649.4,624.4],[638.4,607.5],[638.4,607.5],[633.7,600.6],[633.7,600.6],[680.8,597.8],[680.8,597.8],[741.5,635.1],[741.5,635.1],[772.2,657.8],[772.2,657.8],[821.8,686.8],[821.8,686.8],[862.5,703.6],[862.5,703.6],[917.5,722.6],[917.5,722.6],[984.4,755],[984.4,755],[1078.5,778.2],[1078.5,778.2],[1104.8,733],[1104.8,733],[1130,697],[1130,697],[1141.1,658.6],[1141.1,658.6],[1136.1,585.9],[1136.1,585.9],[1124.2,519.5],[1124.2,519.5],[1111.6,467.8],[1111.6,467.8],[1114.7,413.4],[1114.7,413.4],[1073.9,344.3],[1073.9,344.3],[993.6,255.8],[993.6,255.8],[912.9,179],[912.9,179],[870.1,199.1],[870.1,199.1],[851.5,190],[851.5,190],[831.4,177.8],[831.4,177.8],[817,176],[817,176],[817,176],[817,176],[834,167.2],[834,167.2],[824.7,162.4],[824.7,162.4],[812.5,177.4],[834.4,215.8],[834.4,215.8],[895.1,242.1],[895.1,242.1],[955.2,285.2],[955.2,285.2],[1009.8,290.4],[1009.8,290.4],[1023.6,301.6],[1023.6,301.6],[1028.2,287.9],[1028.2,287.9],[1059,306.8],[1059,306.8],[1109.3,350.7],[1109.3,350.7],[1161,347.9],[1161,347.9],[1208.2,343.6],[1208.2,343.6],[1247.2,334],[1247.2,334],[1269.1,338],[1269.1,338],[1294.1,319]]","[0,0.5333]","[0.5333,0.5333]","[-0.5333,0]","[-0.5333,-0.5333]","[0,0]","[0.5333,0]","[0,-0.5333]","[0.5333,-0.5333]",0,1,1,1,1,3,Monitor,5,5,13,7
