inst1_resp.keys,inst1_resp.rt,calibrationMouse.x,calibrationMouse.y,calibrationMouse.leftButton,calibrationMouse.midButton,calibrationMouse.rightButton,calibrationClick.x,calibrationClick.y,calibrationClick.leftButton,calibrationClick.midButton,calibrationClick.rightButton,calibrationClick.clicked_name,trialsc.thisRepN,trialsc.thisTrialN,trialsc.thisN,trialsc.thisIndex,trialsc.ran,calibration_x,calibration_y,participant,session,date,expName,psychopyVersion,OS,frameRate,ScreenRes_pixels,Camera_pixels,mouse_2.x,mouse_2.y,mouse_2.leftButton,mouse_2.midButton,mouse_2.rightButton,mouse_2.time,mouse_2.clicked_name,mouse.x,mouse.y,mouse.leftButton,mouse.midButton,mouse.rightButton,mouse.time,mouse.clicked_name,Choice,Trial,TrialDuration,MOUSE_GAZE,ET_GAZE,ET_GAZE_x_T,time,unixTime,ET_GAZE_NF,Loc_Option1_label,Loc_Option2_label,Loc_Cost_label,Loc_Qual_label,Loc_Option1_cost,Loc_Option2_cost,Loc_Option1_quality,Loc_Option2_quality,trials.thisRepN,trials.thisTrialN,trials.thisN,trials.thisIndex,trials.ran,Block,Device,cost1,qual1,cost2,qual2
space,1.9202,0.217708333,-0.405555556,1,0,0,0.670833333,0.67037037,1,0,0,calibration_square,0,0,0,19,1,0.67,0.67,10,001,2024-12-02_14h27.41.608,Attention_exp_legacy,2023.1.0,Win32,59.88023952,,,,,,,,,,,,,,,,,,,,,,,,,,,,,,,,,,,,,,,,,,,,
,,,,,,,-0.311458333,0.67037037,1,0,0,,0,1,1,8,1,-0.33,0.67,10,001,2024-12-02_14h27.41.608,Attention_exp_legacy,2023.1.0,Win32,59.88023952,,,,,,,,,,,,,,,,,,,,,,,,,,,,,,,,,,,,,,,,,,,,
,,,,,,,0.007291667,-0.011111111,1,0,0,,0,2,2,11,1,0,0,10,001,2024-12-02_14h27.41.608,Attention_exp_legacy,2023.1.0,Win32,59.88023952,,,,,,,,,,,,,,,,,,,,,,,,,,,,,,,,,,,,,,,,,,,,
,,,,,,,-0.670833333,0.322222222,1,0,0,calibration_square,0,3,3,3,1,-0.67,0.33,10,001,2024-12-02_14h27.41.608,Attention_exp_legacy,2023.1.0,Win32,59.88023952,,,,,,,,,,,,,,,,,,,,,,,,,,,,,,,,,,,,,,,,,,,,
,,,,,,,0.325,0.685185185,1,0,0,,0,4,4,18,1,0.33,0.67,10,001,2024-12-02_14h27.41.608,Attention_exp_legacy,2023.1.0,Win32,59.88023952,,,,,,,,,,,,,,,,,,,,,,,,,,,,,,,,,,,,,,,,,,,,
,,,,,,,-0.347916667,-0.311111111,1,0,0,,0,5,5,5,1,-0.33,-0.33,10,001,2024-12-02_14h27.41.608,Attention_exp_legacy,2023.1.0,Win32,59.88023952,,,,,,,,,,,,,,,,,,,,,,,,,,,,,,,,,,,,,,,,,,,,
,,,,,,,-0.019791667,-0.331481481,1,0,0,,0,6,6,10,1,0,-0.33,10,001,2024-12-02_14h27.41.608,Attention_exp_legacy,2023.1.0,Win32,59.88023952,,,,,,,,,,,,,,,,,,,,,,,,,,,,,,,,,,,,,,,,,,,,
,,,,,,,-0.679166667,-0.675925926,1,0,0,calibration_square,0,7,7,0,1,-0.67,-0.67,10,001,2024-12-02_14h27.41.608,Attention_exp_legacy,2023.1.0,Win32,59.88023952,,,,,,,,,,,,,,,,,,,,,,,,,,,,,,,,,,,,,,,,,,,,
,,,,,,,-0.325,0.331481481,1,0,0,calibration_square,0,8,8,7,1,-0.33,0.33,10,001,2024-12-02_14h27.41.608,Attention_exp_legacy,2023.1.0,Win32,59.88023952,,,,,,,,,,,,,,,,,,,,,,,,,,,,,,,,,,,,,,,,,,,,
,,,,,,,0.329166667,-0.314814815,1,0,0,,0,9,9,15,1,0.33,-0.33,10,001,2024-12-02_14h27.41.608,Attention_exp_legacy,2023.1.0,Win32,59.88023952,,,,,,,,,,,,,,,,,,,,,,,,,,,,,,,,,,,,,,,,,,,,
,,,,,,,0.327083333,-0.666666667,1,0,0,calibration_square,0,10,10,14,1,0.33,-0.67,10,001,2024-12-02_14h27.41.608,Attention_exp_legacy,2023.1.0,Win32,59.88023952,,,,,,,,,,,,,,,,,,,,,,,,,,,,,,,,,,,,,,,,,,,,
,,,,,,,-0.317708333,-0.690740741,1,0,0,,0,11,11,4,1,-0.33,-0.67,10,001,2024-12-02_14h27.41.608,Attention_exp_legacy,2023.1.0,Win32,59.88023952,,,,,,,,,,,,,,,,,,,,,,,,,,,,,,,,,,,,,,,,,,,,
,,,,,,,0,0.675925926,1,0,0,calibration_square,0,12,12,13,1,0,0.67,10,001,2024-12-02_14h27.41.608,Attention_exp_legacy,2023.1.0,Win32,59.88023952,,,,,,,,,,,,,,,,,,,,,,,,,,,,,,,,,,,,,,,,,,,,
,,,,,,,0.329166667,-0.014814815,1,0,0,,0,13,13,16,1,0.33,0,10,001,2024-12-02_14h27.41.608,Attention_exp_legacy,2023.1.0,Win32,59.88023952,,,,,,,,,,,,,,,,,,,,,,,,,,,,,,,,,,,,,,,,,,,,
,,,,,,,0.323958333,0.340740741,1,0,0,,0,14,14,17,1,0.33,0.33,10,001,2024-12-02_14h27.41.608,Attention_exp_legacy,2023.1.0,Win32,59.88023952,,,,,,,,,,,,,,,,,,,,,,,,,,,,,,,,,,,,,,,,,,,,
,,,,,,,-0.661458333,-0.007407407,1,0,0,calibration_square,0,15,15,2,1,-0.67,0,10,001,2024-12-02_14h27.41.608,Attention_exp_legacy,2023.1.0,Win32,59.88023952,,,,,,,,,,,,,,,,,,,,,,,,,,,,,,,,,,,,,,,,,,,,
,,,,,,,-0.682291667,-0.325925926,1,0,0,,0,16,16,1,1,-0.67,-0.33,10,001,2024-12-02_14h27.41.608,Attention_exp_legacy,2023.1.0,Win32,59.88023952,,,,,,,,,,,,,,,,,,,,,,,,,,,,,,,,,,,,,,,,,,,,
,,,,,,,0.652083333,-0.659259259,1,0,0,,0,17,17,20,1,0.67,-0.67,10,001,2024-12-02_14h27.41.608,Attention_exp_legacy,2023.1.0,Win32,59.88023952,,,,,,,,,,,,,,,,,,,,,,,,,,,,,,,,,,,,,,,,,,,,
,,,,,,,-0.335416667,0.009259259,1,0,0,calibration_square,0,18,18,6,1,-0.33,0,10,001,2024-12-02_14h27.41.608,Attention_exp_legacy,2023.1.0,Win32,59.88023952,,,,,,,,,,,,,,,,,,,,,,,,,,,,,,,,,,,,,,,,,,,,
,,,,,,,0.002083333,0.32962963,1,0,0,calibration_square,0,19,19,12,1,0,0.33,10,001,2024-12-02_14h27.41.608,Attention_exp_legacy,2023.1.0,Win32,59.88023952,,,,,,,,,,,,,,,,,,,,,,,,,,,,,,,,,,,,,,,,,,,,
,,,,,,,-0.005208333,-0.638888889,1,0,0,,0,20,20,9,1,0,-0.67,10,001,2024-12-02_14h27.41.608,Attention_exp_legacy,2023.1.0,Win32,59.88023952,,,,,,,,,,,,,,,,,,,,,,,,,,,,,,,,,,,,,,,,,,,,
,,,,,,,,,,,,,,,,,,,,10,001,2024-12-02_14h27.41.608,Attention_exp_legacy,2023.1.0,Win32,59.88023952,"[1920,1080]","[640,480]",[0.014583333333333334],[-0.5],[1],[0],[0],[1.6128999999985112],"[""StartButton""]",[0.5625],[0.5],[1],[0],[0],[3.570400000000376],"[""Option2_label""]",Option2_label,1,4.5951,"[[-0.016666666666666666,-0.5648148148148148],[-0.016666666666666666,-0.5648148148148148],[-0.016666666666666666,-0.5648148148148148],[-0.016666666666666666,-0.5648148148148148],[-0.016666666666666666,-0.5648148148148148],[-0.016666666666666666,-0.5648148148148148],[-0.016666666666666666,-0.5648148148148148],[-0.016666666666666666,-0.5648148148148148],[-0.016666666666666666,-0.5648148148148148],[-0.016666666666666666,-0.5648148148148148],[-0.016666666666666666,-0.5648148148148148],[-0.016666666666666666,-0.5648148148148148],[-0.016666666666666666,-0.5648148148148148],[-0.016666666666666666,-0.5648148148148148],[-0.016666666666666666,-0.5648148148148148],[-0.016666666666666666,-0.5648148148148148],[-0.016666666666666666,-0.5648148148148148],[-0.016666666666666666,-0.5648148148148148],[-0.016666666666666666,-0.5648148148148148],[-0.016666666666666666,-0.5648148148148148],[-0.016666666666666666,-0.5648148148148148],[-0.016666666666666666,-0.5648148148148148],[-0.016666666666666666,-0.5648148148148148],[-0.016666666666666666,-0.5648148148148148],[-0.016666666666666666,-0.5648148148148148],[-0.016666666666666666,-0.5648148148148148],[-0.016666666666666666,-0.5648148148148148],[-0.016666666666666666,-0.5648148148148148],[-0.016666666666666666,-0.5648148148148148],[-0.016666666666666666,-0.5648148148148148],[-0.016666666666666666,-0.5648148148148148],[-0.016666666666666666,-0.5648148148148148],[-0.016666666666666666,-0.5648148148148148],[-0.016666666666666666,-0.5648148148148148],[-0.016666666666666666,-0.5648148148148148],[-0.016666666666666666,-0.5648148148148148],[-0.016666666666666666,-0.5648148148148148],[-0.016666666666666666,-0.5648148148148148],[-0.016666666666666666,-0.5648148148148148],[-0.016666666666666666,-0.5648148148148148],[-0.016666666666666666,-0.5648148148148148],[-0.016666666666666666,-0.5648148148148148],[-0.016666666666666666,-0.5648148148148148],[-0.016666666666666666,-0.5648148148148148],[-0.016666666666666666,-0.5648148148148148],[-0.016666666666666666,-0.5648148148148148],[-0.016666666666666666,-0.5648148148148148],[-0.016666666666666666,-0.5648148148148148],[-0.016666666666666666,-0.5648148148148148],[-0.016666666666666666,-0.5648148148148148],[-0.016666666666666666,-0.5648148148148148],[-0.016666666666666666,-0.5648148148148148],[-0.015625,-0.562962962962963],[0.053125,-0.4666666666666667],[0.14895833333333333,-0.3111111111111111],[0.24479166666666666,-0.1574074074074074],[0.340625,0.06111111111111111],[0.3802083333333333,0.2111111111111111],[0.3875,0.27037037037037037],[0.390625,0.34629629629629627],[0.390625,0.3648148148148148],[0.3927083333333333,0.3925925925925926],[0.39375,0.412962962962963],[0.396875,0.4222222222222222],[0.39791666666666664,0.42777777777777776],[0.39895833333333336,0.42962962962962964],[0.4,0.43148148148148147],[0.4,0.43148148148148147],[0.4,0.43148148148148147],[0.4010416666666667,0.43148148148148147],[0.403125,0.43148148148148147],[0.40729166666666666,0.4351851851851852],[0.4166666666666667,0.43703703703703706],[0.428125,0.4388888888888889],[0.43854166666666666,0.4388888888888889],[0.446875,0.4388888888888889],[0.453125,0.4388888888888889],[0.459375,0.4388888888888889],[0.4635416666666667,0.4388888888888889],[0.4666666666666667,0.4388888888888889],[0.46875,0.4388888888888889],[0.46979166666666666,0.4388888888888889],[0.46979166666666666,0.4388888888888889],[0.46979166666666666,0.4388888888888889],[0.46979166666666666,0.4388888888888889],[0.46979166666666666,0.4388888888888889],[0.46979166666666666,0.4388888888888889],[0.46979166666666666,0.4388888888888889],[0.46979166666666666,0.4388888888888889],[0.46979166666666666,0.4388888888888889],[0.46979166666666666,0.4388888888888889],[0.46979166666666666,0.4388888888888889],[0.46979166666666666,0.4388888888888889],[0.46979166666666666,0.4388888888888889],[0.46979166666666666,0.4388888888888889],[0.46979166666666666,0.4388888888888889],[0.46979166666666666,0.4388888888888889],[0.46979166666666666,0.4388888888888889],[0.46979166666666666,0.4388888888888889],[0.46979166666666666,0.4388888888888889],[0.46979166666666666,0.4388888888888889],[0.46979166666666666,0.4388888888888889],[0.46979166666666666,0.4388888888888889],[0.46979166666666666,0.4388888888888889],[0.46979166666666666,0.4388888888888889],[0.46979166666666666,0.4388888888888889],[0.46979166666666666,0.4388888888888889],[0.46979166666666666,0.4388888888888889],[0.46979166666666666,0.4388888888888889],[0.46979166666666666,0.4388888888888889],[0.46979166666666666,0.4388888888888889],[0.46979166666666666,0.4388888888888889],[0.46979166666666666,0.4388888888888889],[0.46979166666666666,0.4388888888888889],[0.46979166666666666,0.4388888888888889],[0.46979166666666666,0.4388888888888889],[0.46979166666666666,0.4388888888888889],[0.46979166666666666,0.4388888888888889],[0.46979166666666666,0.4388888888888889],[0.46979166666666666,0.4388888888888889],[0.46979166666666666,0.4388888888888889],[0.46979166666666666,0.4388888888888889],[0.46979166666666666,0.4388888888888889],[0.46979166666666666,0.4388888888888889],[0.46979166666666666,0.4388888888888889],[0.46979166666666666,0.4388888888888889],[0.46979166666666666,0.4388888888888889],[0.46979166666666666,0.4388888888888889],[0.46979166666666666,0.4388888888888889],[0.46979166666666666,0.4388888888888889],[0.46979166666666666,0.4388888888888889],[0.46979166666666666,0.4388888888888889],[0.46979166666666666,0.4388888888888889],[0.46979166666666666,0.4388888888888889],[0.46979166666666666,0.4388888888888889],[0.46979166666666666,0.4388888888888889],[0.46979166666666666,0.4388888888888889],[0.46979166666666666,0.4388888888888889],[0.46979166666666666,0.4388888888888889],[0.46979166666666666,0.4388888888888889],[0.46979166666666666,0.4388888888888889],[0.46979166666666666,0.4388888888888889],[0.46979166666666666,0.4388888888888889],[0.46979166666666666,0.4388888888888889],[0.46979166666666666,0.4388888888888889],[0.46979166666666666,0.4388888888888889],[0.46979166666666666,0.4388888888888889],[0.46979166666666666,0.4388888888888889],[0.46979166666666666,0.4388888888888889],[0.46979166666666666,0.4388888888888889],[0.46979166666666666,0.4388888888888889],[0.46979166666666666,0.4388888888888889],[0.46979166666666666,0.4388888888888889],[0.46979166666666666,0.4388888888888889],[0.46979166666666666,0.4388888888888889],[0.46979166666666666,0.4388888888888889],[0.46979166666666666,0.4388888888888889],[0.46979166666666666,0.4388888888888889],[0.46979166666666666,0.4388888888888889],[0.46979166666666666,0.4388888888888889],[0.46979166666666666,0.4388888888888889],[0.46979166666666666,0.4388888888888889],[0.4708333333333333,0.4388888888888889],[0.4708333333333333,0.4388888888888889],[0.4708333333333333,0.4388888888888889],[0.4708333333333333,0.43703703703703706],[0.4708333333333333,0.4351851851851852],[0.4708333333333333,0.4351851851851852],[0.4708333333333333,0.4351851851851852],[0.46979166666666666,0.43333333333333335],[0.46979166666666666,0.43333333333333335],[0.46979166666666666,0.43333333333333335],[0.46979166666666666,0.43333333333333335],[0.46979166666666666,0.43148148148148147],[0.46875,0.43148148148148147],[0.46875,0.43148148148148147],[0.46875,0.43148148148148147],[0.46875,0.43148148148148147],[0.46875,0.43148148148148147],[0.46875,0.43148148148148147],[0.46875,0.43148148148148147],[0.46875,0.43148148148148147],[0.46875,0.43148148148148147],[0.46875,0.43148148148148147],[0.46875,0.43148148148148147],[0.46875,0.43148148148148147],[0.46875,0.43148148148148147],[0.46875,0.43148148148148147],[0.46875,0.42962962962962964],[0.46875,0.42962962962962964],[0.46875,0.42962962962962964],[0.46875,0.42962962962962964],[0.46875,0.42962962962962964],[0.46770833333333334,0.42962962962962964],[0.4666666666666667,0.42777777777777776],[0.4666666666666667,0.42777777777777776],[0.4666666666666667,0.42777777777777776],[0.4666666666666667,0.42777777777777776],[0.46458333333333335,0.42777777777777776],[0.46458333333333335,0.42777777777777776],[0.46458333333333335,0.42777777777777776],[0.4635416666666667,0.42777777777777776],[0.46145833333333336,0.42592592592592593],[0.46041666666666664,0.42592592592592593],[0.46041666666666664,0.42592592592592593],[0.46041666666666664,0.42592592592592593],[0.46770833333333334,0.43148148148148147],[0.48854166666666665,0.4462962962962963],[0.5083333333333333,0.45925925925925926],[0.5322916666666667,0.4759259259259259],[0.5458333333333333,0.48518518518518516],[0.5552083333333333,0.49444444444444446],[0.5614583333333333,0.4981481481481482],[0.5625,0.5],[0.5625,0.5],[0.5625,0.5],[0.5625,0.5],[0.5625,0.5],[0.5625,0.5],[0.5625,0.5],[0.5625,0.5],[0.5625,0.5],[0.5635416666666667,0.4981481481481482],[0.565625,0.4666666666666667],[0.571875,0.43148148148148147],[0.5770833333333333,0.3962962962962963],[0.5802083333333333,0.36666666666666664],[0.5802083333333333,0.3388888888888889],[0.5791666666666667,0.31296296296296294],[0.5739583333333333,0.29444444444444445],[0.5708333333333333,0.2814814814814815],[0.5697916666666667,0.2777777777777778],[0.5697916666666667,0.2722222222222222],[0.5666666666666667,0.26666666666666666],[0.5666666666666667,0.26481481481481484],[0.5666666666666667,0.26296296296296295],[0.5666666666666667,0.2611111111111111],[0.565625,0.25925925925925924],[0.565625,0.25925925925925924],[0.565625,0.25925925925925924],[0.565625,0.25925925925925924],[0.565625,0.25925925925925924],[0.565625,0.25925925925925924],[0.565625,0.25925925925925924],[0.565625,0.25925925925925924],[0.565625,0.25925925925925924],[0.565625,0.25925925925925924],[0.565625,0.25925925925925924],[0.565625,0.25925925925925924],[0.565625,0.25925925925925924],[0.565625,0.25925925925925924],[0.565625,0.25925925925925924],[0.565625,0.25925925925925924],[0.565625,0.25925925925925924],[0.565625,0.25925925925925924],[0.565625,0.25925925925925924],[0.565625,0.25925925925925924],[0.565625,0.25925925925925924],[0.565625,0.25925925925925924],[0.565625,0.25925925925925924],[0.565625,0.25925925925925924],[0.565625,0.25925925925925924],[0.565625,0.25925925925925924],[0.565625,0.25925925925925924],[0.565625,0.25925925925925924],[0.565625,0.25925925925925924],[0.565625,0.25925925925925924],[0.565625,0.25925925925925924],[0.565625,0.25925925925925924],[0.565625,0.25925925925925924],[0.565625,0.25925925925925924],[0.565625,0.25925925925925924],[0.565625,0.25925925925925924],[0.565625,0.25925925925925924],[0.565625,0.25925925925925924],[0.565625,0.25925925925925924]]","[[-0.27625000000000005,0.02111111111111107],[-0.27625000000000005,0.02111111111111107],[-0.27625000000000005,0.02111111111111107],[-0.29708333333333337,0.02907407407407416],[-0.3017708333333334,0.009814814814814731],[-0.29177083333333337,-0.01796296296296305],[-0.28500000000000003,-0.0035185185185184764],[-0.28708333333333336,0.004814814814814857],[-0.3095833333333334,0.06333333333333342],[-0.28364583333333326,0.05351851851851848],[-0.31062500000000004,0.06703703703703712],[-0.3298958333333334,0.020555555555555598],[-0.35281250000000003,0.007777777777777862],[-0.3692708333333333,0.013518518518518435],[-0.3845833333333334,0.03462962962962971],[-0.40343749999999995,0.05740740740740741],[-0.41906249999999995,0.03796296296296296],[-0.4275,0.05537037037037033],[-0.4155208333333333,0.022592592592592678],[-0.440625,0.04981481481481477],[-0.42999999999999994,0.051111111111111156],[-0.42999999999999994,0.051111111111111156],[-0.4013541666666666,0.0911111111111112],[-0.3841666666666666,0.14333333333333328],[-0.375,0.16870370370370374],[-0.36291666666666667,0.20685185185185193],[-0.34729166666666667,0.2433333333333333],[-0.3345833333333334,0.3198148148148149],[-0.32000000000000006,0.3405555555555555],[-0.3111458333333334,0.33796296296296297],[-0.2601041666666667,0.3696296296296297],[-0.20906250000000004,0.4012962962962964],[-0.1898958333333333,0.43740740740740747],[-0.1421875,0.4398148148148148],[-0.09947916666666666,0.4540740740740742],[-0.07697916666666664,0.4674074074074074],[-0.05447916666666662,0.4807407407407408],[-0.022916666666666665,0.47740740740740734],[-0.000416666666666643,0.49296296296296305],[0.019687499999999976,0.5103703703703704],[0.00635416666666669,0.5033333333333333],[0.003854166666666714,0.493888888888889],[0.026979166666666644,0.4420370370370371],[0.016354166666666715,0.4372222222222223],[0.02364583333333338,0.4246296296296295],[0.017708333333333333,0.415925925925926],[0.03708333333333336,0.3846296296296297],[0.033645833333333285,0.3435185185185185],[0.027395833333333286,0.31444444444444436],[0.009791666666666643,0.2727777777777777],[0.011249999999999953,0.2657407407407407],[-0.016562499999999977,0.22148148148148153],[-0.05291666666666662,0.20981481481481473],[-0.04833333333333331,0.23796296296296296],[-0.08406250000000005,0.24055555555555552],[-0.10656249999999995,0.23925925925925934],[-0.11572916666666669,0.20259259259259255],[-0.10822916666666664,0.15240740740740732],[-0.1234375,0.09907407407407408],[-0.06458333333333334,0.06722222222222214],[-0.024791666666666618,0.0007407407407406986],[0.07135416666666666,-0.05499999999999998],[0.17385416666666675,-0.10166666666666663],[0.21437499999999995,-0.19759259259259257],[0.28229166666666666,-0.272037037037037],[0.34833333333333344,-0.3520370370370371],[0.3785416666666668,-0.3718518518518519],[0.47604166666666664,-0.3688888888888889],[0.6220833333333334,-0.37092592592592594],[0.7173958333333333,-0.47685185185185186],[0.7513541666666667,-0.4770370370370371],[0.7525000000000001,-0.4537037037037037],[0.7346874999999999,-0.44648148148148153],[0.7504166666666667,-0.44722222222222224],[0.7661458333333333,-0.4479629629629629],[0.7661458333333333,-0.4479629629629629],[0.7740624999999999,-0.46574074074074073],[0.7740624999999999,-0.46574074074074073],[0.8150000000000001,-0.45870370370370367],[0.7599999999999999,-0.48148148148148145],[0.7599999999999999,-0.48148148148148145],[0.6479166666666667,-0.5001851851851852],[0.6479166666666667,-0.5001851851851852],[0.5728125000000001,-0.3881481481481482],[0.5728125000000001,-0.3881481481481482],[0.5192708333333333,-0.3972222222222222],[0.5192708333333333,-0.3972222222222222],[0.5171875,-0.37777777777777777],[0.5079166666666666,-0.35111111111111115],[0.4809375000000001,-0.29796296296296293],[0.4527083333333332,-0.27314814814814814],[0.4490624999999999,-0.19666666666666666],[0.3984375,-0.14592592592592596],[0.3789583333333333,-0.09944444444444442],[0.3935416666666666,-0.06092592592592588],[0.35875000000000007,-0.04000000000000004],[0.3637500000000001,-0.003703703703703704],[0.309375,-0.004259259259259175],[0.28114583333333343,0.004074074074074159],[0.3033333333333334,0.02296296296296292],[0.30802083333333335,0.05222222222222231],[0.2978125000000001,0.052407407407407326],[0.30791666666666656,0.06333333333333342],[0.3155208333333334,0.08555555555555563],[0.31968750000000007,0.14129629629629623],[0.3141666666666666,0.1985185185185186],[0.35177083333333337,0.25018518518518523],[0.3551041666666668,0.30092592592592593],[0.3955208333333334,0.36629629629629623],[0.3896874999999999,0.3633333333333334],[0.40260416666666665,0.37833333333333324],[0.39874999999999994,0.37037037037037035],[0.37645833333333345,0.3562962962962963],[0.31708333333333344,0.34370370370370373],[0.26114583333333335,0.2975925925925927],[0.25145833333333345,0.2322222222222222],[0.20125000000000004,0.18796296296296297],[0.20125000000000004,0.18796296296296297],[0.19364583333333343,0.14148148148148143],[0.125,0.10629629629629625],[0.0740624999999999,0.09425925925925922],[0.0740624999999999,0.09425925925925922],[0.03354166666666671,0.08148148148148149],[0.024791666666666618,0.06388888888888888],[0.0265625,0.038703703703703664],[0.06541666666666662,0.012037037037037037],[0.05562499999999997,-0.020185185185185143],[0.017812500000000023,-0.03129629629629625],[-0.020937500000000022,-0.07962962962962963],[-0.06520833333333335,-0.1111111111111111],[-0.08666666666666671,-0.1588888888888889],[-0.10812499999999996,-0.20666666666666672],[-0.13864583333333336,-0.2322222222222222],[-0.14572916666666663,-0.2361111111111111],[-0.15406249999999996,-0.2383333333333333],[-0.16281249999999994,-0.2212962962962963],[-0.12291666666666666,-0.19870370370370372],[-0.05552083333333328,-0.19740740740740745],[0.010208333333333286,-0.17444444444444443],[0.0515625,-0.147037037037037],[0.0515625,-0.147037037037037],[0.10947916666666657,-0.14611111111111108],[0.10947916666666657,-0.14611111111111108],[0.20427083333333323,-0.1427777777777778],[0.2977083333333333,-0.1609259259259259],[0.29020833333333323,-0.19388888888888886],[0.29375,-0.2161111111111111],[0.30614583333333345,-0.24981481481481477],[0.3017708333333334,-0.2518518518518518],[0.2698958333333332,-0.23259259259259263],[0.1931250000000001,-0.23277777777777775],[0.16364583333333324,-0.21074074074074076],[0.08260416666666662,-0.18833333333333332],[-0.035312499999999976,-0.16833333333333328],[-0.14093749999999997,-0.13648148148148145],[-0.18406250000000005,-0.08370370370370368],[-0.23822916666666671,-0.041666666666666664],[-0.31791666666666674,-0.01907407407407399],[-0.38083333333333336,-0.02814814814814823],[-0.41906249999999995,-0.012777777777777735],[-0.4123958333333333,0.022037037037036994],[-0.44072916666666667,0.019259259259259216],[-0.43291666666666667,0.03296296296296288],[-0.3533333333333334,0.0020370370370370794],[-0.2860416666666667,-0.040740740740740744],[-0.2235416666666667,-0.0801851851851852],[-0.1798958333333334,-0.07759259259259255],[-0.0703125,-0.11481481481481481],[-0.0703125,-0.11481481481481481],[0.02000000000000005,-0.1307407407407408],[0.09854166666666657,-0.19074074074074074],[0.1616666666666667,-0.24370370370370376],[0.23687500000000009,-0.28574074074074074],[0.28854166666666664,-0.3175925925925926],[0.28854166666666664,-0.3175925925925926],[0.28666666666666674,-0.2683333333333333],[0.29177083333333326,-0.22481481481481477],[0.29177083333333326,-0.22481481481481477],[0.3016666666666666,-0.18462962962962962],[0.3189583333333334,-0.18222222222222217],[0.2873958333333334,-0.12833333333333335],[0.2808333333333332,-0.11148148148148146],[0.2613541666666668,-0.075],[0.2805208333333333,-0.02629629629629638],[0.29968750000000005,0.02240740740740745],[0.34104166666666674,0.055000000000000084],[0.3641666666666666,0.051111111111111156],[0.3923958333333334,0.0477777777777777],[0.42062499999999997,0.044444444444444446],[0.4335416666666667,0.034074074074074034],[0.4591666666666666,0.021296296296296296],[0.47635416666666663,0.017407407407407365],[0.4935416666666666,0.013518518518518435],[0.47760416666666666,0.021851851851851768],[0.4736458333333334,-0.03351851851851856],[0.4736458333333334,-0.03351851851851856],[0.4644791666666668,-0.08129629629629626],[0.4644791666666668,-0.08129629629629626],[0.4866666666666667,-0.09037037037037039],[0.4866666666666667,-0.09037037037037039],[0.44802083333333326,-0.1624074074074074],[0.4243750000000001,-0.22833333333333336],[0.4243750000000001,-0.22833333333333336],[0.4673958333333334,-0.26537037037037037],[0.4673958333333334,-0.26537037037037037],[0.5143749999999999,-0.30999999999999994],[0.5143749999999999,-0.30999999999999994],[0.5451041666666666,-0.3675925925925926],[0.5786458333333333,-0.4142592592592592],[0.6186458333333335,-0.5057407407407408],[0.6186458333333335,-0.5057407407407408],[0.6384375000000001,-0.5344444444444445],[0.6814583333333334,-0.5457407407407407],[0.6665625000000001,-0.6062962962962962],[0.7,-0.5857407407407408],[0.7486458333333333,-0.5757407407407407],[0.7489583333333333,-0.6355555555555555],[0.7664583333333332,-0.6383333333333333],[0.7690625,-0.6683333333333333],[0.7521874999999999,-0.645],[0.7395833333333334,-0.6651851851851852],[0.7679166666666667,-0.6703703703703704],[0.7480208333333332,-0.6614814814814814],[0.7478125000000001,-0.6481481481481481],[0.7510416666666667,-0.705925925925926],[0.7240624999999999,-0.7592592592592593],[0.7323958333333332,-0.7424074074074074],[0.6786458333333333,-0.727962962962963],[0.6525000000000001,-0.6557407407407407],[0.6489583333333333,-0.7290740740740741],[0.6342708333333335,-0.6853703703703704],[0.5901041666666667,-0.674074074074074],[0.5734375,-0.6890740740740741],[0.5498958333333335,-0.6953703703703704],[0.5224999999999999,-0.6414814814814814],[0.4982291666666666,-0.585],[0.47156250000000005,-0.5375925925925926],[0.47156250000000005,-0.5375925925925926],[0.49208333333333343,-0.5666666666666667],[0.5175,-0.602037037037037],[0.5369791666666667,-0.5561111111111111],[0.5628124999999999,-0.5803703703703703],[0.5854166666666667,-0.5862962962962963],[0.5863541666666667,-0.6016666666666666],[0.564375,-0.5761111111111111],[0.5432291666666667,-0.5525925925925925],[0.5432291666666667,-0.5525925925925925],[0.5239583333333333,-0.5372222222222223],[0.49104166666666677,-0.5144444444444445],[0.4391666666666666,-0.45981481481481484],[0.3775000000000001,-0.402962962962963],[0.31583333333333335,-0.3461111111111111],[0.25812499999999994,-0.27925925925925926],[0.2055208333333333,-0.21425925925925923],[0.17864583333333334,-0.14666666666666664],[0.21124999999999997,-0.15055555555555558],[0.2283333333333334,-0.1574074074074074],[0.2741666666666667,-0.18796296296296297],[0.30916666666666665,-0.2433333333333333],[0.34968750000000004,-0.2887037037037037],[0.4013541666666666,-0.34074074074074073],[0.4421875,-0.40703703703703703],[0.48937499999999995,-0.46055555555555555],[0.5222916666666667,-0.5122222222222222],[0.5552083333333333,-0.5638888888888889],[0.5815625,-0.5657407407407408],[0.6234375,-0.5646296296296296],[0.6215625,-0.5396296296296296],[0.6153125,-0.5272222222222221],[0.6035416666666668,-0.5248148148148147],[0.5640625,-0.47092592592592597],[0.5354166666666667,-0.4027777777777778],[0.5192708333333333,-0.33722222222222226],[0.5122916666666666,-0.27166666666666667],[0.4929166666666667,-0.2146296296296296],[0.48156249999999995,-0.1609259259259259]]","[[-0.27625000000000005,0.02111111111111107,0.00019999999926056944],[-0.27625000000000005,0.02111111111111107,0.03819999999925727],[-0.27625000000000005,0.02111111111111107,0.04519999999925517],[-0.29708333333333337,0.02907407407407416,0.061900000000377986],[-0.3017708333333334,0.009814814814814731,0.07859999999963208],[-0.29177083333333337,-0.01796296296296305,0.09529999999888616],[-0.28500000000000003,-0.0035185185185184764,0.11540000000037764],[-0.28708333333333336,0.004814814814814857,0.13109999999962696],[-0.3095833333333334,0.06333333333333342,0.14529999999888332],[-0.28364583333333326,0.05351851851851848,0.1654000000003748],[-0.31062500000000004,0.06703703703703712,0.1805000000000021],[-0.3298958333333334,0.020555555555555598,0.19519999999926085],[-0.35281250000000003,0.007777777777777862,0.2120000000000033],[-0.3692708333333333,0.013518518518518435,0.22850000000000392],[-0.3845833333333334,0.03462962962962971,0.245199999999258],[-0.40343749999999995,0.05740740740740741,0.26419999999925636],[-0.41906249999999995,0.03796296296296296,0.2785000000000011],[-0.4275,0.05537037037037033,0.29540000000037736],[-0.4155208333333333,0.022592592592592678,0.31500000000000483],[-0.440625,0.04981481481481477,0.3310999999996298],[-0.42999999999999994,0.051111111111111156,0.34519999999925943],[-0.42999999999999994,0.051111111111111156,0.36190000000037514],[-0.4013541666666666,0.0911111111111112,0.3785000000000025],[-0.3841666666666666,0.14333333333333328,0.3952999999988833],[-0.375,0.16870370370370374,0.4145999999996306],[-0.36291666666666667,0.20685185185185193,0.4314999999999998],[-0.34729166666666667,0.2433333333333333,0.4455999999996294],[-0.3345833333333334,0.3198148148148149,0.46190000000037656],[-0.32000000000000006,0.3405555555555555,0.4784000000003772],[-0.3111458333333334,0.33796296296296297,0.495199999999258],[-0.2601041666666667,0.3696296296296297,0.5154000000003762],[-0.20906250000000004,0.4012962962962964,0.5310999999996326],[-0.1898958333333333,0.43740740740740747,0.5451999999992552],[-0.1421875,0.4398148148148148,0.561900000000378],[-0.09947916666666666,0.4540740740740742,0.5785000000000053],[-0.07697916666666664,0.4674074074074074,0.5951999999992594],[-0.05447916666666662,0.4807407407407408,0.6146999999992602],[-0.022916666666666665,0.47740740740740734,0.6320999999996317],[-0.000416666666666643,0.49296296296296305,0.6480000000000032],[0.019687499999999976,0.5103703703703704,0.6625000000000014],[0.00635416666666669,0.5033333333333333,0.6784999999999997],[0.003854166666666714,0.493888888888889,0.6951999999992609],[0.026979166666666644,0.4420370370370371,0.715400000000372],[0.016354166666666715,0.4372222222222223,0.7312999999988818],[0.02364583333333338,0.4246296296296295,0.745199999999258],[0.017708333333333333,0.415925925925926,0.7617999999988854],[0.03708333333333336,0.3846296296296297,0.7824000000003721],[0.033645833333333285,0.3435185185185185,0.7979000000003751],[0.027395833333333286,0.31444444444444436,0.8147999999988826],[0.009791666666666643,0.2727777777777777,0.8289000000003739],[0.011249999999999953,0.2657407407407407,0.8451999999992594],[-0.016562499999999977,0.22148148148148153,0.8627999999988845],[-0.05291666666666662,0.20981481481481473,0.8815000000000026],[-0.04833333333333331,0.23796296296296296,0.899900000000379],[-0.08406250000000005,0.24055555555555552,0.9150000000000063],[-0.10656249999999995,0.23925925925925934,0.9330999999996337],[-0.11572916666666669,0.20259259259259255,0.9471999999992562],[-0.10822916666666664,0.15240740740740732,0.9661999999992545],[-0.1234375,0.09907407407407408,0.9836999999992599],[-0.06458333333333334,0.06722222222222214,0.999400000000378],[-0.024791666666666618,0.0007407407407406986,1.0140999999996296],[0.07135416666666666,-0.05499999999999998,1.0285999999996278],[0.17385416666666675,-0.10166666666666663,1.0480000000000018],[0.21437499999999995,-0.19759259259259257,1.061900000000378],[0.28229166666666666,-0.272037037037037,1.0786999999992588],[0.34833333333333344,-0.3520370370370371,1.0994000000003723],[0.3785416666666668,-0.3718518518518519,1.1154000000003776],[0.47604166666666664,-0.3688888888888889,1.1315999999996293],[0.6220833333333334,-0.37092592592592594,1.1450999999996299],[0.7173958333333333,-0.47685185185185186,1.1645000000000039],[0.7513541666666667,-0.4770370370370371,1.1790999999996288],[0.7525000000000001,-0.4537037037037037,1.1957999999988829],[0.7346874999999999,-0.44648148148148153,1.2155999999996325],[0.7504166666666667,-0.44722222222222224,1.2301999999992574],[0.7661458333333333,-0.4479629629629629,1.245400000000373],[0.7661458333333333,-0.4479629629629629,1.262199999999261],[0.7740624999999999,-0.46574074074074073,1.2854000000003722],[0.7740624999999999,-0.46574074074074073,1.2980000000000018],[0.8150000000000001,-0.45870370370370367,1.3120999999996315],[0.7599999999999999,-0.48148148148148145,1.3350999999996276],[0.7599999999999999,-0.48148148148148145,1.3452999999988862],[0.6479166666666667,-0.5001851851851852,1.3620999999996286],[0.6479166666666667,-0.5001851851851852,1.3785000000000025],[0.5728125000000001,-0.3881481481481482,1.3951999999992566],[0.5728125000000001,-0.3881481481481482,1.4119000000003723],[0.5192708333333333,-0.3972222222222222,1.4285999999996335],[0.5192708333333333,-0.3972222222222222,1.4451999999992609],[0.5171875,-0.37777777777777777,1.4619000000003766],[0.5079166666666666,-0.35111111111111115,1.478500000000004],[0.4809375000000001,-0.29796296296296293,1.495199999999258],[0.4527083333333332,-0.27314814814814814,1.5141999999992564],[0.4490624999999999,-0.19666666666666666,1.5287999999988884],[0.3984375,-0.14592592592592596,1.5451999999992552],[0.3789583333333333,-0.09944444444444442,1.561900000000378],[0.3935416666666666,-0.06092592592592588,1.5785000000000053],[0.35875000000000007,-0.04000000000000004,1.5954000000003745],[0.3637500000000001,-0.003703703703703704,1.615000000000002],[0.309375,-0.004259259259259175,1.6285000000000025],[0.28114583333333343,0.004074074074074159,1.6451999999992566],[0.3033333333333334,0.02296296296296292,1.661799999998884],[0.30802083333333335,0.05222222222222231,1.6784999999999997],[0.2978125000000001,0.052407407407407326,1.6951999999992609],[0.30791666666666656,0.06333333333333342,1.7159000000003743],[0.3155208333333334,0.08555555555555563,1.730900000000375],[0.31968750000000007,0.14129629629629623,1.745199999999258],[0.3141666666666666,0.1985185185185186,1.7619000000003737],[0.35177083333333337,0.25018518518518523,1.778500000000001],[0.3551041666666668,0.30092592592592593,1.7951999999992552],[0.3955208333333334,0.36629629629629623,1.815299999998885],[0.3896874999999999,0.3633333333333334,1.831000000000003],[0.40260416666666665,0.37833333333333324,1.8451999999992594],[0.39874999999999994,0.37037037037037035,1.864099999999631],[0.37645833333333345,0.3562962962962963,1.8812999999988875],[0.31708333333333344,0.34370370370370373,1.8950999999996299],[0.26114583333333335,0.2975925925925927,1.9120999999996329],[0.25145833333333345,0.2322222222222222,1.9284999999999997],[0.20125000000000004,0.18796296296296297,1.945099999999627],[0.20125000000000004,0.18796296296296297,1.9620000000000033],[0.19364583333333343,0.14148148148148143,1.9785999999996307],[0.125,0.10629629629629625,1.995199999999258],[0.0740624999999999,0.09425925925925922,2.0125999999996296],[0.0740624999999999,0.09425925925925922,2.028500000000001],[0.03354166666666671,0.08148148148148149,2.0450999999996284],[0.024791666666666618,0.06388888888888888,2.062199999999258],[0.0265625,0.038703703703703664,2.0787999999988855],[0.06541666666666662,0.012037037037037037,2.0951999999992594],[0.05562499999999997,-0.020185185185185143,2.1155000000000044],[0.017812500000000023,-0.03129629629629625,2.131199999999261],[-0.020937500000000022,-0.07962962962962963,2.1455999999996322],[-0.06520833333333335,-0.1111111111111111,2.161799999998884],[-0.08666666666666671,-0.1588888888888889,2.179099999999629],[-0.10812499999999996,-0.20666666666666672,2.195199999999261],[-0.13864583333333336,-0.2322222222222222,2.2146999999992545],[-0.14572916666666663,-0.2361111111111111,2.2322999999988866],[-0.15406249999999996,-0.2383333333333333,2.247900000000378],[-0.16281249999999994,-0.2212962962962963,2.262500000000003],[-0.12291666666666666,-0.19870370370370372,2.278500000000001],[-0.05552083333333328,-0.19740740740740745,2.2977999999988867],[0.010208333333333286,-0.17444444444444443,2.3156999999992607],[0.0515625,-0.147037037037037,2.331699999999259],[0.0515625,-0.147037037037037,2.355000000000004],[0.10947916666666657,-0.14611111111111108,2.3696999999992556],[0.10947916666666657,-0.14611111111111108,2.3785000000000025],[0.20427083333333323,-0.1427777777777778,2.3951999999992566],[0.2977083333333333,-0.1609259259259259,2.4151999999992597],[0.29020833333333323,-0.19388888888888886,2.428400000000373],[0.29375,-0.2161111111111111,2.445099999999627],[0.30614583333333345,-0.24981481481481477,2.4616999999992544],[0.3017708333333334,-0.2518518518518518,2.478500000000004],[0.2698958333333332,-0.23259259259259263,2.4950999999996313],[0.1931250000000001,-0.23277777777777775,2.5126999999992563],[0.16364583333333324,-0.21074074074074076,2.5286999999992545],[0.08260416666666662,-0.18833333333333332,2.545199999999255],[-0.035312499999999976,-0.16833333333333328,2.5617999999988825],[-0.14093749999999997,-0.13648148148148145,2.5785000000000053],[-0.18406250000000005,-0.08370370370370368,2.5950999999996327],[-0.23822916666666671,-0.041666666666666664,2.614799999998887],[-0.31791666666666674,-0.01907407407407399,2.6285000000000025],[-0.38083333333333336,-0.02814814814814823,2.64509999999963],[-0.41906249999999995,-0.012777777777777735,2.661799999998884],[-0.4123958333333333,0.022037037037036994,2.6784999999999997],[-0.44072916666666667,0.019259259259259216,2.697599999999632],[-0.43291666666666667,0.03296296296296288,2.7159000000003743],[-0.3533333333333334,0.0020370370370370794,2.7292999999988865],[-0.2860416666666667,-0.040740740740740744,2.745199999999258],[-0.2235416666666667,-0.0801851851851852,2.763699999999261],[-0.1798958333333334,-0.07759259259259255,2.782199999999257],[-0.0703125,-0.11481481481481481,2.802500000000002],[-0.0703125,-0.11481481481481481,2.8117999999988825],[0.02000000000000005,-0.1307407407407408,2.8312999999988833],[0.09854166666666657,-0.19074074074074074,2.8450999999996327],[0.1616666666666667,-0.24370370370370376,2.861799999998887],[0.23687500000000009,-0.28574074074074074,2.8784000000003758],[0.28854166666666664,-0.3175925925925926,2.901400000000372],[0.28854166666666664,-0.3175925925925926,2.9119000000003723],[0.28666666666666674,-0.2683333333333333,2.9284999999999997],[0.29177083333333326,-0.22481481481481477,2.945099999999627],[0.29177083333333326,-0.22481481481481477,2.961799999998888],[0.3016666666666666,-0.18462962962962962,2.9785999999996307],[0.3189583333333334,-0.18222222222222217,2.9950999999996313],[0.2873958333333334,-0.12833333333333335,3.0120000000000005],[0.2808333333333332,-0.11148148148148146,3.028500000000001],[0.2613541666666668,-0.075,3.0450999999996284],[0.2805208333333333,-0.02629629629629638,3.0617999999988825],[0.29968750000000005,0.02240740740740745,3.0785000000000053],[0.34104166666666674,0.055000000000000084,3.0951999999992594],[0.3641666666666666,0.051111111111111156,3.111799999998887],[0.3923958333333334,0.0477777777777777,3.1284000000003758],[0.42062499999999997,0.044444444444444446,3.1482999999988834],[0.4335416666666667,0.034074074074074034,3.1655999999996283],[0.4591666666666666,0.021296296296296296,3.1785999999996335],[0.47635416666666663,0.017407407407407365,3.195199999999261],[0.4935416666666666,0.013518518518518435,3.211799999998888],[0.47760416666666666,0.021851851851851768,3.23069999999926],[0.4736458333333334,-0.03351851851851856,3.2452999999988847],[0.4736458333333334,-0.03351851851851856,3.2617999999988854],[0.4644791666666668,-0.08129629629629626,3.2784000000003743],[0.4644791666666668,-0.08129629629629626,3.295199999999255],[0.4866666666666667,-0.09037037037037039,3.3159000000003758],[0.4866666666666667,-0.09037037037037039,3.3284000000003786],[0.44802083333333326,-0.1624074074074074,3.3450999999996327],[0.4243750000000001,-0.22833333333333336,3.366599999999629],[0.4243750000000001,-0.22833333333333336,3.3785000000000025],[0.4673958333333334,-0.26537037037037037,3.395400000000379],[0.4673958333333334,-0.26537037037037037,3.411799999998884],[0.5143749999999999,-0.30999999999999994,3.428400000000373],[0.5143749999999999,-0.30999999999999994,3.450299999998883],[0.5451041666666666,-0.3675925925925926,3.46209999999963],[0.5786458333333333,-0.4142592592592592,3.4785999999996307],[0.6186458333333335,-0.5057407407407408,3.4995000000000047],[0.6186458333333335,-0.5057407407407408,3.5119000000003737],[0.6384375000000001,-0.5344444444444445,3.5287999999988884],[0.6814583333333334,-0.5457407407407407,3.545199999999255],[0.6665625000000001,-0.6062962962962962,3.5651999999992583],[0.7,-0.5857407407407408,3.5785000000000053],[0.7486458333333333,-0.5757407407407407,3.5997999999988863],[0.7489583333333333,-0.6355555555555555,3.615599999999631],[0.7664583333333332,-0.6383333333333333,3.630199999999256],[0.7690625,-0.6683333333333333,3.64509999999963],[0.7521874999999999,-0.645,3.661799999998884],[0.7395833333333334,-0.6651851851851852,3.678400000000373],[0.7679166666666667,-0.6703703703703704,3.695099999999627],[0.7480208333333332,-0.6614814814814814,3.71659999999963],[0.7478125000000001,-0.6481481481481481,3.7325000000000017],[0.7510416666666667,-0.705925925925926,3.747599999999629],[0.7240624999999999,-0.7592592592592593,3.762500000000003],[0.7323958333333332,-0.7424074074074074,3.781299999998886],[0.6786458333333333,-0.727962962962963,3.7957999999988843],[0.6525000000000001,-0.6557407407407407,3.814],[0.6489583333333333,-0.7290740740740741,3.8320000000000007],[0.6342708333333335,-0.6853703703703704,3.846199999999257],[0.5901041666666667,-0.674074074074074,3.861900000000375],[0.5734375,-0.6890740740740741,3.881199999999261],[0.5498958333333335,-0.6953703703703704,3.8955000000000055],[0.5224999999999999,-0.6414814814814814,3.914299999998889],[0.4982291666666666,-0.585,3.932699999999258],[0.47156250000000005,-0.5375925925925926,3.947599999999632],[0.47156250000000005,-0.5375925925925926,3.96209999999963],[0.49208333333333343,-0.5666666666666667,3.9786999999992574],[0.5175,-0.602037037037037,3.9950999999996313],[0.5369791666666667,-0.5561111111111111,4.014500000000005],[0.5628124999999999,-0.5803703703703703,4.028799999998888],[0.5854166666666667,-0.5862962962962963,4.045099999999628],[0.5863541666666667,-0.6016666666666666,4.0660000000000025],[0.564375,-0.5761111111111111,4.081699999999259],[0.5432291666666667,-0.5525925925925925,4.098299999998886],[0.5432291666666667,-0.5525925925925925,4.111799999998887],[0.5239583333333333,-0.5372222222222223,4.128599999999629],[0.49104166666666677,-0.5144444444444445,4.14509999999963],[0.4391666666666666,-0.45981481481481484,4.164799999998884],[0.3775000000000001,-0.402962962962963,4.17869999999926],[0.31583333333333335,-0.3461111111111111,4.195400000000376],[0.25812499999999994,-0.27925925925925926,4.215400000000372],[0.2055208333333333,-0.21425925925925923,4.231299999998882],[0.17864583333333334,-0.14666666666666664,4.245299999998885],[0.21124999999999997,-0.15055555555555558,4.26409999999963],[0.2283333333333334,-0.1574074074074074,4.278400000000374],[0.2741666666666667,-0.18796296296296297,4.295099999999628],[0.30916666666666665,-0.2433333333333333,4.314599999999629],[0.34968750000000004,-0.2887037037037037,4.328500000000005],[0.4013541666666666,-0.34074074074074073,4.345099999999633],[0.4421875,-0.40703703703703703,4.361900000000375],[0.48937499999999995,-0.46055555555555555,4.3785000000000025],[0.5222916666666667,-0.5122222222222222,4.39509999999963],[0.5552083333333333,-0.5638888888888889,4.414900000000372],[0.5815625,-0.5657407407407408,4.4285],[0.6234375,-0.5646296296296296,4.445099999999627],[0.6215625,-0.5396296296296296,4.462599999999632],[0.6153125,-0.5272222222222221,4.48069999999926],[0.6035416666666668,-0.5248148148148147,4.495099999999631],[0.5640625,-0.47092592592592597,4.514500000000005],[0.5354166666666667,-0.4027777777777778,4.5290000000000035],[0.5192708333333333,-0.33722222222222226,4.545099999999628],[0.5122916666666666,-0.27166666666666667,4.561699999999256],[0.4929166666666667,-0.2146296296296296,4.578500000000005],[0.48156249999999995,-0.1609259259259259,4.595099999999633]]","[0.00019999999926056944,0.03819999999925727,0.04519999999925517,0.061900000000377986,0.07859999999963208,0.09529999999888616,0.11540000000037764,0.13109999999962696,0.14529999999888332,0.1654000000003748,0.1805000000000021,0.19519999999926085,0.2120000000000033,0.22850000000000392,0.245199999999258,0.26419999999925636,0.2785000000000011,0.29540000000037736,0.31500000000000483,0.3310999999996298,0.34519999999925943,0.36190000000037514,0.3785000000000025,0.3952999999988833,0.4145999999996306,0.4314999999999998,0.4455999999996294,0.46190000000037656,0.4784000000003772,0.495199999999258,0.5154000000003762,0.5310999999996326,0.5451999999992552,0.561900000000378,0.5785000000000053,0.5951999999992594,0.6146999999992602,0.6320999999996317,0.6480000000000032,0.6625000000000014,0.6784999999999997,0.6951999999992609,0.715400000000372,0.7312999999988818,0.745199999999258,0.7617999999988854,0.7824000000003721,0.7979000000003751,0.8147999999988826,0.8289000000003739,0.8451999999992594,0.8627999999988845,0.8815000000000026,0.899900000000379,0.9150000000000063,0.9330999999996337,0.9471999999992562,0.9661999999992545,0.9836999999992599,0.999400000000378,1.0140999999996296,1.0285999999996278,1.0480000000000018,1.061900000000378,1.0786999999992588,1.0994000000003723,1.1154000000003776,1.1315999999996293,1.1450999999996299,1.1645000000000039,1.1790999999996288,1.1957999999988829,1.2155999999996325,1.2301999999992574,1.245400000000373,1.262199999999261,1.2854000000003722,1.2980000000000018,1.3120999999996315,1.3350999999996276,1.3452999999988862,1.3620999999996286,1.3785000000000025,1.3951999999992566,1.4119000000003723,1.4285999999996335,1.4451999999992609,1.4619000000003766,1.478500000000004,1.495199999999258,1.5141999999992564,1.5287999999988884,1.5451999999992552,1.561900000000378,1.5785000000000053,1.5954000000003745,1.615000000000002,1.6285000000000025,1.6451999999992566,1.661799999998884,1.6784999999999997,1.6951999999992609,1.7159000000003743,1.730900000000375,1.745199999999258,1.7619000000003737,1.778500000000001,1.7951999999992552,1.815299999998885,1.831000000000003,1.8451999999992594,1.864099999999631,1.8812999999988875,1.8950999999996299,1.9120999999996329,1.9284999999999997,1.945099999999627,1.9620000000000033,1.9785999999996307,1.995199999999258,2.0125999999996296,2.028500000000001,2.0450999999996284,2.062199999999258,2.0787999999988855,2.0951999999992594,2.1155000000000044,2.131199999999261,2.1455999999996322,2.161799999998884,2.179099999999629,2.195199999999261,2.2146999999992545,2.2322999999988866,2.247900000000378,2.262500000000003,2.278500000000001,2.2977999999988867,2.3156999999992607,2.331699999999259,2.355000000000004,2.3696999999992556,2.3785000000000025,2.3951999999992566,2.4151999999992597,2.428400000000373,2.445099999999627,2.4616999999992544,2.478500000000004,2.4950999999996313,2.5126999999992563,2.5286999999992545,2.545199999999255,2.5617999999988825,2.5785000000000053,2.5950999999996327,2.614799999998887,2.6285000000000025,2.64509999999963,2.661799999998884,2.6784999999999997,2.697599999999632,2.7159000000003743,2.7292999999988865,2.745199999999258,2.763699999999261,2.782199999999257,2.802500000000002,2.8117999999988825,2.8312999999988833,2.8450999999996327,2.861799999998887,2.8784000000003758,2.901400000000372,2.9119000000003723,2.9284999999999997,2.945099999999627,2.961799999998888,2.9785999999996307,2.9950999999996313,3.0120000000000005,3.028500000000001,3.0450999999996284,3.0617999999988825,3.0785000000000053,3.0951999999992594,3.111799999998887,3.1284000000003758,3.1482999999988834,3.1655999999996283,3.1785999999996335,3.195199999999261,3.211799999998888,3.23069999999926,3.2452999999988847,3.2617999999988854,3.2784000000003743,3.295199999999255,3.3159000000003758,3.3284000000003786,3.3450999999996327,3.366599999999629,3.3785000000000025,3.395400000000379,3.411799999998884,3.428400000000373,3.450299999998883,3.46209999999963,3.4785999999996307,3.4995000000000047,3.5119000000003737,3.5287999999988884,3.545199999999255,3.5651999999992583,3.5785000000000053,3.5997999999988863,3.615599999999631,3.630199999999256,3.64509999999963,3.661799999998884,3.678400000000373,3.695099999999627,3.71659999999963,3.7325000000000017,3.747599999999629,3.762500000000003,3.781299999998886,3.7957999999988843,3.814,3.8320000000000007,3.846199999999257,3.861900000000375,3.881199999999261,3.8955000000000055,3.914299999998889,3.932699999999258,3.947599999999632,3.96209999999963,3.9786999999992574,3.9950999999996313,4.014500000000005,4.028799999998888,4.045099999999628,4.0660000000000025,4.081699999999259,4.098299999998886,4.111799999998887,4.128599999999629,4.14509999999963,4.164799999998884,4.17869999999926,4.195400000000376,4.215400000000372,4.231299999998882,4.245299999998885,4.26409999999963,4.278400000000374,4.295099999999628,4.314599999999629,4.328500000000005,4.345099999999633,4.361900000000375,4.3785000000000025,4.39509999999963,4.414900000000372,4.4285,4.445099999999627,4.462599999999632,4.48069999999926,4.495099999999631,4.514500000000005,4.5290000000000035,4.545099999999628,4.561699999999256,4.578500000000005,4.595099999999633]","[1733120900936,1733120900966,1733120900973,1733120900990,1733120901007,1733120901024,1733120901044,1733120901059,1733120901074,1733120901094,1733120901109,1733120901123,1733120901140,1733120901157,1733120901173,1733120901193,1733120901207,1733120901224,1733120901243,1733120901259,1733120901273,1733120901290,1733120901307,1733120901324,1733120901343,1733120901360,1733120901374,1733120901390,1733120901407,1733120901423,1733120901444,1733120901459,1733120901473,1733120901490,1733120901507,1733120901524,1733120901543,1733120901560,1733120901576,1733120901591,1733120901607,1733120901623,1733120901644,1733120901660,1733120901673,1733120901690,1733120901711,1733120901726,1733120901743,1733120901757,1733120901773,1733120901791,1733120901810,1733120901828,1733120901843,1733120901861,1733120901875,1733120901894,1733120901912,1733120901928,1733120901942,1733120901957,1733120901976,1733120901990,1733120902007,1733120902028,1733120902044,1733120902060,1733120902073,1733120902093,1733120902107,1733120902124,1733120902144,1733120902159,1733120902174,1733120902190,1733120902214,1733120902226,1733120902240,1733120902263,1733120902274,1733120902290,1733120902307,1733120902323,1733120902340,1733120902357,1733120902373,1733120902390,1733120902407,1733120902424,1733120902442,1733120902457,1733120902473,1733120902490,1733120902507,1733120902524,1733120902543,1733120902557,1733120902573,1733120902590,1733120902607,1733120902624,1733120902644,1733120902659,1733120902673,1733120902690,1733120902707,1733120902723,1733120902744,1733120902759,1733120902773,1733120902792,1733120902810,1733120902823,1733120902840,1733120902857,1733120902873,1733120902890,1733120902907,1733120902923,1733120902941,1733120902957,1733120902973,1733120902991,1733120903007,1733120903024,1733120903044,1733120903059,1733120903074,1733120903090,1733120903107,1733120903123,1733120903143,1733120903161,1733120903176,1733120903191,1733120903207,1733120903226,1733120903244,1733120903260,1733120903283,1733120903298,1733120903307,1733120903323,1733120903344,1733120903357,1733120903373,1733120903390,1733120903407,1733120903423,1733120903441,1733120903457,1733120903474,1733120903490,1733120903507,1733120903523,1733120903543,1733120903557,1733120903573,1733120903590,1733120903607,1733120903626,1733120903644,1733120903658,1733120903673,1733120903692,1733120903711,1733120903731,1733120903740,1733120903759,1733120903773,1733120903790,1733120903807,1733120903830,1733120903840,1733120903857,1733120903873,1733120903890,1733120903907,1733120903923,1733120903940,1733120903957,1733120903973,1733120903990,1733120904007,1733120904023,1733120904040,1733120904057,1733120904077,1733120904094,1733120904107,1733120904123,1733120904140,1733120904159,1733120904174,1733120904191,1733120904207,1733120904224,1733120904245,1733120904257,1733120904274,1733120904295,1733120904307,1733120904324,1733120904341,1733120904357,1733120904379,1733120904391,1733120904407,1733120904428,1733120904441,1733120904458,1733120904474,1733120904494,1733120904507,1733120904528,1733120904544,1733120904559,1733120904574,1733120904591,1733120904607,1733120904624,1733120904645,1733120904661,1733120904676,1733120904691,1733120904710,1733120904724,1733120904743,1733120904761,1733120904775,1733120904791,1733120904810,1733120904824,1733120904843,1733120904861,1733120904876,1733120904891,1733120904907,1733120904924,1733120904943,1733120904957,1733120904974,1733120904995,1733120905010,1733120905027,1733120905041,1733120905057,1733120905074,1733120905093,1733120905107,1733120905124,1733120905144,1733120905160,1733120905174,1733120905193,1733120905207,1733120905224,1733120905243,1733120905257,1733120905274,1733120905291,1733120905307,1733120905324,1733120905344,1733120905357,1733120905374,1733120905391,1733120905409,1733120905424,1733120905443,1733120905458,1733120905474,1733120905490,1733120905507,1733120905524]","[[694.8,551.4],[694.8,551.4],[694.8,551.4],[674.8,555.7],[670.3,545.3],[679.9,530.3],[686.4,538.1],[684.4,542.6],[662.8,574.2],[687.7,568.9],[661.8,576.2],[643.3,551.1],[621.3,544.2],[605.5,547.3],[590.8,558.7],[572.7,571],[557.7,560.5],[549.6,569.9],[561.1,552.2],[537,566.9],[547.2,567.6],[547.2,567.6],[574.7,589.2],[591.2,617.4],[600,631.1],[611.6,651.7],[626.6,671.4],[638.8,712.7],[652.8,723.9],[661.3,722.5],[710.3,739.6],[759.3,756.7],[777.7,776.2],[823.5,777.5],[864.5,785.2],[886.1,792.4],[907.7,799.6],[938,797.8],[959.6,806.2],[978.9,815.6],[966.1,811.8],[963.7,806.7],[985.9,778.7],[975.7,776.1],[982.7,769.3],[977,764.6],[995.6,747.7],[992.3,725.5],[986.3,709.8],[969.4,687.3],[970.8,683.5],[944.1,659.6],[909.2,653.3],[913.6,668.5],[879.3,669.9],[857.7,669.2],[848.9,649.4],[856.1,622.3],[841.5,593.5],[898,576.3],[936.2,540.4],[1028.5,510.3],[1126.9,485.1],[1165.8,433.3],[1231,393.1],[1294.4,349.9],[1323.4,339.2],[1417,340.8],[1557.2,339.7],[1648.7,282.5],[1681.3,282.4],[1682.4,295],[1665.3,298.9],[1680.4,298.5],[1695.5,298.1],[1695.5,298.1],[1703.1,288.5],[1703.1,288.5],[1742.4,292.3],[1689.6,280],[1689.6,280],[1582,269.9],[1582,269.9],[1509.9,330.4],[1509.9,330.4],[1458.5,325.5],[1458.5,325.5],[1456.5,336],[1447.6,350.4],[1421.7,379.1],[1394.6,392.5],[1391.1,433.8],[1342.5,461.2],[1323.8,486.3],[1337.8,507.1],[1304.4,518.4],[1309.2,538],[1257,537.7],[1229.9,542.2],[1251.2,552.4],[1255.7,568.2],[1245.9,568.3],[1255.6,574.2],[1262.9,586.2],[1266.9,616.3],[1261.6,647.2],[1297.7,675.1],[1300.9,702.5],[1339.7,737.8],[1334.1,736.2],[1346.5,744.3],[1342.8,740],[1321.4,732.4],[1264.4,725.6],[1210.7,700.7],[1201.4,665.4],[1153.2,641.5],[1153.2,641.5],[1145.9,616.4],[1080,597.4],[1031.1,590.9],[1031.1,590.9],[992.2,584],[983.8,574.5],[985.5,560.9],[1022.8,546.5],[1013.4,529.1],[977.1,523.1],[939.9,497],[897.4,480],[876.8,454.2],[856.2,428.4],[826.9,414.6],[820.1,412.5],[812.1,411.3],[803.7,420.5],[842,432.7],[906.7,433.4],[969.8,445.8],[1009.5,460.6],[1009.5,460.6],[1065.1,461.1],[1065.1,461.1],[1156.1,462.9],[1245.8,453.1],[1238.6,435.3],[1242,423.3],[1253.9,405.1],[1249.7,404],[1219.1,414.4],[1145.4,414.3],[1117.1,426.2],[1039.3,438.3],[926.1,449.1],[824.7,466.3],[783.3,494.8],[731.3,517.5],[654.8,529.7],[594.4,524.8],[557.7,533.1],[564.1,551.9],[536.9,550.4],[544.4,557.8],[620.8,541.1],[685.4,518],[745.4,496.7],[787.3,498.1],[892.5,478],[892.5,478],[979.2,469.4],[1054.6,437],[1115.2,408.4],[1187.4,385.7],[1237,368.5],[1237,368.5],[1235.2,395.1],[1240.1,418.6],[1240.1,418.6],[1249.6,440.3],[1266.2,441.6],[1235.9,470.7],[1229.6,479.8],[1210.9,499.5],[1229.3,525.8],[1247.7,552.1],[1287.4,569.7],[1309.6,567.6],[1336.7,565.8],[1363.8,564],[1376.2,558.4],[1400.8,551.5],[1417.3,549.4],[1433.8,547.3],[1418.5,551.8],[1414.7,521.9],[1414.7,521.9],[1405.9,496.1],[1405.9,496.1],[1427.2,491.2],[1427.2,491.2],[1390.1,452.3],[1367.4,416.7],[1367.4,416.7],[1408.7,396.7],[1408.7,396.7],[1453.8,372.6],[1453.8,372.6],[1483.3,341.5],[1515.5,316.3],[1553.9,266.9],[1553.9,266.9],[1572.9,251.4],[1614.2,245.3],[1599.9,212.6],[1632,223.7],[1678.7,229.1],[1679,196.8],[1695.8,195.3],[1698.3,179.1],[1682.1,191.7],[1670,180.8],[1697.2,178],[1678.1,182.8],[1677.9,190],[1681,158.8],[1655.1,130],[1663.1,139.1],[1611.5,146.9],[1586.4,185.9],[1583,146.3],[1568.9,169.9],[1526.5,176],[1510.5,167.9],[1487.9,164.5],[1461.6,193.6],[1438.3,224.1],[1412.7,249.7],[1412.7,249.7],[1432.4,234],[1456.8,214.9],[1475.5,239.7],[1500.3,226.6],[1522,223.4],[1522.9,215.1],[1501.8,228.9],[1481.5,241.6],[1481.5,241.6],[1463,249.9],[1431.4,262.2],[1381.6,291.7],[1322.4,322.4],[1263.2,353.1],[1207.8,389.2],[1157.3,424.3],[1131.5,460.8],[1162.8,458.7],[1179.2,455],[1223.2,438.5],[1256.8,408.6],[1295.7,384.1],[1345.3,356],[1384.5,320.2],[1429.8,291.3],[1461.4,263.4],[1493,235.5],[1518.3,234.5],[1558.5,235.1],[1556.7,248.6],[1550.7,255.3],[1539.4,256.6],[1501.5,285.7],[1474,322.5],[1458.5,357.9],[1451.8,393.3],[1433.2,424.1],[1422.3,453.1]]","[0,0.5333]","[0.5333,0.5333]","[-0.5333,0]","[-0.5333,-0.5333]","[0,0]","[0.5333,0]","[0,-0.5333]","[0.5333,-0.5333]",0,0,0,0,1,4,Monitor,11,5,13,9
