inst1_resp.keys,inst1_resp.rt,calibrationMouse.x,calibrationMouse.y,calibrationMouse.leftButton,calibrationMouse.midButton,calibrationMouse.rightButton,calibrationClick.x,calibrationClick.y,calibrationClick.leftButton,calibrationClick.midButton,calibrationClick.rightButton,calibrationClick.clicked_name,trialsc.thisRepN,trialsc.thisTrialN,trialsc.thisN,trialsc.thisIndex,trialsc.ran,calibration_x,calibration_y,participant,session,date,expName,psychopyVersion,OS,frameRate,ScreenRes_pixels,Camera_pixels,mouse_2.x,mouse_2.y,mouse_2.leftButton,mouse_2.midButton,mouse_2.rightButton,mouse_2.time,mouse_2.clicked_name,mouse.x,mouse.y,mouse.leftButton,mouse.midButton,mouse.rightButton,mouse.time,mouse.clicked_name,Choice,Trial,TrialDuration,MOUSE_GAZE,ET_GAZE,ET_GAZE_x_T,time,unixTime,ET_GAZE_NF,Loc_Option1_label,Loc_Option2_label,Loc_Cost_label,Loc_Qual_label,Loc_Option1_cost,Loc_Option2_cost,Loc_Option1_quality,Loc_Option2_quality,trials.thisRepN,trials.thisTrialN,trials.thisN,trials.thisIndex,trials.ran,Block,Device,cost1,qual1,cost2,qual2
space,6.3545,-0.648958333,0.266666667,1,0,0,-0.329166667,-0.664814815,1,0,0,calibration_square,0,0,0,4,1,-0.33,-0.67,03,001,2024-12-01_14h55.05.888,Attention_exp_legacy,2023.1.0,Win32,59.88023952,,,,,,,,,,,,,,,,,,,,,,,,,,,,,,,,,,,,,,,,,,,,
,,,,,,,-0.666666667,0,1,0,0,calibration_square,0,1,1,2,1,-0.67,0,03,001,2024-12-01_14h55.05.888,Attention_exp_legacy,2023.1.0,Win32,59.88023952,,,,,,,,,,,,,,,,,,,,,,,,,,,,,,,,,,,,,,,,,,,,
,,,,,,,-0.676041667,-0.32962963,1,0,0,calibration_square,0,2,2,1,1,-0.67,-0.33,03,001,2024-12-01_14h55.05.888,Attention_exp_legacy,2023.1.0,Win32,59.88023952,,,,,,,,,,,,,,,,,,,,,,,,,,,,,,,,,,,,,,,,,,,,
,,,,,,,-0.33125,-0.325925926,1,0,0,calibration_square,0,3,3,5,1,-0.33,-0.33,03,001,2024-12-01_14h55.05.888,Attention_exp_legacy,2023.1.0,Win32,59.88023952,,,,,,,,,,,,,,,,,,,,,,,,,,,,,,,,,,,,,,,,,,,,
,,,,,,,-0.333333333,0.666666667,1,0,0,calibration_square,0,4,4,8,1,-0.33,0.67,03,001,2024-12-01_14h55.05.888,Attention_exp_legacy,2023.1.0,Win32,59.88023952,,,,,,,,,,,,,,,,,,,,,,,,,,,,,,,,,,,,,,,,,,,,
,,,,,,,-0.327083333,0.001851852,1,0,0,calibration_square,0,5,5,6,1,-0.33,0,03,001,2024-12-01_14h55.05.888,Attention_exp_legacy,2023.1.0,Win32,59.88023952,,,,,,,,,,,,,,,,,,,,,,,,,,,,,,,,,,,,,,,,,,,,
,,,,,,,0.66875,0.67037037,1,0,0,calibration_square,0,6,6,19,1,0.67,0.67,03,001,2024-12-01_14h55.05.888,Attention_exp_legacy,2023.1.0,Win32,59.88023952,,,,,,,,,,,,,,,,,,,,,,,,,,,,,,,,,,,,,,,,,,,,
,,,,,,,0.001041667,-0.327777778,1,0,0,calibration_square,0,7,7,10,1,0,-0.33,03,001,2024-12-01_14h55.05.888,Attention_exp_legacy,2023.1.0,Win32,59.88023952,,,,,,,,,,,,,,,,,,,,,,,,,,,,,,,,,,,,,,,,,,,,
,,,,,,,0.333333333,0.661111111,1,0,0,calibration_square,0,8,8,18,1,0.33,0.67,03,001,2024-12-01_14h55.05.888,Attention_exp_legacy,2023.1.0,Win32,59.88023952,,,,,,,,,,,,,,,,,,,,,,,,,,,,,,,,,,,,,,,,,,,,
,,,,,,,0.673958333,-0.67037037,1,0,0,calibration_square,0,9,9,20,1,0.67,-0.67,03,001,2024-12-01_14h55.05.888,Attention_exp_legacy,2023.1.0,Win32,59.88023952,,,,,,,,,,,,,,,,,,,,,,,,,,,,,,,,,,,,,,,,,,,,
,,,,,,,0.001041667,0.672222222,1,0,0,calibration_square,0,10,10,13,1,0,0.67,03,001,2024-12-01_14h55.05.888,Attention_exp_legacy,2023.1.0,Win32,59.88023952,,,,,,,,,,,,,,,,,,,,,,,,,,,,,,,,,,,,,,,,,,,,
,,,,,,,0,-0.664814815,1,0,0,calibration_square,0,11,11,9,1,0,-0.67,03,001,2024-12-01_14h55.05.888,Attention_exp_legacy,2023.1.0,Win32,59.88023952,,,,,,,,,,,,,,,,,,,,,,,,,,,,,,,,,,,,,,,,,,,,
,,,,,,,0.328125,0.331481481,1,0,0,calibration_square,0,12,12,17,1,0.33,0.33,03,001,2024-12-01_14h55.05.888,Attention_exp_legacy,2023.1.0,Win32,59.88023952,,,,,,,,,,,,,,,,,,,,,,,,,,,,,,,,,,,,,,,,,,,,
,,,,,,,-0.667708333,0.325925926,1,0,0,calibration_square,0,13,13,3,1,-0.67,0.33,03,001,2024-12-01_14h55.05.888,Attention_exp_legacy,2023.1.0,Win32,59.88023952,,,,,,,,,,,,,,,,,,,,,,,,,,,,,,,,,,,,,,,,,,,,
,,,,,,,0.321875,0.009259259,1,0,0,calibration_square,0,14,14,16,1,0.33,0,03,001,2024-12-01_14h55.05.888,Attention_exp_legacy,2023.1.0,Win32,59.88023952,,,,,,,,,,,,,,,,,,,,,,,,,,,,,,,,,,,,,,,,,,,,
,,,,,,,-0.336458333,0.325925926,1,0,0,calibration_square,0,15,15,7,1,-0.33,0.33,03,001,2024-12-01_14h55.05.888,Attention_exp_legacy,2023.1.0,Win32,59.88023952,,,,,,,,,,,,,,,,,,,,,,,,,,,,,,,,,,,,,,,,,,,,
,,,,,,,-0.001041667,0.325925926,1,0,0,calibration_square,0,16,16,12,1,0,0.33,03,001,2024-12-01_14h55.05.888,Attention_exp_legacy,2023.1.0,Win32,59.88023952,,,,,,,,,,,,,,,,,,,,,,,,,,,,,,,,,,,,,,,,,,,,
,,,,,,,0.325,-0.331481481,1,0,0,calibration_square,0,17,17,15,1,0.33,-0.33,03,001,2024-12-01_14h55.05.888,Attention_exp_legacy,2023.1.0,Win32,59.88023952,,,,,,,,,,,,,,,,,,,,,,,,,,,,,,,,,,,,,,,,,,,,
,,,,,,,0.330208333,-0.67037037,1,0,0,calibration_square,0,18,18,14,1,0.33,-0.67,03,001,2024-12-01_14h55.05.888,Attention_exp_legacy,2023.1.0,Win32,59.88023952,,,,,,,,,,,,,,,,,,,,,,,,,,,,,,,,,,,,,,,,,,,,
,,,,,,,0.005208333,0.001851852,1,0,0,calibration_square,0,19,19,11,1,0,0,03,001,2024-12-01_14h55.05.888,Attention_exp_legacy,2023.1.0,Win32,59.88023952,,,,,,,,,,,,,,,,,,,,,,,,,,,,,,,,,,,,,,,,,,,,
,,,,,,,-0.664583333,-0.67037037,1,0,0,calibration_square,0,20,20,0,1,-0.67,-0.67,03,001,2024-12-01_14h55.05.888,Attention_exp_legacy,2023.1.0,Win32,59.88023952,,,,,,,,,,,,,,,,,,,,,,,,,,,,,,,,,,,,,,,,,,,,
,,,,,,,,,,,,,,,,,,,,03,001,2024-12-01_14h55.05.888,Attention_exp_legacy,2023.1.0,Win32,59.88023952,"[1920,1080]","[640,480]",[0.08020833333333334],[-0.5037037037037037],[1],[0],[0],[15.929599999964232],"[""StartButton""]",[0.06770833333333333],[0.4074074074074074],[1],[0],[0],[5.453800000011924],"[""Option1_label""]",Option1_label,1,6.4813,"[[0.016666666666666666,-0.5574074074074075],[0.016666666666666666,-0.5574074074074075],[0.016666666666666666,-0.5574074074074075],[0.016666666666666666,-0.5574074074074075],[0.016666666666666666,-0.5574074074074075],[0.016666666666666666,-0.5574074074074075],[0.016666666666666666,-0.5574074074074075],[0.016666666666666666,-0.5574074074074075],[0.016666666666666666,-0.5574074074074075],[0.016666666666666666,-0.5574074074074075],[0.016666666666666666,-0.5574074074074075],[0.016666666666666666,-0.5574074074074075],[0.016666666666666666,-0.5574074074074075],[0.016666666666666666,-0.5574074074074075],[0.016666666666666666,-0.5574074074074075],[0.016666666666666666,-0.5574074074074075],[0.016666666666666666,-0.5574074074074075],[0.016666666666666666,-0.5574074074074075],[0.016666666666666666,-0.5574074074074075],[0.016666666666666666,-0.5574074074074075],[0.016666666666666666,-0.5574074074074075],[0.016666666666666666,-0.5574074074074075],[0.016666666666666666,-0.5574074074074075],[0.016666666666666666,-0.5574074074074075],[0.016666666666666666,-0.5574074074074075],[0.016666666666666666,-0.5574074074074075],[0.016666666666666666,-0.5574074074074075],[0.016666666666666666,-0.5574074074074075],[0.016666666666666666,-0.5574074074074075],[0.016666666666666666,-0.5574074074074075],[0.016666666666666666,-0.5574074074074075],[0.016666666666666666,-0.5574074074074075],[0.016666666666666666,-0.5574074074074075],[0.016666666666666666,-0.5574074074074075],[0.016666666666666666,-0.5574074074074075],[0.016666666666666666,-0.5574074074074075],[0.016666666666666666,-0.5574074074074075],[0.016666666666666666,-0.5574074074074075],[0.016666666666666666,-0.5574074074074075],[0.016666666666666666,-0.5574074074074075],[0.016666666666666666,-0.5574074074074075],[0.016666666666666666,-0.5574074074074075],[0.016666666666666666,-0.5574074074074075],[0.016666666666666666,-0.5574074074074075],[0.016666666666666666,-0.5574074074074075],[0.016666666666666666,-0.5574074074074075],[0.016666666666666666,-0.5574074074074075],[0.016666666666666666,-0.5574074074074075],[0.016666666666666666,-0.5574074074074075],[0.016666666666666666,-0.5574074074074075],[0.016666666666666666,-0.5574074074074075],[0.016666666666666666,-0.5574074074074075],[0.016666666666666666,-0.5574074074074075],[0.016666666666666666,-0.5574074074074075],[0.016666666666666666,-0.5574074074074075],[0.016666666666666666,-0.5574074074074075],[0.016666666666666666,-0.5574074074074075],[0.016666666666666666,-0.5574074074074075],[0.016666666666666666,-0.5574074074074075],[0.016666666666666666,-0.5574074074074075],[0.016666666666666666,-0.5574074074074075],[0.016666666666666666,-0.5574074074074075],[0.016666666666666666,-0.5574074074074075],[0.016666666666666666,-0.5574074074074075],[0.016666666666666666,-0.5574074074074075],[0.016666666666666666,-0.5574074074074075],[0.016666666666666666,-0.5574074074074075],[0.016666666666666666,-0.5574074074074075],[0.016666666666666666,-0.5574074074074075],[0.016666666666666666,-0.5574074074074075],[0.016666666666666666,-0.5574074074074075],[0.016666666666666666,-0.5574074074074075],[0.016666666666666666,-0.5574074074074075],[0.016666666666666666,-0.5574074074074075],[0.016666666666666666,-0.5574074074074075],[0.016666666666666666,-0.5574074074074075],[0.016666666666666666,-0.5574074074074075],[0.016666666666666666,-0.5574074074074075],[0.016666666666666666,-0.5574074074074075],[0.016666666666666666,-0.5574074074074075],[0.016666666666666666,-0.5574074074074075],[0.016666666666666666,-0.5574074074074075],[0.016666666666666666,-0.5574074074074075],[0.016666666666666666,-0.5574074074074075],[0.016666666666666666,-0.5574074074074075],[0.016666666666666666,-0.5574074074074075],[0.016666666666666666,-0.5574074074074075],[0.016666666666666666,-0.5574074074074075],[0.016666666666666666,-0.5574074074074075],[0.016666666666666666,-0.5574074074074075],[0.016666666666666666,-0.5574074074074075],[0.016666666666666666,-0.5574074074074075],[0.016666666666666666,-0.5574074074074075],[0.016666666666666666,-0.5574074074074075],[0.016666666666666666,-0.5574074074074075],[0.016666666666666666,-0.5574074074074075],[0.016666666666666666,-0.5574074074074075],[0.016666666666666666,-0.5574074074074075],[0.016666666666666666,-0.5574074074074075],[0.016666666666666666,-0.5574074074074075],[0.016666666666666666,-0.5574074074074075],[0.016666666666666666,-0.5574074074074075],[0.016666666666666666,-0.5574074074074075],[0.016666666666666666,-0.5574074074074075],[0.016666666666666666,-0.5574074074074075],[0.016666666666666666,-0.5574074074074075],[0.016666666666666666,-0.5574074074074075],[0.016666666666666666,-0.5574074074074075],[0.016666666666666666,-0.5574074074074075],[0.016666666666666666,-0.5574074074074075],[0.016666666666666666,-0.5574074074074075],[0.016666666666666666,-0.5574074074074075],[0.016666666666666666,-0.5574074074074075],[0.016666666666666666,-0.5574074074074075],[0.016666666666666666,-0.5574074074074075],[0.016666666666666666,-0.5574074074074075],[0.016666666666666666,-0.5574074074074075],[0.016666666666666666,-0.5574074074074075],[0.016666666666666666,-0.5574074074074075],[0.016666666666666666,-0.5574074074074075],[0.016666666666666666,-0.5574074074074075],[0.016666666666666666,-0.5574074074074075],[0.016666666666666666,-0.5574074074074075],[0.016666666666666666,-0.5574074074074075],[0.016666666666666666,-0.5574074074074075],[0.016666666666666666,-0.5574074074074075],[0.016666666666666666,-0.5574074074074075],[0.016666666666666666,-0.5574074074074075],[0.016666666666666666,-0.5574074074074075],[0.016666666666666666,-0.5574074074074075],[0.016666666666666666,-0.5574074074074075],[0.016666666666666666,-0.5574074074074075],[0.016666666666666666,-0.5574074074074075],[0.016666666666666666,-0.5574074074074075],[0.016666666666666666,-0.5574074074074075],[0.016666666666666666,-0.5574074074074075],[0.016666666666666666,-0.5574074074074075],[0.016666666666666666,-0.5574074074074075],[0.016666666666666666,-0.5574074074074075],[0.016666666666666666,-0.5574074074074075],[0.016666666666666666,-0.5574074074074075],[0.016666666666666666,-0.5574074074074075],[0.016666666666666666,-0.5574074074074075],[0.016666666666666666,-0.5574074074074075],[0.016666666666666666,-0.5574074074074075],[0.016666666666666666,-0.5574074074074075],[0.016666666666666666,-0.5574074074074075],[0.016666666666666666,-0.5574074074074075],[0.016666666666666666,-0.5574074074074075],[0.016666666666666666,-0.5574074074074075],[0.016666666666666666,-0.5574074074074075],[0.016666666666666666,-0.5574074074074075],[0.016666666666666666,-0.5574074074074075],[0.016666666666666666,-0.5574074074074075],[0.016666666666666666,-0.5574074074074075],[0.016666666666666666,-0.5574074074074075],[0.016666666666666666,-0.5574074074074075],[0.016666666666666666,-0.5574074074074075],[0.016666666666666666,-0.5574074074074075],[0.016666666666666666,-0.5574074074074075],[0.016666666666666666,-0.5574074074074075],[0.016666666666666666,-0.5574074074074075],[0.016666666666666666,-0.5574074074074075],[0.016666666666666666,-0.5574074074074075],[0.016666666666666666,-0.5574074074074075],[0.016666666666666666,-0.5574074074074075],[0.016666666666666666,-0.5574074074074075],[0.016666666666666666,-0.5574074074074075],[0.016666666666666666,-0.5574074074074075],[0.016666666666666666,-0.5574074074074075],[0.016666666666666666,-0.5574074074074075],[0.016666666666666666,-0.5574074074074075],[0.016666666666666666,-0.5574074074074075],[0.016666666666666666,-0.5574074074074075],[0.016666666666666666,-0.5574074074074075],[0.016666666666666666,-0.5574074074074075],[0.016666666666666666,-0.5574074074074075],[0.016666666666666666,-0.5574074074074075],[0.016666666666666666,-0.5574074074074075],[0.016666666666666666,-0.5574074074074075],[0.016666666666666666,-0.5574074074074075],[0.016666666666666666,-0.5574074074074075],[0.016666666666666666,-0.5574074074074075],[0.016666666666666666,-0.5574074074074075],[0.016666666666666666,-0.5574074074074075],[0.016666666666666666,-0.5574074074074075],[0.016666666666666666,-0.5574074074074075],[0.016666666666666666,-0.5574074074074075],[0.016666666666666666,-0.5574074074074075],[0.016666666666666666,-0.5574074074074075],[0.016666666666666666,-0.5574074074074075],[0.016666666666666666,-0.5574074074074075],[0.016666666666666666,-0.5574074074074075],[0.016666666666666666,-0.5574074074074075],[0.016666666666666666,-0.5574074074074075],[0.016666666666666666,-0.5574074074074075],[0.016666666666666666,-0.5574074074074075],[0.016666666666666666,-0.5574074074074075],[0.016666666666666666,-0.5574074074074075],[0.016666666666666666,-0.5574074074074075],[0.016666666666666666,-0.5574074074074075],[0.016666666666666666,-0.5574074074074075],[0.016666666666666666,-0.5574074074074075],[0.016666666666666666,-0.5574074074074075],[0.016666666666666666,-0.5574074074074075],[0.016666666666666666,-0.5574074074074075],[0.016666666666666666,-0.5574074074074075],[0.016666666666666666,-0.5574074074074075],[0.016666666666666666,-0.5574074074074075],[0.016666666666666666,-0.5574074074074075],[0.016666666666666666,-0.5574074074074075],[0.016666666666666666,-0.5574074074074075],[0.016666666666666666,-0.5574074074074075],[0.016666666666666666,-0.5574074074074075],[0.016666666666666666,-0.5574074074074075],[0.016666666666666666,-0.5574074074074075],[0.016666666666666666,-0.5574074074074075],[0.016666666666666666,-0.5574074074074075],[0.016666666666666666,-0.5574074074074075],[0.016666666666666666,-0.5574074074074075],[0.016666666666666666,-0.5574074074074075],[0.016666666666666666,-0.5574074074074075],[0.016666666666666666,-0.5574074074074075],[0.016666666666666666,-0.5574074074074075],[0.016666666666666666,-0.5574074074074075],[0.016666666666666666,-0.5574074074074075],[0.016666666666666666,-0.5574074074074075],[0.016666666666666666,-0.5574074074074075],[0.016666666666666666,-0.5574074074074075],[0.016666666666666666,-0.5574074074074075],[0.016666666666666666,-0.5574074074074075],[0.016666666666666666,-0.5574074074074075],[0.016666666666666666,-0.5574074074074075],[0.016666666666666666,-0.5574074074074075],[0.016666666666666666,-0.5574074074074075],[0.016666666666666666,-0.5574074074074075],[0.016666666666666666,-0.5574074074074075],[0.016666666666666666,-0.5574074074074075],[0.016666666666666666,-0.5574074074074075],[0.016666666666666666,-0.5574074074074075],[0.016666666666666666,-0.5574074074074075],[0.016666666666666666,-0.5574074074074075],[0.016666666666666666,-0.5574074074074075],[0.016666666666666666,-0.5574074074074075],[0.016666666666666666,-0.5574074074074075],[0.016666666666666666,-0.5574074074074075],[0.016666666666666666,-0.5574074074074075],[0.016666666666666666,-0.5574074074074075],[0.016666666666666666,-0.5574074074074075],[0.016666666666666666,-0.5574074074074075],[0.016666666666666666,-0.5574074074074075],[0.016666666666666666,-0.5574074074074075],[0.016666666666666666,-0.5574074074074075],[0.016666666666666666,-0.5574074074074075],[0.016666666666666666,-0.5574074074074075],[0.016666666666666666,-0.5574074074074075],[0.016666666666666666,-0.5574074074074075],[0.016666666666666666,-0.5574074074074075],[0.016666666666666666,-0.5574074074074075],[0.016666666666666666,-0.5574074074074075],[0.016666666666666666,-0.5574074074074075],[0.016666666666666666,-0.5574074074074075],[0.016666666666666666,-0.5574074074074075],[0.016666666666666666,-0.5574074074074075],[0.016666666666666666,-0.5574074074074075],[0.016666666666666666,-0.5574074074074075],[0.016666666666666666,-0.5574074074074075],[0.016666666666666666,-0.5481481481481482],[0.016666666666666666,-0.5351851851851852],[0.016666666666666666,-0.49444444444444446],[0.016666666666666666,-0.4444444444444444],[0.01875,-0.40555555555555556],[0.021875,-0.37037037037037035],[0.023958333333333335,-0.3351851851851852],[0.026041666666666668,-0.29074074074074074],[0.034375,-0.18703703703703703],[0.036458333333333336,-0.1537037037037037],[0.0375,-0.10555555555555556],[0.0375,-0.07222222222222222],[0.03958333333333333,-0.024074074074074074],[0.03958333333333333,-0.009259259259259259],[0.03958333333333333,0.037037037037037035],[0.03958333333333333,0.06666666666666667],[0.03958333333333333,0.09259259259259259],[0.03958333333333333,0.11481481481481481],[0.03958333333333333,0.1425925925925926],[0.03958333333333333,0.1648148148148148],[0.03958333333333333,0.17962962962962964],[0.041666666666666664,0.19444444444444445],[0.041666666666666664,0.2111111111111111],[0.041666666666666664,0.22407407407407406],[0.041666666666666664,0.23333333333333334],[0.041666666666666664,0.2462962962962963],[0.04479166666666667,0.26481481481481484],[0.04583333333333333,0.2759259259259259],[0.04895833333333333,0.2851851851851852],[0.04895833333333333,0.29259259259259257],[0.05,0.3037037037037037],[0.052083333333333336,0.3111111111111111],[0.05416666666666667,0.32222222222222224],[0.05520833333333333,0.3314814814814815],[0.05625,0.3351851851851852],[0.057291666666666664,0.34444444444444444],[0.059375,0.3537037037037037],[0.06041666666666667,0.3611111111111111],[0.06145833333333333,0.37222222222222223],[0.06354166666666666,0.37962962962962965],[0.06354166666666666,0.3851851851851852],[0.06458333333333334,0.3888888888888889],[0.065625,0.3925925925925926],[0.06666666666666667,0.39814814814814814],[0.06666666666666667,0.40185185185185185],[0.06666666666666667,0.40185185185185185],[0.06666666666666667,0.40370370370370373],[0.06666666666666667,0.40370370370370373],[0.06666666666666667,0.40555555555555556],[0.06770833333333333,0.4074074074074074],[0.06770833333333333,0.4074074074074074],[0.06770833333333333,0.4074074074074074],[0.06770833333333333,0.4074074074074074],[0.06770833333333333,0.4074074074074074],[0.06770833333333333,0.4074074074074074],[0.06770833333333333,0.4074074074074074],[0.06770833333333333,0.4074074074074074],[0.06770833333333333,0.4074074074074074],[0.06770833333333333,0.4074074074074074],[0.06770833333333333,0.4074074074074074],[0.06770833333333333,0.4074074074074074],[0.06770833333333333,0.4074074074074074],[0.06770833333333333,0.4074074074074074],[0.06770833333333333,0.4074074074074074],[0.06770833333333333,0.4074074074074074],[0.06770833333333333,0.4074074074074074],[0.06770833333333333,0.4074074074074074],[0.06770833333333333,0.4074074074074074],[0.06770833333333333,0.4074074074074074],[0.06770833333333333,0.4074074074074074],[0.06770833333333333,0.4074074074074074],[0.06770833333333333,0.4074074074074074],[0.06770833333333333,0.4074074074074074],[0.06770833333333333,0.4074074074074074],[0.06770833333333333,0.4074074074074074],[0.06770833333333333,0.4074074074074074],[0.06770833333333333,0.4074074074074074],[0.06770833333333333,0.4074074074074074],[0.06770833333333333,0.4074074074074074],[0.06770833333333333,0.4074074074074074],[0.06770833333333333,0.4074074074074074],[0.06770833333333333,0.4074074074074074],[0.06770833333333333,0.4074074074074074],[0.06770833333333333,0.4074074074074074],[0.06770833333333333,0.4074074074074074],[0.06770833333333333,0.4074074074074074],[0.06770833333333333,0.4074074074074074],[0.06770833333333333,0.4074074074074074],[0.06770833333333333,0.4074074074074074],[0.06770833333333333,0.4074074074074074],[0.06770833333333333,0.4074074074074074],[0.06770833333333333,0.40555555555555556],[0.06770833333333333,0.4],[0.06770833333333333,0.39444444444444443],[0.06770833333333333,0.39444444444444443],[0.06770833333333333,0.3925925925925926],[0.06770833333333333,0.3907407407407407],[0.06770833333333333,0.3888888888888889],[0.06770833333333333,0.387037037037037],[0.06770833333333333,0.3851851851851852],[0.06770833333333333,0.38333333333333336],[0.06666666666666667,0.37777777777777777],[0.06666666666666667,0.37777777777777777],[0.06666666666666667,0.37592592592592594],[0.065625,0.37222222222222223],[0.065625,0.3685185185185185],[0.06458333333333334,0.362962962962963],[0.06354166666666666,0.3592592592592593],[0.06354166666666666,0.3574074074074074],[0.0625,0.3537037037037037],[0.0625,0.35],[0.0625,0.34814814814814815],[0.06041666666666667,0.34444444444444444],[0.06041666666666667,0.3425925925925926],[0.06041666666666667,0.3388888888888889],[0.06041666666666667,0.337037037037037],[0.059375,0.3351851851851852],[0.058333333333333334,0.3314814814814815],[0.058333333333333334,0.3296296296296296],[0.058333333333333334,0.3277777777777778],[0.057291666666666664,0.32407407407407407],[0.057291666666666664,0.32037037037037036]]","[[-0.12218749999999995,0.18277777777777787],[-0.12218749999999995,0.18277777777777787],[-0.13250000000000003,0.16944444444444445],[-0.13843749999999996,0.1735185185185186],[-0.13677083333333329,0.14629629629629629],[-0.13510416666666672,0.11907407407407399],[-0.12937500000000005,0.09388888888888898],[-0.11499999999999998,0.09740740740740746],[-0.10197916666666665,0.10444444444444441],[-0.09052083333333331,0.1088888888888888],[-0.08031250000000002,0.10555555555555556],[-0.08031250000000002,0.10555555555555556],[-0.07156250000000004,0.09833333333333337],[-0.059583333333333384,0.09092592592592597],[-0.051979166666666646,0.06611111111111119],[-0.04458333333333329,0.06740740740740736],[-0.04354166666666662,0.07240740740740745],[-0.060104166666666715,0.06777777777777783],[-0.11166666666666672,0.05259259259259255],[-0.1608333333333333,0.022777777777777692],[-0.21000000000000002,0.026111111111111154],[-0.2607291666666666,0.02962962962962963],[-0.3085416666666667,0.032407407407407406],[-0.3549999999999999,0.04055555555555551],[-0.40645833333333337,0.039074074074074115],[-0.45989583333333334,0.03333333333333333],[-0.45989583333333334,0.03333333333333333],[-0.4767708333333333,0.020740740740740823],[-0.4643749999999999,0.00722222222222218],[-0.41166666666666674,-0.03333333333333333],[-0.41166666666666674,-0.03333333333333333],[-0.36135416666666664,-0.05925925925925926],[-0.29927083333333326,-0.08907407407407411],[-0.2547916666666667,-0.11129629629629634],[-0.2547916666666667,-0.11129629629629634],[-0.2061458333333333,-0.1270370370370371],[-0.16187499999999996,-0.15351851851851847],[-0.11114583333333337,-0.16425925925925924],[-0.06479166666666672,-0.1764814814814815],[-0.05427083333333336,-0.19611111111111107],[-0.05541666666666671,-0.2051851851851852],[-0.06031249999999998,-0.202962962962963],[-0.06520833333333335,-0.2007407407407407],[-0.07906249999999998,-0.2212962962962963],[-0.08145833333333338,-0.2257407407407407],[-0.08635416666666665,-0.2361111111111111],[-0.03781249999999995,-0.2375925925925926],[0.012916666666666642,-0.25555555555555554],[0.06239583333333331,-0.24111111111111108],[0.1273958333333333,-0.2168518518518519],[0.1720833333333334,-0.2242592592592593],[0.1720833333333334,-0.2242592592592593],[0.21322916666666672,-0.24222222222222226],[0.2490624999999999,-0.23425925925925925],[0.28458333333333335,-0.23870370370370367],[0.2669791666666666,-0.2175925925925926],[0.25187499999999996,-0.1905555555555555],[0.16791666666666671,-0.1698148148148148],[0.16791666666666671,-0.1698148148148148],[0.08031249999999991,-0.14240740740740737],[0.08031249999999991,-0.14240740740740737],[-0.013854166666666619,-0.1557407407407408],[-0.11104166666666669,-0.14388888888888887],[-0.1875,-0.10944444444444448],[-0.26895833333333335,-0.07333333333333338],[-0.3451041666666666,-0.06314814814814819],[-0.4319791666666667,-0.032777777777777864],[-0.45677083333333335,-0.04407407407407399],[-0.47760416666666666,-0.023148148148148147],[-0.48385416666666664,0.012222222222222264],[-0.47739583333333335,0.04407407407407399],[-0.47739583333333335,0.04407407407407399],[-0.463125,0.08425925925925926],[-0.46416666666666667,0.09833333333333337],[-0.4622916666666666,0.11925925925925922],[-0.46208333333333335,0.14666666666666675],[-0.4613541666666666,0.19074074074074074],[-0.4491666666666667,0.23129629629629625],[-0.43697916666666664,0.2718518518518518],[-0.43687499999999996,0.28648148148148156],[-0.4414583333333333,0.2788888888888889],[-0.44166666666666665,0.28722222222222227],[-0.4418750000000001,0.29555555555555557],[-0.42916666666666664,0.31740740740740736],[-0.4205208333333334,0.3411111111111112],[-0.41375000000000006,0.3490740740740741],[-0.40750000000000003,0.34037037037037027],[-0.409375,0.34888888888888886],[-0.40906250000000005,0.36796296296296305],[-0.4055208333333333,0.330925925925926],[-0.39489583333333333,0.3085185185185186],[-0.39947916666666666,0.29259259259259257],[-0.4041666666666667,0.24740740740740744],[-0.4133333333333333,0.19037037037037027],[-0.4169791666666666,0.15777777777777785],[-0.41875,0.14092592592592595],[-0.4222916666666666,0.11703703703703712],[-0.4184375000000001,0.08462962962962971],[-0.41625,0.016851851851851896],[-0.4091666666666666,-0.0011111111111111532],[-0.40947916666666667,-0.01722222222222214],[-0.40947916666666667,-0.01722222222222214],[-0.41166666666666674,-0.0485185185185186],[-0.39416666666666667,-0.01185185185185181],[-0.39416666666666667,-0.01185185185185181],[-0.3766666666666667,0.024814814814814772],[-0.3646875,0.0257407407407407],[-0.3564583333333334,0.0011111111111111532],[-0.3564583333333334,0.0011111111111111532],[-0.35187499999999994,-0.0007407407407406986],[-0.3502083333333334,0.004629629629629629],[-0.34562499999999996,0.03129629629629625],[-0.34562499999999996,0.03129629629629625],[-0.34104166666666663,0.057962962962962876],[-0.33395833333333336,0.05481481481481486],[-0.33479166666666665,0.057962962962962876],[-0.34885416666666663,0.046481481481481526],[-0.36291666666666667,0.034999999999999955],[-0.37447916666666664,0.03351851851851856],[-0.37447916666666664,0.03351851851851856],[-0.38229166666666664,0.05759259259259263],[-0.3867708333333333,0.06870370370370374],[-0.3927083333333333,0.055740740740740785],[-0.4066666666666666,0.06185185185185181],[-0.4257291666666667,0.054074074074074156],[-0.44166666666666665,0.07037037037037037],[-0.4496875000000001,0.08037037037037033],[-0.45739583333333333,0.0698148148148149],[-0.46510416666666665,0.05925925925925926],[-0.48114583333333333,0.0787037037037037],[-0.4971875,0.09814814814814815],[-0.5042708333333333,0.10685185185185193],[-0.5042708333333333,0.10685185185185193],[-0.5029166666666667,0.13537037037037042],[-0.495,0.1449999999999999],[-0.47218750000000004,0.15259259259259256],[-0.4311458333333333,0.13648148148148156],[-0.409375,0.15500000000000008],[-0.38947916666666665,0.1712962962962963],[-0.3720833333333334,0.1977777777777777],[-0.346875,0.15462962962962962],[-0.3216666666666666,0.11148148148148157],[-0.2733333333333333,0.06351851851851843],[-0.2267708333333334,0.009629629629629714],[-0.17447916666666666,-0.05185185185185185],[-0.12697916666666664,-0.09222222222222225],[-0.11083333333333331,-0.10462962962962963],[-0.07541666666666665,-0.15166666666666662],[-0.04083333333333338,-0.19648148148148153],[-0.04083333333333338,-0.19648148148148153],[-0.0037500000000000237,-0.25148148148148153],[-0.0037500000000000237,-0.25148148148148153],[0.03333333333333333,-0.26851851851851855],[0.07677083333333339,-0.30333333333333334],[0.09604166666666672,-0.31500000000000006],[0.12604166666666666,-0.297037037037037],[0.15489583333333337,-0.26500000000000007],[0.1814583333333334,-0.2524074074074074],[0.2211458333333333,-0.24407407407407408],[0.2556250000000001,-0.24537037037037038],[0.3150000000000001,-0.2644444444444445],[0.35281250000000003,-0.24129629629629631],[0.4114583333333333,-0.2551851851851852],[0.44562499999999994,-0.23703703703703705],[0.48250000000000004,-0.24574074074074073],[0.48250000000000004,-0.24574074074074073],[0.5063541666666665,-0.28111111111111114],[0.515625,-0.27314814814814814],[0.5107291666666666,-0.23444444444444448],[0.5058333333333332,-0.19574074074074072],[0.5058333333333332,-0.19574074074074072],[0.5197916666666667,-0.15555555555555556],[0.5077083333333334,-0.11777777777777781],[0.5059375,-0.1081481481481481],[0.4820833333333333,-0.05814814814814811],[0.49343750000000003,-0.032037037037036954],[0.49197916666666663,0.017592592592592594],[0.4984375,0.05018518518518523],[0.4984375,0.05018518518518523],[0.5130208333333334,0.04314814814814806],[0.5130208333333334,0.04314814814814806],[0.5248958333333335,0.0242592592592593],[0.5079166666666666,-0.005185185185185101],[0.4625,-0.02166666666666675],[0.4109375,-0.01444444444444436],[0.3580208333333334,-0.023333333333333376],[0.3051041666666668,-0.03222222222222218],[0.2478125000000001,-0.040370370370370286],[0.20083333333333328,-0.04314814814814806],[0.1603125000000001,-0.029814814814814856],[0.10854166666666672,-0.06518518518518517],[0.0709374999999999,-0.1051851851851852],[0.05635416666666669,-0.0824074074074074],[0.05656249999999995,-0.06444444444444447],[0.05010416666666669,-0.03925925925925934],[0.06895833333333339,-0.021851851851851768],[0.07572916666666671,0.018518518518518517],[0.06979166666666667,0.06777777777777783],[0.0578125,0.10462962962962963],[0.06302083333333333,0.1301851851851851],[0.07937500000000004,0.19759259259259268],[0.0765625,0.277962962962963],[0.0765625,0.277962962962963],[0.0859375,0.3001851851851852],[0.0953125,0.318888888888889],[0.13239583333333324,0.3274074074074073],[0.13239583333333324,0.3274074074074073],[0.1631249999999999,0.3435185185185185],[0.22062499999999996,0.3303703703703703],[0.27614583333333326,0.3135185185185184],[0.3133333333333333,0.31814814814814807],[0.31843750000000004,0.3344444444444445],[0.32270833333333326,0.32814814814814824],[0.3640625,0.3338888888888888],[0.3640625,0.3338888888888888],[0.3832291666666668,0.3527777777777778],[0.3177083333333333,0.3624074074074075],[0.23479166666666676,0.3566666666666667],[0.16156249999999991,0.3574074074074074],[0.07364583333333338,0.36444444444444435],[-0.022291666666666644,0.3768518518518518],[-0.09291666666666672,0.35425925925925916],[-0.09291666666666672,0.35425925925925916],[-0.17000000000000004,0.34574074074074085],[-0.2607291666666666,0.3675925925925926],[-0.34249999999999997,0.3566666666666667],[-0.34249999999999997,0.3566666666666667],[-0.4109375,0.3416666666666667],[-0.4189583333333334,0.33000000000000007],[-0.4270833333333333,0.32407407407407407],[-0.4483333333333333,0.31962962962962965],[-0.4666666666666667,0.3212962962962963],[-0.475,0.3212962962962963],[-0.4859375,0.32407407407407407],[-0.4892708333333333,0.32444444444444454],[-0.4684375,0.3101851851851852],[-0.4814583333333333,0.30333333333333323],[-0.4897916666666667,0.26851851851851855],[-0.45875,0.2442592592592592],[-0.45875,0.2442592592592592],[-0.43072916666666666,0.2300000000000001],[-0.381875,0.18851851851851845],[-0.3325000000000001,0.12037037037037036],[-0.2805208333333333,0.059999999999999956],[-0.25281250000000005,0.003703703703703704],[-0.19979166666666662,-0.07018518518518514],[-0.1564583333333334,-0.13722222222222227],[-0.11302083333333333,-0.19388888888888886],[-0.07177083333333331,-0.2257407407407407],[-0.05427083333333336,-0.2596296296296296],[-0.03156249999999995,-0.3031481481481481],[-0.03156249999999995,-0.3031481481481481],[-0.034375,-0.33111111111111113],[-0.03864583333333336,-0.3403703703703704],[-0.04552083333333338,-0.3574074074074074],[-0.04552083333333338,-0.3574074074074074],[-0.02385416666666664,-0.3633333333333333],[-0.041458333333333285,-0.35],[-0.041562499999999974,-0.35333333333333333],[-0.041562499999999974,-0.35333333333333333],[-0.03270833333333331,-0.3381481481481482],[-0.03885416666666662,-0.32814814814814813],[-0.016250000000000025,-0.3042592592592593],[0.01604166666666664,-0.27166666666666667],[0.041770833333333354,-0.227962962962963],[0.0640625,-0.19296296296296295],[0.08541666666666667,-0.15907407407407403],[0.08541666666666667,-0.15907407407407403],[0.08499999999999991,-0.06629629629629631],[0.10572916666666667,-0.040370370370370286],[0.10343749999999995,-0.006666666666666709],[0.10343749999999995,-0.006666666666666709],[0.09708333333333338,0.05185185185185185],[0.1021874999999999,0.11259259259259251],[0.08687500000000009,0.15425925925925918],[0.10479166666666657,0.1911111111111112],[0.10479166666666657,0.1911111111111112],[0.0912499999999999,0.2035185185185185],[0.11593749999999996,0.25833333333333336],[0.14249999999999996,0.2772222222222223],[0.14249999999999996,0.2772222222222223],[0.17520833333333338,0.27981481481481485],[0.19979166666666662,0.337037037037037],[0.2462500000000001,0.4225925925925927],[0.27666666666666656,0.3881481481481482],[0.29489583333333325,0.33351851851851855],[0.3263541666666666,0.28722222222222227],[0.3263541666666666,0.28722222222222227],[0.26843750000000005,0.23148148148148148],[0.2834374999999999,0.1794444444444444],[0.24364583333333342,0.09296296296296305],[0.24364583333333342,0.09296296296296305],[0.20635416666666656,0.06018518518518518],[0.20541666666666672,0.01444444444444436],[0.18218750000000009,-0.04796296296296292],[0.1662499999999999,-0.10092592592592593],[0.16833333333333325,-0.08722222222222227],[0.16833333333333325,-0.08722222222222227],[0.15572916666666667,-0.062407407407407384],[0.12156250000000005,-0.05740740740740741],[0.13145833333333337,-0.041666666666666664],[0.13145833333333337,-0.041666666666666664],[0.11104166666666657,-0.02814814814814823],[0.10791666666666658,-0.008888888888888804],[0.10135416666666662,-0.006296296296296254],[0.08468749999999996,-0.04277777777777782],[0.09208333333333343,-0.035740740740740656],[0.07177083333333342,-0.01703703703703712],[0.07177083333333342,-0.01703703703703712],[0.03979166666666671,-0.0794444444444444],[0.02520833333333338,-0.1366666666666667],[0.019270833333333334,-0.17629629629629628],[0.019270833333333334,-0.17629629629629628],[0.035208333333333286,-0.20907407407407402],[0.043124999999999976,-0.24648148148148152],[0.051770833333333384,-0.28703703703703703],[0.051770833333333384,-0.28703703703703703],[0.0546875,-0.3068518518518518],[0.030416666666666713,-0.30333333333333334],[0.009062500000000048,-0.32999999999999996],[-0.008229166666666643,-0.3972222222222222],[-0.0067708333333333336,-0.37],[0.013854166666666619,-0.3485185185185185],[0.013854166666666619,-0.34629629629629627],[0.013854166666666619,-0.34629629629629627],[-0.008958333333333356,-0.35407407407407404],[-0.0265625,-0.3394444444444445],[-0.018124999999999978,-0.3],[-0.003958333333333286,-0.28129629629629627],[0.007604166666666619,-0.33129629629629626],[0.0034374999999999527,-0.3398148148148148],[-0.0007291666666667141,-0.3483333333333334],[0.01270833333333338,-0.39277777777777784],[0.02000000000000005,-0.42462962962962963],[0.027604166666666666,-0.43851851851851853],[0.027604166666666666,-0.43851851851851853],[0.04572916666666664,-0.4335185185185186],[0.06812500000000009,-0.4225925925925926],[0.08572916666666662,-0.44592592592592595],[0.09229166666666658,-0.45999999999999996],[0.10791666666666658,-0.41814814814814816],[0.13489583333333333,-0.41500000000000004],[0.1618750000000001,-0.4118518518518518],[0.15770833333333342,-0.3955555555555556],[0.15114583333333323,-0.38499999999999995],[0.15114583333333323,-0.38499999999999995],[0.1564583333333334,-0.37333333333333335],[0.1603125000000001,-0.3742592592592593],[0.15989583333333332,-0.3811111111111111],[0.14416666666666675,-0.3653703703703704],[0.13958333333333334,-0.37222222222222223],[0.13958333333333334,-0.37222222222222223],[0.1482291666666666,-0.3653703703703704],[0.1482291666666666,-0.3653703703703704],[0.14395833333333338,-0.3979629629629629],[0.1476041666666667,-0.4203703703703704],[0.1476041666666667,-0.3987037037037037],[0.15374999999999991,-0.3824074074074074],[0.15374999999999991,-0.3824074074074074],[0.16531250000000006,-0.38129629629629624],[0.16531250000000006,-0.38129629629629624],[0.15833333333333333,-0.3998148148148148],[0.15833333333333333,-0.3998148148148148],[0.13729166666666662,-0.4020370370370371],[0.1252083333333334,-0.4083333333333333],[0.11260416666666657,-0.40185185185185185],[0.11260416666666657,-0.40185185185185185],[0.07885416666666671,-0.43925925925925924],[0.06843750000000005,-0.42185185185185187],[0.06312500000000003,-0.42592592592592593],[0.058958333333333356,-0.465],[0.057083333333333285,-0.48222222222222216],[0.046875,-0.4842592592592593],[0.04593750000000003,-0.46592592592592597],[0.04593750000000003,-0.46592592592592597],[0.06375000000000004,-0.46518518518518515],[0.06927083333333334,-0.4872222222222223],[0.08333333333333333,-0.5142592592592592],[0.09697916666666657,-0.48259259259259263],[0.10020833333333339,-0.4662962962962963],[0.10260416666666666,-0.46814814814814815],[0.09958333333333323,-0.44611111111111107],[0.08125,-0.4403703703703704],[0.07447916666666667,-0.4035185185185185],[0.07927083333333323,-0.3942592592592592],[0.08552083333333324,-0.3864814814814815],[0.08552083333333324,-0.3864814814814815],[0.08083333333333324,-0.3394444444444445],[0.06312500000000003,-0.24444444444444444]]","[[-0.12218749999999995,0.18277777777777787,0.0001999999880837322],[-0.12218749999999995,0.18277777777777787,0.03410000002384095],[-0.13250000000000003,0.16944444444444445,0.04460000002383424],[-0.13843749999999996,0.1735185185185186,0.061300000011925704],[-0.13677083333333329,0.14629629629629629,0.07800000000000296],[-0.13510416666666672,0.11907407407407399,0.09749999999999659],[-0.12937500000000005,0.09388888888888898,0.11439999997615757],[-0.11499999999999998,0.09740740740740746,0.13069999998808157],[-0.10197916666666665,0.10444444444444441,0.14730000001192423],[-0.09052083333333331,0.1088888888888888,0.16630000001191547],[-0.08031250000000002,0.10555555555555556,0.18260000002383947],[-0.08031250000000002,0.10555555555555556,0.19469999998807452],[-0.07156250000000004,0.09833333333333337,0.21130000001191718],[-0.059583333333333384,0.09092592592592597,0.22889999997615007],[-0.051979166666666646,0.06611111111111119,0.24780000001192093],[-0.04458333333333329,0.06740740740740736,0.2628999999761561],[-0.04354166666666662,0.07240740740740745,0.2796000000238337],[-0.060104166666666715,0.06777777777777783,0.29580000001192275],[-0.11166666666666672,0.05259259259259255,0.315399999976151],[-0.1608333333333333,0.022777777777777692,0.3313000000119217],[-0.21000000000000002,0.026111111111111154,0.34719999998807793],[-0.2607291666666666,0.02962962962962963,0.36299999999999955],[-0.3085416666666667,0.032407407407407406,0.38169999998807214],[-0.3549999999999999,0.04055555555555551,0.39799999999999613],[-0.40645833333333337,0.039074074074074115,0.414199999988071],[-0.45989583333333334,0.03333333333333333,0.4283000000119159],[-0.45989583333333334,0.03333333333333333,0.4446999999880745],[-0.4767708333333333,0.020740740740740823,0.4613000000119172],[-0.4643749999999999,0.00722222222222218,0.47810000002384356],[-0.41166666666666674,-0.03333333333333333,0.49619999998807884],[-0.41166666666666674,-0.03333333333333333,0.5113000000119143],[-0.36135416666666664,-0.05925925925925926,0.5279999999999916],[-0.29927083333333326,-0.08907407407407411,0.5451000000238366],[-0.2547916666666667,-0.11129629629629634,0.5613000000119257],[-0.2547916666666667,-0.11129629629629634,0.578000000000003],[-0.2061458333333333,-0.1270370370370371,0.5946999999880802],[-0.16187499999999996,-0.15351851851851847,0.6113000000119229],[-0.11114583333333337,-0.16425925925925924,0.6280000000000001],[-0.06479166666666672,-0.1764814814814815,0.6446000000238428],[-0.05427083333333336,-0.19611111111111107,0.6615000000000038],[-0.05541666666666671,-0.2051851851851852,0.6779999999999973],[-0.06031249999999998,-0.202962962962963,0.6948000000119237],[-0.06520833333333335,-0.2007407407407407,0.7128999999761589],[-0.07906249999999998,-0.2212962962962963,0.7311999999880783],[-0.08145833333333338,-0.2257407407407407,0.7466999999880812],[-0.08635416666666665,-0.2361111111111111,0.7631999999880748],[-0.03781249999999995,-0.2375925925925926,0.7809999999999917],[0.012916666666666642,-0.25555555555555554,0.7978999999761527],[0.06239583333333331,-0.24111111111111108,0.8138000000119234],[0.1273958333333333,-0.2168518518518519,0.8281000000238379],[0.1720833333333334,-0.2242592592592593,0.850199999988078],[0.1720833333333334,-0.2242592592592593,0.8613000000119229],[0.21322916666666672,-0.24222222222222226,0.878100000023835],[0.2490624999999999,-0.23425925925925925,0.8946999999880774],[0.28458333333333335,-0.23870370370370367,0.9128999999761618],[0.2669791666666666,-0.2175925925925926,0.9281000000238464],[0.25187499999999996,-0.1905555555555555,0.9451000000238423],[0.16791666666666671,-0.1698148148148148,0.9613000000119172],[0.16791666666666671,-0.1698148148148148,0.9781999999880782],[0.08031249999999991,-0.14240740740740737,0.9946999999880717],[0.08031249999999991,-0.14240740740740737,1.0113999999761631],[-0.013854166666666619,-0.1557407407407408,1.0279999999999916],[-0.11104166666666669,-0.14388888888888887,1.044699999988083],[-0.1875,-0.10944444444444448,1.0658000000119188],[-0.26895833333333335,-0.07333333333333338,1.0821999999880774],[-0.3451041666666666,-0.06314814814814819,1.0986999999880709],[-0.4319791666666667,-0.032777777777777864,1.114300000011923],[-0.45677083333333335,-0.04407407407407399,1.130300000011914],[-0.47760416666666666,-0.023148148148148147,1.144999999999996],[-0.48385416666666664,0.012222222222222264,1.16130000001192],[-0.47739583333333335,0.04407407407407399,1.1778999999761623],[-0.47739583333333335,0.04407407407407399,1.1946999999880745],[-0.463125,0.08425925925925926,1.2113000000119172],[-0.46416666666666667,0.09833333333333337,1.2279999999999944],[-0.4622916666666666,0.11925925925925922,1.244600000023837],[-0.46208333333333335,0.14666666666666675,1.261600000023833],[-0.4613541666666666,0.19074074074074074,1.2805000000000035],[-0.4491666666666667,0.23129629629629625,1.294800000011918],[-0.43697916666666664,0.2718518518518518,1.3113000000119257],[-0.43687499999999996,0.28648148148148156,1.332499999999996],[-0.4414583333333333,0.2788888888888889,1.348100000023834],[-0.44166666666666665,0.28722222222222227,1.3638000000119206],[-0.4418750000000001,0.29555555555555557,1.3793999999761581],[-0.42916666666666664,0.31740740740740736,1.3981000000238453],[-0.4205208333333334,0.3411111111111112,1.4146000000238388],[-0.41375000000000006,0.3490740740740741,1.4295000000000044],[-0.40750000000000003,0.34037037037037027,1.4448999999761583],[-0.409375,0.34888888888888886,1.462300000011922],[-0.40906250000000005,0.36796296296296305,1.4803999999761572],[-0.4055208333333333,0.330925925925926,1.4981999999880742],[-0.39489583333333333,0.3085185185185186,1.514600000023833],[-0.39947916666666666,0.29259259259259257,1.5309999999999917],[-0.4041666666666667,0.24740740740740744,1.5473000000119157],[-0.4133333333333333,0.19037037037037027,1.5636999999880743],[-0.4169791666666666,0.15777777777777785,1.579600000023845],[-0.41875,0.14092592592592595,1.5983000000119176],[-0.4222916666666666,0.11703703703703712,1.6156000000238464],[-0.4184375000000001,0.08462962962962971,1.6313000000119189],[-0.41625,0.016851851851851896,1.6463000000119195],[-0.4091666666666666,-0.0011111111111111532,1.6651999999880758],[-0.40947916666666667,-0.01722222222222214,1.6825000000000045],[-0.40947916666666667,-0.01722222222222214,1.6949999999999932],[-0.41166666666666674,-0.0485185185185186,1.7141999999880824],[-0.39416666666666667,-0.01185185185185181,1.734499999999997],[-0.39416666666666667,-0.01185185185185181,1.744600000023837],[-0.3766666666666667,0.024814814814814772,1.7613000000119143],[-0.3646875,0.0257407407407407,1.778399999976159],[-0.3564583333333334,0.0011111111111111532,1.7946000000238342],[-0.3564583333333334,0.0011111111111111532,1.8113000000119257],[-0.35187499999999994,-0.0007407407407406986,1.828000000000003],[-0.3502083333333334,0.004629629629629629,1.8448000000119151],[-0.34562499999999996,0.03129629629629625,1.8613000000119229],[-0.34562499999999996,0.03129629629629625,1.877899999976151],[-0.34104166666666663,0.057962962962962876,1.8946000000238428],[-0.33395833333333336,0.05481481481481486,1.91130000001192],[-0.33479166666666665,0.057962962962962876,1.9281000000238464],[-0.34885416666666663,0.046481481481481526,1.94460000002384],[-0.36291666666666667,0.034999999999999955,1.9613999999761518],[-0.37447916666666664,0.03351851851851856,1.9813000000119132],[-0.37447916666666664,0.03351851851851856,1.9948000000119208],[-0.38229166666666664,0.05759259259259263,2.011399999976163],[-0.3867708333333333,0.06870370370370374,2.0288999999761614],[-0.3927083333333333,0.055740740740740785,2.0446000000238342],[-0.4066666666666666,0.06185185185185181,2.0613000000119257],[-0.4257291666666667,0.054074074074074156,2.077899999976154],[-0.44166666666666665,0.07037037037037037,2.0946000000238456],[-0.4496875000000001,0.08037037037037033,2.1113999999761575],[-0.45739583333333333,0.0698148148148149,2.127899999976151],[-0.46510416666666665,0.05925925925925926,2.1484999999999985],[-0.48114583333333333,0.0787037037037037,2.162899999976162],[-0.4971875,0.09814814814814815,2.1779999999999973],[-0.5042708333333333,0.10685185185185193,2.19460000002384],[-0.5042708333333333,0.10685185185185193,2.211300000011917],[-0.5029166666666667,0.13537037037037042,2.2278999999761595],[-0.495,0.1449999999999999,2.244800000011921],[-0.47218750000000004,0.15259259259259256,2.2613000000119143],[-0.4311458333333333,0.13648148148148156,2.2779999999999916],[-0.409375,0.15500000000000008,2.294699999988083],[-0.38947916666666665,0.1712962962962963,2.3111999999880766],[-0.3720833333333334,0.1977777777777777,2.328000000000003],[-0.346875,0.15462962962962962,2.345100000023834],[-0.3216666666666666,0.11148148148148157,2.361300000011923],[-0.2733333333333333,0.06351851851851843,2.378],[-0.2267708333333334,0.009629629629629714,2.3946000000238428],[-0.17447916666666666,-0.05185185185185185,2.4113999999761546],[-0.12697916666666664,-0.09222222222222225,2.4286000000238346],[-0.11083333333333331,-0.10462962962962963,2.4446999999880745],[-0.07541666666666665,-0.15166666666666662,2.4613999999761518],[-0.04083333333333338,-0.19648148148148153,2.4816999999880807],[-0.04083333333333338,-0.19648148148148153,2.4946999999880717],[-0.0037500000000000237,-0.25148148148148153,2.5113000000119143],[-0.0037500000000000237,-0.25148148148148153,2.5279999999999916],[0.03333333333333333,-0.26851851851851855,2.544699999988083],[0.07677083333333339,-0.30333333333333334,2.5614999999999952],[0.09604166666666672,-0.31500000000000006,2.577899999976154],[0.12604166666666666,-0.297037037037037,2.5946000000238456],[0.15489583333333337,-0.26500000000000007,2.611300000011923],[0.1814583333333334,-0.2524074074074074,2.627899999976151],[0.2211458333333333,-0.24407407407407408,2.6446999999880774],[0.2556250000000001,-0.24537037037037038,2.66130000001192],[0.3150000000000001,-0.2644444444444445,2.6779999999999973],[0.35281250000000003,-0.24129629629629631,2.69460000002384],[0.4114583333333333,-0.2551851851851852,2.711300000011917],[0.44562499999999994,-0.23703703703703705,2.7279999999999944],[0.48250000000000004,-0.24574074074074073,2.744600000023837],[0.48250000000000004,-0.24574074074074073,2.7611999999880794],[0.5063541666666665,-0.28111111111111114,2.7779999999999916],[0.515625,-0.27314814814814814,2.7946000000238342],[0.5107291666666666,-0.23444444444444448,2.8113000000119257],[0.5058333333333332,-0.19574074074074072,2.831000000000003],[0.5058333333333332,-0.19574074074074072,2.8446000000238456],[0.5197916666666667,-0.15555555555555556,2.861300000011923],[0.5077083333333334,-0.11777777777777781,2.877899999976151],[0.5059375,-0.1081481481481481,2.8946000000238428],[0.4820833333333333,-0.05814814814814811,2.911199999988071],[0.49343750000000003,-0.032037037037036954,2.9278999999761623],[0.49197916666666663,0.017592592592592594,2.94460000002384],[0.4984375,0.05018518518518523,2.966100000023843],[0.4984375,0.05018518518518523,2.9779999999999944],[0.5130208333333334,0.04314814814814806,2.9946999999880717],[0.5130208333333334,0.04314814814814806,3.0113000000119143],[0.5248958333333335,0.0242592592592593,3.0278999999761567],[0.5079166666666666,-0.005185185185185101,3.0446000000238342],[0.4625,-0.02166666666666675,3.0611999999880766],[0.4109375,-0.01444444444444436,3.078000000000003],[0.3580208333333334,-0.023333333333333376,3.0948999999761497],[0.3051041666666668,-0.03222222222222218,3.1111999999880737],[0.2478125000000001,-0.040370370370370286,3.127899999976151],[0.20083333333333328,-0.04314814814814806,3.1444999999999936],[0.1603125000000001,-0.029814814814814856,3.1615000000000038],[0.10854166666666672,-0.06518518518518517,3.1788000000119183],[0.0709374999999999,-0.1051851851851852,3.1948999999761583],[0.05635416666666669,-0.0824074074074074,3.211300000011917],[0.05656249999999995,-0.06444444444444447,3.22889999997615],[0.05010416666666669,-0.03925925925925934,3.247],[0.06895833333333339,-0.021851851851851768,3.2611999999880794],[0.07572916666666671,0.018518518518518517,3.2778999999761567],[0.06979166666666667,0.06777777777777783,3.2973000000119157],[0.0578125,0.10462962962962963,3.3135000000000048],[0.06302083333333333,0.1301851851851851,3.328699999988075],[0.07937500000000004,0.19759259259259268,3.3446000000238456],[0.0765625,0.277962962962963,3.3611999999880737],[0.0765625,0.277962962962963,3.377899999976151],[0.0859375,0.3001851851851852,3.3946000000238428],[0.0953125,0.318888888888889,3.411199999988071],[0.13239583333333324,0.3274074074074073,3.429000000000002],[0.13239583333333324,0.3274074074074073,3.44460000002384],[0.1631249999999999,0.3435185185185185,3.461300000011917],[0.22062499999999996,0.3303703703703703,3.4778999999761595],[0.27614583333333326,0.3135185185185184,3.4968999999761508],[0.3133333333333333,0.31814814814814807,3.515500000000003],[0.31843750000000004,0.3344444444444445,3.5316000000238432],[0.32270833333333326,0.32814814814814824,3.5471999999880808],[0.3640625,0.3338888888888888,3.5625],[0.3640625,0.3338888888888888,3.578000000000003],[0.3832291666666668,0.3527777777777778,3.5946000000238456],[0.3177083333333333,0.3624074074074075,3.6116000000238415],[0.23479166666666676,0.3566666666666667,3.627899999976151],[0.16156249999999991,0.3574074074074074,3.6486999999880823],[0.07364583333333338,0.36444444444444435,3.6638999999761523],[-0.022291666666666644,0.3768518518518518,3.6793000000119207],[-0.09291666666666672,0.35425925925925916,3.695300000011926],[-0.09291666666666672,0.35425925925925916,3.7111999999880823],[-0.17000000000000004,0.34574074074074085,3.7278999999761595],[-0.2607291666666666,0.3675925925925926,3.7448999999761554],[-0.34249999999999997,0.3566666666666667,3.7618000000119167],[-0.34249999999999997,0.3566666666666667,3.7779999999999916],[-0.4109375,0.3416666666666667,3.7946000000238342],[-0.4189583333333334,0.33000000000000007,3.8121000000238467],[-0.4270833333333333,0.32407407407407407,3.827899999976154],[-0.4483333333333333,0.31962962962962965,3.8473999999761617],[-0.4666666666666667,0.3212962962962963,3.8626000000238463],[-0.475,0.3212962962962963,3.878],[-0.4859375,0.32407407407407407,3.8946000000238428],[-0.4892708333333333,0.32444444444444454,3.912300000011925],[-0.4684375,0.3101851851851852,3.9296000000238394],[-0.4814583333333333,0.30333333333333323,3.9448000000119237],[-0.4897916666666667,0.26851851851851855,3.961300000011917],[-0.45875,0.2442592592592592,3.9823999999761526],[-0.45875,0.2442592592592592,3.994600000023837],[-0.43072916666666666,0.2300000000000001,4.011300000011914],[-0.381875,0.18851851851851845,4.0283000000119245],[-0.3325000000000001,0.12037037037037036,4.044600000023834],[-0.2805208333333333,0.059999999999999956,4.061199999988077],[-0.25281250000000005,0.003703703703703704,4.077899999976154],[-0.19979166666666662,-0.07018518518518514,4.094999999999999],[-0.1564583333333334,-0.13722222222222227,4.111699999988076],[-0.11302083333333333,-0.19388888888888886,4.127899999976151],[-0.07177083333333331,-0.2257407407407407,4.144600000023843],[-0.05427083333333336,-0.2596296296296296,4.161199999988071],[-0.03156249999999995,-0.3031481481481481,4.177899999976162],[-0.03156249999999995,-0.3031481481481481,4.19460000002384],[-0.034375,-0.33111111111111113,4.211199999988082],[-0.03864583333333336,-0.3403703703703704,4.227999999999994],[-0.04552083333333338,-0.3574074074074074,4.244600000023837],[-0.04552083333333338,-0.3574074074074074,4.261300000011914],[-0.02385416666666664,-0.3633333333333333,4.277999999999992],[-0.041458333333333285,-0.35,4.294600000023834],[-0.041562499999999974,-0.35333333333333333,4.311199999988077],[-0.041562499999999974,-0.35333333333333333,4.328000000000003],[-0.03270833333333331,-0.3381481481481482,4.344600000023846],[-0.03885416666666662,-0.32814814814814813,4.3613999999761575],[-0.016250000000000025,-0.3042592592592593,4.377899999976151],[0.01604166666666664,-0.27166666666666667,4.39930000001192],[0.041770833333333354,-0.227962962962963,4.41430000001192],[0.0640625,-0.19296296296296295,4.43039999997616],[0.08541666666666667,-0.15907407407407403,4.445999999999998],[0.08541666666666667,-0.15907407407407403,4.465999999999994],[0.08499999999999991,-0.06629629629629631,4.478199999988078],[0.10572916666666667,-0.040370370370370286,4.495499999999993],[0.10343749999999995,-0.006666666666666709,4.514899999976151],[0.10343749999999995,-0.006666666666666709,4.527999999999992],[0.09708333333333338,0.05185185185185185,4.544699999988083],[0.1021874999999999,0.11259259259259251,4.564199999988077],[0.08687500000000009,0.15425925925925918,4.58069999998807],[0.10479166666666657,0.1911111111111112,4.599399999976157],[0.10479166666666657,0.1911111111111112,4.615600000023846],[0.0912499999999999,0.2035185185185185,4.628100000023835],[0.11593749999999996,0.25833333333333336,4.644699999988077],[0.14249999999999996,0.2772222222222223,4.66639999997615],[0.14249999999999996,0.2772222222222223,4.677999999999997],[0.17520833333333338,0.27981481481481485,4.694899999976158],[0.19979166666666662,0.337037037037037,4.711399999976152],[0.2462500000000001,0.4225925925925927,4.732699999988071],[0.27666666666666656,0.3881481481481482,4.749199999988079],[0.29489583333333325,0.33351851851851855,4.7641999999880795],[0.3263541666666666,0.28722222222222227,4.786100000023836],[0.3263541666666666,0.28722222222222227,4.795199999988071],[0.26843750000000005,0.23148148148148148,4.811499999999995],[0.2834374999999999,0.1794444444444444,4.828100000023838],[0.24364583333333342,0.09296296296296305,4.848199999988083],[0.24364583333333342,0.09296296296296305,4.861499999999992],[0.20635416666666656,0.06018518518518518,4.878199999988084],[0.20541666666666672,0.01444444444444436,4.8984999999999985],[0.18218750000000009,-0.04796296296296292,4.913300000011915],[0.1662499999999999,-0.10092592592592593,4.931600000023835],[0.16833333333333325,-0.08722222222222227,4.9518000000119144],[0.16833333333333325,-0.08722222222222227,4.961300000011917],[0.15572916666666667,-0.062407407407407384,4.978199999988078],[0.12156250000000005,-0.05740740740740741,4.996699999988081],[0.13145833333333337,-0.041666666666666664,5.019300000011924],[0.13145833333333337,-0.041666666666666664,5.028199999988075],[0.11104166666666657,-0.02814814814814823,5.044699999988083],[0.10791666666666658,-0.008888888888888804,5.06139999997616],[0.10135416666666662,-0.006296296296296254,5.081199999988073],[0.08468749999999996,-0.04277777777777782,5.099300000011922],[0.09208333333333343,-0.035740740740740656,5.114999999999995],[0.07177083333333342,-0.01703703703703712,5.135300000011924],[0.07177083333333342,-0.01703703703703712,5.144699999988077],[0.03979166666666671,-0.0794444444444444,5.161399999976155],[0.02520833333333338,-0.1366666666666667,5.178100000023846],[0.019270833333333334,-0.17629629629629628,5.199899999976154],[0.019270833333333334,-0.17629629629629628,5.211199999988082],[0.035208333333333286,-0.20907407407407402,5.228100000023844],[0.043124999999999976,-0.24648148148148152,5.244600000023837],[0.051770833333333384,-0.28703703703703703,5.264600000023833],[0.051770833333333384,-0.28703703703703703,5.278100000023841],[0.0546875,-0.3068518518518518,5.294600000023834],[0.030416666666666713,-0.30333333333333334,5.31139999997616],[0.009062500000000048,-0.32999999999999996,5.327800000011919],[-0.008229166666666643,-0.3972222222222222,5.34880000001192],[-0.0067708333333333336,-0.37,5.365199999988079],[0.013854166666666619,-0.3485185185185185,5.381300000011919],[0.013854166666666619,-0.34629629629629627,5.399399999976154],[0.013854166666666619,-0.34629629629629627,5.411800000011922],[-0.008958333333333356,-0.35407407407407404,5.427899999976162],[-0.0265625,-0.3394444444444445,5.444800000011924],[-0.018124999999999978,-0.3,5.4624999999999915],[-0.003958333333333286,-0.28129629629629627,5.480699999988076],[0.007604166666666619,-0.33129629629629626,5.499399999976163],[0.0034374999999999527,-0.3398148148148148,5.515500000000003],[-0.0007291666666667141,-0.3483333333333334,5.531199999988075],[0.01270833333333338,-0.39277777777777784,5.548600000023839],[0.02000000000000005,-0.42462962962962963,5.565100000023847],[0.027604166666666666,-0.43851851851851853,5.587199999988073],[0.027604166666666666,-0.43851851851851853,5.594600000023846],[0.04572916666666664,-0.4335185185185186,5.611199999988074],[0.06812500000000009,-0.4225925925925926,5.629399999976158],[0.08572916666666662,-0.44592592592592595,5.644499999999994],[0.09229166666666658,-0.45999999999999996,5.66130000001192],[0.10791666666666658,-0.41814814814814816,5.680999999999997],[0.13489583333333333,-0.41500000000000004,5.69760000002384],[0.1618750000000001,-0.4118518518518518,5.712600000023841],[0.15770833333333342,-0.3955555555555556,5.728300000011913],[0.15114583333333323,-0.38499999999999995,5.75],[0.15114583333333323,-0.38499999999999995,5.761199999988079],[0.1564583333333334,-0.37333333333333335,5.777899999976157],[0.1603125000000001,-0.3742592592592593,5.798999999999992],[0.15989583333333332,-0.3811111111111111,5.816199999988072],[0.14416666666666675,-0.3653703703703704,5.831699999988075],[0.13958333333333334,-0.37222222222222223,5.846999999999994],[0.13958333333333334,-0.37222222222222223,5.861199999988074],[0.1482291666666666,-0.3653703703703704,5.877899999976151],[0.1482291666666666,-0.3653703703703704,5.894600000023843],[0.14395833333333338,-0.3979629629629629,5.911199999988071],[0.1476041666666667,-0.4203703703703704,5.927899999976162],[0.1476041666666667,-0.3987037037037037,5.944500000000005],[0.15374999999999991,-0.3824074074074074,5.967100000023834],[0.15374999999999991,-0.3824074074074074,5.987100000023844],[0.16531250000000006,-0.38129629629629624,5.9951000000238395],[0.16531250000000006,-0.38129629629629624,6.024800000011922],[0.15833333333333333,-0.3998148148148148,6.040699999988078],[0.15833333333333333,-0.3998148148148148,6.0565],[0.13729166666666662,-0.4020370370370371,6.06139999997616],[0.1252083333333334,-0.4083333333333333,6.078000000000003],[0.11260416666666657,-0.40185185185185185,6.09469999998808],[0.11260416666666657,-0.40185185185185185,6.113899999976155],[0.07885416666666671,-0.43925925925925924,6.128100000023835],[0.06843750000000005,-0.42185185185185187,6.144699999988077],[0.06312500000000003,-0.42592592592592593,6.161199999988071],[0.058958333333333356,-0.465,6.179800000011923],[0.057083333333333285,-0.48222222222222216,6.195300000011926],[0.046875,-0.4842592592592593,6.211399999976152],[0.04593750000000003,-0.46592592592592597,6.227999999999994],[0.04593750000000003,-0.46592592592592597,6.246800000011916],[0.06375000000000004,-0.46518518518518515,6.261399999976163],[0.06927083333333334,-0.4872222222222223,6.277999999999992],[0.08333333333333333,-0.5142592592592592,6.298000000000002],[0.09697916666666657,-0.48259259259259263,6.313999999999993],[0.10020833333333339,-0.4662962962962963,6.328100000023838],[0.10260416666666666,-0.46814814814814815,6.346300000011922],[0.09958333333333323,-0.44611111111111107,6.3613999999761575],[0.08125,-0.4403703703703704,6.378699999988072],[0.07447916666666667,-0.4035185185185185,6.396500000000003],[0.07927083333333323,-0.3942592592592592,6.411699999988073],[0.08552083333333324,-0.3864814814814815,6.427999999999997],[0.08552083333333324,-0.3864814814814815,6.446699999988084],[0.08083333333333324,-0.3394444444444445,6.461300000011917],[0.06312500000000003,-0.24444444444444444,6.481300000011913]]","[0.0001999999880837322,0.03410000002384095,0.04460000002383424,0.061300000011925704,0.07800000000000296,0.09749999999999659,0.11439999997615757,0.13069999998808157,0.14730000001192423,0.16630000001191547,0.18260000002383947,0.19469999998807452,0.21130000001191718,0.22889999997615007,0.24780000001192093,0.2628999999761561,0.2796000000238337,0.29580000001192275,0.315399999976151,0.3313000000119217,0.34719999998807793,0.36299999999999955,0.38169999998807214,0.39799999999999613,0.414199999988071,0.4283000000119159,0.4446999999880745,0.4613000000119172,0.47810000002384356,0.49619999998807884,0.5113000000119143,0.5279999999999916,0.5451000000238366,0.5613000000119257,0.578000000000003,0.5946999999880802,0.6113000000119229,0.6280000000000001,0.6446000000238428,0.6615000000000038,0.6779999999999973,0.6948000000119237,0.7128999999761589,0.7311999999880783,0.7466999999880812,0.7631999999880748,0.7809999999999917,0.7978999999761527,0.8138000000119234,0.8281000000238379,0.850199999988078,0.8613000000119229,0.878100000023835,0.8946999999880774,0.9128999999761618,0.9281000000238464,0.9451000000238423,0.9613000000119172,0.9781999999880782,0.9946999999880717,1.0113999999761631,1.0279999999999916,1.044699999988083,1.0658000000119188,1.0821999999880774,1.0986999999880709,1.114300000011923,1.130300000011914,1.144999999999996,1.16130000001192,1.1778999999761623,1.1946999999880745,1.2113000000119172,1.2279999999999944,1.244600000023837,1.261600000023833,1.2805000000000035,1.294800000011918,1.3113000000119257,1.332499999999996,1.348100000023834,1.3638000000119206,1.3793999999761581,1.3981000000238453,1.4146000000238388,1.4295000000000044,1.4448999999761583,1.462300000011922,1.4803999999761572,1.4981999999880742,1.514600000023833,1.5309999999999917,1.5473000000119157,1.5636999999880743,1.579600000023845,1.5983000000119176,1.6156000000238464,1.6313000000119189,1.6463000000119195,1.6651999999880758,1.6825000000000045,1.6949999999999932,1.7141999999880824,1.734499999999997,1.744600000023837,1.7613000000119143,1.778399999976159,1.7946000000238342,1.8113000000119257,1.828000000000003,1.8448000000119151,1.8613000000119229,1.877899999976151,1.8946000000238428,1.91130000001192,1.9281000000238464,1.94460000002384,1.9613999999761518,1.9813000000119132,1.9948000000119208,2.011399999976163,2.0288999999761614,2.0446000000238342,2.0613000000119257,2.077899999976154,2.0946000000238456,2.1113999999761575,2.127899999976151,2.1484999999999985,2.162899999976162,2.1779999999999973,2.19460000002384,2.211300000011917,2.2278999999761595,2.244800000011921,2.2613000000119143,2.2779999999999916,2.294699999988083,2.3111999999880766,2.328000000000003,2.345100000023834,2.361300000011923,2.378,2.3946000000238428,2.4113999999761546,2.4286000000238346,2.4446999999880745,2.4613999999761518,2.4816999999880807,2.4946999999880717,2.5113000000119143,2.5279999999999916,2.544699999988083,2.5614999999999952,2.577899999976154,2.5946000000238456,2.611300000011923,2.627899999976151,2.6446999999880774,2.66130000001192,2.6779999999999973,2.69460000002384,2.711300000011917,2.7279999999999944,2.744600000023837,2.7611999999880794,2.7779999999999916,2.7946000000238342,2.8113000000119257,2.831000000000003,2.8446000000238456,2.861300000011923,2.877899999976151,2.8946000000238428,2.911199999988071,2.9278999999761623,2.94460000002384,2.966100000023843,2.9779999999999944,2.9946999999880717,3.0113000000119143,3.0278999999761567,3.0446000000238342,3.0611999999880766,3.078000000000003,3.0948999999761497,3.1111999999880737,3.127899999976151,3.1444999999999936,3.1615000000000038,3.1788000000119183,3.1948999999761583,3.211300000011917,3.22889999997615,3.247,3.2611999999880794,3.2778999999761567,3.2973000000119157,3.3135000000000048,3.328699999988075,3.3446000000238456,3.3611999999880737,3.377899999976151,3.3946000000238428,3.411199999988071,3.429000000000002,3.44460000002384,3.461300000011917,3.4778999999761595,3.4968999999761508,3.515500000000003,3.5316000000238432,3.5471999999880808,3.5625,3.578000000000003,3.5946000000238456,3.6116000000238415,3.627899999976151,3.6486999999880823,3.6638999999761523,3.6793000000119207,3.695300000011926,3.7111999999880823,3.7278999999761595,3.7448999999761554,3.7618000000119167,3.7779999999999916,3.7946000000238342,3.8121000000238467,3.827899999976154,3.8473999999761617,3.8626000000238463,3.878,3.8946000000238428,3.912300000011925,3.9296000000238394,3.9448000000119237,3.961300000011917,3.9823999999761526,3.994600000023837,4.011300000011914,4.0283000000119245,4.044600000023834,4.061199999988077,4.077899999976154,4.094999999999999,4.111699999988076,4.127899999976151,4.144600000023843,4.161199999988071,4.177899999976162,4.19460000002384,4.211199999988082,4.227999999999994,4.244600000023837,4.261300000011914,4.277999999999992,4.294600000023834,4.311199999988077,4.328000000000003,4.344600000023846,4.3613999999761575,4.377899999976151,4.39930000001192,4.41430000001192,4.43039999997616,4.445999999999998,4.465999999999994,4.478199999988078,4.495499999999993,4.514899999976151,4.527999999999992,4.544699999988083,4.564199999988077,4.58069999998807,4.599399999976157,4.615600000023846,4.628100000023835,4.644699999988077,4.66639999997615,4.677999999999997,4.694899999976158,4.711399999976152,4.732699999988071,4.749199999988079,4.7641999999880795,4.786100000023836,4.795199999988071,4.811499999999995,4.828100000023838,4.848199999988083,4.861499999999992,4.878199999988084,4.8984999999999985,4.913300000011915,4.931600000023835,4.9518000000119144,4.961300000011917,4.978199999988078,4.996699999988081,5.019300000011924,5.028199999988075,5.044699999988083,5.06139999997616,5.081199999988073,5.099300000011922,5.114999999999995,5.135300000011924,5.144699999988077,5.161399999976155,5.178100000023846,5.199899999976154,5.211199999988082,5.228100000023844,5.244600000023837,5.264600000023833,5.278100000023841,5.294600000023834,5.31139999997616,5.327800000011919,5.34880000001192,5.365199999988079,5.381300000011919,5.399399999976154,5.411800000011922,5.427899999976162,5.444800000011924,5.4624999999999915,5.480699999988076,5.499399999976163,5.515500000000003,5.531199999988075,5.548600000023839,5.565100000023847,5.587199999988073,5.594600000023846,5.611199999988074,5.629399999976158,5.644499999999994,5.66130000001192,5.680999999999997,5.69760000002384,5.712600000023841,5.728300000011913,5.75,5.761199999988079,5.777899999976157,5.798999999999992,5.816199999988072,5.831699999988075,5.846999999999994,5.861199999988074,5.877899999976151,5.894600000023843,5.911199999988071,5.927899999976162,5.944500000000005,5.967100000023834,5.987100000023844,5.9951000000238395,6.024800000011922,6.040699999988078,6.0565,6.06139999997616,6.078000000000003,6.09469999998808,6.113899999976155,6.128100000023835,6.144699999988077,6.161199999988071,6.179800000011923,6.195300000011926,6.211399999976152,6.227999999999994,6.246800000011916,6.261399999976163,6.277999999999992,6.298000000000002,6.313999999999993,6.328100000023838,6.346300000011922,6.3613999999761575,6.378699999988072,6.396500000000003,6.411699999988073,6.427999999999997,6.446699999988084,6.461300000011917,6.481300000011913]","[1733036181385,1733036181411,1733036181421,1733036181438,1733036181455,1733036181474,1733036181491,1733036181507,1733036181524,1733036181543,1733036181559,1733036181571,1733036181588,1733036181605,1733036181624,1733036181639,1733036181656,1733036181673,1733036181692,1733036181708,1733036181724,1733036181739,1733036181758,1733036181774,1733036181791,1733036181805,1733036181821,1733036181838,1733036181855,1733036181873,1733036181888,1733036181904,1733036181922,1733036181938,1733036181955,1733036181971,1733036181988,1733036182004,1733036182021,1733036182038,1733036182054,1733036182071,1733036182089,1733036182108,1733036182123,1733036182140,1733036182158,1733036182174,1733036182190,1733036182205,1733036182227,1733036182238,1733036182255,1733036182271,1733036182289,1733036182305,1733036182322,1733036182338,1733036182355,1733036182371,1733036182388,1733036182404,1733036182421,1733036182442,1733036182459,1733036182475,1733036182491,1733036182507,1733036182522,1733036182538,1733036182554,1733036182571,1733036182588,1733036182605,1733036182621,1733036182638,1733036182657,1733036182671,1733036182688,1733036182709,1733036182725,1733036182740,1733036182756,1733036182775,1733036182791,1733036182806,1733036182821,1733036182839,1733036182857,1733036182875,1733036182891,1733036182907,1733036182924,1733036182940,1733036182956,1733036182975,1733036182992,1733036183008,1733036183023,1733036183042,1733036183059,1733036183072,1733036183091,1733036183111,1733036183121,1733036183138,1733036183155,1733036183171,1733036183188,1733036183204,1733036183221,1733036183238,1733036183254,1733036183271,1733036183288,1733036183305,1733036183321,1733036183338,1733036183358,1733036183371,1733036183388,1733036183405,1733036183421,1733036183438,1733036183454,1733036183471,1733036183488,1733036183504,1733036183525,1733036183539,1733036183554,1733036183571,1733036183588,1733036183604,1733036183621,1733036183638,1733036183654,1733036183671,1733036183688,1733036183704,1733036183722,1733036183738,1733036183754,1733036183771,1733036183788,1733036183805,1733036183821,1733036183838,1733036183858,1733036183871,1733036183888,1733036183904,1733036183921,1733036183938,1733036183954,1733036183971,1733036183988,1733036184004,1733036184021,1733036184038,1733036184054,1733036184071,1733036184088,1733036184104,1733036184121,1733036184138,1733036184154,1733036184171,1733036184188,1733036184207,1733036184221,1733036184238,1733036184254,1733036184271,1733036184288,1733036184304,1733036184321,1733036184343,1733036184354,1733036184371,1733036184388,1733036184404,1733036184421,1733036184438,1733036184454,1733036184471,1733036184488,1733036184504,1733036184521,1733036184538,1733036184555,1733036184571,1733036184588,1733036184605,1733036184624,1733036184638,1733036184654,1733036184674,1733036184690,1733036184705,1733036184721,1733036184738,1733036184754,1733036184771,1733036184788,1733036184806,1733036184821,1733036184838,1733036184854,1733036184873,1733036184892,1733036184908,1733036184924,1733036184939,1733036184954,1733036184971,1733036184988,1733036185004,1733036185025,1733036185040,1733036185056,1733036185072,1733036185088,1733036185104,1733036185121,1733036185138,1733036185155,1733036185171,1733036185189,1733036185204,1733036185224,1733036185239,1733036185254,1733036185271,1733036185289,1733036185306,1733036185321,1733036185338,1733036185359,1733036185371,1733036185388,1733036185405,1733036185421,1733036185438,1733036185454,1733036185471,1733036185488,1733036185504,1733036185521,1733036185538,1733036185554,1733036185571,1733036185588,1733036185604,1733036185621,1733036185638,1733036185654,1733036185671,1733036185688,1733036185705,1733036185721,1733036185738,1733036185754,1733036185776,1733036185791,1733036185807,1733036185823,1733036185843,1733036185855,1733036185872,1733036185891,1733036185905,1733036185921,1733036185941,1733036185957,1733036185976,1733036185992,1733036186005,1733036186021,1733036186043,1733036186055,1733036186071,1733036186088,1733036186109,1733036186126,1733036186141,1733036186163,1733036186172,1733036186188,1733036186205,1733036186225,1733036186238,1733036186255,1733036186275,1733036186290,1733036186308,1733036186328,1733036186338,1733036186355,1733036186373,1733036186396,1733036186405,1733036186421,1733036186438,1733036186458,1733036186476,1733036186491,1733036186512,1733036186521,1733036186538,1733036186555,1733036186576,1733036186588,1733036186605,1733036186621,1733036186641,1733036186655,1733036186671,1733036186688,1733036186704,1733036186725,1733036186742,1733036186758,1733036186776,1733036186788,1733036186804,1733036186821,1733036186839,1733036186857,1733036186876,1733036186892,1733036186908,1733036186925,1733036186942,1733036186964,1733036186971,1733036186988,1733036187006,1733036187021,1733036187038,1733036187057,1733036187074,1733036187089,1733036187105,1733036187126,1733036187138,1733036187154,1733036187176,1733036187193,1733036187208,1733036187224,1733036187238,1733036187254,1733036187271,1733036187288,1733036187304,1733036187321,1733036187344,1733036187364,1733036187372,1733036187401,1733036187417,1733036187433,1733036187438,1733036187455,1733036187471,1733036187490,1733036187505,1733036187521,1733036187538,1733036187556,1733036187572,1733036187588,1733036187605,1733036187623,1733036187638,1733036187655,1733036187675,1733036187690,1733036187705,1733036187723,1733036187738,1733036187755,1733036187773,1733036187788,1733036187805,1733036187823,1733036187838,1733036187858]","[[842.7,638.7],[842.7,638.7],[832.8,631.5],[827.1,633.7],[828.7,619],[830.3,604.3],[835.8,590.7],[849.6,592.6],[862.1,596.4],[873.1,598.8],[882.9,597],[882.9,597],[891.3,593.1],[902.8,589.1],[910.1,575.7],[917.2,576.4],[918.2,579.1],[902.3,576.6],[852.8,568.4],[805.6,552.3],[758.4,554.1],[709.7,556],[663.8,557.5],[619.2,561.9],[569.8,561.1],[518.5,558],[518.5,558],[502.3,551.2],[514.2,543.9],[564.8,522],[564.8,522],[613.1,508],[672.7,491.9],[715.4,479.9],[715.4,479.9],[762.1,471.4],[804.6,457.1],[853.3,451.3],[897.8,444.7],[907.9,434.1],[906.8,429.2],[902.1,430.4],[897.4,431.6],[884.1,420.5],[881.8,418.1],[877.1,412.5],[923.7,411.7],[972.4,402],[1019.9,409.8],[1082.3,422.9],[1125.2,418.9],[1125.2,418.9],[1164.7,409.2],[1199.1,413.5],[1233.2,411.1],[1216.3,422.5],[1201.8,437.1],[1121.2,448.3],[1121.2,448.3],[1037.1,463.1],[1037.1,463.1],[946.7,455.9],[853.4,462.3],[780,480.9],[701.8,500.4],[628.7,505.9],[545.3,522.3],[521.5,516.2],[501.5,527.5],[495.5,546.6],[501.7,563.8],[501.7,563.8],[515.4,585.5],[514.4,593.1],[516.2,604.4],[516.4,619.2],[517.1,643],[528.8,664.9],[540.5,686.8],[540.6,694.7],[536.2,690.6],[536,695.1],[535.8,699.6],[548,711.4],[556.3,724.2],[562.8,728.5],[568.8,723.8],[567,728.4],[567.3,738.7],[570.7,718.7],[580.9,706.6],[576.5,698],[572,673.6],[563.2,642.8],[559.7,625.2],[558,616.1],[554.6,603.2],[558.3,585.7],[560.4,549.1],[567.2,539.4],[566.9,530.7],[566.9,530.7],[564.8,513.8],[581.6,533.6],[581.6,533.6],[598.4,553.4],[609.9,553.9],[617.8,540.6],[617.8,540.6],[622.2,539.6],[623.8,542.5],[628.2,556.9],[628.2,556.9],[632.6,571.3],[639.4,569.6],[638.6,571.3],[625.1,565.1],[611.6,558.9],[600.5,558.1],[600.5,558.1],[593,571.1],[588.7,577.1],[583,570.1],[569.6,573.4],[551.3,569.2],[536,578],[528.3,583.4],[520.9,577.7],[513.5,572],[498.1,582.5],[482.7,593],[475.9,597.7],[475.9,597.7],[477.2,613.1],[484.8,618.3],[506.7,622.4],[546.1,613.7],[567,623.7],[586.1,632.5],[602.8,646.8],[627,623.5],[651.2,600.2],[697.6,574.3],[742.3,545.2],[792.5,512],[838.1,490.2],[853.6,483.5],[887.6,458.1],[920.8,433.9],[920.8,433.9],[956.4,404.2],[956.4,404.2],[992,395],[1033.7,376.2],[1052.2,369.9],[1081,379.6],[1108.7,396.9],[1134.2,403.7],[1172.3,408.2],[1205.4,407.5],[1262.4,397.2],[1298.7,409.7],[1355,402.2],[1387.8,412],[1423.2,407.3],[1423.2,407.3],[1446.1,388.2],[1455,392.5],[1450.3,413.4],[1445.6,434.3],[1445.6,434.3],[1459,456],[1447.4,476.4],[1445.7,481.6],[1422.8,508.6],[1433.7,522.7],[1432.3,549.5],[1438.5,567.1],[1438.5,567.1],[1452.5,563.3],[1452.5,563.3],[1463.9,553.1],[1447.6,537.2],[1404,528.3],[1354.5,532.2],[1303.7,527.4],[1252.9,522.6],[1197.9,518.2],[1152.8,516.7],[1113.9,523.9],[1064.2,504.8],[1028.1,483.2],[1014.1,495.5],[1014.3,505.2],[1008.1,518.8],[1026.2,528.2],[1032.7,550],[1027,576.6],[1015.5,596.5],[1020.5,610.3],[1036.2,646.7],[1033.5,690.1],[1033.5,690.1],[1042.5,702.1],[1051.5,712.2],[1087.1,716.8],[1087.1,716.8],[1116.6,725.5],[1171.8,718.4],[1225.1,709.3],[1260.8,711.8],[1265.7,720.6],[1269.8,717.2],[1309.5,720.3],[1309.5,720.3],[1327.9,730.5],[1265,735.7],[1185.4,732.6],[1115.1,733],[1030.7,736.8],[938.6,743.5],[870.8,731.3],[870.8,731.3],[796.8,726.7],[709.7,738.5],[631.2,732.6],[631.2,732.6],[565.5,724.5],[557.8,718.2],[550,715],[529.6,712.6],[512,713.5],[504,713.5],[493.5,715],[490.3,715.2],[510.3,707.5],[497.8,703.8],[489.8,685],[519.6,671.9],[519.6,671.9],[546.5,664.2],[593.4,641.8],[640.8,605],[690.7,572.4],[717.3,542],[768.2,502.1],[809.8,465.9],[851.5,435.3],[891.1,418.1],[907.9,399.8],[929.7,376.3],[929.7,376.3],[927,361.2],[922.9,356.2],[916.3,347],[916.3,347],[937.1,343.8],[920.2,351],[920.1,349.2],[920.1,349.2],[928.6,357.4],[922.7,362.8],[944.4,375.7],[975.4,393.3],[1000.1,416.9],[1021.5,435.8],[1042,454.1],[1042,454.1],[1041.6,504.2],[1061.5,518.2],[1059.3,536.4],[1059.3,536.4],[1053.2,568],[1058.1,600.8],[1043.4,623.3],[1060.6,643.2],[1060.6,643.2],[1047.6,649.9],[1071.3,679.5],[1096.8,689.7],[1096.8,689.7],[1128.2,691.1],[1151.8,722],[1196.4,768.2],[1225.6,749.6],[1243.1,720.1],[1273.3,695.1],[1273.3,695.1],[1217.7,665],[1232.1,636.9],[1193.9,590.2],[1193.9,590.2],[1158.1,572.5],[1157.2,547.8],[1134.9,514.1],[1119.6,485.5],[1121.6,492.9],[1121.6,492.9],[1109.5,506.3],[1076.7,509],[1086.2,517.5],[1086.2,517.5],[1066.6,524.8],[1063.6,535.2],[1057.3,536.6],[1041.3,516.9],[1048.4,520.7],[1028.9,530.8],[1028.9,530.8],[998.2,497.1],[984.2,466.2],[978.5,444.8],[978.5,444.8],[993.8,427.1],[1001.4,406.9],[1009.7,385],[1009.7,385],[1012.5,374.3],[989.2,376.2],[968.7,361.8],[952.1,325.5],[953.5,340.2],[973.3,351.8],[973.3,353],[973.3,353],[951.4,348.8],[934.5,356.7],[942.6,378],[956.2,388.1],[967.3,361.1],[963.3,356.5],[959.3,351.9],[972.2,327.9],[979.2,310.7],[986.5,303.2],[986.5,303.2],[1003.9,305.9],[1025.4,311.8],[1042.3,299.2],[1048.6,291.6],[1063.6,314.2],[1089.5,315.9],[1115.4,317.6],[1111.4,326.4],[1105.1,332.1],[1105.1,332.1],[1110.2,338.4],[1113.9,337.9],[1113.5,334.2],[1098.4,342.7],[1094,339],[1094,339],[1102.3,342.7],[1102.3,342.7],[1098.2,325.1],[1101.7,313],[1101.7,324.7],[1107.6,333.5],[1107.6,333.5],[1118.7,334.1],[1118.7,334.1],[1112,324.1],[1112,324.1],[1091.8,322.9],[1080.2,319.5],[1068.1,323],[1068.1,323],[1035.7,302.8],[1025.7,312.2],[1020.6,310],[1016.6,288.9],[1014.8,279.6],[1005,278.5],[1004.1,288.4],[1004.1,288.4],[1021.2,288.8],[1026.5,276.9],[1040,262.3],[1053.1,279.4],[1056.2,288.2],[1058.5,287.2],[1055.6,299.1],[1038,302.2],[1031.5,322.1],[1036.1,327.1],[1042.1,331.3],[1042.1,331.3],[1037.6,356.7],[1020.6,408]]","[0,0.37864299999999995]","[0.37864299999999995,0.37864299999999995]","[-0.37864299999999995,-0.37864299999999995]","[-0.37864299999999995,0]","[0,-0.37864299999999995]","[0.37864299999999995,-0.37864299999999995]","[0,0]","[0.37864299999999995,0]",0,0,0,0,1,1,Laptop,7,7,15,9
