inst1_resp.keys,inst1_resp.rt,calibrationMouse.x,calibrationMouse.y,calibrationMouse.leftButton,calibrationMouse.midButton,calibrationMouse.rightButton,calibrationClick.x,calibrationClick.y,calibrationClick.leftButton,calibrationClick.midButton,calibrationClick.rightButton,calibrationClick.clicked_name,trialsc.thisRepN,trialsc.thisTrialN,trialsc.thisN,trialsc.thisIndex,trialsc.ran,calibration_x,calibration_y,participant,session,date,expName,psychopyVersion,OS,frameRate,ScreenRes_pixels,Camera_pixels,mouse_2.x,mouse_2.y,mouse_2.leftButton,mouse_2.midButton,mouse_2.rightButton,mouse_2.time,mouse_2.clicked_name,mouse.x,mouse.y,mouse.leftButton,mouse.midButton,mouse.rightButton,mouse.time,mouse.clicked_name,Choice,Trial,TrialDuration,MOUSE_GAZE,ET_GAZE,ET_GAZE_x_T,time,unixTime,ET_GAZE_NF,Loc_Option1_label,Loc_Option2_label,Loc_Cost_label,Loc_Qual_label,Loc_Option1_cost,Loc_Option2_cost,Loc_Option1_quality,Loc_Option2_quality,trials.thisRepN,trials.thisTrialN,trials.thisN,trials.thisIndex,trials.ran,Block,Device,cost1,qual1,cost2,qual2
space,1.4145,-0.104166667,0.174074074,1,0,0,-0.008333333,0.007345226,1,0,0,calibration_square,0,0,0,11,1,0,0,34,001,2024-12-02_10h29.57.393,Attention_exp_legacy,2023.1.0,Win32,60.24096386,,,,,,,,,,,,,,,,,,,,,,,,,,,,,,,,,,,,,,,,,,,,
,,,,,,,-0.663541667,0.019937041,1,0,0,,0,1,1,2,1,-0.67,0,34,001,2024-12-02_10h29.57.393,Attention_exp_legacy,2023.1.0,Win32,60.24096386,,,,,,,,,,,,,,,,,,,,,,,,,,,,,,,,,,,,,,,,,,,,
,,,,,,,0.672916667,0.678908709,1,0,0,calibration_square,0,2,2,19,1,0.67,0.67,34,001,2024-12-02_10h29.57.393,Attention_exp_legacy,2023.1.0,Win32,60.24096386,,,,,,,,,,,,,,,,,,,,,,,,,,,,,,,,,,,,,,,,,,,,
,,,,,,,-0.333333333,0.683105981,1,0,0,,0,3,3,8,1,-0.33,0.67,34,001,2024-12-02_10h29.57.393,Attention_exp_legacy,2023.1.0,Win32,60.24096386,,,,,,,,,,,,,,,,,,,,,,,,,,,,,,,,,,,,,,,,,,,,
,,,,,,,-0.319791667,-0.001049318,1,0,0,,0,4,4,6,1,-0.33,0,34,001,2024-12-02_10h29.57.393,Attention_exp_legacy,2023.1.0,Win32,60.24096386,,,,,,,,,,,,,,,,,,,,,,,,,,,,,,,,,,,,,,,,,,,,
,,,,,,,-0.334375,-0.674711438,1,0,0,calibration_square,0,5,5,4,1,-0.33,-0.67,34,001,2024-12-02_10h29.57.393,Attention_exp_legacy,2023.1.0,Win32,60.24096386,,,,,,,,,,,,,,,,,,,,,,,,,,,,,,,,,,,,,,,,,,,,
,,,,,,,-0.002083333,0.662119622,1,0,0,calibration_square,0,6,6,13,1,0,0.67,34,001,2024-12-02_10h29.57.393,Attention_exp_legacy,2023.1.0,Win32,60.24096386,,,,,,,,,,,,,,,,,,,,,,,,,,,,,,,,,,,,,,,,,,,,
,,,,,,,-0.333333333,0.328436516,1,0,0,calibration_square,0,7,7,7,1,-0.33,0.33,34,001,2024-12-02_10h29.57.393,Attention_exp_legacy,2023.1.0,Win32,60.24096386,,,,,,,,,,,,,,,,,,,,,,,,,,,,,,,,,,,,,,,,,,,,
,,,,,,,0.007291667,-0.666316894,1,0,0,calibration_square,0,8,8,9,1,0,-0.67,34,001,2024-12-02_10h29.57.393,Attention_exp_legacy,2023.1.0,Win32,60.24096386,,,,,,,,,,,,,,,,,,,,,,,,,,,,,,,,,,,,,,,,,,,,
,,,,,,,0.323958333,0.678908709,1,0,0,calibration_square,0,9,9,18,1,0.33,0.67,34,001,2024-12-02_10h29.57.393,Attention_exp_legacy,2023.1.0,Win32,60.24096386,,,,,,,,,,,,,,,,,,,,,,,,,,,,,,,,,,,,,,,,,,,,
,,,,,,,0.322916667,0.015739769,1,0,0,,0,10,10,16,1,0.33,0,34,001,2024-12-02_10h29.57.393,Attention_exp_legacy,2023.1.0,Win32,60.24096386,,,,,,,,,,,,,,,,,,,,,,,,,,,,,,,,,,,,,,,,,,,,
,,,,,,,-0.678125,-0.338929696,1,0,0,calibration_square,0,11,11,1,1,-0.67,-0.33,34,001,2024-12-02_10h29.57.393,Attention_exp_legacy,2023.1.0,Win32,60.24096386,,,,,,,,,,,,,,,,,,,,,,,,,,,,,,,,,,,,,,,,,,,,
,,,,,,,-0.666666667,-0.66841553,1,0,0,calibration_square,0,12,12,0,1,-0.67,-0.67,34,001,2024-12-02_10h29.57.393,Attention_exp_legacy,2023.1.0,Win32,60.24096386,,,,,,,,,,,,,,,,,,,,,,,,,,,,,,,,,,,,,,,,,,,,
,,,,,,,-0.673958333,0.315844701,1,0,0,,0,13,13,3,1,-0.67,0.33,34,001,2024-12-02_10h29.57.393,Attention_exp_legacy,2023.1.0,Win32,60.24096386,,,,,,,,,,,,,,,,,,,,,,,,,,,,,,,,,,,,,,,,,,,,
,,,,,,,0.001041667,-0.338929696,1,0,0,calibration_square,0,14,14,10,1,0,-0.33,34,001,2024-12-02_10h29.57.393,Attention_exp_legacy,2023.1.0,Win32,60.24096386,,,,,,,,,,,,,,,,,,,,,,,,,,,,,,,,,,,,,,,,,,,,
,,,,,,,0.327083333,-0.66841553,1,0,0,calibration_square,0,15,15,14,1,0.33,-0.67,34,001,2024-12-02_10h29.57.393,Attention_exp_legacy,2023.1.0,Win32,60.24096386,,,,,,,,,,,,,,,,,,,,,,,,,,,,,,,,,,,,,,,,,,,,
,,,,,,,0.665625,-0.670514166,1,0,0,calibration_square,0,16,16,20,1,0.67,-0.67,34,001,2024-12-02_10h29.57.393,Attention_exp_legacy,2023.1.0,Win32,60.24096386,,,,,,,,,,,,,,,,,,,,,,,,,,,,,,,,,,,,,,,,,,,,
,,,,,,,0,0.330535152,1,0,0,calibration_square,0,17,17,12,1,0,0.33,34,001,2024-12-02_10h29.57.393,Attention_exp_legacy,2023.1.0,Win32,60.24096386,,,,,,,,,,,,,,,,,,,,,,,,,,,,,,,,,,,,,,,,,,,,
,,,,,,,0.344791667,-0.32633788,1,0,0,,0,18,18,15,1,0.33,-0.33,34,001,2024-12-02_10h29.57.393,Attention_exp_legacy,2023.1.0,Win32,60.24096386,,,,,,,,,,,,,,,,,,,,,,,,,,,,,,,,,,,,,,,,,,,,
,,,,,,,0.327083333,0.322140609,1,0,0,calibration_square,0,19,19,17,1,0.33,0.33,34,001,2024-12-02_10h29.57.393,Attention_exp_legacy,2023.1.0,Win32,60.24096386,,,,,,,,,,,,,,,,,,,,,,,,,,,,,,,,,,,,,,,,,,,,
,,,,,,,-0.323958333,-0.320041973,1,0,0,calibration_square,0,20,20,5,1,-0.33,-0.33,34,001,2024-12-02_10h29.57.393,Attention_exp_legacy,2023.1.0,Win32,60.24096386,,,,,,,,,,,,,,,,,,,,,,,,,,,,,,,,,,,,,,,,,,,,
,,,,,,,,,,,,,,,,,,,,34,001,2024-12-02_10h29.57.393,Attention_exp_legacy,2023.1.0,Win32,60.24096386,"[1920,953]","[640,480]",[-0.07291666666666667],[-0.4879328436516264],[1],[0],[0],[1.2932000000476904],"[""StartButton""]",[-0.015625],[0.35571878279118574],[1],[0],[0],[2.710499999999996],"[""Option1_label""]",Option1_label,1,3.7412,"[[-0.071875,-0.4879328436516264],[-0.071875,-0.4879328436516264],[-0.071875,-0.4879328436516264],[-0.071875,-0.4879328436516264],[-0.071875,-0.4879328436516264],[-0.071875,-0.4879328436516264],[-0.071875,-0.4879328436516264],[-0.071875,-0.4879328436516264],[-0.071875,-0.4879328436516264],[-0.071875,-0.4879328436516264],[-0.071875,-0.4879328436516264],[-0.071875,-0.4879328436516264],[-0.071875,-0.4879328436516264],[-0.071875,-0.4879328436516264],[-0.071875,-0.4879328436516264],[-0.071875,-0.4879328436516264],[-0.071875,-0.4879328436516264],[-0.071875,-0.4879328436516264],[-0.071875,-0.4879328436516264],[-0.071875,-0.4879328436516264],[-0.071875,-0.4879328436516264],[-0.071875,-0.4879328436516264],[-0.071875,-0.4879328436516264],[-0.071875,-0.4879328436516264],[-0.071875,-0.4879328436516264],[-0.071875,-0.4879328436516264],[-0.071875,-0.4879328436516264],[-0.071875,-0.4879328436516264],[-0.071875,-0.4879328436516264],[-0.071875,-0.4879328436516264],[-0.071875,-0.4879328436516264],[-0.071875,-0.4879328436516264],[-0.071875,-0.4879328436516264],[-0.071875,-0.4879328436516264],[-0.071875,-0.4879328436516264],[-0.071875,-0.4879328436516264],[-0.071875,-0.4879328436516264],[-0.071875,-0.4879328436516264],[-0.071875,-0.4879328436516264],[-0.071875,-0.4879328436516264],[-0.071875,-0.4879328436516264],[-0.071875,-0.4879328436516264],[-0.071875,-0.4879328436516264],[-0.071875,-0.4879328436516264],[-0.071875,-0.4879328436516264],[-0.071875,-0.4879328436516264],[-0.071875,-0.4879328436516264],[-0.071875,-0.4879328436516264],[-0.071875,-0.4879328436516264],[-0.071875,-0.4879328436516264],[-0.071875,-0.4879328436516264],[-0.071875,-0.4879328436516264],[-0.06979166666666667,-0.4858342077649528],[-0.06979166666666667,-0.4795383001049318],[-0.06875,-0.4648478488982162],[-0.065625,-0.44176285414480587],[-0.065625,-0.4018887722980063],[-0.065625,-0.3578174186778594],[-0.065625,-0.3011542497376705],[-0.065625,-0.2130115424973767],[-0.04479166666666667,0.07450157397691501],[-0.03125,0.22140608604407136],[-0.030208333333333334,0.236096537250787],[-0.028125,0.26128016789087094],[-0.027083333333333334,0.2696747114375656],[-0.026041666666666668,0.2885624344176285],[-0.020833333333333332,0.3284365162644281],[-0.016666666666666666,0.3515215110178384],[-0.015625,0.35571878279118574],[-0.015625,0.35571878279118574],[-0.015625,0.35571878279118574],[-0.015625,0.35571878279118574],[-0.015625,0.35571878279118574],[-0.015625,0.35571878279118574],[-0.015625,0.35571878279118574],[-0.015625,0.35571878279118574],[-0.015625,0.35571878279118574],[-0.015625,0.35571878279118574],[-0.015625,0.35571878279118574],[-0.015625,0.35571878279118574],[-0.015625,0.35571878279118574],[-0.015625,0.35571878279118574],[-0.015625,0.35571878279118574],[-0.015625,0.35571878279118574],[-0.015625,0.35571878279118574],[-0.015625,0.35571878279118574],[-0.015625,0.35571878279118574],[-0.015625,0.35571878279118574],[-0.015625,0.35571878279118574],[-0.015625,0.35571878279118574],[-0.015625,0.35571878279118574],[-0.015625,0.35571878279118574],[-0.015625,0.35571878279118574],[-0.015625,0.35571878279118574]]","[[-0.11843750000000004,0.2499475341028332],[-0.1141666666666667,0.23126967471143767],[-0.1141666666666667,0.23126967471143767],[-0.10406249999999997,0.2081846799580274],[-0.09322916666666667,0.18971668415529902],[-0.09322916666666667,0.18971668415529902],[-0.07916666666666666,0.16537250786988447],[-0.07916666666666666,0.16537250786988447],[-0.06031249999999998,0.14711437565582378],[-0.06031249999999998,0.14711437565582378],[-0.05791666666666669,0.115215110178384],[-0.05791666666666669,0.115215110178384],[-0.07937500000000004,0.11605456453305342],[-0.07937500000000004,0.11605456453305342],[-0.1125,0.10073452256033578],[-0.1125,0.10073452256033578],[-0.1125,0.10073452256033578],[-0.1296875,0.06883525708289615],[-0.1296875,0.06883525708289615],[-0.15666666666666665,0.04679958027282269],[-0.15666666666666665,0.04679958027282269],[-0.15666666666666665,0.04679958027282269],[-0.18520833333333328,0.04637985309548798],[-0.18520833333333328,0.04637985309548798],[-0.1938541666666667,0.04008394543546699],[-0.1938541666666667,0.04008394543546699],[-0.20354166666666665,0.03252885624344176],[-0.20354166666666665,0.03252885624344176],[-0.18885416666666663,0.05582371458551946],[-0.18885416666666663,0.05582371458551946],[-0.18885416666666663,0.05582371458551946],[-0.1866666666666667,0.07806925498426033],[-0.1866666666666667,0.07806925498426033],[-0.16302083333333334,0.08436516264428132],[-0.16302083333333334,0.08436516264428132],[-0.09864583333333338,0.10388247639034627],[-0.09864583333333338,0.10388247639034627],[-0.036354166666666646,0.11269674711437574],[-0.036354166666666646,0.11269674711437574],[0.043229166666666666,0.12738719832109138],[0.043229166666666666,0.12738719832109138],[0.11281249999999995,0.14627492130115435],[0.11281249999999995,0.14627492130115435],[0.17760416666666667,0.15634837355718784],[0.17760416666666667,0.15634837355718784],[0.21624999999999991,0.18866736621196217],[0.246875,0.2062959076600209],[0.246875,0.2062959076600209],[0.25666666666666677,0.20398740818468006],[0.25666666666666677,0.20398740818468006],[0.25666666666666677,0.20398740818468006],[0.2852083333333333,0.18992654774396642],[0.2852083333333333,0.18992654774396642],[0.27843749999999995,0.16222455403987399],[0.27843749999999995,0.16222455403987399],[0.19072916666666656,0.14375655823714587],[0.19072916666666656,0.14375655823714587],[0.15635416666666657,0.13326337880377753],[0.15635416666666657,0.13326337880377753],[0.09364583333333343,0.15320041972717732],[0.09364583333333343,0.15320041972717732],[0.005624999999999976,0.13725078698845747],[0.005624999999999976,0.13725078698845747],[0.005624999999999976,0.13725078698845747],[-0.07156250000000004,0.13620146904512062],[-0.07156250000000004,0.13620146904512062],[-0.09458333333333328,0.1183630640083945],[-0.09458333333333328,0.1183630640083945],[-0.11020833333333328,0.09569779643231904],[-0.11020833333333328,0.09569779643231904],[-0.11020833333333328,0.09569779643231904],[-0.10572916666666667,0.08520461699895072],[-0.10572916666666667,0.08520461699895072],[-0.10572916666666667,0.08520461699895072],[-0.15281250000000005,0.08583420776495274],[-0.15281250000000005,0.08583420776495274],[-0.16375000000000003,0.12528856243441772],[-0.16375000000000003,0.12528856243441772],[-0.16375000000000003,0.12528856243441772],[-0.11968749999999997,0.1259181532004197],[-0.11968749999999997,0.1259181532004197],[-0.11499999999999998,0.09653725078698845],[-0.11499999999999998,0.09653725078698845],[-0.09624999999999997,0.033788037775446006],[-0.09624999999999997,0.033788037775446006],[-0.03177083333333333,-0.0054564533053515695],[-0.03177083333333333,-0.0054564533053515695],[0.02781250000000005,-0.04491080797481632],[0.02781250000000005,-0.04491080797481632],[0.010520833333333358,-0.0847848898216159],[0.010520833333333358,-0.0847848898216159],[0.02781250000000005,-0.08856243441762852],[0.02781250000000005,-0.08856243441762852],[0.018229166666666668,-0.09611752360965375]]","[[-0.11843750000000004,0.2499475341028332,0.00030000007153319075],[-0.1141666666666667,0.23126967471143767,0.1442000000476895],[-0.1141666666666667,0.23126967471143767,0.24660000002384663],[-0.10406249999999997,0.2081846799580274,0.2633000000715242],[-0.09322916666666667,0.18971668415529902,0.3142000000476912],[-0.09322916666666667,0.18971668415529902,0.34199999999999875],[-0.07916666666666666,0.16537250786988447,0.3643000000715233],[-0.07916666666666666,0.16537250786988447,0.458800000071534],[-0.06031249999999998,0.14711437565582378,0.5117000000476821],[-0.06031249999999998,0.14711437565582378,0.5401000000238412],[-0.05791666666666669,0.115215110178384,0.5716000000238495],[-0.05791666666666669,0.115215110178384,0.6028999999761595],[-0.07937500000000004,0.11605456453305342,0.6301000000238446],[-0.07937500000000004,0.11605456453305342,0.6940000000000026],[-0.1125,0.10073452256033578,0.7142000000476827],[-0.1125,0.10073452256033578,0.7527000000476818],[-0.1125,0.10073452256033578,0.762800000071536],[-0.1296875,0.06883525708289615,0.8037000000476837],[-0.1296875,0.06883525708289615,0.8260000000000076],[-0.15666666666666665,0.04679958027282269,0.8438000000715249],[-0.15666666666666665,0.04679958027282269,0.8848000000715359],[-0.15666666666666665,0.04679958027282269,0.896300000071534],[-0.18520833333333328,0.04637985309548798,0.9142000000476855],[-0.18520833333333328,0.04637985309548798,0.9302000000476909],[-0.1938541666666667,0.04008394543546699,0.9753000000715275],[-0.1938541666666667,0.04008394543546699,0.9908999999761647],[-0.20354166666666665,0.03252885624344176,1.0062000000476843],[-0.20354166666666665,0.03252885624344176,1.0823000000715268],[-0.18885416666666663,0.05582371458551946,1.10380000007153],[-0.18885416666666663,0.05582371458551946,1.1208999999761602],[-0.18885416666666663,0.05582371458551946,1.1312000000476843],[-0.1866666666666667,0.07806925498426033,1.1678999999761572],[-0.1866666666666667,0.07806925498426033,1.204800000071529],[-0.16302083333333334,0.08436516264428132,1.2439999999999998],[-0.16302083333333334,0.08436516264428132,1.2567000000476867],[-0.09864583333333338,0.10388247639034627,1.2902000000476903],[-0.09864583333333338,0.10388247639034627,1.3088000000715283],[-0.036354166666666646,0.11269674711437574,1.3307000000476847],[-0.036354166666666646,0.11269674711437574,1.3857000000476916],[0.043229166666666666,0.12738719832109138,1.3962000000476849],[0.043229166666666666,0.12738719832109138,1.445999999999998],[0.11281249999999995,0.14627492130115435,1.4593999999761564],[0.11281249999999995,0.14627492130115435,1.5531000000238464],[0.17760416666666667,0.15634837355718784,1.5832000000476825],[0.17760416666666667,0.15634837355718784,1.6225000000000023],[0.21624999999999991,0.18866736621196217,1.634800000071536],[0.246875,0.2062959076600209,1.6640000000000015],[0.246875,0.2062959076600209,1.757200000047689],[0.25666666666666677,0.20398740818468006,1.8076000000238537],[0.25666666666666677,0.20398740818468006,1.8302000000476824],[0.25666666666666677,0.20398740818468006,1.848100000023848],[0.2852083333333333,0.18992654774396642,1.8843000000715335],[0.2852083333333333,0.18992654774396642,1.9367000000476935],[0.27843749999999995,0.16222455403987399,2.0191000000238404],[0.27843749999999995,0.16222455403987399,2.1033000000715276],[0.19072916666666656,0.14375655823714587,2.119300000071533],[0.19072916666666656,0.14375655823714587,2.1636000000238482],[0.15635416666666657,0.13326337880377753,2.1763999999761694],[0.15635416666666657,0.13326337880377753,2.20450000000001],[0.09364583333333343,0.15320041972717732,2.3426000000238503],[0.09364583333333343,0.15320041972717732,2.433200000047691],[0.005624999999999976,0.13725078698845747,2.4482000000476916],[0.005624999999999976,0.13725078698845747,2.4626000000238406],[0.005624999999999976,0.13725078698845747,2.4808000000715253],[-0.07156250000000004,0.13620146904512062,2.5138000000715266],[-0.07156250000000004,0.13620146904512062,2.5303000000715343],[-0.09458333333333328,0.1183630640083945,2.6396000000238473],[-0.09458333333333328,0.1183630640083945,2.683200000047691],[-0.11020833333333328,0.09569779643231904,2.700800000071524],[-0.11020833333333328,0.09569779643231904,2.7193000000715273],[-0.11020833333333328,0.09569779643231904,2.7381000000238487],[-0.10572916666666667,0.08520461699895072,2.769800000071527],[-0.10572916666666667,0.08520461699895072,2.9342000000476816],[-0.10572916666666667,0.08520461699895072,2.9620000000000033],[-0.15281250000000005,0.08583420776495274,2.9740000000000038],[-0.15281250000000005,0.08583420776495274,3.045100000023851],[-0.16375000000000003,0.12528856243441772,3.0633000000715356],[-0.16375000000000003,0.12528856243441772,3.089800000071534],[-0.16375000000000003,0.12528856243441772,3.111000000000004],[-0.11968749999999997,0.1259181532004197,3.136300000071529],[-0.11968749999999997,0.1259181532004197,3.210000000000008],[-0.11499999999999998,0.09653725078698845,3.2553000000715286],[-0.11499999999999998,0.09653725078698845,3.3121000000238467],[-0.09624999999999997,0.033788037775446006,3.334000000000003],[-0.09624999999999997,0.033788037775446006,3.3558999999761596],[-0.03177083333333333,-0.0054564533053515695,3.380600000023847],[-0.03177083333333333,-0.0054564533053515695,3.4085000000000036],[0.02781250000000005,-0.04491080797481632,3.4442000000476867],[0.02781250000000005,-0.04491080797481632,3.4692000000476924],[0.010520833333333358,-0.0847848898216159,3.511200000047694],[0.010520833333333358,-0.0847848898216159,3.548000000000002],[0.02781250000000005,-0.08856243441762852,3.5902000000476875],[0.02781250000000005,-0.08856243441762852,3.6713999999761597],[0.018229166666666668,-0.09611752360965375,3.7412000000476837]]","[0.00030000007153319075,0.1442000000476895,0.24660000002384663,0.2633000000715242,0.3142000000476912,0.34199999999999875,0.3643000000715233,0.458800000071534,0.5117000000476821,0.5401000000238412,0.5716000000238495,0.6028999999761595,0.6301000000238446,0.6940000000000026,0.7142000000476827,0.7527000000476818,0.762800000071536,0.8037000000476837,0.8260000000000076,0.8438000000715249,0.8848000000715359,0.896300000071534,0.9142000000476855,0.9302000000476909,0.9753000000715275,0.9908999999761647,1.0062000000476843,1.0823000000715268,1.10380000007153,1.1208999999761602,1.1312000000476843,1.1678999999761572,1.204800000071529,1.2439999999999998,1.2567000000476867,1.2902000000476903,1.3088000000715283,1.3307000000476847,1.3857000000476916,1.3962000000476849,1.445999999999998,1.4593999999761564,1.5531000000238464,1.5832000000476825,1.6225000000000023,1.634800000071536,1.6640000000000015,1.757200000047689,1.8076000000238537,1.8302000000476824,1.848100000023848,1.8843000000715335,1.9367000000476935,2.0191000000238404,2.1033000000715276,2.119300000071533,2.1636000000238482,2.1763999999761694,2.20450000000001,2.3426000000238503,2.433200000047691,2.4482000000476916,2.4626000000238406,2.4808000000715253,2.5138000000715266,2.5303000000715343,2.6396000000238473,2.683200000047691,2.700800000071524,2.7193000000715273,2.7381000000238487,2.769800000071527,2.9342000000476816,2.9620000000000033,2.9740000000000038,3.045100000023851,3.0633000000715356,3.089800000071534,3.111000000000004,3.136300000071529,3.210000000000008,3.2553000000715286,3.3121000000238467,3.334000000000003,3.3558999999761596,3.380600000023847,3.4085000000000036,3.4442000000476867,3.4692000000476924,3.511200000047694,3.548000000000002,3.5902000000476875,3.6713999999761597,3.7412000000476837]","[1733106667254,1733106667389,1733106667492,1733106667508,1733106667559,1733106667587,1733106667609,1733106667704,1733106667757,1733106667785,1733106667817,1733106667848,1733106667875,1733106667939,1733106667959,1733106667998,1733106668008,1733106668049,1733106668071,1733106668089,1733106668130,1733106668141,1733106668159,1733106668175,1733106668220,1733106668236,1733106668251,1733106668327,1733106668349,1733106668366,1733106668376,1733106668413,1733106668450,1733106668489,1733106668502,1733106668535,1733106668554,1733106668576,1733106668631,1733106668641,1733106668691,1733106668704,1733106668798,1733106668828,1733106668868,1733106668880,1733106668909,1733106669002,1733106669053,1733106669075,1733106669093,1733106669129,1733106669182,1733106669264,1733106669348,1733106669365,1733106669409,1733106669421,1733106669449,1733106669588,1733106669678,1733106669693,1733106669708,1733106669726,1733106669759,1733106669775,1733106669885,1733106669928,1733106669946,1733106669964,1733106669983,1733106670015,1733106670179,1733106670207,1733106670219,1733106670290,1733106670308,1733106670335,1733106670356,1733106670381,1733106670455,1733106670500,1733106670557,1733106670579,1733106670601,1733106670626,1733106670654,1733106670689,1733106670714,1733106670756,1733106670793,1733106670835,1733106670916,1733106670986]","[[846.3,595.6],[850.4,586.7],[850.4,586.7],[860.1,575.7],[870.5,566.9],[870.5,566.9],[884,555.3],[884,555.3],[902.1,546.6],[902.1,546.6],[904.4,531.4],[904.4,531.4],[883.8,531.8],[883.8,531.8],[852,524.5],[852,524.5],[852,524.5],[835.5,509.3],[835.5,509.3],[809.6,498.8],[809.6,498.8],[809.6,498.8],[782.2,498.6],[782.2,498.6],[773.9,495.6],[773.9,495.6],[764.6,492],[764.6,492],[778.7,503.1],[778.7,503.1],[778.7,503.1],[780.8,513.7],[780.8,513.7],[803.5,516.7],[803.5,516.7],[865.3,526],[865.3,526],[925.1,530.2],[925.1,530.2],[1001.5,537.2],[1001.5,537.2],[1068.3,546.2],[1068.3,546.2],[1130.5,551],[1130.5,551],[1167.6,566.4],[1197,574.8],[1197,574.8],[1206.4,573.7],[1206.4,573.7],[1206.4,573.7],[1233.8,567],[1233.8,567],[1227.3,553.8],[1227.3,553.8],[1143.1,545],[1143.1,545],[1110.1,540],[1110.1,540],[1049.9,549.5],[1049.9,549.5],[965.4,541.9],[965.4,541.9],[965.4,541.9],[891.3,541.4],[891.3,541.4],[869.2,532.9],[869.2,532.9],[854.2,522.1],[854.2,522.1],[854.2,522.1],[858.5,517.1],[858.5,517.1],[858.5,517.1],[813.3,517.4],[813.3,517.4],[802.8,536.2],[802.8,536.2],[802.8,536.2],[845.1,536.5],[845.1,536.5],[849.6,522.5],[849.6,522.5],[867.6,492.6],[867.6,492.6],[929.5,473.9],[929.5,473.9],[986.7,455.1],[986.7,455.1],[970.1,436.1],[970.1,436.1],[986.7,434.3],[986.7,434.3],[977.5,430.7]]","[0,0.37864299999999995]","[0.37864299999999995,0.37864299999999995]","[-0.37864299999999995,-0.37864299999999995]","[-0.37864299999999995,0]","[0,-0.37864299999999995]","[0.37864299999999995,-0.37864299999999995]","[0,0]","[0.37864299999999995,0]",0,0,0,0,1,3,Laptop,11,9,9,1
,,,,,,,,,,,,,,,,,,,,34,001,2024-12-02_10h29.57.393,Attention_exp_legacy,2023.1.0,Win32,60.24096386,,,,,,,,,,[-0.0125],[0.4438614900314795],[1],[0],[0],[2.380800000071531],"[""Option1_label""]",Option1_label,2,3.4029,"[[-0.015625,0.35571878279118574],[-0.015625,0.35571878279118574],[-0.015625,0.35571878279118574],[-0.015625,0.35571878279118574],[-0.015625,0.35571878279118574],[-0.015625,0.35571878279118574],[-0.015625,0.35571878279118574],[-0.015625,0.35571878279118574],[-0.015625,0.35571878279118574],[-0.015625,0.35571878279118574],[-0.015625,0.35571878279118574],[-0.015625,0.35571878279118574],[-0.015625,0.35571878279118574],[-0.015625,0.35571878279118574],[-0.015625,0.35571878279118574],[-0.015625,0.35571878279118574],[-0.015625,0.35571878279118574],[-0.015625,0.35571878279118574],[-0.015625,0.35571878279118574],[-0.015625,0.35571878279118574],[-0.015625,0.35571878279118574],[-0.015625,0.35571878279118574],[-0.015625,0.35571878279118574],[-0.015625,0.35571878279118574],[-0.015625,0.35571878279118574],[-0.015625,0.35571878279118574],[-0.015625,0.35571878279118574],[-0.015625,0.35571878279118574],[-0.015625,0.35571878279118574],[-0.015625,0.35571878279118574],[-0.015625,0.35571878279118574],[-0.015625,0.35571878279118574],[-0.015625,0.35571878279118574],[-0.015625,0.35571878279118574],[-0.015625,0.35571878279118574],[-0.015625,0.35571878279118574],[-0.015625,0.35571878279118574],[-0.015625,0.35571878279118574],[-0.015625,0.35571878279118574],[-0.015625,0.35571878279118574],[-0.015625,0.35571878279118574],[-0.015625,0.35571878279118574],[-0.015625,0.35571878279118574],[-0.015625,0.35571878279118574],[-0.015625,0.35571878279118574],[-0.015625,0.35571878279118574],[-0.015625,0.35571878279118574],[-0.015625,0.35571878279118574],[-0.015625,0.35571878279118574],[-0.015625,0.35571878279118574],[-0.015625,0.35571878279118574],[-0.015625,0.35571878279118574],[-0.015625,0.35571878279118574],[-0.015625,0.35571878279118574],[-0.015625,0.35571878279118574],[-0.015625,0.35571878279118574],[-0.015625,0.35571878279118574],[-0.015625,0.35571878279118574],[-0.015625,0.35571878279118574],[-0.015625,0.35571878279118574],[-0.015625,0.35571878279118574],[-0.015625,0.35571878279118574],[-0.015625,0.35571878279118574],[-0.015625,0.35571878279118574],[-0.014583333333333334,0.3641133263378804],[-0.014583333333333334,0.3704092339979014],[-0.014583333333333334,0.3809024134312697],[-0.014583333333333334,0.40818467995802726],[-0.014583333333333334,0.4249737670514166],[-0.0125,0.43126967471143757],[-0.0125,0.4438614900314795],[-0.0125,0.4438614900314795],[-0.0125,0.4438614900314795],[-0.0125,0.4438614900314795],[-0.0125,0.4438614900314795],[-0.0125,0.4438614900314795],[-0.0125,0.4438614900314795],[-0.0125,0.4438614900314795],[-0.0125,0.4438614900314795],[-0.0125,0.4438614900314795],[-0.0125,0.4438614900314795],[-0.0125,0.4438614900314795],[-0.0125,0.4438614900314795],[-0.0125,0.4438614900314795],[-0.0125,0.4438614900314795],[-0.0125,0.4438614900314795],[-0.0125,0.4438614900314795],[-0.0125,0.4438614900314795],[-0.0125,0.4438614900314795],[-0.0125,0.4438614900314795],[-0.0125,0.4438614900314795],[-0.0125,0.4438614900314795],[-0.0125,0.4438614900314795],[-0.0125,0.4438614900314795],[-0.0125,0.4438614900314795],[-0.0125,0.4438614900314795],[-0.0125,0.4438614900314795],[-0.0125,0.4438614900314795],[-0.0125,0.4438614900314795],[-0.0125,0.4438614900314795],[-0.0125,0.4438614900314795],[-0.0125,0.4438614900314795],[-0.0125,0.4438614900314795],[-0.0125,0.4438614900314795],[-0.0125,0.4438614900314795],[-0.0125,0.4438614900314795],[-0.0125,0.4438614900314795],[-0.0125,0.4438614900314795],[-0.0125,0.4438614900314795]]","[[-0.003333333333333381,0.14459601259181526],[-0.00302083333333331,0.1254984260230849],[-0.00302083333333331,0.1254984260230849],[0.003333333333333381,0.06904512067156343],[0.003333333333333381,0.06904512067156343],[0.009062500000000048,0.08940188877229806],[0.009062500000000048,0.08940188877229806],[0.009062500000000048,0.05120671563483731],[0.009062500000000048,0.05120671563483731],[0.00614583333333331,-0.006715634837355695],[0.00614583333333331,-0.006715634837355695],[-0.005416666666666714,-0.045540398740818444],[-0.005416666666666714,-0.045540398740818444],[-0.005416666666666714,-0.045540398740818444],[-0.02000000000000005,-0.10010493179433366],[-0.02000000000000005,-0.10010493179433366],[-0.012187500000000047,-0.16012591815320043],[-0.012187500000000047,-0.16012591815320043],[-0.019791666666666666,-0.21594963273871978],[-0.019791666666666666,-0.21594963273871978],[-0.02520833333333338,-0.23798530954879324],[-0.02520833333333338,-0.23798530954879324],[-0.02520833333333338,-0.23798530954879324],[-0.02822916666666669,-0.253305351521511],[-0.02822916666666669,-0.253305351521511],[-0.02822916666666669,-0.253305351521511],[-0.03729166666666662,-0.20209863588667368],[-0.03729166666666662,-0.20209863588667368],[-0.03937499999999995,-0.1657922350472193],[-0.03937499999999995,-0.1657922350472193],[-0.03937499999999995,-0.1657922350472193],[0.0032291666666666905,-0.11668415529905567],[0.0032291666666666905,-0.11668415529905567],[0.03708333333333336,-0.0644281217208814],[0.03708333333333336,-0.0644281217208814],[0.057604166666666616,0.0016789087093389535],[0.057604166666666616,0.0016789087093389535],[0.09302083333333329,0.04700944386148998],[0.09302083333333329,0.04700944386148998],[0.11510416666666666,0.09653725078698845],[0.11510416666666666,0.09653725078698845],[0.14791666666666667,0.1393494228751311],[0.14791666666666667,0.1393494228751311],[0.1648958333333333,0.17691500524658962],[0.1648958333333333,0.17691500524658962],[0.175,0.20734522560335772],[0.175,0.20734522560335772],[0.175,0.20734522560335772],[0.1935416666666666,0.20608604407135372],[0.1935416666666666,0.20608604407135372],[0.2179166666666667,0.1590766002098635],[0.2179166666666667,0.1590766002098635],[0.2179166666666667,0.1590766002098635],[0.19645833333333323,0.14942287513116484],[0.19645833333333323,0.14942287513116484],[0.17239583333333333,0.15403987408184674],[0.17239583333333333,0.15403987408184674],[0.0953125,0.1584470094438615],[0.0953125,0.1584470094438615],[0.034166666666666616,0.202308499475341],[0.034166666666666616,0.202308499475341],[-0.019375000000000024,0.21846799580272827],[-0.019375000000000024,0.21846799580272827],[-0.05249999999999998,0.25414480587618055],[-0.05249999999999998,0.25414480587618055],[-0.09416666666666665,0.21741867785939145],[-0.09416666666666665,0.21741867785939145],[-0.11656249999999997,0.1855194123819517],[-0.11656249999999997,0.1855194123819517],[-0.125,0.11941238195173133],[-0.125,0.11941238195173133],[-0.14020833333333335,0.09233997901364113],[-0.14020833333333335,0.09233997901364113],[-0.14020833333333335,0.09233997901364113],[-0.12541666666666665,0.053725078698845796],[-0.12541666666666665,0.053725078698845796],[-0.13385416666666666,-0.05141657922350472],[-0.13385416666666666,-0.05141657922350472],[-0.13385416666666666,-0.05141657922350472],[-0.07312500000000005,-0.08667366211962227],[-0.07312500000000005,-0.08667366211962227],[-0.029791666666666692,-0.1376705141657923],[-0.029791666666666692,-0.1376705141657923],[-0.009583333333333381,-0.16684155299055614],[-0.009583333333333381,-0.16684155299055614],[-0.007187499999999976,-0.19916054564533048],[-0.007187499999999976,-0.19916054564533048],[-0.0109375,-0.23819517313746066],[-0.0109375,-0.23819517313746066],[-0.03343750000000002,-0.25204616998950685],[-0.03343750000000002,-0.25204616998950685],[-0.03343750000000002,-0.25204616998950685],[-0.07458333333333336,-0.23504721930745015],[-0.07458333333333336,-0.23504721930745015],[-0.11041666666666666,-0.26002098635886667],[-0.11041666666666666,-0.26002098635886667],[-0.14968750000000006,-0.16600209863588672],[-0.14968750000000006,-0.16600209863588672],[-0.15052083333333333,-0.04407135362014691],[-0.15052083333333333,-0.04407135362014691],[-0.14156249999999998,-0.0071353620146904035],[-0.14156249999999998,-0.0071353620146904035],[-0.14156249999999998,-0.0071353620146904035],[-0.1466666666666666,0.01909758656873037],[-0.1466666666666666,0.01909758656873037],[-0.1319791666666667,0.020776495278069206],[-0.1319791666666667,0.020776495278069206],[-0.115625,0.023924449108079702],[-0.115625,0.023924449108079702]]","[[-0.003333333333333381,0.14459601259181526,0.00019999992846919667],[-0.00302083333333331,0.1254984260230849,0.018299999952319013],[-0.00302083333333331,0.1254984260230849,0.035699999928468173],[0.003333333333333381,0.06904512067156343,0.056299999952315716],[0.003333333333333381,0.06904512067156343,0.0958999999761545],[0.009062500000000048,0.08940188877229806,0.11639999997615291],[0.009062500000000048,0.08940188877229806,0.16449999999998965],[0.009062500000000048,0.05120671563483731,0.1834999999999951],[0.009062500000000048,0.05120671563483731,0.22839999997614768],[0.00614583333333331,-0.006715634837355695,0.24939999997614848],[0.00614583333333331,-0.006715634837355695,0.26379999995231174],[-0.005416666666666714,-0.045540398740818444,0.33799999999999386],[-0.005416666666666714,-0.045540398740818444,0.3902999999523189],[-0.005416666666666714,-0.045540398740818444,0.3965000000000032],[-0.02000000000000005,-0.10010493179433366,0.4088999999761569],[-0.02000000000000005,-0.10010493179433366,0.43509999990462234],[-0.012187500000000047,-0.16012591815320043,0.47639999997615234],[-0.012187500000000047,-0.16012591815320043,0.5492999999523107],[-0.019791666666666666,-0.21594963273871978,0.5789999999999935],[-0.019791666666666666,-0.21594963273871978,0.6510999999046305],[-0.02520833333333338,-0.23798530954879324,0.7178999999761544],[-0.02520833333333338,-0.23798530954879324,0.7501999999284692],[-0.02520833333333338,-0.23798530954879324,0.7587999999523163],[-0.02822916666666669,-0.253305351521511,0.7785999999046282],[-0.02822916666666669,-0.253305351521511,0.843599999904626],[-0.02822916666666669,-0.253305351521511,0.8591999999284639],[-0.03729166666666662,-0.20209863588667368,0.8755000000000024],[-0.03729166666666662,-0.20209863588667368,0.914999999999992],[-0.03937499999999995,-0.1657922350472193,0.9363999999761603],[-0.03937499999999995,-0.1657922350472193,0.9505999999046253],[-0.03937499999999995,-0.1657922350472193,0.958899999976154],[0.0032291666666666905,-0.11668415529905567,0.975599999904631],[0.0032291666666666905,-0.11668415529905567,1.0292999999523147],[0.03708333333333336,-0.0644281217208814,1.0437999999523129],[0.03708333333333336,-0.0644281217208814,1.1280000000000001],[0.057604166666666616,0.0016789087093389535,1.1720999999046313],[0.057604166666666616,0.0016789087093389535,1.1875999999046343],[0.09302083333333329,0.04700944386148998,1.2104999999999961],[0.09302083333333329,0.04700944386148998,1.2262999999523174],[0.11510416666666666,0.09653725078698845,1.2565000000000026],[0.11510416666666666,0.09653725078698845,1.2731999999284653],[0.14791666666666667,0.1393494228751311,1.336500000000001],[0.14791666666666667,0.1393494228751311,1.3497999999523103],[0.1648958333333333,0.17691500524658962,1.386399999976149],[0.1648958333333333,0.17691500524658962,1.4059999999999917],[0.175,0.20734522560335772,1.414799999952308],[0.175,0.20734522560335772,1.4265999999046244],[0.175,0.20734522560335772,1.4426999999284646],[0.1935416666666666,0.20608604407135372,1.458899999976154],[0.1935416666666666,0.20608604407135372,1.5031999999284693],[0.2179166666666667,0.1590766002098635,1.5324999999999989],[0.2179166666666667,0.1590766002098635,1.5507999999523179],[0.2179166666666667,0.1590766002098635,1.5587999999523134],[0.19645833333333323,0.14942287513116484,1.5769999999999982],[0.19645833333333323,0.14942287513116484,1.61399999999999],[0.17239583333333333,0.15403987408184674,1.6499999999999915],[0.17239583333333333,0.15403987408184674,1.660499999999999],[0.0953125,0.1584470094438615,1.7056999999284699],[0.0953125,0.1584470094438615,1.7834999999999894],[0.034166666666666616,0.202308499475341,1.796899999976148],[0.034166666666666616,0.202308499475341,1.8160999999046226],[-0.019375000000000024,0.21846799580272827,1.8363999999761518],[-0.019375000000000024,0.21846799580272827,1.8773999999761486],[-0.05249999999999998,0.25414480587618055,1.892199999928465],[-0.05249999999999998,0.25414480587618055,1.9893999999761576],[-0.09416666666666665,0.21741867785939145,2.0016999999284764],[-0.09416666666666665,0.21741867785939145,2.015699999928472],[-0.11656249999999997,0.1855194123819517,2.082699999928465],[-0.11656249999999997,0.1855194123819517,2.113299999952318],[-0.125,0.11941238195173133,2.1422999999523142],[-0.125,0.11941238195173133,2.2407999999523156],[-0.14020833333333335,0.09233997901364113,2.2565000000000026],[-0.14020833333333335,0.09233997901364113,2.2738999999761518],[-0.14020833333333335,0.09233997901364113,2.279599999904633],[-0.12541666666666665,0.053725078698845796,2.3055999999046293],[-0.12541666666666665,0.053725078698845796,2.346999999999994],[-0.13385416666666666,-0.05141657922350472,2.383399999976149],[-0.13385416666666666,-0.05141657922350472,2.459000000000003],[-0.13385416666666666,-0.05141657922350472,2.4609999999999985],[-0.07312500000000005,-0.08667366211962227,2.4797999999523057],[-0.07312500000000005,-0.08667366211962227,2.5017999999523113],[-0.029791666666666692,-0.1376705141657923,2.526599999904633],[-0.029791666666666692,-0.1376705141657923,2.5627999999523183],[-0.009583333333333381,-0.16684155299055614,2.581299999952307],[-0.009583333333333381,-0.16684155299055614,2.667099999904636],[-0.007187499999999976,-0.19916054564533048,2.703499999999991],[-0.007187499999999976,-0.19916054564533048,2.715899999976159],[-0.0109375,-0.23819517313746066,2.7291999999284684],[-0.0109375,-0.23819517313746066,2.7503999999761533],[-0.03343750000000002,-0.25204616998950685,2.807000000000002],[-0.03343750000000002,-0.25204616998950685,2.8483999999761522],[-0.03343750000000002,-0.25204616998950685,2.8588999999761597],[-0.07458333333333336,-0.23504721930745015,2.877799999952316],[-0.07458333333333336,-0.23504721930745015,2.91339999997615],[-0.11041666666666666,-0.26002098635886667,2.9265999999046244],[-0.11041666666666666,-0.26002098635886667,2.942799999952314],[-0.14968750000000006,-0.16600209863588672,2.960299999952312],[-0.14968750000000006,-0.16600209863588672,3.001399999976158],[-0.15052083333333333,-0.04407135362014691,3.0463999999761597],[-0.15052083333333333,-0.04407135362014691,3.0646999999284645],[-0.14156249999999998,-0.0071353620146904035,3.07959999990463],[-0.14156249999999998,-0.0071353620146904035,3.093699999928475],[-0.14156249999999998,-0.0071353620146904035,3.1297999999523114],[-0.1466666666666666,0.01909758656873037,3.171899999976148],[-0.1466666666666666,0.01909758656873037,3.264399999976149],[-0.1319791666666667,0.020776495278069206,3.298099999904622],[-0.1319791666666667,0.020776495278069206,3.3300999999046326],[-0.115625,0.023924449108079702,3.3644999999999925],[-0.115625,0.023924449108079702,3.4028999999761567]]","[0.00019999992846919667,0.018299999952319013,0.035699999928468173,0.056299999952315716,0.0958999999761545,0.11639999997615291,0.16449999999998965,0.1834999999999951,0.22839999997614768,0.24939999997614848,0.26379999995231174,0.33799999999999386,0.3902999999523189,0.3965000000000032,0.4088999999761569,0.43509999990462234,0.47639999997615234,0.5492999999523107,0.5789999999999935,0.6510999999046305,0.7178999999761544,0.7501999999284692,0.7587999999523163,0.7785999999046282,0.843599999904626,0.8591999999284639,0.8755000000000024,0.914999999999992,0.9363999999761603,0.9505999999046253,0.958899999976154,0.975599999904631,1.0292999999523147,1.0437999999523129,1.1280000000000001,1.1720999999046313,1.1875999999046343,1.2104999999999961,1.2262999999523174,1.2565000000000026,1.2731999999284653,1.336500000000001,1.3497999999523103,1.386399999976149,1.4059999999999917,1.414799999952308,1.4265999999046244,1.4426999999284646,1.458899999976154,1.5031999999284693,1.5324999999999989,1.5507999999523179,1.5587999999523134,1.5769999999999982,1.61399999999999,1.6499999999999915,1.660499999999999,1.7056999999284699,1.7834999999999894,1.796899999976148,1.8160999999046226,1.8363999999761518,1.8773999999761486,1.892199999928465,1.9893999999761576,2.0016999999284764,2.015699999928472,2.082699999928465,2.113299999952318,2.1422999999523142,2.2407999999523156,2.2565000000000026,2.2738999999761518,2.279599999904633,2.3055999999046293,2.346999999999994,2.383399999976149,2.459000000000003,2.4609999999999985,2.4797999999523057,2.5017999999523113,2.526599999904633,2.5627999999523183,2.581299999952307,2.667099999904636,2.703499999999991,2.715899999976159,2.7291999999284684,2.7503999999761533,2.807000000000002,2.8483999999761522,2.8588999999761597,2.877799999952316,2.91339999997615,2.9265999999046244,2.942799999952314,2.960299999952312,3.001399999976158,3.0463999999761597,3.0646999999284645,3.07959999990463,3.093699999928475,3.1297999999523114,3.171899999976148,3.264399999976149,3.298099999904622,3.3300999999046326,3.3644999999999925,3.4028999999761567]","[1733106672085,1733106672100,1733106672118,1733106672138,1733106672178,1733106672198,1733106672246,1733106672265,1733106672310,1733106672331,1733106672346,1733106672420,1733106672472,1733106672478,1733106672491,1733106672517,1733106672558,1733106672631,1733106672661,1733106672733,1733106672800,1733106672832,1733106672841,1733106672860,1733106672925,1733106672941,1733106672957,1733106672997,1733106673018,1733106673032,1733106673041,1733106673057,1733106673111,1733106673126,1733106673210,1733106673254,1733106673269,1733106673292,1733106673308,1733106673338,1733106673355,1733106673418,1733106673432,1733106673468,1733106673488,1733106673497,1733106673508,1733106673525,1733106673541,1733106673585,1733106673614,1733106673633,1733106673641,1733106673659,1733106673696,1733106673732,1733106673742,1733106673788,1733106673865,1733106673879,1733106673898,1733106673918,1733106673959,1733106673974,1733106674071,1733106674084,1733106674097,1733106674165,1733106674195,1733106674224,1733106674323,1733106674338,1733106674356,1733106674361,1733106674387,1733106674429,1733106674465,1733106674541,1733106674543,1733106674562,1733106674584,1733106674608,1733106674645,1733106674663,1733106674749,1733106674785,1733106674798,1733106674811,1733106674832,1733106674889,1733106674930,1733106674941,1733106674960,1733106674995,1733106675008,1733106675025,1733106675042,1733106675083,1733106675128,1733106675147,1733106675161,1733106675175,1733106675212,1733106675254,1733106675346,1733106675380,1733106675412,1733106675446,1733106675485]","[[956.8,545.4],[957.1,536.3],[957.1,536.3],[963.2,509.4],[963.2,509.4],[968.7,519.1],[968.7,519.1],[968.7,500.9],[968.7,500.9],[965.9,473.3],[965.9,473.3],[954.8,454.8],[954.8,454.8],[954.8,454.8],[940.8,428.8],[940.8,428.8],[948.3,400.2],[948.3,400.2],[941,373.6],[941,373.6],[935.8,363.1],[935.8,363.1],[935.8,363.1],[932.9,355.8],[932.9,355.8],[932.9,355.8],[924.2,380.2],[924.2,380.2],[922.2,397.5],[922.2,397.5],[922.2,397.5],[963.1,420.9],[963.1,420.9],[995.6,445.8],[995.6,445.8],[1015.3,477.3],[1015.3,477.3],[1049.3,498.9],[1049.3,498.9],[1070.5,522.5],[1070.5,522.5],[1102,542.9],[1102,542.9],[1118.3,560.8],[1118.3,560.8],[1128,575.3],[1128,575.3],[1128,575.3],[1145.8,574.7],[1145.8,574.7],[1169.2,552.3],[1169.2,552.3],[1169.2,552.3],[1148.6,547.7],[1148.6,547.7],[1125.5,549.9],[1125.5,549.9],[1051.5,552],[1051.5,552],[992.8,572.9],[992.8,572.9],[941.4,580.6],[941.4,580.6],[909.6,597.6],[909.6,597.6],[869.6,580.1],[869.6,580.1],[848.1,564.9],[848.1,564.9],[840,533.4],[840,533.4],[825.4,520.5],[825.4,520.5],[825.4,520.5],[839.6,502.1],[839.6,502.1],[831.5,452],[831.5,452],[831.5,452],[889.8,435.2],[889.8,435.2],[931.4,410.9],[931.4,410.9],[950.8,397],[950.8,397],[953.1,381.6],[953.1,381.6],[949.5,363],[949.5,363],[927.9,356.4],[927.9,356.4],[927.9,356.4],[888.4,364.5],[888.4,364.5],[854,352.6],[854,352.6],[816.3,397.4],[816.3,397.4],[815.5,455.5],[815.5,455.5],[824.1,473.1],[824.1,473.1],[824.1,473.1],[819.2,485.6],[819.2,485.6],[833.3,486.4],[833.3,486.4],[849,487.9],[849,487.9]]","[0,0.37864299999999995]","[0.37864299999999995,0.37864299999999995]","[-0.37864299999999995,0]","[-0.37864299999999995,-0.37864299999999995]","[0,0]","[0.37864299999999995,0]","[0,-0.37864299999999995]","[0.37864299999999995,-0.37864299999999995]",0,1,1,1,1,3,Laptop,5,5,13,7
,,,,,,,,,,,,,,,,,,,,34,001,2024-12-02_10h29.57.393,Attention_exp_legacy,2023.1.0,Win32,60.24096386,,,,,,,,,,[0.28958333333333336],[0.40818467995802726],[1],[0],[0],[2.912799999952327],"[""Option2_label""]",Option2_label,3,3.9354,"[[-0.011458333333333333,0.4438614900314795],[-0.011458333333333333,0.44176285414480587],[-0.011458333333333333,0.44176285414480587],[-0.011458333333333333,0.44176285414480587],[-0.011458333333333333,0.44176285414480587],[-0.011458333333333333,0.44176285414480587],[-0.011458333333333333,0.44176285414480587],[-0.011458333333333333,0.44176285414480587],[-0.011458333333333333,0.44176285414480587],[-0.011458333333333333,0.44176285414480587],[-0.011458333333333333,0.44176285414480587],[-0.011458333333333333,0.44176285414480587],[-0.011458333333333333,0.44176285414480587],[-0.011458333333333333,0.44176285414480587],[-0.011458333333333333,0.44176285414480587],[-0.011458333333333333,0.44176285414480587],[-0.011458333333333333,0.44176285414480587],[-0.011458333333333333,0.44176285414480587],[-0.011458333333333333,0.44176285414480587],[-0.011458333333333333,0.44176285414480587],[-0.011458333333333333,0.44176285414480587],[-0.011458333333333333,0.44176285414480587],[-0.011458333333333333,0.44176285414480587],[-0.011458333333333333,0.44176285414480587],[-0.011458333333333333,0.44176285414480587],[-0.011458333333333333,0.44176285414480587],[-0.011458333333333333,0.44176285414480587],[-0.011458333333333333,0.44176285414480587],[-0.011458333333333333,0.44176285414480587],[-0.011458333333333333,0.44176285414480587],[-0.011458333333333333,0.44176285414480587],[-0.011458333333333333,0.44176285414480587],[-0.011458333333333333,0.44176285414480587],[-0.011458333333333333,0.44176285414480587],[-0.011458333333333333,0.44176285414480587],[-0.011458333333333333,0.44176285414480587],[-0.011458333333333333,0.44176285414480587],[-0.011458333333333333,0.44176285414480587],[-0.011458333333333333,0.44176285414480587],[-0.011458333333333333,0.44176285414480587],[-0.011458333333333333,0.44176285414480587],[-0.011458333333333333,0.44176285414480587],[-0.011458333333333333,0.44176285414480587],[-0.011458333333333333,0.44176285414480587],[-0.011458333333333333,0.44176285414480587],[-0.011458333333333333,0.44176285414480587],[-0.011458333333333333,0.44176285414480587],[-0.011458333333333333,0.44176285414480587],[-0.011458333333333333,0.44176285414480587],[-0.011458333333333333,0.44176285414480587],[-0.011458333333333333,0.44176285414480587],[-0.011458333333333333,0.44176285414480587],[-0.011458333333333333,0.44176285414480587],[-0.011458333333333333,0.44176285414480587],[-0.011458333333333333,0.44176285414480587],[-0.011458333333333333,0.44176285414480587],[-0.011458333333333333,0.44176285414480587],[-0.011458333333333333,0.44176285414480587],[-0.011458333333333333,0.44176285414480587],[-0.011458333333333333,0.44176285414480587],[-0.011458333333333333,0.44176285414480587],[-0.011458333333333333,0.44176285414480587],[-0.011458333333333333,0.44176285414480587],[-0.011458333333333333,0.44176285414480587],[-0.011458333333333333,0.43966421825813223],[-0.011458333333333333,0.4333683105981112],[-0.010416666666666666,0.4333683105981112],[-0.008333333333333333,0.43126967471143757],[-0.004166666666666667,0.43126967471143757],[0.00625,0.4249737670514166],[0.008333333333333333,0.4249737670514166],[0.03125,0.41867785939139557],[0.05625,0.41028331584470096],[0.06875,0.41028331584470096],[0.075,0.41028331584470096],[0.07916666666666666,0.41028331584470096],[0.09791666666666667,0.41028331584470096],[0.18333333333333332,0.40818467995802726],[0.19583333333333333,0.40818467995802726],[0.22604166666666667,0.40818467995802726],[0.265625,0.40818467995802726],[0.28541666666666665,0.40818467995802726],[0.2875,0.40818467995802726],[0.28958333333333336,0.40818467995802726],[0.28958333333333336,0.40818467995802726],[0.28958333333333336,0.40818467995802726],[0.28958333333333336,0.40818467995802726],[0.28958333333333336,0.40818467995802726],[0.28958333333333336,0.40818467995802726],[0.28958333333333336,0.40818467995802726],[0.28958333333333336,0.40818467995802726],[0.28958333333333336,0.40818467995802726],[0.28958333333333336,0.40818467995802726],[0.28958333333333336,0.40818467995802726],[0.28958333333333336,0.40818467995802726],[0.28958333333333336,0.40818467995802726],[0.28958333333333336,0.40818467995802726],[0.28958333333333336,0.40818467995802726],[0.28958333333333336,0.40818467995802726],[0.28958333333333336,0.40818467995802726],[0.28958333333333336,0.40818467995802726],[0.28958333333333336,0.40818467995802726],[0.28958333333333336,0.40818467995802726],[0.28958333333333336,0.40818467995802726],[0.28958333333333336,0.40818467995802726],[0.28958333333333336,0.40818467995802726],[0.28958333333333336,0.40818467995802726],[0.28958333333333336,0.40818467995802726],[0.28958333333333336,0.40818467995802726],[0.28958333333333336,0.40818467995802726],[0.28958333333333336,0.40818467995802726],[0.28958333333333336,0.40818467995802726],[0.290625,0.4060860440713536],[0.290625,0.4060860440713536],[0.290625,0.4060860440713536],[0.290625,0.4060860440713536],[0.290625,0.4060860440713536]]","[[-0.034791666666666644,-0.0543546694648478],[-0.034791666666666644,-0.0543546694648478],[-0.028541666666666642,-0.0810073452256034],[-0.028541666666666642,-0.0810073452256034],[0.009375,-0.10178384050367262],[0.009375,-0.10178384050367262],[0.020937500000000022,-0.09968520461699895],[0.020937500000000022,-0.09968520461699895],[0.0017708333333333807,-0.11122770199370409],[0.0017708333333333807,-0.11122770199370409],[-0.017083333333333308,-0.1284365162644281],[-0.017083333333333308,-0.1284365162644281],[-0.03343750000000002,-0.14249737670514162],[-0.03343750000000002,-0.14249737670514162],[-0.04656250000000005,-0.1861490031479538],[-0.04656250000000005,-0.1861490031479538],[-0.028645833333333332,-0.20209863588667368],[-0.028645833333333332,-0.20209863588667368],[0.001145833333333357,-0.1689401888772298],[0.001145833333333357,-0.1689401888772298],[0.007187499999999976,-0.18279118572927602],[0.007187499999999976,-0.18279118572927602],[0.007187499999999976,-0.18279118572927602],[0.044479166666666715,-0.14690451206715635],[0.044479166666666715,-0.14690451206715635],[0.049791666666666616,-0.10619097586568735],[0.049791666666666616,-0.10619097586568735],[0.0818749999999999,-0.08142707240293812],[0.0818749999999999,-0.08142707240293812],[0.10104166666666667,-0.055403987408184634],[0.10104166666666667,-0.055403987408184634],[0.10104166666666667,-0.055403987408184634],[0.13135416666666658,-0.004197271773347324],[0.13135416666666658,-0.004197271773347324],[0.13135416666666658,-0.004197271773347324],[0.16072916666666662,0.04239244491080795],[0.16072916666666662,0.04239244491080795],[0.17218749999999997,0.10262329485834203],[0.17218749999999997,0.10262329485834203],[0.13583333333333342,0.13011542497376705],[0.13583333333333342,0.13011542497376705],[0.10697916666666671,0.17691500524658962],[0.10697916666666671,0.17691500524658962],[0.10885416666666667,0.24784889821615955],[0.10885416666666667,0.24784889821615955],[0.09593749999999991,0.29192025183630643],[0.09593749999999991,0.29192025183630643],[0.10270833333333323,0.29150052465897164],[0.10270833333333323,0.29150052465897164],[0.11635416666666672,0.3126967471143757],[0.11635416666666672,0.3126967471143757],[0.14093749999999997,0.3248688352570828],[0.14093749999999997,0.3248688352570828],[0.14093749999999997,0.3248688352570828],[0.14343750000000005,0.310598111227702],[0.14343750000000005,0.310598111227702],[0.15927083333333342,0.317523609653725],[0.15927083333333342,0.317523609653725],[0.17302083333333323,0.3122770199370408],[0.17302083333333323,0.3122770199370408],[0.18458333333333338,0.28562434417628546],[0.18458333333333338,0.28562434417628546],[0.17531249999999995,0.23756558237145864],[0.17531249999999995,0.23756558237145864],[0.16864583333333344,0.2088142707240294],[0.16864583333333344,0.2088142707240294],[0.15968749999999995,0.11584470094438624],[0.15968749999999995,0.11584470094438624],[0.15,0.10304302203567686],[0.15,0.10304302203567686],[0.12781250000000005,0.025603357817418654],[0.12781250000000005,0.025603357817418654],[0.09156250000000009,-0.03525708289611755],[0.09156250000000009,-0.03525708289611755],[0.06541666666666662,-0.0709338929695698],[0.06541666666666662,-0.0709338929695698],[0.03583333333333331,-0.12402938090241349],[0.03583333333333331,-0.12402938090241349],[0.022708333333333285,-0.2199370409233998],[0.028854166666666715,-0.28814270724029384],[0.028854166666666715,-0.28814270724029384],[0.06177083333333329,-0.3206715634837356],[0.06177083333333329,-0.3206715634837356],[0.09010416666666667,-0.3880377754459601],[0.09010416666666667,-0.3880377754459601],[0.14187500000000006,-0.3907660020986359],[0.14187500000000006,-0.3907660020986359],[0.14187500000000006,-0.3907660020986359],[0.165625,-0.44742917103882474],[0.165625,-0.44742917103882474],[0.1728125000000001,-0.43315844700944384],[0.1728125000000001,-0.43315844700944384],[0.14718749999999994,-0.3972717733473243],[0.14718749999999994,-0.3972717733473243],[0.14395833333333338,-0.34963273871983214],[0.14395833333333338,-0.34963273871983214],[0.1571875000000001,-0.30640083945435465],[0.1571875000000001,-0.30640083945435465],[0.17374999999999996,-0.2163693599160546],[0.17374999999999996,-0.2163693599160546],[0.18239583333333323,-0.12990556138509965],[0.18239583333333323,-0.12990556138509965],[0.17999999999999997,-0.07198321091290663],[0.17999999999999997,-0.07198321091290663],[0.12781250000000005,-0.04260230849947536],[0.12781250000000005,-0.04260230849947536],[0.05583333333333336,-0.012801678908709386],[0.05583333333333336,-0.012801678908709386],[-0.03197916666666671,0.06820566631689402],[-0.03197916666666671,0.06820566631689402],[-0.03197916666666671,0.06820566631689402],[-0.11583333333333339,0.10891920251836301],[-0.11583333333333339,0.10891920251836301],[-0.08531249999999997,0.11605456453305342],[-0.08531249999999997,0.11605456453305342],[-0.11364583333333336,0.1481636935991606],[-0.11364583333333336,0.1481636935991606]]","[[-0.034791666666666644,-0.0543546694648478,0],[-0.034791666666666644,-0.0543546694648478,0.10679999995231526],[-0.028541666666666642,-0.0810073452256034,0.1226000000238372],[-0.028541666666666642,-0.0810073452256034,0.13920000004767985],[0.009375,-0.10178384050367262,0.15910000002384095],[0.009375,-0.10178384050367262,0.1887999999523089],[0.020937500000000022,-0.09968520461699895,0.2604999999999933],[0.020937500000000022,-0.09968520461699895,0.3178999999761629],[0.0017708333333333807,-0.11122770199370409,0.3266000000238449],[0.0017708333333333807,-0.11122770199370409,0.3417999999523147],[-0.017083333333333308,-0.1284365162644281,0.3527000000476761],[-0.017083333333333308,-0.1284365162644281,0.3908999999761562],[-0.03343750000000002,-0.14249737670514162,0.41899999999999693],[-0.03343750000000002,-0.14249737670514162,0.556899999976153],[-0.04656250000000005,-0.1861490031479538,0.5792000000476776],[-0.04656250000000005,-0.1861490031479538,0.596600000023841],[-0.028645833333333332,-0.20209863588667368,0.6476000000238429],[-0.028645833333333332,-0.20209863588667368,0.6613999999761546],[0.001145833333333357,-0.1689401888772298,0.6971000000238377],[0.001145833333333357,-0.1689401888772298,0.8327000000476801],[0.007187499999999976,-0.18279118572927602,0.8922999999523142],[0.007187499999999976,-0.18279118572927602,0.9127999999523126],[0.007187499999999976,-0.18279118572927602,0.9189999999999969],[0.044479166666666715,-0.14690451206715635,0.9525000000000006],[0.044479166666666715,-0.14690451206715635,0.9863999999761575],[0.049791666666666616,-0.10619097586568735,1.016999999999996],[0.049791666666666616,-0.10619097586568735,1.0826000000238452],[0.0818749999999999,-0.08142707240293812,1.1612000000476854],[0.0818749999999999,-0.08142707240293812,1.17739999997616],[0.10104166666666667,-0.055403987408184634,1.1966000000238353],[0.10104166666666667,-0.055403987408184634,1.2090000000000032],[0.10104166666666667,-0.055403987408184634,1.218999999999994],[0.13135416666666658,-0.004197271773347324,1.2357999999523201],[0.13135416666666658,-0.004197271773347324,1.2831000000238362],[0.13135416666666658,-0.004197271773347324,1.2858999999761522],[0.16072916666666662,0.04239244491080795,1.3353999999761612],[0.16072916666666662,0.04239244491080795,1.3546000000238365],[0.17218749999999997,0.10262329485834203,1.4066000000238432],[0.17218749999999997,0.10262329485834203,1.4237999999523083],[0.13583333333333342,0.13011542497376705,1.4362999999523112],[0.13583333333333342,0.13011542497376705,1.5217999999523215],[0.10697916666666671,0.17691500524658962,1.5376000000238434],[0.10697916666666671,0.17691500524658962,1.5772000000476822],[0.10885416666666667,0.24784889821615955,1.5884999999999962],[0.10885416666666667,0.24784889821615955,1.606700000047681],[0.09593749999999991,0.29192025183630643,1.6487000000476826],[0.09593749999999991,0.29192025183630643,1.66339999997615],[0.10270833333333323,0.29150052465897164,1.7101000000238429],[0.10270833333333323,0.29150052465897164,1.7532000000476842],[0.11635416666666672,0.3126967471143757,1.7959999999999923],[0.11635416666666672,0.3126967471143757,1.8077999999523087],[0.14093749999999997,0.3248688352570828,1.8467000000476759],[0.14093749999999997,0.3248688352570828,1.8862000000476797],[0.14093749999999997,0.3248688352570828,1.9027000000476875],[0.14343750000000005,0.310598111227702,1.9257999999523179],[0.14343750000000005,0.310598111227702,1.9609999999999985],[0.15927083333333342,0.317523609653725,1.9770000000000039],[0.15927083333333342,0.317523609653725,1.9962999999523134],[0.17302083333333323,0.3122770199370408,2.01010000002384],[0.17302083333333323,0.3122770199370408,2.042999999999992],[0.18458333333333338,0.28562434417628546,2.0661000000238374],[0.18458333333333338,0.28562434417628546,2.0856000000238453],[0.17531249999999995,0.23756558237145864,2.104100000023834],[0.17531249999999995,0.23756558237145864,2.126499999999993],[0.16864583333333344,0.2088142707240294,2.149600000023838],[0.16864583333333344,0.2088142707240294,2.234700000047681],[0.15968749999999995,0.11584470094438624,2.2507999999523207],[0.15968749999999995,0.11584470094438624,2.2717000000476872],[0.15,0.10304302203567686,2.2959999999999923],[0.15,0.10304302203567686,2.3233999999761608],[0.12781250000000005,0.025603357817418654,2.33779999995231],[0.12781250000000005,0.025603357817418654,2.4542000000476776],[0.09156250000000009,-0.03525708289611755,2.5038999999761558],[0.09156250000000009,-0.03525708289611755,2.5242999999523192],[0.06541666666666662,-0.0709338929695698,2.5406000000238436],[0.06541666666666662,-0.0709338929695698,2.5595],[0.03583333333333331,-0.12402938090241349,2.5755000000000052],[0.03583333333333331,-0.12402938090241349,2.663100000023846],[0.022708333333333285,-0.2199370409233998,2.670799999952308],[0.028854166666666715,-0.28814270724029384,2.6940000000000026],[0.028854166666666715,-0.28814270724029384,2.7411000000238346],[0.06177083333333329,-0.3206715634837356,2.7751000000238406],[0.06177083333333329,-0.3206715634837356,2.805499999999995],[0.09010416666666667,-0.3880377754459601,2.843999999999994],[0.09010416666666667,-0.3880377754459601,2.91429999995232],[0.14187500000000006,-0.3907660020986359,2.9253999999761504],[0.14187500000000006,-0.3907660020986359,2.9538999999761586],[0.14187500000000006,-0.3907660020986359,2.9556000000238356],[0.165625,-0.44742917103882474,3.0176000000238474],[0.165625,-0.44742917103882474,3.0337000000476877],[0.1728125000000001,-0.43315844700944384,3.0566000000238347],[0.1728125000000001,-0.43315844700944384,3.0772000000476822],[0.14718749999999994,-0.3972717733473243,3.1147000000476766],[0.14718749999999994,-0.3972717733473243,3.1427999999523166],[0.14395833333333338,-0.34963273871983214,3.187600000023835],[0.14395833333333338,-0.34963273871983214,3.203200000047687],[0.1571875000000001,-0.30640083945435465,3.218899999976159],[0.1571875000000001,-0.30640083945435465,3.235700000047686],[0.17374999999999996,-0.2163693599160546,3.2732999999523145],[0.17374999999999996,-0.2163693599160546,3.287100000023841],[0.18239583333333323,-0.12990556138509965,3.339399999976152],[0.18239583333333323,-0.12990556138509965,3.372299999952318],[0.17999999999999997,-0.07198321091290663,3.4127999999523126],[0.17999999999999997,-0.07198321091290663,3.4467000000476844],[0.12781250000000005,-0.04260230849947536,3.475399999976162],[0.12781250000000005,-0.04260230849947536,3.5192999999523096],[0.05583333333333336,-0.012801678908709386,3.5552000000476767],[0.05583333333333336,-0.012801678908709386,3.5914999999999964],[-0.03197916666666671,0.06820566631689402,3.627600000023847],[-0.03197916666666671,0.06820566631689402,3.6393999999761633],[-0.03197916666666671,0.06820566631689402,3.6611000000238363],[-0.11583333333333339,0.10891920251836301,3.685100000023837],[-0.11583333333333339,0.10891920251836301,3.82670000004768],[-0.08531249999999997,0.11605456453305342,3.852600000023841],[-0.08531249999999997,0.11605456453305342,3.864799999952311],[-0.11364583333333336,0.1481636935991606,3.900499999999994],[-0.11364583333333336,0.1481636935991606,3.9353999999761555]]","[0,0.10679999995231526,0.1226000000238372,0.13920000004767985,0.15910000002384095,0.1887999999523089,0.2604999999999933,0.3178999999761629,0.3266000000238449,0.3417999999523147,0.3527000000476761,0.3908999999761562,0.41899999999999693,0.556899999976153,0.5792000000476776,0.596600000023841,0.6476000000238429,0.6613999999761546,0.6971000000238377,0.8327000000476801,0.8922999999523142,0.9127999999523126,0.9189999999999969,0.9525000000000006,0.9863999999761575,1.016999999999996,1.0826000000238452,1.1612000000476854,1.17739999997616,1.1966000000238353,1.2090000000000032,1.218999999999994,1.2357999999523201,1.2831000000238362,1.2858999999761522,1.3353999999761612,1.3546000000238365,1.4066000000238432,1.4237999999523083,1.4362999999523112,1.5217999999523215,1.5376000000238434,1.5772000000476822,1.5884999999999962,1.606700000047681,1.6487000000476826,1.66339999997615,1.7101000000238429,1.7532000000476842,1.7959999999999923,1.8077999999523087,1.8467000000476759,1.8862000000476797,1.9027000000476875,1.9257999999523179,1.9609999999999985,1.9770000000000039,1.9962999999523134,2.01010000002384,2.042999999999992,2.0661000000238374,2.0856000000238453,2.104100000023834,2.126499999999993,2.149600000023838,2.234700000047681,2.2507999999523207,2.2717000000476872,2.2959999999999923,2.3233999999761608,2.33779999995231,2.4542000000476776,2.5038999999761558,2.5242999999523192,2.5406000000238436,2.5595,2.5755000000000052,2.663100000023846,2.670799999952308,2.6940000000000026,2.7411000000238346,2.7751000000238406,2.805499999999995,2.843999999999994,2.91429999995232,2.9253999999761504,2.9538999999761586,2.9556000000238356,3.0176000000238474,3.0337000000476877,3.0566000000238347,3.0772000000476822,3.1147000000476766,3.1427999999523166,3.187600000023835,3.203200000047687,3.218899999976159,3.235700000047686,3.2732999999523145,3.287100000023841,3.339399999976152,3.372299999952318,3.4127999999523126,3.4467000000476844,3.475399999976162,3.5192999999523096,3.5552000000476767,3.5914999999999964,3.627600000023847,3.6393999999761633,3.6611000000238363,3.685100000023837,3.82670000004768,3.852600000023841,3.864799999952311,3.900499999999994,3.9353999999761555]","[1733106676523,1733106676628,1733106676644,1733106676661,1733106676681,1733106676710,1733106676782,1733106676839,1733106676848,1733106676863,1733106676874,1733106676912,1733106676941,1733106677078,1733106677101,1733106677118,1733106677169,1733106677183,1733106677219,1733106677354,1733106677414,1733106677434,1733106677441,1733106677474,1733106677508,1733106677539,1733106677604,1733106677683,1733106677699,1733106677718,1733106677731,1733106677741,1733106677757,1733106677805,1733106677807,1733106677857,1733106677876,1733106677928,1733106677945,1733106677958,1733106678043,1733106678059,1733106678099,1733106678110,1733106678128,1733106678170,1733106678185,1733106678232,1733106678275,1733106678318,1733106678329,1733106678368,1733106678408,1733106678424,1733106678447,1733106678483,1733106678499,1733106678518,1733106678532,1733106678565,1733106678588,1733106678607,1733106678626,1733106678648,1733106678671,1733106678756,1733106678772,1733106678793,1733106678818,1733106678845,1733106678859,1733106678976,1733106679025,1733106679046,1733106679062,1733106679081,1733106679097,1733106679185,1733106679192,1733106679216,1733106679263,1733106679297,1733106679327,1733106679366,1733106679436,1733106679447,1733106679475,1733106679477,1733106679539,1733106679555,1733106679578,1733106679599,1733106679636,1733106679664,1733106679709,1733106679725,1733106679741,1733106679757,1733106679795,1733106679809,1733106679861,1733106679894,1733106679934,1733106679968,1733106679997,1733106680041,1733106680077,1733106680113,1733106680149,1733106680161,1733106680183,1733106680207,1733106680348,1733106680374,1733106680386,1733106680422,1733106680457]","[[926.6,450.6],[926.6,450.6],[932.6,437.9],[932.6,437.9],[969,428],[969,428],[980.1,429],[980.1,429],[961.7,423.5],[961.7,423.5],[943.6,415.3],[943.6,415.3],[927.9,408.6],[927.9,408.6],[915.3,387.8],[915.3,387.8],[932.5,380.2],[932.5,380.2],[961.1,396],[961.1,396],[966.9,389.4],[966.9,389.4],[966.9,389.4],[1002.7,406.5],[1002.7,406.5],[1007.8,425.9],[1007.8,425.9],[1038.6,437.7],[1038.6,437.7],[1057,450.1],[1057,450.1],[1057,450.1],[1086.1,474.5],[1086.1,474.5],[1086.1,474.5],[1114.3,496.7],[1114.3,496.7],[1125.3,525.4],[1125.3,525.4],[1090.4,538.5],[1090.4,538.5],[1062.7,560.8],[1062.7,560.8],[1064.5,594.6],[1064.5,594.6],[1052.1,615.6],[1052.1,615.6],[1058.6,615.4],[1058.6,615.4],[1071.7,625.5],[1071.7,625.5],[1095.3,631.3],[1095.3,631.3],[1095.3,631.3],[1097.7,624.5],[1097.7,624.5],[1112.9,627.8],[1112.9,627.8],[1126.1,625.3],[1126.1,625.3],[1137.2,612.6],[1137.2,612.6],[1128.3,589.7],[1128.3,589.7],[1121.9,576],[1121.9,576],[1113.3,531.7],[1113.3,531.7],[1104,525.6],[1104,525.6],[1082.7,488.7],[1082.7,488.7],[1047.9,459.7],[1047.9,459.7],[1022.8,442.7],[1022.8,442.7],[994.4,417.4],[994.4,417.4],[981.8,371.7],[987.7,339.2],[987.7,339.2],[1019.3,323.7],[1019.3,323.7],[1046.5,291.6],[1046.5,291.6],[1096.2,290.3],[1096.2,290.3],[1096.2,290.3],[1119,263.3],[1119,263.3],[1125.9,270.1],[1125.9,270.1],[1101.3,287.2],[1101.3,287.2],[1098.2,309.9],[1098.2,309.9],[1110.9,330.5],[1110.9,330.5],[1126.8,373.4],[1126.8,373.4],[1135.1,414.6],[1135.1,414.6],[1132.8,442.2],[1132.8,442.2],[1082.7,456.2],[1082.7,456.2],[1013.6,470.4],[1013.6,470.4],[929.3,509],[929.3,509],[929.3,509],[848.8,528.4],[848.8,528.4],[878.1,531.8],[878.1,531.8],[850.9,547.1],[850.9,547.1]]","[0,0.37864299999999995]","[0.37864299999999995,0.37864299999999995]","[-0.37864299999999995,-0.37864299999999995]","[-0.37864299999999995,0]","[0,-0.37864299999999995]","[0.37864299999999995,-0.37864299999999995]","[0,0]","[0.37864299999999995,0]",0,2,2,2,1,3,Laptop,5,5,15,9
