inst1_resp.keys,inst1_resp.rt,calibrationMouse.x,calibrationMouse.y,calibrationMouse.leftButton,calibrationMouse.midButton,calibrationMouse.rightButton,calibrationClick.x,calibrationClick.y,calibrationClick.leftButton,calibrationClick.midButton,calibrationClick.rightButton,trialsc.thisRepN,trialsc.thisTrialN,trialsc.thisN,trialsc.thisIndex,trialsc.ran,calibration_x,calibration_y,participant,session,date,expName,psychopyVersion,OS,frameRate,calibrationClick.clicked_name,ScreenRes_pixels,Camera_pixels,mouse_2.x,mouse_2.y,mouse_2.leftButton,mouse_2.midButton,mouse_2.rightButton,mouse_2.time,mouse_2.clicked_name,mouse.x,mouse.y,mouse.leftButton,mouse.midButton,mouse.rightButton,mouse.time,mouse.clicked_name,Choice,Trial,TrialDuration,MOUSE_GAZE,ET_GAZE,ET_GAZE_x_T,time,unixTime,ET_GAZE_NF,Loc_Option1_label,Loc_Option2_label,Loc_Cost_label,Loc_Qual_label,Loc_Option1_cost,Loc_Option2_cost,Loc_Option1_quality,Loc_Option2_quality,trials.thisRepN,trials.thisTrialN,trials.thisN,trials.thisIndex,trials.ran,Block,Device,cost1,qual1,cost2,qual2
space,2.7981,0.25,0.359259259,1,0,0,0.340625,0.003703704,1,0,0,0,0,0,16,1,0.33,0,33,001,2024-12-01_15h45.50.011,Attention_exp_legacy,2023.1.0,Win32,59.88023952,,,,,,,,,,,,,,,,,,,,,,,,,,,,,,,,,,,,,,,,,,,,,
,,,,,,,-0.326041667,-0.687037037,1,0,0,0,1,1,4,1,-0.33,-0.67,33,001,2024-12-01_15h45.50.011,Attention_exp_legacy,2023.1.0,Win32,59.88023952,,,,,,,,,,,,,,,,,,,,,,,,,,,,,,,,,,,,,,,,,,,,,
,,,,,,,-0.326041667,0.005555556,1,0,0,0,2,2,6,1,-0.33,0,33,001,2024-12-01_15h45.50.011,Attention_exp_legacy,2023.1.0,Win32,59.88023952,calibration_square,,,,,,,,,,,,,,,,,,,,,,,,,,,,,,,,,,,,,,,,,,,,
,,,,,,,-0.342708333,0.331481481,1,0,0,0,3,3,7,1,-0.33,0.33,33,001,2024-12-01_15h45.50.011,Attention_exp_legacy,2023.1.0,Win32,59.88023952,,,,,,,,,,,,,,,,,,,,,,,,,,,,,,,,,,,,,,,,,,,,,
,,,,,,,0.325,-0.683333333,1,0,0,0,4,4,14,1,0.33,-0.67,33,001,2024-12-01_15h45.50.011,Attention_exp_legacy,2023.1.0,Win32,59.88023952,,,,,,,,,,,,,,,,,,,,,,,,,,,,,,,,,,,,,,,,,,,,,
,,,,,,,0.658333333,-0.681481481,1,0,0,0,5,5,20,1,0.67,-0.67,33,001,2024-12-01_15h45.50.011,Attention_exp_legacy,2023.1.0,Win32,59.88023952,,,,,,,,,,,,,,,,,,,,,,,,,,,,,,,,,,,,,,,,,,,,,
,,,,,,,-0.008333333,0.668518519,1,0,0,0,6,6,13,1,0,0.67,33,001,2024-12-01_15h45.50.011,Attention_exp_legacy,2023.1.0,Win32,59.88023952,calibration_square,,,,,,,,,,,,,,,,,,,,,,,,,,,,,,,,,,,,,,,,,,,,
,,,,,,,-0.66875,-0.009259259,1,0,0,0,7,7,2,1,-0.67,0,33,001,2024-12-01_15h45.50.011,Attention_exp_legacy,2023.1.0,Win32,59.88023952,calibration_square,,,,,,,,,,,,,,,,,,,,,,,,,,,,,,,,,,,,,,,,,,,,
,,,,,,,-0.671875,0.322222222,1,0,0,0,8,8,3,1,-0.67,0.33,33,001,2024-12-01_15h45.50.011,Attention_exp_legacy,2023.1.0,Win32,59.88023952,calibration_square,,,,,,,,,,,,,,,,,,,,,,,,,,,,,,,,,,,,,,,,,,,,
,,,,,,,-0.319791667,0.685185185,1,0,0,0,9,9,8,1,-0.33,0.67,33,001,2024-12-01_15h45.50.011,Attention_exp_legacy,2023.1.0,Win32,59.88023952,,,,,,,,,,,,,,,,,,,,,,,,,,,,,,,,,,,,,,,,,,,,,
,,,,,,,0.344791667,0.316666667,1,0,0,0,10,10,17,1,0.33,0.33,33,001,2024-12-01_15h45.50.011,Attention_exp_legacy,2023.1.0,Win32,59.88023952,,,,,,,,,,,,,,,,,,,,,,,,,,,,,,,,,,,,,,,,,,,,,
,,,,,,,-0.002083333,-0.657407407,1,0,0,0,11,11,9,1,0,-0.67,33,001,2024-12-01_15h45.50.011,Attention_exp_legacy,2023.1.0,Win32,59.88023952,,,,,,,,,,,,,,,,,,,,,,,,,,,,,,,,,,,,,,,,,,,,,
,,,,,,,-0.688541667,-0.348148148,1,0,0,0,12,12,1,1,-0.67,-0.33,33,001,2024-12-01_15h45.50.011,Attention_exp_legacy,2023.1.0,Win32,59.88023952,,,,,,,,,,,,,,,,,,,,,,,,,,,,,,,,,,,,,,,,,,,,,
,,,,,,,0.625,0.675925926,1,0,0,0,13,13,19,1,0.67,0.67,33,001,2024-12-01_15h45.50.011,Attention_exp_legacy,2023.1.0,Win32,59.88023952,,,,,,,,,,,,,,,,,,,,,,,,,,,,,,,,,,,,,,,,,,,,,
,,,,,,,0.054166667,-0.011111111,1,0,0,0,14,14,11,1,0,0,33,001,2024-12-01_15h45.50.011,Attention_exp_legacy,2023.1.0,Win32,59.88023952,,,,,,,,,,,,,,,,,,,,,,,,,,,,,,,,,,,,,,,,,,,,,
,,,,,,,0.357291667,-0.333333333,1,0,0,0,15,15,15,1,0.33,-0.33,33,001,2024-12-01_15h45.50.011,Attention_exp_legacy,2023.1.0,Win32,59.88023952,,,,,,,,,,,,,,,,,,,,,,,,,,,,,,,,,,,,,,,,,,,,,
,,,,,,,-0.341666667,-0.353703704,1,0,0,0,16,16,5,1,-0.33,-0.33,33,001,2024-12-01_15h45.50.011,Attention_exp_legacy,2023.1.0,Win32,59.88023952,,,,,,,,,,,,,,,,,,,,,,,,,,,,,,,,,,,,,,,,,,,,,
,,,,,,,-0.003125,0.340740741,1,0,0,0,17,17,12,1,0,0.33,33,001,2024-12-01_15h45.50.011,Attention_exp_legacy,2023.1.0,Win32,59.88023952,,,,,,,,,,,,,,,,,,,,,,,,,,,,,,,,,,,,,,,,,,,,,
,,,,,,,-0.667708333,-0.666666667,1,0,0,0,18,18,0,1,-0.67,-0.67,33,001,2024-12-01_15h45.50.011,Attention_exp_legacy,2023.1.0,Win32,59.88023952,calibration_square,,,,,,,,,,,,,,,,,,,,,,,,,,,,,,,,,,,,,,,,,,,,
,,,,,,,0.29375,0.67962963,1,0,0,0,19,19,18,1,0.33,0.67,33,001,2024-12-01_15h45.50.011,Attention_exp_legacy,2023.1.0,Win32,59.88023952,,,,,,,,,,,,,,,,,,,,,,,,,,,,,,,,,,,,,,,,,,,,,
,,,,,,,0.008333333,-0.35,1,0,0,0,20,20,10,1,0,-0.33,33,001,2024-12-01_15h45.50.011,Attention_exp_legacy,2023.1.0,Win32,59.88023952,,,,,,,,,,,,,,,,,,,,,,,,,,,,,,,,,,,,,,,,,,,,,
,,,,,,,,,,,,,,,,,,,33,001,2024-12-01_15h45.50.011,Attention_exp_legacy,2023.1.0,Win32,59.88023952,,"[1920,1080]","[640,480]",[0.029166666666666667],[-0.4962962962962963],[1],[0],[0],[4.129700000047684],"[""StartButton""]",[0.34791666666666665],[0.35],[1],[0],[0],[7.487900000035765],"[""Option2_label""]",Option2_label,1,8.5013,"[[0.20416666666666666,0.34814814814814815],[0.20416666666666666,0.35],[0.20416666666666666,0.35185185185185186],[0.20416666666666666,0.35555555555555557],[0.20416666666666666,0.35555555555555557],[0.20416666666666666,0.35555555555555557],[0.20416666666666666,0.35555555555555557],[0.20416666666666666,0.35555555555555557],[0.20416666666666666,0.35555555555555557],[0.20416666666666666,0.35555555555555557],[0.20416666666666666,0.35555555555555557],[0.20416666666666666,0.35555555555555557],[0.20416666666666666,0.35555555555555557],[0.20416666666666666,0.35555555555555557],[0.20416666666666666,0.35555555555555557],[0.20416666666666666,0.35555555555555557],[0.20416666666666666,0.35555555555555557],[0.20416666666666666,0.35555555555555557],[0.20416666666666666,0.35555555555555557],[0.20416666666666666,0.35555555555555557],[0.20416666666666666,0.35555555555555557],[0.20416666666666666,0.35555555555555557],[0.20416666666666666,0.35555555555555557],[0.20416666666666666,0.35555555555555557],[0.20416666666666666,0.35555555555555557],[0.20416666666666666,0.35555555555555557],[0.20416666666666666,0.35555555555555557],[0.20625,0.35555555555555557],[0.20833333333333334,0.3592592592592593],[0.209375,0.362962962962963],[0.209375,0.37037037037037035],[0.209375,0.37592592592592594],[0.209375,0.39444444444444443],[0.19791666666666666,0.4185185185185185],[0.16979166666666667,0.4444444444444444],[0.14583333333333334,0.46111111111111114],[0.11666666666666667,0.4759259259259259],[0.084375,0.48333333333333334],[0.034375,0.4888888888888889],[-0.019791666666666666,0.4888888888888889],[-0.07916666666666666,0.4759259259259259],[-0.13958333333333334,0.45740740740740743],[-0.19375,0.4444444444444444],[-0.240625,0.42777777777777776],[-0.28020833333333334,0.4074074074074074],[-0.32395833333333335,0.3814814814814815],[-0.3489583333333333,0.3611111111111111],[-0.3729166666666667,0.34444444444444444],[-0.39479166666666665,0.32222222222222224],[-0.4166666666666667,0.3],[-0.43333333333333335,0.2796296296296296],[-0.44479166666666664,0.25925925925925924],[-0.4552083333333333,0.23333333333333334],[-0.4625,0.2074074074074074],[-0.46979166666666666,0.15925925925925927],[-0.46979166666666666,0.12037037037037036],[-0.46979166666666666,0.10185185185185185],[-0.4635416666666667,0.046296296296296294],[-0.45729166666666665,0.005555555555555556],[-0.45,-0.03518518518518519],[-0.43854166666666666,-0.07592592592592592],[-0.428125,-0.11666666666666667],[-0.415625,-0.1574074074074074],[-0.4,-0.20555555555555555],[-0.38125,-0.2518518518518518],[-0.35833333333333334,-0.31296296296296294],[-0.31875,-0.387037037037037],[-0.3072916666666667,-0.40185185185185185],[-0.2833333333333333,-0.43333333333333335],[-0.246875,-0.4648148148148148],[-0.22395833333333334,-0.48703703703703705],[-0.20104166666666667,-0.5037037037037037],[-0.17916666666666667,-0.512962962962963],[-0.15729166666666666,-0.5166666666666667],[-0.13229166666666667,-0.5222222222222223],[-0.10729166666666666,-0.5222222222222223],[-0.090625,-0.5222222222222223],[-0.06979166666666667,-0.5222222222222223],[-0.0625,-0.5222222222222223],[-0.05520833333333333,-0.5222222222222223],[-0.04375,-0.5203703703703704],[-0.030208333333333334,-0.5185185185185185],[-0.0125,-0.512962962962963],[0,-0.5111111111111111],[0.008333333333333333,-0.5055555555555555],[0.0125,-0.5055555555555555],[0.01875,-0.5055555555555555],[0.026041666666666668,-0.5037037037037037],[0.036458333333333336,-0.4981481481481482],[0.051041666666666666,-0.4925925925925926],[0.065625,-0.48518518518518516],[0.08020833333333334,-0.4777777777777778],[0.09375,-0.4685185185185185],[0.10833333333333334,-0.45740740740740743],[0.13541666666666666,-0.42962962962962964],[0.15625,-0.4074074074074074],[0.18020833333333333,-0.37777777777777777],[0.20729166666666668,-0.34074074074074073],[0.22604166666666667,-0.3148148148148148],[0.2375,-0.30185185185185187],[0.24583333333333332,-0.28703703703703703],[0.24791666666666667,-0.2833333333333333],[0.253125,-0.2759259259259259],[0.253125,-0.2759259259259259],[0.25416666666666665,-0.2740740740740741],[0.25625,-0.26851851851851855],[0.25625,-0.26851851851851855],[0.25625,-0.26851851851851855],[0.25729166666666664,-0.26666666666666666],[0.25729166666666664,-0.26666666666666666],[0.25729166666666664,-0.26666666666666666],[0.25729166666666664,-0.26666666666666666],[0.25729166666666664,-0.26666666666666666],[0.25729166666666664,-0.26666666666666666],[0.25729166666666664,-0.26666666666666666],[0.25729166666666664,-0.26666666666666666],[0.25729166666666664,-0.26666666666666666],[0.25729166666666664,-0.26666666666666666],[0.25729166666666664,-0.26666666666666666],[0.25833333333333336,-0.26666666666666666],[0.259375,-0.26666666666666666],[0.2604166666666667,-0.26666666666666666],[0.26145833333333335,-0.27037037037037037],[0.2635416666666667,-0.2759259259259259],[0.26458333333333334,-0.2777777777777778],[0.26666666666666666,-0.2833333333333333],[0.2677083333333333,-0.28703703703703703],[0.2677083333333333,-0.28888888888888886],[0.2677083333333333,-0.29074074074074074],[0.26875,-0.29259259259259257],[0.26875,-0.29259259259259257],[0.26979166666666665,-0.29444444444444445],[0.26979166666666665,-0.29444444444444445],[0.2708333333333333,-0.2962962962962963],[0.2708333333333333,-0.29814814814814816],[0.2708333333333333,-0.3],[0.2708333333333333,-0.3],[0.2708333333333333,-0.30185185185185187],[0.2708333333333333,-0.30185185185185187],[0.2708333333333333,-0.3037037037037037],[0.2708333333333333,-0.3037037037037037],[0.2708333333333333,-0.3074074074074074],[0.2708333333333333,-0.3074074074074074],[0.2708333333333333,-0.3074074074074074],[0.2708333333333333,-0.3074074074074074],[0.2708333333333333,-0.3074074074074074],[0.2708333333333333,-0.3074074074074074],[0.2708333333333333,-0.3074074074074074],[0.2708333333333333,-0.3074074074074074],[0.2708333333333333,-0.3074074074074074],[0.2708333333333333,-0.3074074074074074],[0.2708333333333333,-0.3074074074074074],[0.2708333333333333,-0.3074074074074074],[0.2708333333333333,-0.3074074074074074],[0.2708333333333333,-0.3074074074074074],[0.2708333333333333,-0.3074074074074074],[0.2708333333333333,-0.3074074074074074],[0.2708333333333333,-0.3074074074074074],[0.2708333333333333,-0.3074074074074074],[0.2708333333333333,-0.3074074074074074],[0.2708333333333333,-0.3074074074074074],[0.2708333333333333,-0.3074074074074074],[0.2708333333333333,-0.3074074074074074],[0.2708333333333333,-0.3074074074074074],[0.2708333333333333,-0.3074074074074074],[0.2708333333333333,-0.3074074074074074],[0.2708333333333333,-0.3074074074074074],[0.2708333333333333,-0.3074074074074074],[0.2708333333333333,-0.3074074074074074],[0.2708333333333333,-0.3074074074074074],[0.2708333333333333,-0.3074074074074074],[0.2708333333333333,-0.3074074074074074],[0.2708333333333333,-0.3074074074074074],[0.2708333333333333,-0.3074074074074074],[0.2708333333333333,-0.3074074074074074],[0.2708333333333333,-0.3074074074074074],[0.2708333333333333,-0.3074074074074074],[0.2708333333333333,-0.3074074074074074],[0.2708333333333333,-0.3074074074074074],[0.2708333333333333,-0.3074074074074074],[0.2708333333333333,-0.3074074074074074],[0.2708333333333333,-0.3074074074074074],[0.2708333333333333,-0.3074074074074074],[0.2708333333333333,-0.3074074074074074],[0.2708333333333333,-0.3074074074074074],[0.2708333333333333,-0.3074074074074074],[0.2708333333333333,-0.3074074074074074],[0.2708333333333333,-0.3074074074074074],[0.2708333333333333,-0.3074074074074074],[0.2708333333333333,-0.3074074074074074],[0.2708333333333333,-0.3074074074074074],[0.2708333333333333,-0.3074074074074074],[0.2708333333333333,-0.3074074074074074],[0.2708333333333333,-0.3074074074074074],[0.2708333333333333,-0.3074074074074074],[0.2708333333333333,-0.3074074074074074],[0.2708333333333333,-0.3074074074074074],[0.2708333333333333,-0.3074074074074074],[0.2708333333333333,-0.3074074074074074],[0.2708333333333333,-0.3074074074074074],[0.2708333333333333,-0.3074074074074074],[0.2708333333333333,-0.3074074074074074],[0.2708333333333333,-0.3074074074074074],[0.2708333333333333,-0.3074074074074074],[0.2708333333333333,-0.3074074074074074],[0.2708333333333333,-0.3074074074074074],[0.271875,-0.30925925925925923],[0.271875,-0.30925925925925923],[0.27291666666666664,-0.30925925925925923],[0.27395833333333336,-0.30925925925925923],[0.27395833333333336,-0.30925925925925923],[0.27395833333333336,-0.30925925925925923],[0.275,-0.30925925925925923],[0.275,-0.30925925925925923],[0.275,-0.3074074074074074],[0.275,-0.3074074074074074],[0.275,-0.3074074074074074],[0.275,-0.3074074074074074],[0.2760416666666667,-0.3074074074074074],[0.2760416666666667,-0.3074074074074074],[0.2760416666666667,-0.3074074074074074],[0.2760416666666667,-0.3074074074074074],[0.2760416666666667,-0.3074074074074074],[0.2760416666666667,-0.3074074074074074],[0.2760416666666667,-0.3074074074074074],[0.2760416666666667,-0.3074074074074074],[0.2760416666666667,-0.3074074074074074],[0.2760416666666667,-0.3074074074074074],[0.2760416666666667,-0.3074074074074074],[0.2760416666666667,-0.3074074074074074],[0.2760416666666667,-0.3074074074074074],[0.2760416666666667,-0.3074074074074074],[0.27708333333333335,-0.3055555555555556],[0.27708333333333335,-0.3055555555555556],[0.27708333333333335,-0.3055555555555556],[0.27708333333333335,-0.3055555555555556],[0.27708333333333335,-0.3055555555555556],[0.27708333333333335,-0.3055555555555556],[0.27708333333333335,-0.3055555555555556],[0.27708333333333335,-0.3055555555555556],[0.27708333333333335,-0.3055555555555556],[0.27708333333333335,-0.3055555555555556],[0.27708333333333335,-0.3055555555555556],[0.27708333333333335,-0.3055555555555556],[0.27708333333333335,-0.3055555555555556],[0.27708333333333335,-0.3055555555555556],[0.27708333333333335,-0.3055555555555556],[0.27708333333333335,-0.3055555555555556],[0.27708333333333335,-0.3055555555555556],[0.27708333333333335,-0.3055555555555556],[0.27708333333333335,-0.3055555555555556],[0.27708333333333335,-0.3055555555555556],[0.27708333333333335,-0.3055555555555556],[0.27708333333333335,-0.3055555555555556],[0.27708333333333335,-0.3055555555555556],[0.27708333333333335,-0.3055555555555556],[0.27708333333333335,-0.3055555555555556],[0.27708333333333335,-0.3055555555555556],[0.27708333333333335,-0.3055555555555556],[0.27708333333333335,-0.3055555555555556],[0.27708333333333335,-0.3055555555555556],[0.27708333333333335,-0.3055555555555556],[0.27708333333333335,-0.3055555555555556],[0.27708333333333335,-0.3055555555555556],[0.27708333333333335,-0.3055555555555556],[0.27708333333333335,-0.3055555555555556],[0.27708333333333335,-0.3055555555555556],[0.27708333333333335,-0.3055555555555556],[0.27708333333333335,-0.3055555555555556],[0.27708333333333335,-0.3055555555555556],[0.27708333333333335,-0.3055555555555556],[0.27708333333333335,-0.3055555555555556],[0.27708333333333335,-0.3055555555555556],[0.27708333333333335,-0.3055555555555556],[0.27708333333333335,-0.3055555555555556],[0.27708333333333335,-0.3055555555555556],[0.27708333333333335,-0.3055555555555556],[0.278125,-0.3055555555555556],[0.278125,-0.3055555555555556],[0.278125,-0.3055555555555556],[0.2791666666666667,-0.3037037037037037],[0.2791666666666667,-0.3037037037037037],[0.2791666666666667,-0.3037037037037037],[0.2791666666666667,-0.3037037037037037],[0.2791666666666667,-0.3037037037037037],[0.2791666666666667,-0.3037037037037037],[0.2791666666666667,-0.3037037037037037],[0.2791666666666667,-0.3037037037037037],[0.2791666666666667,-0.3037037037037037],[0.2791666666666667,-0.3037037037037037],[0.2791666666666667,-0.3037037037037037],[0.2791666666666667,-0.3037037037037037],[0.2791666666666667,-0.3037037037037037],[0.2791666666666667,-0.3037037037037037],[0.2791666666666667,-0.3037037037037037],[0.2791666666666667,-0.3037037037037037],[0.2791666666666667,-0.3037037037037037],[0.2791666666666667,-0.3037037037037037],[0.2791666666666667,-0.3037037037037037],[0.2791666666666667,-0.3037037037037037],[0.2791666666666667,-0.3037037037037037],[0.2791666666666667,-0.3037037037037037],[0.2791666666666667,-0.3037037037037037],[0.2791666666666667,-0.3037037037037037],[0.2791666666666667,-0.3037037037037037],[0.2791666666666667,-0.3037037037037037],[0.2791666666666667,-0.3037037037037037],[0.2791666666666667,-0.3037037037037037],[0.2791666666666667,-0.3037037037037037],[0.2791666666666667,-0.3037037037037037],[0.2791666666666667,-0.3037037037037037],[0.2791666666666667,-0.3037037037037037],[0.2791666666666667,-0.3037037037037037],[0.2791666666666667,-0.3037037037037037],[0.2791666666666667,-0.3037037037037037],[0.2791666666666667,-0.3037037037037037],[0.2791666666666667,-0.3037037037037037],[0.2791666666666667,-0.3037037037037037],[0.2791666666666667,-0.3037037037037037],[0.2791666666666667,-0.3037037037037037],[0.2791666666666667,-0.3037037037037037],[0.2791666666666667,-0.3037037037037037],[0.2791666666666667,-0.3037037037037037],[0.2791666666666667,-0.3037037037037037],[0.2791666666666667,-0.3037037037037037],[0.2791666666666667,-0.3037037037037037],[0.2791666666666667,-0.3037037037037037],[0.2791666666666667,-0.3037037037037037],[0.2791666666666667,-0.3037037037037037],[0.2791666666666667,-0.3037037037037037],[0.2791666666666667,-0.3037037037037037],[0.2791666666666667,-0.3037037037037037],[0.2791666666666667,-0.3037037037037037],[0.2791666666666667,-0.3037037037037037],[0.2791666666666667,-0.3037037037037037],[0.2791666666666667,-0.3037037037037037],[0.2791666666666667,-0.3037037037037037],[0.2791666666666667,-0.3037037037037037],[0.2791666666666667,-0.3037037037037037],[0.2791666666666667,-0.3037037037037037],[0.2791666666666667,-0.3],[0.28125,-0.29444444444444445],[0.284375,-0.26851851851851855],[0.28854166666666664,-0.18518518518518517],[0.2916666666666667,-0.14814814814814814],[0.296875,-0.08703703703703704],[0.30104166666666665,0.014814814814814815],[0.30104166666666665,0.07962962962962963],[0.29583333333333334,0.13518518518518519],[0.28541666666666665,0.2],[0.2708333333333333,0.26296296296296295],[0.2520833333333333,0.32222222222222224],[0.23854166666666668,0.3611111111111111],[0.225,0.3888888888888889],[0.21041666666666667,0.412962962962963],[0.19895833333333332,0.43148148148148147],[0.18020833333333333,0.44814814814814813],[0.15729166666666666,0.4648148148148148],[0.12291666666666666,0.48148148148148145],[0.1,0.4925925925925926],[0.08020833333333334,0.5037037037037037],[0.059375,0.5092592592592593],[0.034375,0.5111111111111111],[0.003125,0.5111111111111111],[-0.03333333333333333,0.5111111111111111],[-0.06145833333333333,0.5111111111111111],[-0.07708333333333334,0.5111111111111111],[-0.07916666666666666,0.5111111111111111],[-0.08020833333333334,0.5111111111111111],[-0.08020833333333334,0.5111111111111111],[-0.08020833333333334,0.5092592592592593],[-0.07083333333333333,0.5018518518518519],[-0.0125,0.4888888888888889],[0.026041666666666668,0.4759259259259259],[0.09791666666666667,0.45740740740740743],[0.1625,0.4425925925925926],[0.2375,0.42592592592592593],[0.25104166666666666,0.4185185185185185],[0.26979166666666665,0.4148148148148148],[0.27708333333333335,0.412962962962963],[0.2833333333333333,0.40925925925925927],[0.28854166666666664,0.40370370370370373],[0.29791666666666666,0.40185185185185185],[0.309375,0.4],[0.32083333333333336,0.3962962962962963],[0.328125,0.39444444444444443],[0.3333333333333333,0.3925925925925926],[0.33541666666666664,0.3925925925925926],[0.33645833333333336,0.3907407407407407],[0.33645833333333336,0.3907407407407407],[0.3375,0.3907407407407407],[0.3375,0.3907407407407407],[0.3375,0.3907407407407407],[0.3375,0.3907407407407407],[0.3375,0.3907407407407407],[0.3385416666666667,0.3888888888888889],[0.3385416666666667,0.3888888888888889],[0.3385416666666667,0.3888888888888889],[0.3385416666666667,0.3888888888888889],[0.3385416666666667,0.3888888888888889],[0.33958333333333335,0.38333333333333336],[0.340625,0.37777777777777777],[0.3416666666666667,0.37407407407407406],[0.3416666666666667,0.37037037037037035],[0.34375,0.362962962962963],[0.34375,0.362962962962963],[0.34479166666666666,0.3611111111111111],[0.3458333333333333,0.3574074074074074],[0.346875,0.35555555555555557],[0.346875,0.35555555555555557],[0.346875,0.35185185185185186],[0.346875,0.35185185185185186],[0.34791666666666665,0.35],[0.34791666666666665,0.35],[0.34791666666666665,0.35],[0.34791666666666665,0.35],[0.34791666666666665,0.35],[0.34791666666666665,0.35],[0.34791666666666665,0.35],[0.34791666666666665,0.35],[0.34791666666666665,0.35],[0.34791666666666665,0.35],[0.34791666666666665,0.35],[0.34791666666666665,0.35],[0.34791666666666665,0.35],[0.34791666666666665,0.35],[0.34791666666666665,0.35],[0.34791666666666665,0.35],[0.34791666666666665,0.35],[0.34791666666666665,0.35],[0.34791666666666665,0.35],[0.34791666666666665,0.35],[0.34791666666666665,0.35],[0.34791666666666665,0.35],[0.34791666666666665,0.35],[0.34791666666666665,0.35],[0.34791666666666665,0.35],[0.34791666666666665,0.35],[0.34791666666666665,0.35],[0.34791666666666665,0.35],[0.34791666666666665,0.35],[0.34791666666666665,0.35],[0.34791666666666665,0.35],[0.34791666666666665,0.35],[0.34791666666666665,0.35],[0.34791666666666665,0.35],[0.34791666666666665,0.35],[0.34791666666666665,0.35],[0.34791666666666665,0.35],[0.34791666666666665,0.35],[0.34791666666666665,0.35],[0.34791666666666665,0.35],[0.34791666666666665,0.35],[0.34791666666666665,0.35],[0.34791666666666665,0.35],[0.34791666666666665,0.35],[0.34791666666666665,0.35],[0.34791666666666665,0.35],[0.34791666666666665,0.35],[0.34791666666666665,0.35],[0.34791666666666665,0.35],[0.34791666666666665,0.35],[0.34791666666666665,0.35],[0.34791666666666665,0.35],[0.34791666666666665,0.35],[0.34791666666666665,0.35],[0.34791666666666665,0.35],[0.3489583333333333,0.34814814814814815],[0.3489583333333333,0.34814814814814815],[0.3489583333333333,0.34814814814814815],[0.3489583333333333,0.34814814814814815],[0.3489583333333333,0.34814814814814815],[0.35,0.35185185185185186],[0.35104166666666664,0.3574074074074074],[0.35208333333333336,0.3648148148148148],[0.353125,0.36666666666666664],[0.3541666666666667,0.37037037037037035],[0.35520833333333335,0.37407407407407406],[0.3572916666666667,0.37962962962962965],[0.35833333333333334,0.38333333333333336],[0.359375,0.3851851851851852],[0.3614583333333333,0.3907407407407407],[0.3625,0.3925925925925926],[0.3645833333333333,0.39814814814814814],[0.365625,0.4],[0.36770833333333336,0.40185185185185185],[0.36875,0.40555555555555556],[0.371875,0.4074074074074074],[0.371875,0.4074074074074074],[0.3729166666666667,0.40925925925925927],[0.37395833333333334,0.40925925925925927],[0.375,0.40925925925925927],[0.378125,0.4111111111111111],[0.3802083333333333,0.4111111111111111],[0.3802083333333333,0.4111111111111111],[0.38125,0.4111111111111111],[0.38229166666666664,0.4111111111111111],[0.38229166666666664,0.4111111111111111],[0.38229166666666664,0.4111111111111111],[0.38333333333333336,0.4111111111111111],[0.384375,0.4074074074074074],[0.384375,0.40370370370370373],[0.384375,0.3888888888888889],[0.38645833333333335,0.37407407407407406],[0.3875,0.3648148148148148],[0.3885416666666667,0.35555555555555557],[0.3885416666666667,0.34814814814814815],[0.3885416666666667,0.3425925925925926],[0.3885416666666667,0.3388888888888889],[0.3885416666666667,0.3296296296296296]]","[[0.20906250000000004,-0.19148148148148145],[0.20906250000000004,-0.19148148148148145],[0.20041666666666677,-0.23481481481481484],[0.20041666666666677,-0.23481481481481484],[0.20791666666666658,-0.2294444444444444],[0.1912499999999999,-0.207962962962963],[0.2046875,-0.1551851851851852],[0.2046875,-0.1551851851851852],[0.20906250000000004,-0.14500000000000002],[0.22177083333333342,-0.1653703703703704],[0.22781250000000006,-0.16444444444444448],[0.21614583333333334,-0.14611111111111108],[0.22999999999999995,-0.14388888888888887],[0.22999999999999995,-0.14388888888888887],[0.2296875,-0.14203703703703702],[0.2296875,-0.14203703703703702],[0.23947916666666677,-0.13629629629629633],[0.2428124999999999,-0.1655555555555555],[0.24812500000000004,-0.21222222222222226],[0.24812500000000004,-0.21222222222222226],[0.23583333333333342,-0.27037037037037037],[0.21760416666666677,-0.3024074074074074],[0.2021874999999999,-0.3022222222222222],[0.1772916666666667,-0.3044444444444444],[0.16989583333333325,-0.29888888888888887],[0.14520833333333344,-0.2844444444444445],[0.15489583333333337,-0.28351851851851856],[0.15489583333333337,-0.28351851851851856],[0.15197916666666675,-0.2898148148148148],[0.1310416666666666,-0.2627777777777777],[0.12229166666666676,-0.2442592592592592],[0.12229166666666676,-0.2442592592592592],[0.10479166666666657,-0.21962962962962967],[0.10437500000000005,-0.19370370370370374],[0.09052083333333343,-0.20166666666666663],[0.09156250000000009,-0.2088888888888889],[0.08104166666666662,-0.2257407407407407],[0.078125,-0.22870370370370371],[0.06083333333333331,-0.25018518518518523],[0.020624999999999952,-0.2705555555555556],[0.007291666666666667,-0.33240740740740743],[-0.018020833333333285,-0.3688888888888889],[-0.028437499999999952,-0.39648148148148155],[-0.04125000000000002,-0.40907407407407403],[-0.043229166666666666,-0.3983333333333334],[-0.042708333333333334,-0.40055555555555555],[-0.07260416666666672,-0.42777777777777776],[-0.11010416666666671,-0.46888888888888886],[-0.1438541666666667,-0.48055555555555557],[-0.12989583333333338,-0.4516666666666666],[-0.14395833333333338,-0.43629629629629635],[-0.15822916666666664,-0.4377777777777777],[-0.1742708333333333,-0.38259259259259265],[-0.21031249999999999,-0.37518518518518523],[-0.253125,-0.37648148148148153],[-0.2778125000000001,-0.3866666666666667],[-0.2720833333333334,-0.3718518518518519],[-0.22645833333333332,-0.3122222222222223],[-0.22645833333333332,-0.3122222222222223],[-0.20541666666666672,-0.29981481481481476],[-0.22999999999999995,-0.25462962962962965],[-0.2289583333333333,-0.20277777777777778],[-0.23072916666666668,-0.17111111111111107],[-0.21937500000000001,-0.20314814814814813],[-0.21583333333333338,-0.20777777777777776],[-0.1953125,-0.19296296296296295],[-0.19270833333333334,-0.1383333333333333],[-0.19270833333333334,-0.1383333333333333],[-0.14874999999999997,-0.14592592592592596],[-0.17437499999999997,-0.17703703703703708],[-0.17437499999999997,-0.17703703703703708],[-0.1872916666666666,-0.09981481481481477],[-0.17229166666666665,-0.11129629629629634],[-0.16052083333333336,-0.10314814814814813],[-0.09197916666666663,-0.11203703703703703],[-0.09197916666666663,-0.11203703703703703],[-0.09354166666666662,-0.018148148148148063],[-0.08197916666666671,0.07981481481481485],[-0.08197916666666671,0.07981481481481485],[-0.06447916666666664,0.13703703703703704],[-0.03999999999999997,0.18518518518518517],[-0.05687500000000002,0.29555555555555557],[-0.051979166666666646,0.38499999999999995],[-0.04614583333333329,0.4162962962962962],[-0.018437500000000048,0.4757407407407407],[0.006666666666666643,0.5362962962962964],[-0.02802083333333331,0.6535185185185185],[-0.01604166666666664,0.6668518518518519],[0.006666666666666643,0.6461111111111111],[0.007187499999999976,0.6533333333333332],[-0.007395833333333357,0.6194444444444445],[-0.007395833333333357,0.6194444444444445],[-0.030416666666666713,0.5937037037037037],[-0.04552083333333338,0.5675925925925925],[-0.04718749999999995,0.5540740740740742],[-0.04718749999999995,0.5540740740740742],[-0.05697916666666671,0.48777777777777775],[-0.059895833333333336,0.47074074074074085],[-0.059895833333333336,0.47074074074074085],[-0.05489583333333338,0.4009259259259259],[-0.03999999999999997,0.33666666666666656],[-0.0421875,0.3357407407407407],[-0.0328125,0.32629629629629636],[-0.0328125,0.32629629629629636],[-0.013750000000000047,0.3514814814814814],[0.025833333333333285,0.3199999999999999],[0.05239583333333329,0.3151851851851853],[0.08614583333333338,0.30092592592592593],[0.07937500000000004,0.3218518518518518],[0.07937500000000004,0.3218518518518518],[0.1099999999999999,0.28648148148148156],[0.14458333333333329,0.2933333333333333],[0.18156249999999996,0.29685185185185176],[0.19916666666666671,0.2722222222222222],[0.22374999999999995,0.2388888888888889],[0.2516666666666666,0.2624074074074075],[0.26749999999999996,0.3344444444444445],[0.2882291666666667,0.34814814814814815],[0.29145833333333326,0.35777777777777786],[0.3193749999999999,0.3798148148148149],[0.29447916666666674,0.38870370370370366],[0.29447916666666674,0.38870370370370366],[0.2681250000000001,0.377962962962963],[0.2681250000000001,0.377962962962963],[0.24604166666666671,0.39000000000000007],[0.23468749999999997,0.43444444444444447],[0.240625,0.462037037037037],[0.240625,0.462037037037037],[0.221875,0.44092592592592594],[0.203125,0.4198148148148149],[0.20989583333333334,0.4359259259259259],[0.18708333333333324,0.4607407407407407],[0.18708333333333324,0.4607407407407407],[0.19479166666666667,0.45],[0.23468749999999997,0.4762962962962964],[0.20614583333333342,0.4992592592592593],[0.20614583333333342,0.4992592592592593],[0.2359375,0.5122222222222222],[0.2585416666666667,0.5007407407407407],[0.2585416666666667,0.5007407407407407],[0.27145833333333325,0.5227777777777777],[0.28239583333333323,0.5216666666666667],[0.29447916666666674,0.5225925925925927],[0.28916666666666657,0.5179629629629631],[0.28916666666666657,0.5179629629629631],[0.3029166666666666,0.5105555555555557],[0.28072916666666664,0.5277777777777778],[0.2375,0.5270370370370371],[0.2835416666666667,0.5144444444444444],[0.2669791666666666,0.4890740740740741],[0.24927083333333327,0.4479629629629629],[0.21604166666666677,0.40111111111111114],[0.21604166666666677,0.40111111111111114],[0.20437500000000006,0.3538888888888889],[0.21260416666666657,0.32685185185185184],[0.22135416666666666,0.30685185185185193],[0.24416666666666675,0.28425925925925927],[0.2497916666666666,0.2518518518518518],[0.2548958333333334,0.21907407407407398],[0.23489583333333333,0.2390740740740741],[0.21520833333333325,0.25851851851851854],[0.20833333333333334,0.26722222222222214],[0.196875,0.28425925925925927],[0.1990624999999999,0.30037037037037045],[0.1694791666666667,0.3096296296296297],[0.14031250000000003,0.31203703703703706],[0.11687500000000005,0.3338888888888888],[0.11604166666666677,0.3764814814814814],[0.10729166666666666,0.4035185185185185],[0.09520833333333342,0.40185185185185185],[0.08489583333333334,0.4035185185185185],[0.09895833333333333,0.41500000000000004],[0.09895833333333333,0.41500000000000004],[0.1009375000000001,0.4337037037037038],[0.0943749999999999,0.462037037037037],[0.09854166666666657,0.475],[0.09854166666666657,0.475],[0.08166666666666676,0.4705555555555556],[0.07729166666666672,0.46111111111111114],[0.05583333333333336,0.44907407407407407],[0.041666666666666664,0.4414814814814814],[0.041666666666666664,0.4414814814814814],[0.04791666666666667,0.43074074074074076],[0.059375,0.44351851851851853],[0.057083333333333285,0.46333333333333343],[0.08312499999999995,0.4842592592592593],[0.1040625000000001,0.4964814814814815],[0.10458333333333343,0.4401851851851853],[0.14552083333333338,0.4411111111111112],[0.16822916666666668,0.4275925925925925],[0.21041666666666667,0.4359259259259259],[0.2335416666666667,0.44648148148148153],[0.2742708333333333,0.39814814814814814],[0.2742708333333333,0.39814814814814814],[0.29927083333333326,0.31962962962962965],[0.3241666666666667,0.24166666666666667],[0.3400000000000001,0.15314814814814823],[0.3400000000000001,0.15314814814814823],[0.3567708333333333,0.11148148148148157],[0.38468749999999996,0.11648148148148144],[0.3953125,0.169074074074074],[0.3953125,0.169074074074074],[0.4080208333333334,0.22296296296296292],[0.41437499999999994,0.23777777777777773],[0.4358333333333334,0.26296296296296295],[0.4171875,0.3177777777777778],[0.3966666666666666,0.38981481481481484],[0.3770833333333333,0.41814814814814805],[0.35031249999999997,0.4487037037037036],[0.3703125,0.4625925925925925],[0.35666666666666674,0.47555555555555545],[0.35666666666666674,0.47555555555555545],[0.3493750000000001,0.39518518518518514],[0.3493750000000001,0.39518518518518514],[0.29229166666666656,0.33907407407407414],[0.2838541666666667,0.26796296296296307],[0.28968749999999993,0.1866666666666666],[0.28968749999999993,0.1866666666666666],[0.3090625000000001,0.13055555555555556],[0.29031250000000003,0.07537037037037045],[0.28364583333333326,0.08944444444444435],[0.2773958333333333,0.07018518518518514],[0.21822916666666667,0.049074074074074076],[0.21822916666666667,0.049074074074074076],[0.2181250000000001,0.04888888888888885],[0.2181250000000001,0.04888888888888885],[0.20864583333333328,0.0544444444444444],[0.25239583333333326,0.03037037037037033],[0.24208333333333343,0.04407407407407399],[0.24208333333333343,0.04407407407407399],[0.1881249999999999,0.03314814814814811],[0.16895833333333338,0.10055555555555547],[0.18708333333333324,0.12888888888888894],[0.17510416666666656,0.13703703703703704],[0.17510416666666656,0.13703703703703704],[0.1734375,0.17759259259259255],[0.19333333333333325,0.18314814814814812],[0.1970833333333334,0.1905555555555555],[0.19041666666666662,0.2131481481481482],[0.17822916666666658,0.23981481481481481],[0.17291666666666666,0.2631481481481482],[0.20968749999999994,0.3229629629629629],[0.1820833333333333,0.297037037037037],[0.16916666666666677,0.28481481481481474],[0.18125,0.27314814814814814],[0.16531250000000006,0.2564814814814815],[0.16531250000000006,0.2564814814814815],[0.12625000000000006,0.24592592592592585],[0.12625000000000006,0.24592592592592585],[0.125,0.25092592592592594],[0.10833333333333334,0.22351851851851862],[0.09260416666666677,0.2175925925925926],[0.07937500000000004,0.21203703703703702],[0.059375,0.20666666666666672],[0.06052083333333336,0.21777777777777782],[0.10291666666666661,0.2331481481481481],[0.11854166666666661,0.2479629629629629],[0.11854166666666661,0.2479629629629629],[0.15145833333333342,0.252962962962963],[0.15145833333333342,0.252962962962963],[0.2193749999999999,0.23444444444444448],[0.21281249999999996,0.17888888888888893],[0.2384375000000001,0.1557407407407408],[0.2631249999999999,0.1111111111111111],[0.28395833333333326,0.09796296296296292],[0.2972916666666668,0.09759259259259268],[0.3076041666666666,0.06814814814814807],[0.2726041666666667,0.04592592592592584],[0.2660416666666668,0.03370370370370379],[0.2594791666666666,0.03722222222222227],[0.23156249999999995,0.0705555555555556],[0.24031250000000004,0.12537037037037047],[0.21052083333333324,0.1742592592592593],[0.19697916666666657,0.25629629629629624],[0.18937499999999996,0.3146296296296296],[0.1578125,0.372037037037037],[0.12927083333333325,0.45851851851851855],[0.12927083333333325,0.45851851851851855],[0.1430208333333333,0.4492592592592593],[0.15343749999999995,0.4816666666666667],[0.1638541666666666,0.5140740740740741],[0.16843750000000005,0.5483333333333333],[0.1650000000000001,0.5670370370370371],[0.18875000000000006,0.5437037037037038],[0.1859375,0.4964814814814815],[0.18854166666666666,0.4351851851851852],[0.20979166666666677,0.4103703703703704],[0.20979166666666677,0.4103703703703704],[0.2453125,0.3918518518518519],[0.22145833333333323,0.430925925925926],[0.19583333333333333,0.4022222222222223],[0.16937499999999991,0.3725925925925927],[0.14989583333333342,0.3218518518518518],[0.13697916666666668,0.2892592592592593],[0.13697916666666668,0.2892592592592593],[0.12708333333333333,0.2640740740740741],[0.12885416666666671,0.2661111111111112],[0.1306250000000001,0.26962962962962966],[0.14229166666666657,0.20685185185185193],[0.14229166666666657,0.20685185185185193],[0.15177083333333338,0.15555555555555556],[0.16135416666666677,0.11944444444444445],[0.17052083333333337,0.08222222222222218],[0.17052083333333337,0.08222222222222218],[0.19656250000000006,0.062407407407407495],[0.2015625,0.056296296296296254],[0.20802083333333338,0.04759259259259268],[0.20802083333333338,0.04759259259259268],[0.2211458333333333,0.07814814814814823],[0.23291666666666658,0.07222222222222222],[0.23333333333333334,0.10277777777777777],[0.2453125,0.16148148148148156],[0.24520833333333342,0.19537037037037036],[0.2626041666666666,0.2518518518518518],[0.2798958333333334,0.334074074074074],[0.28114583333333343,0.3998148148148148],[0.28114583333333343,0.3998148148148148],[0.29625000000000007,0.4433333333333333],[0.3102083333333333,0.4457407407407408],[0.3102083333333333,0.4457407407407408],[0.3160416666666668,0.4714814814814815],[0.31791666666666674,0.525],[0.3429166666666667,0.5227777777777777],[0.3393749999999999,0.5122222222222222],[0.33583333333333343,0.5087037037037038],[0.33583333333333343,0.5087037037037038],[0.33864583333333326,0.5122222222222222],[0.34520833333333345,0.48055555555555557],[0.3377083333333334,0.4364814814814816],[0.34052083333333344,0.4462962962962963],[0.3444791666666667,0.49722222222222223],[0.37520833333333337,0.5031481481481482],[0.3919791666666666,0.45629629629629626],[0.38947916666666677,0.4335185185185186],[0.403125,0.42055555555555557],[0.4109375,0.3992592592592593],[0.43604166666666655,0.37166666666666676],[0.45343749999999994,0.3653703703703703],[0.43208333333333326,0.3851851851851852],[0.39958333333333323,0.3731481481481482],[0.37229166666666674,0.37518518518518523],[0.37229166666666674,0.37518518518518523],[0.3210416666666667,0.35111111111111115],[0.2877083333333334,0.3520370370370371],[0.2877083333333334,0.3520370370370371],[0.27791666666666665,0.35907407407407405],[0.2834374999999999,0.3314814814814815],[0.2872916666666666,0.31814814814814807],[0.2872916666666666,0.31814814814814807],[0.25802083333333337,0.27925925925925915],[0.25885416666666666,0.2566666666666667],[0.32052083333333337,0.2183333333333333],[0.32052083333333337,0.2183333333333333],[0.33916666666666656,0.14148148148148143],[0.3616666666666667,0.08703703703703704],[0.39645833333333325,0.041666666666666664],[0.39645833333333325,0.041666666666666664],[0.40520833333333334,-0.02629629629629638],[0.40656249999999994,-0.10981481481481484],[0.3734375,-0.16296296296296298],[0.3734375,-0.16296296296296298],[0.3667708333333332,-0.222037037037037],[0.3455208333333334,-0.26370370370370366],[0.28458333333333335,-0.3266666666666666],[0.28458333333333335,-0.3266666666666666],[0.21489583333333329,-0.3822222222222222],[0.18583333333333343,-0.415925925925926],[0.14770833333333327,-0.4861111111111111],[0.14770833333333327,-0.4861111111111111],[0.11197916666666667,-0.4911111111111111],[0.09145833333333328,-0.51],[0.04375,-0.5209259259259259],[0.022604166666666713,-0.529074074074074],[0.022604166666666713,-0.529074074074074],[-0.018229166666666668,-0.5581481481481481],[-0.02947916666666662,-0.5583333333333333],[-0.01260416666666669,-0.5481481481481482],[-0.01260416666666669,-0.5481481481481482],[0.012812499999999952,-0.5246296296296297],[0.012812499999999952,-0.5246296296296297],[0.04072916666666669,-0.5268518518518519],[0.06864583333333343,-0.529074074074074],[0.06864583333333343,-0.529074074074074],[0.0859375,-0.528888888888889],[0.09010416666666667,-0.5212962962962963],[0.09010416666666667,-0.5212962962962963],[0.14833333333333343,-0.46574074074074073],[0.19031250000000005,-0.4675925925925926],[0.23833333333333329,-0.3937037037037037],[0.23833333333333329,-0.3937037037037037],[0.2743750000000001,-0.382962962962963],[0.2972916666666668,-0.35555555555555557],[0.2942708333333333,-0.40111111111111114],[0.3060416666666666,-0.36129629629629634],[0.31583333333333335,-0.33648148148148144],[0.29104166666666675,-0.2992592592592593],[0.31520833333333326,-0.28185185185185185],[0.31520833333333326,-0.28185185185185185],[0.2795833333333334,-0.3303703703703703],[0.28104166666666663,-0.3175925925925926],[0.2620833333333332,-0.33351851851851855],[0.23104166666666662,-0.38055555555555554],[0.23104166666666662,-0.38055555555555554],[0.17468750000000005,-0.42111111111111105],[0.1734375,-0.4124074074074074],[0.16572916666666657,-0.4137037037037037],[0.16572916666666657,-0.4137037037037037],[0.14635416666666667,-0.45555555555555555],[0.14635416666666667,-0.45555555555555555],[0.14312500000000009,-0.5566666666666668],[0.1321875000000001,-0.5401851851851852],[0.1321875000000001,-0.5401851851851852],[0.13531250000000009,-0.5631481481481482],[0.1131249999999999,-0.6031481481481481],[0.1131249999999999,-0.6031481481481481],[0.11510416666666666,-0.6698148148148148],[0.11979166666666667,-0.6061111111111112],[0.14958333333333323,-0.5701851851851851],[0.11177083333333329,-0.6074074074074074],[0.07395833333333333,-0.6411111111111111],[0.049791666666666616,-0.6192592592592592],[0.0625,-0.6109259259259259],[0.0625,-0.6109259259259259],[0.05791666666666669,-0.6712962962962963],[0.005729166666666666,-0.6201851851851852],[-0.036145833333333384,-0.6168518518518519],[-0.08708333333333336,-0.6129629629629629],[-0.06812499999999998,-0.5979629629629629],[-0.08135416666666669,-0.6042592592592593],[-0.06395833333333331,-0.5324074074074074],[-0.03458333333333338,-0.4427777777777778],[-0.005208333333333333,-0.3531481481481481],[-0.03947916666666664,-0.34981481481481475],[-0.050625000000000024,-0.30351851851851847],[-0.050625000000000024,-0.30351851851851847],[0.0015625,-0.34148148148148144],[0.0015625,-0.34148148148148144],[0.05625,-0.23148148148148148],[0.13114583333333343,-0.1492592592592593],[0.13114583333333343,-0.1492592592592593],[0.09927083333333328,-0.1559259259259259],[0.11593749999999996,-0.12962962962962962],[0.1430208333333333,-0.18722222222222226],[0.14583333333333334,-0.2833333333333333],[0.15812499999999996,-0.40129629629629626],[0.23666666666666672,-0.36129629629629634],[0.23666666666666672,-0.36129629629629634],[0.2926041666666668,-0.3675925925925926],[0.28708333333333325,-0.34888888888888886],[0.28760416666666655,-0.43203703703703705],[0.2679166666666667,-0.4874074074074074],[0.26447916666666677,-0.5592592592592592],[0.23947916666666677,-0.6435185185185185],[0.2040625000000001,-0.6438888888888888],[0.1859375,-0.6646296296296296],[0.1859375,-0.6646296296296296],[0.17083333333333334,-0.6605555555555556],[0.1446875000000001,-0.665],[0.11843750000000004,-0.6394444444444445],[0.11791666666666671,-0.6381481481481482],[0.16156249999999991,-0.6088888888888889],[0.17062499999999994,-0.5879629629629629],[0.25895833333333323,-0.4933333333333333],[0.25895833333333323,-0.4933333333333333],[0.3068749999999999,-0.41444444444444445],[0.3478125000000001,-0.34981481481481475],[0.37697916666666675,-0.27518518518518525],[0.3936458333333334,-0.22481481481481477],[0.3936458333333334,-0.22481481481481477],[0.4009375000000001,-0.1940740740740741],[0.42312500000000003,-0.19222222222222224],[0.42312500000000003,-0.19222222222222224],[0.44427083333333334,-0.12981481481481486],[0.42302083333333323,-0.12999999999999998],[0.43635416666666677,-0.12185185185185188],[0.43635416666666677,-0.12185185185185188],[0.4287499999999999,-0.1368518518518518],[0.46156249999999993,-0.1361111111111111],[0.5084374999999999,-0.10407407407407405],[0.5270833333333333,-0.09833333333333337],[0.5559375000000001,-0.11370370370370367],[0.5559375000000001,-0.11370370370370367],[0.5791666666666667,-0.11888888888888886],[0.5857291666666666,-0.1403703703703704],[0.5857291666666666,-0.1403703703703704],[0.5842708333333334,-0.2192592592592592],[0.5678124999999999,-0.22092592592592594],[0.5678124999999999,-0.22092592592592594],[0.5598958333333334,-0.23166666666666672],[0.5140625,-0.2853703703703704],[0.4872916666666666,-0.29611111111111105],[0.4872916666666666,-0.29611111111111105],[0.45114583333333325,-0.3642592592592592],[0.45114583333333325,-0.3642592592592592],[0.42302083333333323,-0.38981481481481484],[0.3966666666666666,-0.3483333333333334],[0.3966666666666666,-0.3483333333333334],[0.3845833333333334,-0.3333333333333333],[0.3477083333333333,-0.325],[0.3423958333333334,-0.29740740740740745],[0.3472916666666668,-0.31666666666666665],[0.34364583333333343,-0.32685185185185184],[0.35343749999999996,-0.2992592592592593],[0.3441666666666668,-0.3146296296296296],[0.33604166666666657,-0.27],[0.3585416666666667,-0.2655555555555555],[0.3697916666666667,-0.29814814814814816],[0.35989583333333336,-0.3316666666666667],[0.36697916666666663,-0.3316666666666667],[0.38604166666666656,-0.33129629629629626]]","[[0.20906250000000004,-0.19148148148148145,0.00019999998807662678],[0.20906250000000004,-0.19148148148148145,0.04519999998807833],[0.20041666666666677,-0.23481481481481484,0.05119999998807856],[0.20041666666666677,-0.23481481481481484,0.06159999996423693],[0.20791666666666658,-0.2294444444444444,0.07830000001192161],[0.1912499999999999,-0.207962962962963,0.09899999999999665],[0.2046875,-0.1551851851851852,0.1168999999761553],[0.2046875,-0.1551851851851852,0.1280999999642347],[0.20906250000000004,-0.14500000000000002,0.14500000000000313],[0.22177083333333342,-0.1653703703703704,0.16480000001192252],[0.22781250000000006,-0.16444444444444448,0.1816999999880764],[0.21614583333333334,-0.14611111111111108,0.19830000001191905],[0.22999999999999995,-0.14388888888888887,0.2173000000119174],[0.22999999999999995,-0.14388888888888887,0.22819999998807816],[0.2296875,-0.14203703703703702,0.24559999996423443],[0.2296875,-0.14203703703703702,0.26149999999999807],[0.23947916666666677,-0.13629629629629633,0.2781999999880824],[0.2428124999999999,-0.1655555555555555,0.2980000000000018],[0.24812500000000004,-0.21222222222222226,0.3155000000000001],[0.24812500000000004,-0.21222222222222226,0.3283000000119216],[0.23583333333333342,-0.27037037037037037,0.34480000001192224],[0.21760416666666677,-0.3024074074074074,0.36139999997615746],[0.2021874999999999,-0.3022222222222222,0.3780999999642347],[0.1772916666666667,-0.3044444444444444,0.39469999998807737],[0.16989583333333325,-0.29888888888888887,0.4118000000119224],[0.14520833333333344,-0.2844444444444445,0.43069999998807873],[0.15489583333333337,-0.28351851851851856,0.4470999999642373],[0.15489583333333337,-0.28351851851851856,0.46369999998808],[0.15197916666666675,-0.2898148148148148,0.4783000000119202],[0.1310416666666666,-0.2627777777777777,0.4988000000119186],[0.12229166666666676,-0.2442592592592592,0.5173000000119217],[0.12229166666666676,-0.2442592592592592,0.5283000000119245],[0.10479166666666657,-0.21962962962962967,0.5450000000000017],[0.10437500000000005,-0.19370370370370374,0.5615999999642369],[0.09052083333333343,-0.20166666666666663,0.5805999999642353],[0.09156250000000009,-0.2088888888888889,0.5963000000119223],[0.08104166666666662,-0.2257407407407407,0.6115999999642341],[0.078125,-0.22870370370370371,0.6318999999761559],[0.06083333333333331,-0.25018518518518523,0.6483999999761565],[0.020624999999999952,-0.2705555555555556,0.6638999999761594],[0.007291666666666667,-0.33240740740740743,0.678199999988081],[-0.018020833333333285,-0.3688888888888889,0.698099999964235],[-0.028437499999999952,-0.39648148148148155,0.7123999999761566],[-0.04125000000000002,-0.40907407407407403,0.7288000000119226],[-0.043229166666666666,-0.3983333333333334,0.7448999999761554],[-0.042708333333333334,-0.40055555555555555,0.7658000000119216],[-0.07260416666666672,-0.42777777777777776,0.7806999999880802],[-0.11010416666666671,-0.46888888888888886,0.7956999999880807],[-0.1438541666666667,-0.48055555555555557,0.811699999988079],[-0.12989583333333338,-0.4516666666666666,0.8320000000000007],[-0.14395833333333338,-0.43629629629629635,0.8464999999999989],[-0.15822916666666664,-0.4377777777777777,0.8618999999761598],[-0.1742708333333333,-0.38259259259259265,0.8783000000119188],[-0.21031249999999999,-0.37518518518518523,0.8993000000119196],[-0.253125,-0.37648148148148153,0.9155999999642361],[-0.2778125000000001,-0.3866666666666667,0.9314999999999998],[-0.2720833333333334,-0.3718518518518519,0.9485000000000028],[-0.22645833333333332,-0.3122222222222223,0.9653999999761567],[-0.22645833333333332,-0.3122222222222223,0.9783000000119202],[-0.20541666666666672,-0.29981481481481476,0.9948000000119208],[-0.22999999999999995,-0.25462962962962965,1.0153000000119192],[-0.2289583333333333,-0.20277777777777778,1.0311999999880825],[-0.23072916666666668,-0.17111111111111107,1.0448999999761597],[-0.21937500000000001,-0.20314814814814813,1.0636999999880814],[-0.21583333333333338,-0.20777777777777776,1.0781999999880796],[-0.1953125,-0.19296296296296295,1.0950999999642406],[-0.19270833333333334,-0.1383333333333333,1.118000000000002],[-0.19270833333333334,-0.1383333333333333,1.1283999999761605],[-0.14874999999999997,-0.14592592592592596,1.1450000000000031],[-0.17437499999999997,-0.17703703703703708,1.1616999999880804],[-0.17437499999999997,-0.17703703703703708,1.1818000000119184],[-0.1872916666666666,-0.09981481481481477,1.195199999988077],[-0.17229166666666665,-0.11129629629629634,1.212099999964238],[-0.16052083333333336,-0.10314814814814813,1.2281999999880782],[-0.09197916666666663,-0.11203703703703703,1.249899999976158],[-0.09197916666666663,-0.11203703703703703,1.2615999999642398],[-0.09354166666666662,-0.018148148148148063,1.278399999976159],[-0.08197916666666671,0.07981481481481485,1.3018999999761576],[-0.08197916666666671,0.07981481481481485,1.3133999999761556],[-0.06447916666666664,0.13703703703703704,1.3281999999880796],[-0.03999999999999997,0.18518518518518517,1.3448999999761568],[-0.05687500000000002,0.29555555555555557,1.3646999999880762],[-0.051979166666666646,0.38499999999999995,1.3795999999642348],[-0.04614583333333329,0.4162962962962962,1.3973000000119242],[-0.018437500000000048,0.4757407407407407,1.4158000000119202],[0.006666666666666643,0.5362962962962964,1.4313999999761577],[-0.02802083333333331,0.6535185185185185,1.4486999999880794],[-0.01604166666666664,0.6668518518518519,1.465300000011922],[0.006666666666666643,0.6461111111111111,1.4783999999761548],[0.007187499999999976,0.6533333333333332,1.4948999999761554],[-0.007395833333333357,0.6194444444444445,1.5115999999642398],[-0.007395833333333357,0.6194444444444445,1.5303000000119198],[-0.030416666666666713,0.5937037037037037,1.5450000000000017],[-0.04552083333333338,0.5675925925925925,1.5615000000000023],[-0.04718749999999995,0.5540740740740742,1.5838000000119195],[-0.04718749999999995,0.5540740740740742,1.5948999999761568],[-0.05697916666666671,0.48777777777777775,1.6120999999642365],[-0.059895833333333336,0.47074074074074085,1.6333000000119213],[-0.059895833333333336,0.47074074074074085,1.6451999999880798],[-0.05489583333333338,0.4009259259259259,1.6615999999642384],[-0.03999999999999997,0.33666666666666656,1.6788000000119183],[-0.0421875,0.3357407407407407,1.6973000000119214],[-0.0328125,0.32629629629629636,1.7141999999880824],[-0.0328125,0.32629629629629636,1.7280000000000015],[-0.013750000000000047,0.3514814814814814,1.748399999976158],[0.025833333333333285,0.3199999999999999,1.7636999999880771],[0.05239583333333329,0.3151851851851853,1.778399999976159],[0.08614583333333338,0.30092592592592593,1.7993000000119181],[0.07937500000000004,0.3218518518518518,1.8205000000000027],[0.07937500000000004,0.3218518518518518,1.8280999999642376],[0.1099999999999999,0.28648148148148156,1.8446999999880802],[0.14458333333333329,0.2933333333333333,1.8629999999999995],[0.18156249999999996,0.29685185185185176,1.8789999999999978],[0.19916666666666671,0.2722222222222222,1.8948000000119194],[0.22374999999999995,0.2388888888888889,1.9115999999642384],[0.2516666666666666,0.2624074074074075,1.930500000000002],[0.26749999999999996,0.3344444444444445,1.9456999999880793],[0.2882291666666667,0.34814814814814815,1.9615999999642355],[0.29145833333333326,0.35777777777777786,1.9780999999642361],[0.3193749999999999,0.3798148148148149,2.0001999999880766],[0.29447916666666674,0.38870370370370366,2.0173000000119217],[0.29447916666666674,0.38870370370370366,2.0281999999880824],[0.2681250000000001,0.377962962962963,2.0450000000000017],[0.2681250000000001,0.377962962962963,2.0655999999642347],[0.24604166666666671,0.39000000000000007,2.0783000000119216],[0.23468749999999997,0.43444444444444447,2.094899999976157],[0.240625,0.462037037037037,2.1169999999999973],[0.240625,0.462037037037037,2.1280999999642347],[0.221875,0.44092592592592594,2.145000000000003],[0.203125,0.4198148148148149,2.1614999999999966],[0.20989583333333334,0.4359259259259259,2.178199999988081],[0.18708333333333324,0.4607407407407407,2.200800000011924],[0.18708333333333324,0.4607407407407407,2.2113000000119243],[0.19479166666666667,0.45,2.228399999976155],[0.23468749999999997,0.4762962962962964,2.2448999999761554],[0.20614583333333342,0.4992592592592593,2.2668000000119193],[0.20614583333333342,0.4992592592592593,2.2788000000119197],[0.2359375,0.5122222222222222,2.2950000000000017],[0.2585416666666667,0.5007407407407407,2.317300000011919],[0.2585416666666667,0.5007407407407407,2.33419999998808],[0.27145833333333325,0.5227777777777777,2.3448000000119222],[0.28239583333333323,0.5216666666666667,2.3663000000119183],[0.29447916666666674,0.5225925925925927,2.3825000000000003],[0.28916666666666657,0.5179629629629631,2.4008000000119196],[0.28916666666666657,0.5179629629629631,2.411899999976157],[0.3029166666666666,0.5105555555555557,2.4279999999999973],[0.28072916666666664,0.5277777777777778,2.4448000000119237],[0.2375,0.5270370370370371,2.4623999999761566],[0.2835416666666667,0.5144444444444444,2.4813000000119203],[0.2669791666666666,0.4890740740740741,2.49589999997616],[0.24927083333333327,0.4479629629629629,2.513899999976161],[0.21604166666666677,0.40111111111111114,2.533899999976157],[0.21604166666666677,0.40111111111111114,2.544800000011918],[0.20437500000000006,0.3538888888888889,2.5615000000000023],[0.21260416666666657,0.32685185185185184,2.578800000011924],[0.22135416666666666,0.30685185185185193,2.5981999999880756],[0.24416666666666675,0.28425925925925927,2.615699999988081],[0.2497916666666666,0.2518518518518518,2.631300000011919],[0.2548958333333334,0.21907407407407398,2.6468999999761564],[0.23489583333333333,0.2390740740740741,2.6638999999761594],[0.21520833333333325,0.25851851851851854,2.6823999999761554],[0.20833333333333334,0.26722222222222214,2.6988000000119214],[0.196875,0.28425925925925927,2.7156999999880824],[0.1990624999999999,0.30037037037037045,2.732199999988076],[0.1694791666666667,0.3096296296296297,2.7486999999880766],[0.14031250000000003,0.31203703703703706,2.7666999999880773],[0.11687500000000005,0.3338888888888888,2.78219999998808],[0.11604166666666677,0.3764814814814814,2.797300000011923],[0.10729166666666666,0.4035185185185185,2.8149999999999977],[0.09520833333333342,0.40185185185185185,2.832800000011922],[0.08489583333333334,0.4035185185185185,2.84880000001192],[0.09895833333333333,0.41500000000000004,2.865599999964239],[0.09895833333333333,0.41500000000000004,2.8781999999880767],[0.1009375000000001,0.4337037037037038,2.8946999999880774],[0.0943749999999999,0.462037037037037,2.9130999999642384],[0.09854166666666657,0.475,2.9313999999761577],[0.09854166666666657,0.475,2.9448000000119237],[0.08166666666666676,0.4705555555555556,2.961399999976159],[0.07729166666666672,0.46111111111111114,2.9788000000119226],[0.05583333333333336,0.44907407407407407,2.995399999976158],[0.041666666666666664,0.4414814814814814,3.0178999999761587],[0.041666666666666664,0.4414814814814814,3.0281999999880824],[0.04791666666666667,0.43074074074074076,3.044699999988076],[0.059375,0.44351851851851853,3.0618999999761556],[0.057083333333333285,0.46333333333333343,3.07859999996424],[0.08312499999999995,0.4842592592592593,3.0974999999999966],[0.1040625000000001,0.4964814814814815,3.115599999964239],[0.10458333333333343,0.4401851851851853,3.1321999999880816],[0.14552083333333338,0.4411111111111112,3.1486999999880823],[0.16822916666666668,0.4275925925925925,3.16580000001192],[0.21041666666666667,0.4359259259259259,3.1809999999999974],[0.2335416666666667,0.44648148148148153,3.1988000000119214],[0.2742708333333333,0.39814814814814814,3.2175999999642357],[0.2742708333333333,0.39814814814814814,3.2280000000000015],[0.29927083333333326,0.31962962962962965,3.244800000011921],[0.3241666666666667,0.24166666666666667,3.261399999976156],[0.3400000000000001,0.15314814814814823,3.2864999999999966],[0.3400000000000001,0.15314814814814823,3.299300000011918],[0.3567708333333333,0.11148148148148157,3.3120999999642393],[0.38468749999999996,0.11648148148148144,3.3313000000119217],[0.3953125,0.169074074074074,3.3488999999761546],[0.3953125,0.169074074074074,3.361300000011923],[0.4080208333333334,0.22296296296296292,3.3781999999880767],[0.41437499999999994,0.23777777777777773,3.395300000011922],[0.4358333333333334,0.26296296296296295,3.4113999999761546],[0.4171875,0.3177777777777778,3.430500000000002],[0.3966666666666666,0.38981481481481484,3.448899999976156],[0.3770833333333333,0.41814814814814805,3.465300000011922],[0.35031249999999997,0.4487037037037036,3.480599999964234],[0.3703125,0.4625925925925925,3.5005000000000024],[0.35666666666666674,0.47555555555555545,3.516899999976161],[0.35666666666666674,0.47555555555555545,3.5280999999642404],[0.3493750000000001,0.39518518518518514,3.5448999999761597],[0.3493750000000001,0.39518518518518514,3.5613999999761603],[0.29229166666666656,0.33907407407407414,3.582500000000003],[0.2838541666666667,0.26796296296296307,3.599399999976157],[0.28968749999999993,0.1866666666666666,3.6168999999761553],[0.28968749999999993,0.1866666666666666,3.628],[0.3090625000000001,0.13055555555555556,3.6485999999642402],[0.29031250000000003,0.07537037037037045,3.6646999999880805],[0.28364583333333326,0.08944444444444435,3.6816999999880764],[0.2773958333333333,0.07018518518518514,3.7003000000119215],[0.21822916666666667,0.049074074074074076,3.7175999999642357],[0.21822916666666667,0.049074074074074076,3.7280000000000015],[0.2181250000000001,0.04888888888888885,3.7448999999761554],[0.2181250000000001,0.04888888888888885,3.761399999976156],[0.20864583333333328,0.0544444444444444,3.7783000000119245],[0.25239583333333326,0.03037037037037033,3.7971999999880808],[0.24208333333333343,0.04407407407407399,3.8155],[0.24208333333333343,0.04407407407407399,3.8284999999999982],[0.1881249999999999,0.03314814814814811,3.8448000000119222],[0.16895833333333338,0.10055555555555547,3.862399999976155],[0.18708333333333324,0.12888888888888894,3.881999999999998],[0.17510416666666656,0.13703703703703704,3.901099999964238],[0.17510416666666656,0.13703703703703704,3.9113999999761546],[0.1734375,0.17759259259259255,3.928099999964239],[0.19333333333333325,0.18314814814814812,3.9448999999761583],[0.1970833333333334,0.1905555555555555,3.9615999999642355],[0.19041666666666662,0.2131481481481482,3.979300000011918],[0.17822916666666658,0.23981481481481481,3.9975000000000023],[0.17291666666666666,0.2631481481481482,4.014699999988082],[0.20968749999999994,0.3229629629629629,4.03219999998808],[0.1820833333333333,0.297037037037037,4.0489999999999995],[0.16916666666666677,0.28481481481481474,4.0660000000000025],[0.18125,0.27314814814814814,4.082300000011919],[0.16531250000000006,0.2564814814814815,4.1008000000119225],[0.16531250000000006,0.2564814814814815,4.112399999976155],[0.12625000000000006,0.24592592592592585,4.131800000011921],[0.12625000000000006,0.24592592592592585,4.144800000011919],[0.125,0.25092592592592594,4.161399999976155],[0.10833333333333334,0.22351851851851862,4.178099999964239],[0.09260416666666677,0.2175925925925926,4.19459999996424],[0.07937500000000004,0.21203703703703702,4.215499999999999],[0.059375,0.20666666666666672,4.230499999999999],[0.06052083333333336,0.21777777777777782,4.244999999999997],[0.10291666666666661,0.2331481481481481,4.261499999999998],[0.11854166666666661,0.2479629629629629,4.281599999964236],[0.11854166666666661,0.2479629629629629,4.294800000011918],[0.15145833333333342,0.252962962962963,4.311599999964237],[0.15145833333333342,0.252962962962963,4.32859999996424],[0.2193749999999999,0.23444444444444448,4.34469999998808],[0.21281249999999996,0.17888888888888893,4.361300000011923],[0.2384375000000001,0.1557407407407408,4.381800000011921],[0.2631249999999999,0.1111111111111111,4.397500000000001],[0.28395833333333326,0.09796296296296292,4.413399999976157],[0.2972916666666668,0.09759259259259268,4.427999999999997],[0.3076041666666666,0.06814814814814807,4.445],[0.2726041666666667,0.04592592592592584,4.461300000011924],[0.2660416666666668,0.03370370370370379,4.478099999964236],[0.2594791666666666,0.03722222222222227,4.494599999964237],[0.23156249999999995,0.0705555555555556,4.5120000000000005],[0.24031250000000004,0.12537037037037047,4.529399999976157],[0.21052083333333324,0.1742592592592593,4.544800000011918],[0.19697916666666657,0.25629629629629624,4.56139999997616],[0.18937499999999996,0.3146296296296296,4.578300000011922],[0.1578125,0.372037037037037,4.597399999976162],[0.12927083333333325,0.45851851851851855,4.614300000011923],[0.12927083333333325,0.45851851851851855,4.631],[0.1430208333333333,0.4492592592592593,4.645000000000003],[0.15343749999999995,0.4816666666666667,4.661399999976155],[0.1638541666666666,0.5140740740740741,4.678199999988081],[0.16843750000000005,0.5483333333333333,4.694800000011924],[0.1650000000000001,0.5670370370370371,4.711399999976159],[0.18875000000000006,0.5437037037037038,4.728399999976155],[0.1859375,0.4964814814814815,4.744800000011921],[0.18854166666666666,0.4351851851851852,4.761300000011921],[0.20979166666666677,0.4103703703703704,4.77809999996424],[0.20979166666666677,0.4103703703703704,4.794699999988076],[0.2453125,0.3918518518518519,4.811800000011921],[0.22145833333333323,0.430925925925926,4.828000000000003],[0.19583333333333333,0.4022222222222223,4.844899999976157],[0.16937499999999991,0.3725925925925927,4.865099999964237],[0.14989583333333342,0.3218518518518518,4.880399999976156],[0.13697916666666668,0.2892592592592593,4.8975999999642355],[0.13697916666666668,0.2892592592592593,4.911499999999997],[0.12708333333333333,0.2640740740740741,4.928099999964239],[0.12885416666666671,0.2661111111111112,4.944800000011924],[0.1306250000000001,0.26962962962962966,4.961300000011924],[0.14229166666666657,0.20685185185185193,4.978199999988078],[0.14229166666666657,0.20685185185185193,4.994699999988079],[0.15177083333333338,0.15555555555555556,5.011399999976156],[0.16135416666666677,0.11944444444444445,5.02809999996424],[0.17052083333333337,0.08222222222222218,5.044599999964234],[0.17052083333333337,0.08222222222222218,5.061500000000002],[0.19656250000000006,0.062407407407407495,5.0780999999642376],[0.2015625,0.056296296296296254,5.095099999964241],[0.20802083333333338,0.04759259259259268,5.1113999999761575],[0.20802083333333338,0.04759259259259268,5.128099999964235],[0.2211458333333333,0.07814814814814823,5.144699999988077],[0.23291666666666658,0.07222222222222222,5.16130000001192],[0.23333333333333334,0.10277777777777777,5.178099999964239],[0.2453125,0.16148148148148156,5.20059999996424],[0.24520833333333342,0.19537037037037036,5.216000000000001],[0.2626041666666666,0.2518518518518518,5.232599999964236],[0.2798958333333334,0.334074074074074,5.24889999997616],[0.28114583333333343,0.3998148148148148,5.266300000011924],[0.28114583333333343,0.3998148148148148,5.279399999976157],[0.29625000000000007,0.4433333333333333,5.294699999988076],[0.3102083333333333,0.4457407407407408,5.313099999964237],[0.3102083333333333,0.4457407407407408,5.3280999999642376],[0.3160416666666668,0.4714814814814815,5.34469999998808],[0.31791666666666674,0.525,5.361300000011923],[0.3429166666666667,0.5227777777777777,5.378199999988077],[0.3393749999999999,0.5122222222222222,5.3963000000119195],[0.33583333333333343,0.5087037037037038,5.414899999976157],[0.33583333333333343,0.5087037037037038,5.427999999999997],[0.33864583333333326,0.5122222222222222,5.44459999996424],[0.34520833333333345,0.48055555555555557,5.462800000011924],[0.3377083333333334,0.4364814814814816,5.47830000001192],[0.34052083333333344,0.4462962962962963,5.494699999988079],[0.3444791666666667,0.49722222222222223,5.511399999976156],[0.37520833333333337,0.5031481481481482,5.52880000001192],[0.3919791666666666,0.45629629629629626,5.5481999999880784],[0.38947916666666677,0.4335185185185186,5.564300000011919],[0.403125,0.42055555555555557,5.579300000011919],[0.4109375,0.3992592592592593,5.595199999988083],[0.43604166666666655,0.37166666666666676,5.614300000011923],[0.45343749999999994,0.3653703703703703,5.632300000011924],[0.43208333333333326,0.3851851851851852,5.648000000000003],[0.39958333333333323,0.3731481481481482,5.665199999988076],[0.37229166666666674,0.37518518518518523,5.685099999964237],[0.37229166666666674,0.37518518518518523,5.694899999976158],[0.3210416666666667,0.35111111111111115,5.711899999976161],[0.2877083333333334,0.3520370370370371,5.730800000011918],[0.2877083333333334,0.3520370370370371,5.749699999988081],[0.27791666666666665,0.35907407407407405,5.76159999996424],[0.2834374999999999,0.3314814814814815,5.780999999999999],[0.2872916666666666,0.31814814814814807,5.803300000011923],[0.2872916666666666,0.31814814814814807,5.811800000011921],[0.25802083333333337,0.27925925925925915,5.828499999999998],[0.25885416666666666,0.2566666666666667,5.847800000011922],[0.32052083333333337,0.2183333333333333,5.866699999988079],[0.32052083333333337,0.2183333333333333,5.878199999988077],[0.33916666666666656,0.14148148148148143,5.894899999976161],[0.3616666666666667,0.08703703703703704,5.911599999964238],[0.39645833333333325,0.041666666666666664,5.931199999988081],[0.39645833333333325,0.041666666666666664,5.944899999976158],[0.40520833333333334,-0.02629629629629638,5.961500000000001],[0.40656249999999994,-0.10981481481481484,5.981599999964239],[0.3734375,-0.16296296296296298,5.9979999999999976],[0.3734375,-0.16296296296296298,6.011699999988082],[0.3667708333333332,-0.222037037037037,6.0319999999999965],[0.3455208333333334,-0.26370370370370366,6.048699999988081],[0.28458333333333335,-0.3266666666666666,6.063899999976158],[0.28458333333333335,-0.3266666666666666,6.084899999976159],[0.21489583333333329,-0.3822222222222222,6.094899999976157],[0.18583333333333343,-0.415925925925926,6.11339999997616],[0.14770833333333327,-0.4861111111111111,6.133199999988079],[0.14770833333333327,-0.4861111111111111,6.144899999976161],[0.11197916666666667,-0.4911111111111111,6.161399999976155],[0.09145833333333328,-0.51,6.178699999988076],[0.04375,-0.5209259259259259,6.198999999999998],[0.022604166666666713,-0.529074074074074,6.220099999964241],[0.022604166666666713,-0.529074074074074,6.22830000001192],[-0.018229166666666668,-0.5581481481481481,6.244800000011921],[-0.02947916666666662,-0.5583333333333333,6.26569999998808],[-0.01260416666666669,-0.5481481481481482,6.28480000001192],[-0.01260416666666669,-0.5481481481481482,6.295000000000002],[0.012812499999999952,-0.5246296296296297,6.317899999976156],[0.012812499999999952,-0.5246296296296297,6.3280999999642376],[0.04072916666666669,-0.5268518518518519,6.344899999976157],[0.06864583333333343,-0.529074074074074,6.368099999964237],[0.06864583333333343,-0.529074074074074,6.378199999988077],[0.0859375,-0.528888888888889,6.394800000011919],[0.09010416666666667,-0.5212962962962963,6.412599999964236],[0.09010416666666667,-0.5212962962962963,6.431599999964234],[0.14833333333333343,-0.46574074074074073,6.444899999976158],[0.19031250000000005,-0.4675925925925926,6.46180000001192],[0.23833333333333329,-0.3937037037037037,6.481800000011923],[0.23833333333333329,-0.3937037037037037,6.494599999964237],[0.2743750000000001,-0.382962962962963,6.511800000011924],[0.2972916666666668,-0.35555555555555557,6.531500000000001],[0.2942708333333333,-0.40111111111111114,6.547399999976157],[0.3060416666666666,-0.36129629629629634,6.564899999976156],[0.31583333333333335,-0.33648148148148144,6.581899999976159],[0.29104166666666675,-0.2992592592592593,6.600599999964238],[0.31520833333333326,-0.28185185185185185,6.616],[0.31520833333333326,-0.28185185185185185,6.6285000000000025],[0.2795833333333334,-0.3303703703703703,6.644699999988077],[0.28104166666666663,-0.3175925925925926,6.661399999976155],[0.2620833333333332,-0.33351851851851855,6.68189999997616],[0.23104166666666662,-0.38055555555555554,6.7010000000000005],[0.23104166666666662,-0.38055555555555554,6.7115999999642355],[0.17468750000000005,-0.42111111111111105,6.732199999988076],[0.1734375,-0.4124074074074074,6.747800000011921],[0.16572916666666657,-0.4137037037037037,6.766899999976161],[0.16572916666666657,-0.4137037037037037,6.778199999988082],[0.14635416666666667,-0.45555555555555555,6.7996999999880785],[0.14635416666666667,-0.45555555555555555,6.811800000011921],[0.14312500000000009,-0.5566666666666668,6.828000000000003],[0.1321875000000001,-0.5401851851851852,6.851300000011918],[0.1321875000000001,-0.5401851851851852,6.861300000011923],[0.13531250000000009,-0.5631481481481482,6.878300000011919],[0.1131249999999999,-0.6031481481481481,6.90119999998808],[0.1131249999999999,-0.6031481481481481,6.911499999999997],[0.11510416666666666,-0.6698148148148148,6.927999999999997],[0.11979166666666667,-0.6061111111111112,6.944699999988082],[0.14958333333333323,-0.5701851851851851,6.9623999999761566],[0.11177083333333329,-0.6074074074074074,6.981599999964239],[0.07395833333333333,-0.6411111111111111,6.998399999976158],[0.049791666666666616,-0.6192592592592592,7.015500000000003],[0.0625,-0.6109259259259259,7.0341999999880755],[0.0625,-0.6109259259259259,7.044699999988076],[0.05791666666666669,-0.6712962962962963,7.06139999997616],[0.005729166666666666,-0.6201851851851852,7.078000000000003],[-0.036145833333333384,-0.6168518518518519,7.094800000011922],[-0.08708333333333336,-0.6129629629629629,7.11639999997616],[-0.06812499999999998,-0.5979629629629629,7.132899999976161],[-0.08135416666666669,-0.6042592592592593,7.1484999999999985],[-0.06395833333333331,-0.5324074074074074,7.1655000000000015],[-0.03458333333333338,-0.4427777777777778,7.181800000011918],[-0.005208333333333333,-0.3531481481481481,7.198500000000003],[-0.03947916666666664,-0.34981481481481475,7.215000000000003],[-0.050625000000000024,-0.30351851851851847,7.230699999988076],[-0.050625000000000024,-0.30351851851851847,7.244699999988079],[0.0015625,-0.34148148148148144,7.261300000011921],[0.0015625,-0.34148148148148144,7.27809999996424],[0.05625,-0.23148148148148148,7.294699999988076],[0.13114583333333343,-0.1492592592592593,7.317699999988079],[0.13114583333333343,-0.1492592592592593,7.328899999976159],[0.09927083333333328,-0.1559259259259259,7.344800000011922],[0.11593749999999996,-0.12962962962962962,7.361199999988081],[0.1430208333333333,-0.18722222222222226,7.380099999964237],[0.14583333333333334,-0.2833333333333333,7.399399999976161],[0.15812499999999996,-0.40129629629629626,7.416800000011918],[0.23666666666666672,-0.36129629629629634,7.432399999976155],[0.23666666666666672,-0.36129629629629634,7.444899999976158],[0.2926041666666668,-0.3675925925925926,7.461399999976159],[0.28708333333333325,-0.34888888888888886,7.4780000000000015],[0.28760416666666655,-0.43203703703703705,7.495099999964239],[0.2679166666666667,-0.4874074074074074,7.515999999999998],[0.26447916666666677,-0.5592592592592592,7.532599999964241],[0.23947916666666677,-0.6435185185185185,7.5481999999880784],[0.2040625000000001,-0.6438888888888888,7.5658999999761605],[0.1859375,-0.6646296296296296,7.583599999964235],[0.1859375,-0.6646296296296296,7.594599999964238],[0.17083333333333334,-0.6605555555555556,7.615800000011923],[0.1446875000000001,-0.665,7.631899999976156],[0.11843750000000004,-0.6394444444444445,7.648699999988082],[0.11791666666666671,-0.6381481481481482,7.66580000001192],[0.16156249999999991,-0.6088888888888889,7.682099999964237],[0.17062499999999994,-0.5879629629629629,7.698399999976161],[0.25895833333333323,-0.4933333333333333,7.719099999964236],[0.25895833333333323,-0.4933333333333333,7.7278999999761595],[0.3068749999999999,-0.41444444444444445,7.744699999988079],[0.3478125000000001,-0.34981481481481475,7.761300000011921],[0.37697916666666675,-0.27518518518518525,7.77880000001192],[0.3936458333333334,-0.22481481481481477,7.801800000011923],[0.3936458333333334,-0.22481481481481477,7.811500000000002],[0.4009375000000001,-0.1940740740740741,7.8280999999642376],[0.42312500000000003,-0.19222222222222224,7.8453000000119175],[0.42312500000000003,-0.19222222222222224,7.8613999999761575],[0.44427083333333334,-0.12981481481481486,7.881999999999998],[0.42302083333333323,-0.12999999999999998,7.899599999964238],[0.43635416666666677,-0.12185185185185188,7.917199999988078],[0.43635416666666677,-0.12185185185185188,7.932199999988079],[0.4287499999999999,-0.1368518518518518,7.944899999976158],[0.46156249999999993,-0.1361111111111111,7.9615999999642355],[0.5084374999999999,-0.10407407407407405,7.978199999988078],[0.5270833333333333,-0.09833333333333337,7.999000000000002],[0.5559375000000001,-0.11370370370370367,8.017000000000003],[0.5559375000000001,-0.11370370370370367,8.02809999996424],[0.5791666666666667,-0.11888888888888886,8.045000000000002],[0.5857291666666666,-0.1403703703703704,8.06919999998808],[0.5857291666666666,-0.1403703703703704,8.078499999999998],[0.5842708333333334,-0.2192592592592592,8.094800000011922],[0.5678124999999999,-0.22092592592592594,8.112800000011923],[0.5678124999999999,-0.22092592592592594,8.13439999997616],[0.5598958333333334,-0.23166666666666672,8.14480000001192],[0.5140625,-0.2853703703703704,8.161499999999997],[0.4872916666666666,-0.29611111111111105,8.184199999988081],[0.4872916666666666,-0.29611111111111105,8.20730000001192],[0.45114583333333325,-0.3642592592592592,8.22680000001192],[0.45114583333333325,-0.3642592592592592,8.238699999988079],[0.42302083333333323,-0.38981481481481484,8.244599999964237],[0.3966666666666666,-0.3483333333333334,8.26159999996424],[0.3966666666666666,-0.3483333333333334,8.278399999976159],[0.3845833333333334,-0.3333333333333333,8.294699999988076],[0.3477083333333333,-0.325,8.311800000011921],[0.3423958333333334,-0.29740740740740745,8.332],[0.3472916666666668,-0.31666666666666665,8.346499999999999],[0.34364583333333343,-0.32685185185185184,8.3615],[0.35343749999999996,-0.2992592592592593,8.378199999988077],[0.3441666666666668,-0.3146296296296296,8.398699999988082],[0.33604166666666657,-0.27,8.415099999964234],[0.3585416666666667,-0.2655555555555555,8.430599999964237],[0.3697916666666667,-0.29814814814814816,8.447699999988082],[0.35989583333333336,-0.3316666666666667,8.463899999976157],[0.36697916666666663,-0.3316666666666667,8.481000000000002],[0.38604166666666656,-0.33129629629629626,8.501300000011923]]","[0.00019999998807662678,0.04519999998807833,0.05119999998807856,0.06159999996423693,0.07830000001192161,0.09899999999999665,0.1168999999761553,0.1280999999642347,0.14500000000000313,0.16480000001192252,0.1816999999880764,0.19830000001191905,0.2173000000119174,0.22819999998807816,0.24559999996423443,0.26149999999999807,0.2781999999880824,0.2980000000000018,0.3155000000000001,0.3283000000119216,0.34480000001192224,0.36139999997615746,0.3780999999642347,0.39469999998807737,0.4118000000119224,0.43069999998807873,0.4470999999642373,0.46369999998808,0.4783000000119202,0.4988000000119186,0.5173000000119217,0.5283000000119245,0.5450000000000017,0.5615999999642369,0.5805999999642353,0.5963000000119223,0.6115999999642341,0.6318999999761559,0.6483999999761565,0.6638999999761594,0.678199999988081,0.698099999964235,0.7123999999761566,0.7288000000119226,0.7448999999761554,0.7658000000119216,0.7806999999880802,0.7956999999880807,0.811699999988079,0.8320000000000007,0.8464999999999989,0.8618999999761598,0.8783000000119188,0.8993000000119196,0.9155999999642361,0.9314999999999998,0.9485000000000028,0.9653999999761567,0.9783000000119202,0.9948000000119208,1.0153000000119192,1.0311999999880825,1.0448999999761597,1.0636999999880814,1.0781999999880796,1.0950999999642406,1.118000000000002,1.1283999999761605,1.1450000000000031,1.1616999999880804,1.1818000000119184,1.195199999988077,1.212099999964238,1.2281999999880782,1.249899999976158,1.2615999999642398,1.278399999976159,1.3018999999761576,1.3133999999761556,1.3281999999880796,1.3448999999761568,1.3646999999880762,1.3795999999642348,1.3973000000119242,1.4158000000119202,1.4313999999761577,1.4486999999880794,1.465300000011922,1.4783999999761548,1.4948999999761554,1.5115999999642398,1.5303000000119198,1.5450000000000017,1.5615000000000023,1.5838000000119195,1.5948999999761568,1.6120999999642365,1.6333000000119213,1.6451999999880798,1.6615999999642384,1.6788000000119183,1.6973000000119214,1.7141999999880824,1.7280000000000015,1.748399999976158,1.7636999999880771,1.778399999976159,1.7993000000119181,1.8205000000000027,1.8280999999642376,1.8446999999880802,1.8629999999999995,1.8789999999999978,1.8948000000119194,1.9115999999642384,1.930500000000002,1.9456999999880793,1.9615999999642355,1.9780999999642361,2.0001999999880766,2.0173000000119217,2.0281999999880824,2.0450000000000017,2.0655999999642347,2.0783000000119216,2.094899999976157,2.1169999999999973,2.1280999999642347,2.145000000000003,2.1614999999999966,2.178199999988081,2.200800000011924,2.2113000000119243,2.228399999976155,2.2448999999761554,2.2668000000119193,2.2788000000119197,2.2950000000000017,2.317300000011919,2.33419999998808,2.3448000000119222,2.3663000000119183,2.3825000000000003,2.4008000000119196,2.411899999976157,2.4279999999999973,2.4448000000119237,2.4623999999761566,2.4813000000119203,2.49589999997616,2.513899999976161,2.533899999976157,2.544800000011918,2.5615000000000023,2.578800000011924,2.5981999999880756,2.615699999988081,2.631300000011919,2.6468999999761564,2.6638999999761594,2.6823999999761554,2.6988000000119214,2.7156999999880824,2.732199999988076,2.7486999999880766,2.7666999999880773,2.78219999998808,2.797300000011923,2.8149999999999977,2.832800000011922,2.84880000001192,2.865599999964239,2.8781999999880767,2.8946999999880774,2.9130999999642384,2.9313999999761577,2.9448000000119237,2.961399999976159,2.9788000000119226,2.995399999976158,3.0178999999761587,3.0281999999880824,3.044699999988076,3.0618999999761556,3.07859999996424,3.0974999999999966,3.115599999964239,3.1321999999880816,3.1486999999880823,3.16580000001192,3.1809999999999974,3.1988000000119214,3.2175999999642357,3.2280000000000015,3.244800000011921,3.261399999976156,3.2864999999999966,3.299300000011918,3.3120999999642393,3.3313000000119217,3.3488999999761546,3.361300000011923,3.3781999999880767,3.395300000011922,3.4113999999761546,3.430500000000002,3.448899999976156,3.465300000011922,3.480599999964234,3.5005000000000024,3.516899999976161,3.5280999999642404,3.5448999999761597,3.5613999999761603,3.582500000000003,3.599399999976157,3.6168999999761553,3.628,3.6485999999642402,3.6646999999880805,3.6816999999880764,3.7003000000119215,3.7175999999642357,3.7280000000000015,3.7448999999761554,3.761399999976156,3.7783000000119245,3.7971999999880808,3.8155,3.8284999999999982,3.8448000000119222,3.862399999976155,3.881999999999998,3.901099999964238,3.9113999999761546,3.928099999964239,3.9448999999761583,3.9615999999642355,3.979300000011918,3.9975000000000023,4.014699999988082,4.03219999998808,4.0489999999999995,4.0660000000000025,4.082300000011919,4.1008000000119225,4.112399999976155,4.131800000011921,4.144800000011919,4.161399999976155,4.178099999964239,4.19459999996424,4.215499999999999,4.230499999999999,4.244999999999997,4.261499999999998,4.281599999964236,4.294800000011918,4.311599999964237,4.32859999996424,4.34469999998808,4.361300000011923,4.381800000011921,4.397500000000001,4.413399999976157,4.427999999999997,4.445,4.461300000011924,4.478099999964236,4.494599999964237,4.5120000000000005,4.529399999976157,4.544800000011918,4.56139999997616,4.578300000011922,4.597399999976162,4.614300000011923,4.631,4.645000000000003,4.661399999976155,4.678199999988081,4.694800000011924,4.711399999976159,4.728399999976155,4.744800000011921,4.761300000011921,4.77809999996424,4.794699999988076,4.811800000011921,4.828000000000003,4.844899999976157,4.865099999964237,4.880399999976156,4.8975999999642355,4.911499999999997,4.928099999964239,4.944800000011924,4.961300000011924,4.978199999988078,4.994699999988079,5.011399999976156,5.02809999996424,5.044599999964234,5.061500000000002,5.0780999999642376,5.095099999964241,5.1113999999761575,5.128099999964235,5.144699999988077,5.16130000001192,5.178099999964239,5.20059999996424,5.216000000000001,5.232599999964236,5.24889999997616,5.266300000011924,5.279399999976157,5.294699999988076,5.313099999964237,5.3280999999642376,5.34469999998808,5.361300000011923,5.378199999988077,5.3963000000119195,5.414899999976157,5.427999999999997,5.44459999996424,5.462800000011924,5.47830000001192,5.494699999988079,5.511399999976156,5.52880000001192,5.5481999999880784,5.564300000011919,5.579300000011919,5.595199999988083,5.614300000011923,5.632300000011924,5.648000000000003,5.665199999988076,5.685099999964237,5.694899999976158,5.711899999976161,5.730800000011918,5.749699999988081,5.76159999996424,5.780999999999999,5.803300000011923,5.811800000011921,5.828499999999998,5.847800000011922,5.866699999988079,5.878199999988077,5.894899999976161,5.911599999964238,5.931199999988081,5.944899999976158,5.961500000000001,5.981599999964239,5.9979999999999976,6.011699999988082,6.0319999999999965,6.048699999988081,6.063899999976158,6.084899999976159,6.094899999976157,6.11339999997616,6.133199999988079,6.144899999976161,6.161399999976155,6.178699999988076,6.198999999999998,6.220099999964241,6.22830000001192,6.244800000011921,6.26569999998808,6.28480000001192,6.295000000000002,6.317899999976156,6.3280999999642376,6.344899999976157,6.368099999964237,6.378199999988077,6.394800000011919,6.412599999964236,6.431599999964234,6.444899999976158,6.46180000001192,6.481800000011923,6.494599999964237,6.511800000011924,6.531500000000001,6.547399999976157,6.564899999976156,6.581899999976159,6.600599999964238,6.616,6.6285000000000025,6.644699999988077,6.661399999976155,6.68189999997616,6.7010000000000005,6.7115999999642355,6.732199999988076,6.747800000011921,6.766899999976161,6.778199999988082,6.7996999999880785,6.811800000011921,6.828000000000003,6.851300000011918,6.861300000011923,6.878300000011919,6.90119999998808,6.911499999999997,6.927999999999997,6.944699999988082,6.9623999999761566,6.981599999964239,6.998399999976158,7.015500000000003,7.0341999999880755,7.044699999988076,7.06139999997616,7.078000000000003,7.094800000011922,7.11639999997616,7.132899999976161,7.1484999999999985,7.1655000000000015,7.181800000011918,7.198500000000003,7.215000000000003,7.230699999988076,7.244699999988079,7.261300000011921,7.27809999996424,7.294699999988076,7.317699999988079,7.328899999976159,7.344800000011922,7.361199999988081,7.380099999964237,7.399399999976161,7.416800000011918,7.432399999976155,7.444899999976158,7.461399999976159,7.4780000000000015,7.495099999964239,7.515999999999998,7.532599999964241,7.5481999999880784,7.5658999999761605,7.583599999964235,7.594599999964238,7.615800000011923,7.631899999976156,7.648699999988082,7.66580000001192,7.682099999964237,7.698399999976161,7.719099999964236,7.7278999999761595,7.744699999988079,7.761300000011921,7.77880000001192,7.801800000011923,7.811500000000002,7.8280999999642376,7.8453000000119175,7.8613999999761575,7.881999999999998,7.899599999964238,7.917199999988078,7.932199999988079,7.944899999976158,7.9615999999642355,7.978199999988078,7.999000000000002,8.017000000000003,8.02809999996424,8.045000000000002,8.06919999998808,8.078499999999998,8.094800000011922,8.112800000011923,8.13439999997616,8.14480000001192,8.161499999999997,8.184199999988081,8.20730000001192,8.22680000001192,8.238699999988079,8.244599999964237,8.26159999996424,8.278399999976159,8.294699999988076,8.311800000011921,8.332,8.346499999999999,8.3615,8.378199999988077,8.398699999988082,8.415099999964234,8.430599999964237,8.447699999988082,8.463899999976157,8.481000000000002,8.501300000011923]","[1733039196057,1733039196095,1733039196100,1733039196111,1733039196128,1733039196148,1733039196166,1733039196177,1733039196194,1733039196214,1733039196231,1733039196248,1733039196267,1733039196278,1733039196295,1733039196311,1733039196328,1733039196347,1733039196365,1733039196378,1733039196394,1733039196411,1733039196428,1733039196444,1733039196461,1733039196480,1733039196496,1733039196513,1733039196528,1733039196548,1733039196567,1733039196578,1733039196594,1733039196611,1733039196630,1733039196646,1733039196661,1733039196681,1733039196698,1733039196713,1733039196728,1733039196747,1733039196762,1733039196778,1733039196794,1733039196815,1733039196830,1733039196845,1733039196861,1733039196881,1733039196896,1733039196911,1733039196928,1733039196949,1733039196965,1733039196981,1733039196998,1733039197015,1733039197028,1733039197044,1733039197065,1733039197081,1733039197094,1733039197113,1733039197128,1733039197144,1733039197167,1733039197178,1733039197194,1733039197211,1733039197231,1733039197245,1733039197262,1733039197278,1733039197299,1733039197311,1733039197328,1733039197351,1733039197363,1733039197378,1733039197394,1733039197414,1733039197429,1733039197447,1733039197465,1733039197481,1733039197498,1733039197515,1733039197528,1733039197544,1733039197561,1733039197580,1733039197594,1733039197611,1733039197633,1733039197644,1733039197662,1733039197683,1733039197695,1733039197711,1733039197728,1733039197747,1733039197764,1733039197777,1733039197798,1733039197813,1733039197828,1733039197849,1733039197870,1733039197877,1733039197894,1733039197912,1733039197928,1733039197944,1733039197961,1733039197980,1733039197995,1733039198011,1733039198027,1733039198050,1733039198067,1733039198077,1733039198094,1733039198115,1733039198128,1733039198144,1733039198166,1733039198178,1733039198194,1733039198211,1733039198228,1733039198250,1733039198261,1733039198278,1733039198294,1733039198316,1733039198328,1733039198344,1733039198367,1733039198384,1733039198394,1733039198416,1733039198432,1733039198450,1733039198461,1733039198477,1733039198494,1733039198512,1733039198531,1733039198545,1733039198563,1733039198583,1733039198594,1733039198611,1733039198628,1733039198648,1733039198665,1733039198681,1733039198696,1733039198713,1733039198732,1733039198748,1733039198765,1733039198782,1733039198798,1733039198816,1733039198832,1733039198847,1733039198864,1733039198882,1733039198898,1733039198915,1733039198928,1733039198944,1733039198963,1733039198981,1733039198994,1733039199011,1733039199028,1733039199045,1733039199067,1733039199078,1733039199094,1733039199111,1733039199128,1733039199147,1733039199165,1733039199182,1733039199198,1733039199215,1733039199230,1733039199248,1733039199267,1733039199277,1733039199294,1733039199311,1733039199336,1733039199349,1733039199362,1733039199381,1733039199398,1733039199411,1733039199428,1733039199445,1733039199461,1733039199480,1733039199498,1733039199515,1733039199530,1733039199550,1733039199566,1733039199577,1733039199594,1733039199611,1733039199632,1733039199649,1733039199666,1733039199677,1733039199698,1733039199714,1733039199731,1733039199750,1733039199767,1733039199777,1733039199794,1733039199811,1733039199828,1733039199847,1733039199865,1733039199878,1733039199894,1733039199912,1733039199931,1733039199950,1733039199961,1733039199977,1733039199994,1733039200011,1733039200029,1733039200047,1733039200064,1733039200082,1733039200098,1733039200115,1733039200132,1733039200150,1733039200162,1733039200181,1733039200194,1733039200211,1733039200227,1733039200244,1733039200265,1733039200280,1733039200294,1733039200311,1733039200331,1733039200344,1733039200361,1733039200378,1733039200394,1733039200411,1733039200431,1733039200447,1733039200463,1733039200477,1733039200494,1733039200511,1733039200527,1733039200544,1733039200561,1733039200579,1733039200594,1733039200611,1733039200628,1733039200647,1733039200664,1733039200680,1733039200694,1733039200711,1733039200727,1733039200744,1733039200761,1733039200778,1733039200794,1733039200811,1733039200827,1733039200844,1733039200861,1733039200877,1733039200894,1733039200914,1733039200930,1733039200947,1733039200961,1733039200977,1733039200994,1733039201011,1733039201028,1733039201044,1733039201061,1733039201077,1733039201094,1733039201111,1733039201127,1733039201144,1733039201161,1733039201177,1733039201194,1733039201211,1733039201227,1733039201250,1733039201265,1733039201282,1733039201298,1733039201316,1733039201329,1733039201344,1733039201362,1733039201377,1733039201394,1733039201411,1733039201428,1733039201446,1733039201464,1733039201477,1733039201494,1733039201512,1733039201528,1733039201544,1733039201561,1733039201578,1733039201598,1733039201614,1733039201629,1733039201645,1733039201664,1733039201682,1733039201697,1733039201715,1733039201734,1733039201744,1733039201761,1733039201780,1733039201799,1733039201811,1733039201830,1733039201853,1733039201861,1733039201878,1733039201897,1733039201916,1733039201928,1733039201944,1733039201961,1733039201981,1733039201994,1733039202011,1733039202031,1733039202047,1733039202061,1733039202081,1733039202098,1733039202113,1733039202134,1733039202144,1733039202163,1733039202182,1733039202194,1733039202211,1733039202228,1733039202248,1733039202269,1733039202278,1733039202294,1733039202315,1733039202334,1733039202344,1733039202367,1733039202378,1733039202394,1733039202417,1733039202428,1733039202444,1733039202462,1733039202481,1733039202494,1733039202511,1733039202531,1733039202544,1733039202561,1733039202581,1733039202597,1733039202614,1733039202631,1733039202650,1733039202665,1733039202678,1733039202694,1733039202711,1733039202731,1733039202750,1733039202761,1733039202782,1733039202797,1733039202816,1733039202828,1733039202849,1733039202861,1733039202877,1733039202901,1733039202911,1733039202928,1733039202950,1733039202961,1733039202977,1733039202994,1733039203012,1733039203031,1733039203048,1733039203065,1733039203084,1733039203094,1733039203111,1733039203127,1733039203144,1733039203166,1733039203182,1733039203198,1733039203215,1733039203231,1733039203248,1733039203264,1733039203280,1733039203294,1733039203311,1733039203328,1733039203344,1733039203367,1733039203378,1733039203394,1733039203411,1733039203429,1733039203449,1733039203466,1733039203482,1733039203494,1733039203511,1733039203527,1733039203545,1733039203565,1733039203582,1733039203598,1733039203615,1733039203633,1733039203644,1733039203665,1733039203681,1733039203698,1733039203715,1733039203731,1733039203748,1733039203768,1733039203777,1733039203794,1733039203811,1733039203828,1733039203851,1733039203861,1733039203877,1733039203895,1733039203911,1733039203931,1733039203949,1733039203967,1733039203982,1733039203994,1733039204011,1733039204027,1733039204048,1733039204066,1733039204077,1733039204094,1733039204119,1733039204128,1733039204144,1733039204162,1733039204184,1733039204194,1733039204211,1733039204234,1733039204257,1733039204276,1733039204288,1733039204294,1733039204311,1733039204328,1733039204344,1733039204361,1733039204381,1733039204396,1733039204411,1733039204428,1733039204448,1733039204464,1733039204480,1733039204497,1733039204513,1733039204530,1733039204551]","[[1160.7,436.6],[1160.7,436.6],[1152.4,413.2],[1152.4,413.2],[1159.6,416.1],[1143.6,427.7],[1156.5,456.2],[1156.5,456.2],[1160.7,461.7],[1172.9,450.7],[1178.7,451.2],[1167.5,461.1],[1180.8,462.3],[1180.8,462.3],[1180.5,463.3],[1180.5,463.3],[1189.9,466.4],[1193.1,450.6],[1198.2,425.4],[1198.2,425.4],[1186.4,394],[1168.9,376.7],[1154.1,376.8],[1130.2,375.6],[1123.1,378.6],[1099.4,386.4],[1108.7,386.9],[1108.7,386.9],[1105.9,383.5],[1085.8,398.1],[1077.4,408.1],[1077.4,408.1],[1060.6,421.4],[1060.2,435.4],[1046.9,431.1],[1047.9,427.2],[1037.8,418.1],[1035,416.5],[1018.4,404.9],[979.8,393.9],[967,360.5],[942.7,340.8],[932.7,325.9],[920.4,319.1],[918.5,324.9],[919,323.7],[890.3,309],[854.3,286.8],[821.9,280.5],[835.3,296.1],[821.8,304.4],[808.1,303.6],[792.7,333.4],[758.1,337.4],[717,336.7],[693.3,331.2],[698.8,339.2],[742.6,371.4],[742.6,371.4],[762.8,378.1],[739.2,402.5],[740.2,430.5],[738.5,447.6],[749.4,430.3],[752.8,427.8],[772.5,435.8],[775,465.3],[775,465.3],[817.2,461.2],[792.6,444.4],[792.6,444.4],[780.2,486.1],[794.6,479.9],[805.9,484.3],[871.7,479.5],[871.7,479.5],[870.2,530.2],[881.3,583.1],[881.3,583.1],[898.1,614],[921.6,640],[905.4,699.6],[910.1,747.9],[915.7,764.8],[942.3,796.9],[966.4,829.6],[933.1,892.9],[944.6,900.1],[966.4,888.9],[966.9,892.8],[952.9,874.5],[952.9,874.5],[930.8,860.6],[916.3,846.5],[914.7,839.2],[914.7,839.2],[905.3,803.4],[902.5,794.2],[902.5,794.2],[907.3,756.5],[921.6,721.8],[919.5,721.3],[928.5,716.2],[928.5,716.2],[946.8,729.8],[984.8,712.8],[1010.3,710.2],[1042.7,702.5],[1036.2,713.8],[1036.2,713.8],[1065.6,694.7],[1098.8,698.4],[1134.3,700.3],[1151.2,687],[1174.8,669],[1201.6,681.7],[1216.8,720.6],[1236.7,728],[1239.8,733.2],[1266.6,745.1],[1242.7,749.9],[1242.7,749.9],[1217.4,744.1],[1217.4,744.1],[1196.2,750.6],[1185.3,774.6],[1191,789.5],[1191,789.5],[1173,778.1],[1155,766.7],[1161.5,775.4],[1139.6,788.8],[1139.6,788.8],[1147,783],[1185.3,797.2],[1157.9,809.6],[1157.9,809.6],[1186.5,816.6],[1208.2,810.4],[1208.2,810.4],[1220.6,822.3],[1231.1,821.7],[1242.7,822.2],[1237.6,819.7],[1237.6,819.7],[1250.8,815.7],[1229.5,825],[1188,824.6],[1232.2,817.8],[1216.3,804.1],[1199.3,781.9],[1167.4,756.6],[1167.4,756.6],[1156.2,731.1],[1164.1,716.5],[1172.5,705.7],[1194.4,693.5],[1199.8,676],[1204.7,658.3],[1185.5,669.1],[1166.6,679.6],[1160,684.3],[1149,693.5],[1151.1,702.2],[1122.7,707.2],[1094.7,708.5],[1072.2,720.3],[1071.4,743.3],[1063,757.9],[1051.4,757],[1041.5,757.9],[1055,764.1],[1055,764.1],[1056.9,774.2],[1050.6,789.5],[1054.6,796.5],[1054.6,796.5],[1038.4,794.1],[1034.2,789],[1013.6,782.5],[1000,778.4],[1000,778.4],[1006,772.6],[1017,779.5],[1014.8,790.2],[1039.8,801.5],[1059.9,808.1],[1060.4,777.7],[1099.7,778.2],[1121.5,770.9],[1162,775.4],[1184.2,781.1],[1223.3,755],[1223.3,755],[1247.3,712.6],[1271.2,670.5],[1286.4,622.7],[1286.4,622.7],[1302.5,600.2],[1329.3,602.9],[1339.5,631.3],[1339.5,631.3],[1351.7,660.4],[1357.8,668.4],[1378.4,682],[1360.5,711.6],[1340.8,750.5],[1322,765.8],[1296.3,782.3],[1315.5,789.8],[1302.4,796.8],[1302.4,796.8],[1295.4,753.4],[1295.4,753.4],[1240.6,723.1],[1232.5,684.7],[1238.1,640.8],[1238.1,640.8],[1256.7,610.5],[1238.7,580.7],[1232.3,588.3],[1226.3,577.9],[1169.5,566.5],[1169.5,566.5],[1169.4,566.4],[1169.4,566.4],[1160.3,569.4],[1202.3,556.4],[1192.4,563.8],[1192.4,563.8],[1140.6,557.9],[1122.2,594.3],[1139.6,609.6],[1128.1,614],[1128.1,614],[1126.5,635.9],[1145.6,638.9],[1149.2,642.9],[1142.8,655.1],[1131.1,669.5],[1126,682.1],[1161.3,714.4],[1134.8,700.4],[1122.4,693.8],[1134,687.5],[1118.7,678.5],[1118.7,678.5],[1081.2,672.8],[1081.2,672.8],[1080,675.5],[1064,660.7],[1048.9,657.5],[1036.2,654.5],[1017,651.6],[1018.1,657.6],[1058.8,665.9],[1073.8,673.9],[1073.8,673.9],[1105.4,676.6],[1105.4,676.6],[1170.6,666.6],[1164.3,636.6],[1188.9,624.1],[1212.6,600],[1232.6,592.9],[1245.4,592.7],[1255.3,576.8],[1221.7,564.8],[1215.4,558.2],[1209.1,560.1],[1182.3,578.1],[1190.7,607.7],[1162.1,634.1],[1149.1,678.4],[1141.8,709.9],[1111.5,740.9],[1084.1,787.6],[1084.1,787.6],[1097.3,782.6],[1107.3,800.1],[1117.3,817.6],[1121.7,836.1],[1118.4,846.2],[1141.2,833.6],[1138.5,808.1],[1141,775],[1161.4,761.6],[1161.4,761.6],[1195.5,751.6],[1172.6,772.7],[1148,757.2],[1122.6,741.2],[1103.9,713.8],[1091.5,696.2],[1091.5,696.2],[1082,682.6],[1083.7,683.7],[1085.4,685.6],[1096.6,651.7],[1096.6,651.7],[1105.7,624],[1114.9,604.5],[1123.7,584.4],[1123.7,584.4],[1148.7,573.7],[1153.5,570.4],[1159.7,565.7],[1159.7,565.7],[1172.3,582.2],[1183.6,579],[1184,595.5],[1195.5,627.2],[1195.4,645.5],[1212.1,676],[1228.7,720.4],[1229.9,755.9],[1229.9,755.9],[1244.4,779.4],[1257.8,780.7],[1257.8,780.7],[1263.4,794.6],[1265.2,823.5],[1289.2,822.3],[1285.8,816.6],[1282.4,814.7],[1282.4,814.7],[1285.1,816.6],[1291.4,799.5],[1284.2,775.7],[1286.9,781],[1290.7,808.5],[1320.2,811.7],[1336.3,786.4],[1333.9,774.1],[1347,767.1],[1354.5,755.6],[1378.6,740.7],[1395.3,737.3],[1374.8,748],[1343.6,741.5],[1317.4,742.6],[1317.4,742.6],[1268.2,729.6],[1236.2,730.1],[1236.2,730.1],[1226.8,733.9],[1232.1,719],[1235.8,711.8],[1235.8,711.8],[1207.7,690.8],[1208.5,678.6],[1267.7,657.9],[1267.7,657.9],[1285.6,616.4],[1307.2,587],[1340.6,562.5],[1340.6,562.5],[1349,525.8],[1350.3,480.7],[1318.5,452],[1318.5,452],[1312.1,420.1],[1291.7,397.6],[1233.2,363.6],[1233.2,363.6],[1166.3,333.6],[1138.4,315.4],[1101.8,277.5],[1101.8,277.5],[1067.5,274.8],[1047.8,264.6],[1002,258.7],[981.7,254.3],[981.7,254.3],[942.5,238.6],[931.7,238.5],[947.9,244],[947.9,244],[972.3,256.7],[972.3,256.7],[999.1,255.5],[1025.9,254.3],[1025.9,254.3],[1042.5,254.4],[1046.5,258.5],[1046.5,258.5],[1102.4,288.5],[1142.7,287.5],[1188.8,327.4],[1188.8,327.4],[1223.4,333.2],[1245.4,348],[1242.5,323.4],[1253.8,344.9],[1263.2,358.3],[1239.4,378.4],[1262.6,387.8],[1262.6,387.8],[1228.4,361.6],[1229.8,368.5],[1211.6,359.9],[1181.8,334.5],[1181.8,334.5],[1127.7,312.6],[1126.5,317.3],[1119.1,316.6],[1119.1,316.6],[1100.5,294],[1100.5,294],[1097.4,239.4],[1086.9,248.3],[1086.9,248.3],[1089.9,235.9],[1068.6,214.3],[1068.6,214.3],[1070.5,178.3],[1075,212.7],[1103.6,232.1],[1067.3,212],[1031,193.8],[1007.8,205.6],[1020,210.1],[1020,210.1],[1015.6,177.5],[965.5,205.1],[925.3,206.9],[876.4,209],[894.6,217.1],[881.9,213.7],[898.6,252.5],[926.8,300.9],[955,349.3],[922.1,351.1],[911.4,376.1],[911.4,376.1],[961.5,355.6],[961.5,355.6],[1014,415],[1085.9,459.4],[1085.9,459.4],[1055.3,455.8],[1071.3,470],[1097.3,438.9],[1100,387],[1111.8,323.3],[1187.2,344.9],[1187.2,344.9],[1240.9,341.5],[1235.6,351.6],[1236.1,306.7],[1217.2,276.8],[1213.9,238],[1189.9,192.5],[1155.9,192.3],[1138.5,181.1],[1138.5,181.1],[1124,183.3],[1098.9,180.9],[1073.7,194.7],[1073.2,195.4],[1115.1,211.2],[1123.8,222.5],[1208.6,273.6],[1208.6,273.6],[1254.6,316.2],[1293.9,351.1],[1321.9,391.4],[1337.9,418.6],[1337.9,418.6],[1344.9,435.2],[1366.2,436.2],[1366.2,436.2],[1386.5,469.9],[1366.1,469.8],[1378.9,474.2],[1378.9,474.2],[1371.6,466.1],[1403.1,466.5],[1448.1,483.8],[1466,486.9],[1493.7,478.6],[1493.7,478.6],[1516,475.8],[1522.3,464.2],[1522.3,464.2],[1520.9,421.6],[1505.1,420.7],[1505.1,420.7],[1497.5,414.9],[1453.5,385.9],[1427.8,380.1],[1427.8,380.1],[1393.1,343.3],[1393.1,343.3],[1366.1,329.5],[1340.8,351.9],[1340.8,351.9],[1329.2,360],[1293.8,364.5],[1288.7,379.4],[1293.4,369],[1289.9,363.5],[1299.3,378.4],[1290.4,370.1],[1282.6,394.2],[1304.2,396.6],[1315,379],[1305.5,360.9],[1312.3,360.9],[1330.6,361.1]]","[0,0.3527331528]","[0.3527331528,0.3527331528]","[-0.3527331528,0]","[-0.3527331528,-0.3527331528]","[0,0]","[0.3527331528,0]","[0,-0.3527331528]","[0.3527331528,-0.3527331528]",0,0,0,0,1,4,Tablet,11,5,13,9
