inst1_resp.keys,inst1_resp.rt,calibrationMouse.x,calibrationMouse.y,calibrationMouse.leftButton,calibrationMouse.midButton,calibrationMouse.rightButton,calibrationClick.x,calibrationClick.y,calibrationClick.leftButton,calibrationClick.midButton,calibrationClick.rightButton,calibrationClick.clicked_name,trialsc.thisRepN,trialsc.thisTrialN,trialsc.thisN,trialsc.thisIndex,trialsc.ran,calibration_x,calibration_y,participant,session,date,expName,psychopyVersion,OS,frameRate,ScreenRes_pixels,mouse_2.x,mouse_2.y,mouse_2.leftButton,mouse_2.midButton,mouse_2.rightButton,mouse_2.time,mouse_2.clicked_name,Camera_pixels,mouse.x,mouse.y,mouse.leftButton,mouse.midButton,mouse.rightButton,mouse.time,mouse.clicked_name,Choice,Trial,TrialDuration,MOUSE_GAZE,ET_GAZE,ET_GAZE_x_T,time,unixTime,ET_GAZE_NF,Loc_Option1_label,Loc_Option2_label,Loc_Cost_label,Loc_Qual_label,Loc_Option1_cost,Loc_Option2_cost,Loc_Option1_quality,Loc_Option2_quality,trials.thisRepN,trials.thisTrialN,trials.thisN,trials.thisIndex,trials.ran,Block,Device,cost1,qual1,cost2,qual2
space,2.466,-0.409375,0.355555556,1,0,0,-0.3375,-0.664814815,1,0,0,calibration_square,0,0,0,4,1,-0.33,-0.67,44,001,2024-12-02_12h25.28.451,Attention_exp_legacy,2023.1.0,Win32,60.24096386,,,,,,,,,,,,,,,,,,,,,,,,,,,,,,,,,,,,,,,,,,,,
,,,,,,,0.323958333,-0.338888889,1,0,0,calibration_square,0,1,1,15,1,0.33,-0.33,44,001,2024-12-02_12h25.28.451,Attention_exp_legacy,2023.1.0,Win32,60.24096386,,,,,,,,,,,,,,,,,,,,,,,,,,,,,,,,,,,,,,,,,,,,
,,,,,,,0.660416667,0.662962963,1,0,0,calibration_square,0,2,2,19,1,0.67,0.67,44,001,2024-12-02_12h25.28.451,Attention_exp_legacy,2023.1.0,Win32,60.24096386,,,,,,,,,,,,,,,,,,,,,,,,,,,,,,,,,,,,,,,,,,,,
,,,,,,,-0.670833333,-0.662962963,1,0,0,calibration_square,0,3,3,0,1,-0.67,-0.67,44,001,2024-12-02_12h25.28.451,Attention_exp_legacy,2023.1.0,Win32,60.24096386,,,,,,,,,,,,,,,,,,,,,,,,,,,,,,,,,,,,,,,,,,,,
,,,,,,,-0.68125,0.348148148,1,0,0,,0,4,4,3,1,-0.67,0.33,44,001,2024-12-02_12h25.28.451,Attention_exp_legacy,2023.1.0,Win32,60.24096386,,,,,,,,,,,,,,,,,,,,,,,,,,,,,,,,,,,,,,,,,,,,
,,,,,,,-0.68125,-0.325925926,1,0,0,,0,5,5,1,1,-0.67,-0.33,44,001,2024-12-02_12h25.28.451,Attention_exp_legacy,2023.1.0,Win32,60.24096386,,,,,,,,,,,,,,,,,,,,,,,,,,,,,,,,,,,,,,,,,,,,
,,,,,,,-0.334375,0.668518519,1,0,0,calibration_square,0,6,6,8,1,-0.33,0.67,44,001,2024-12-02_12h25.28.451,Attention_exp_legacy,2023.1.0,Win32,60.24096386,,,,,,,,,,,,,,,,,,,,,,,,,,,,,,,,,,,,,,,,,,,,
,,,,,,,0.002083333,-0.001851852,1,0,0,calibration_square,0,7,7,11,1,0,0,44,001,2024-12-02_12h25.28.451,Attention_exp_legacy,2023.1.0,Win32,60.24096386,,,,,,,,,,,,,,,,,,,,,,,,,,,,,,,,,,,,,,,,,,,,
,,,,,,,0.325,0.024074074,1,0,0,,0,8,8,16,1,0.33,0,44,001,2024-12-02_12h25.28.451,Attention_exp_legacy,2023.1.0,Win32,60.24096386,,,,,,,,,,,,,,,,,,,,,,,,,,,,,,,,,,,,,,,,,,,,
,,,,,,,0.002083333,-0.296296296,1,0,0,,0,9,9,10,1,0,-0.33,44,001,2024-12-02_12h25.28.451,Attention_exp_legacy,2023.1.0,Win32,60.24096386,,,,,,,,,,,,,,,,,,,,,,,,,,,,,,,,,,,,,,,,,,,,
,,,,,,,0.314583333,0.307407407,1,0,0,,0,10,10,17,1,0.33,0.33,44,001,2024-12-02_12h25.28.451,Attention_exp_legacy,2023.1.0,Win32,60.24096386,,,,,,,,,,,,,,,,,,,,,,,,,,,,,,,,,,,,,,,,,,,,
,,,,,,,-0.00625,0.327777778,1,0,0,calibration_square,0,11,11,12,1,0,0.33,44,001,2024-12-02_12h25.28.451,Attention_exp_legacy,2023.1.0,Win32,60.24096386,,,,,,,,,,,,,,,,,,,,,,,,,,,,,,,,,,,,,,,,,,,,
,,,,,,,-0.678125,-0.014814815,1,0,0,,0,12,12,2,1,-0.67,0,44,001,2024-12-02_12h25.28.451,Attention_exp_legacy,2023.1.0,Win32,60.24096386,,,,,,,,,,,,,,,,,,,,,,,,,,,,,,,,,,,,,,,,,,,,
,,,,,,,-0.34375,-0.346296296,1,0,0,,0,13,13,5,1,-0.33,-0.33,44,001,2024-12-02_12h25.28.451,Attention_exp_legacy,2023.1.0,Win32,60.24096386,,,,,,,,,,,,,,,,,,,,,,,,,,,,,,,,,,,,,,,,,,,,
,,,,,,,0.316666667,0.681481481,1,0,0,,0,14,14,18,1,0.33,0.67,44,001,2024-12-02_12h25.28.451,Attention_exp_legacy,2023.1.0,Win32,60.24096386,,,,,,,,,,,,,,,,,,,,,,,,,,,,,,,,,,,,,,,,,,,,
,,,,,,,-0.002083333,-0.674074074,1,0,0,calibration_square,0,15,15,9,1,0,-0.67,44,001,2024-12-02_12h25.28.451,Attention_exp_legacy,2023.1.0,Win32,60.24096386,,,,,,,,,,,,,,,,,,,,,,,,,,,,,,,,,,,,,,,,,,,,
,,,,,,,0.660416667,-0.67962963,1,0,0,calibration_square,0,16,16,20,1,0.67,-0.67,44,001,2024-12-02_12h25.28.451,Attention_exp_legacy,2023.1.0,Win32,60.24096386,,,,,,,,,,,,,,,,,,,,,,,,,,,,,,,,,,,,,,,,,,,,
,,,,,,,0.323958333,-0.675925926,1,0,0,calibration_square,0,17,17,14,1,0.33,-0.67,44,001,2024-12-02_12h25.28.451,Attention_exp_legacy,2023.1.0,Win32,60.24096386,,,,,,,,,,,,,,,,,,,,,,,,,,,,,,,,,,,,,,,,,,,,
,,,,,,,-0.00625,0.67962963,1,0,0,calibration_square,0,18,18,13,1,0,0.67,44,001,2024-12-02_12h25.28.451,Attention_exp_legacy,2023.1.0,Win32,60.24096386,,,,,,,,,,,,,,,,,,,,,,,,,,,,,,,,,,,,,,,,,,,,
,,,,,,,-0.325,0.325925926,1,0,0,calibration_square,0,19,19,7,1,-0.33,0.33,44,001,2024-12-02_12h25.28.451,Attention_exp_legacy,2023.1.0,Win32,60.24096386,,,,,,,,,,,,,,,,,,,,,,,,,,,,,,,,,,,,,,,,,,,,
,,,,,,,-0.327083333,-0.003703704,1,0,0,calibration_square,0,20,20,6,1,-0.33,0,44,001,2024-12-02_12h25.28.451,Attention_exp_legacy,2023.1.0,Win32,60.24096386,,,,,,,,,,,,,,,,,,,,,,,,,,,,,,,,,,,,,,,,,,,,
,,,,,,,,,,,,,,,,,,,,44,001,2024-12-02_12h25.28.451,Attention_exp_legacy,2023.1.0,Win32,60.24096386,"[1920,1080]",[0.023958333333333335],[-0.45925925925925926],[1],[0],[0],[0.7977999999998104],"[""StartButton""]","[640,480]",[0.1625],[0.14074074074074075],[1],[0],[0],[7.565600000000089],"[""Option2_label""]",Option2_label,1,8.589,"[[0.3,-0.001851851851851852],[0.3,-0.001851851851851852],[0.3,-0.001851851851851852],[0.3,-0.001851851851851852],[0.30104166666666665,-0.001851851851851852],[0.30104166666666665,-0.001851851851851852],[0.30104166666666665,-0.001851851851851852],[0.30104166666666665,-0.001851851851851852],[0.30104166666666665,-0.001851851851851852],[0.30104166666666665,-0.001851851851851852],[0.30104166666666665,-0.001851851851851852],[0.30104166666666665,-0.001851851851851852],[0.30104166666666665,-0.001851851851851852],[0.30104166666666665,-0.001851851851851852],[0.30104166666666665,-0.001851851851851852],[0.30104166666666665,-0.001851851851851852],[0.30104166666666665,-0.001851851851851852],[0.30104166666666665,-0.001851851851851852],[0.30104166666666665,-0.001851851851851852],[0.30104166666666665,-0.001851851851851852],[0.30104166666666665,-0.001851851851851852],[0.30104166666666665,-0.001851851851851852],[0.30104166666666665,-0.001851851851851852],[0.30104166666666665,-0.001851851851851852],[0.30104166666666665,-0.001851851851851852],[0.30104166666666665,-0.001851851851851852],[0.30104166666666665,-0.001851851851851852],[0.3,-0.001851851851851852],[0.29791666666666666,-0.001851851851851852],[0.2947916666666667,-0.001851851851851852],[0.28541666666666665,-0.001851851851851852],[0.275,-0.001851851851851852],[0.26145833333333335,-0.001851851851851852],[0.25,-0.001851851851851852],[0.24270833333333333,-0.001851851851851852],[0.2375,-0.001851851851851852],[0.23020833333333332,0.001851851851851852],[0.225,0.005555555555555556],[0.221875,0.007407407407407408],[0.21875,0.007407407407407408],[0.21666666666666667,0.007407407407407408],[0.21458333333333332,0.007407407407407408],[0.21145833333333333,0.009259259259259259],[0.20833333333333334,0.011111111111111112],[0.20520833333333333,0.012962962962962963],[0.20208333333333334,0.014814814814814815],[0.196875,0.016666666666666666],[0.19166666666666668,0.018518518518518517],[0.18854166666666666,0.018518518518518517],[0.18645833333333334,0.020370370370370372],[0.18333333333333332,0.020370370370370372],[0.18229166666666666,0.020370370370370372],[0.18125,0.020370370370370372],[0.18125,0.020370370370370372],[0.18125,0.020370370370370372],[0.18125,0.020370370370370372],[0.18125,0.020370370370370372],[0.18125,0.020370370370370372],[0.18125,0.020370370370370372],[0.18125,0.020370370370370372],[0.18125,0.020370370370370372],[0.18125,0.020370370370370372],[0.18125,0.020370370370370372],[0.18125,0.020370370370370372],[0.18125,0.020370370370370372],[0.18125,0.020370370370370372],[0.18125,0.020370370370370372],[0.18125,0.020370370370370372],[0.18125,0.020370370370370372],[0.18125,0.020370370370370372],[0.18125,0.020370370370370372],[0.18125,0.020370370370370372],[0.18125,0.020370370370370372],[0.18125,0.020370370370370372],[0.18125,0.020370370370370372],[0.18125,0.020370370370370372],[0.18125,0.020370370370370372],[0.18125,0.020370370370370372],[0.18125,0.020370370370370372],[0.18125,0.020370370370370372],[0.18125,0.020370370370370372],[0.18125,0.020370370370370372],[0.18125,0.020370370370370372],[0.18125,0.020370370370370372],[0.18125,0.020370370370370372],[0.18125,0.020370370370370372],[0.18125,0.020370370370370372],[0.18125,0.020370370370370372],[0.18125,0.020370370370370372],[0.18125,0.020370370370370372],[0.18125,0.020370370370370372],[0.18125,0.020370370370370372],[0.18125,0.020370370370370372],[0.18125,0.020370370370370372],[0.18125,0.020370370370370372],[0.18125,0.020370370370370372],[0.18125,0.020370370370370372],[0.18125,0.020370370370370372],[0.18125,0.020370370370370372],[0.18125,0.020370370370370372],[0.18125,0.020370370370370372],[0.18125,0.020370370370370372],[0.18125,0.020370370370370372],[0.18125,0.020370370370370372],[0.18125,0.020370370370370372],[0.18125,0.020370370370370372],[0.18125,0.020370370370370372],[0.18125,0.020370370370370372],[0.18125,0.020370370370370372],[0.18125,0.020370370370370372],[0.18125,0.020370370370370372],[0.18125,0.020370370370370372],[0.18125,0.020370370370370372],[0.18125,0.020370370370370372],[0.18125,0.020370370370370372],[0.18125,0.020370370370370372],[0.18125,0.020370370370370372],[0.18125,0.020370370370370372],[0.18125,0.020370370370370372],[0.18125,0.020370370370370372],[0.18125,0.020370370370370372],[0.18125,0.020370370370370372],[0.18125,0.020370370370370372],[0.18125,0.020370370370370372],[0.18125,0.020370370370370372],[0.18125,0.020370370370370372],[0.18125,0.020370370370370372],[0.18125,0.020370370370370372],[0.18125,0.020370370370370372],[0.18125,0.020370370370370372],[0.18125,0.020370370370370372],[0.18125,0.020370370370370372],[0.18125,0.020370370370370372],[0.18125,0.020370370370370372],[0.18125,0.020370370370370372],[0.18125,0.020370370370370372],[0.18125,0.020370370370370372],[0.18125,0.020370370370370372],[0.18125,0.020370370370370372],[0.18125,0.020370370370370372],[0.18125,0.020370370370370372],[0.18125,0.020370370370370372],[0.18125,0.020370370370370372],[0.18125,0.020370370370370372],[0.18125,0.020370370370370372],[0.18125,0.020370370370370372],[0.18125,0.020370370370370372],[0.18125,0.020370370370370372],[0.18125,0.020370370370370372],[0.18125,0.020370370370370372],[0.18125,0.020370370370370372],[0.18125,0.020370370370370372],[0.18125,0.020370370370370372],[0.18125,0.020370370370370372],[0.18125,0.020370370370370372],[0.18125,0.020370370370370372],[0.18125,0.020370370370370372],[0.18125,0.020370370370370372],[0.18125,0.020370370370370372],[0.18125,0.020370370370370372],[0.18125,0.020370370370370372],[0.18125,0.020370370370370372],[0.18125,0.020370370370370372],[0.18125,0.020370370370370372],[0.18125,0.020370370370370372],[0.18125,0.020370370370370372],[0.18125,0.020370370370370372],[0.18125,0.020370370370370372],[0.18125,0.020370370370370372],[0.18125,0.020370370370370372],[0.18125,0.020370370370370372],[0.18125,0.020370370370370372],[0.18125,0.020370370370370372],[0.18125,0.020370370370370372],[0.18125,0.020370370370370372],[0.18125,0.020370370370370372],[0.18125,0.020370370370370372],[0.18125,0.020370370370370372],[0.18125,0.020370370370370372],[0.18125,0.020370370370370372],[0.18125,0.020370370370370372],[0.18125,0.020370370370370372],[0.18125,0.020370370370370372],[0.18125,0.020370370370370372],[0.18125,0.020370370370370372],[0.18125,0.020370370370370372],[0.18125,0.020370370370370372],[0.18125,0.020370370370370372],[0.18125,0.020370370370370372],[0.18125,0.020370370370370372],[0.18125,0.020370370370370372],[0.18125,0.020370370370370372],[0.18125,0.020370370370370372],[0.18125,0.020370370370370372],[0.18125,0.020370370370370372],[0.18125,0.020370370370370372],[0.18125,0.020370370370370372],[0.18125,0.020370370370370372],[0.18125,0.020370370370370372],[0.18125,0.020370370370370372],[0.18125,0.020370370370370372],[0.18125,0.020370370370370372],[0.18125,0.020370370370370372],[0.18125,0.020370370370370372],[0.18125,0.020370370370370372],[0.18125,0.020370370370370372],[0.18125,0.020370370370370372],[0.18125,0.020370370370370372],[0.18125,0.020370370370370372],[0.18125,0.020370370370370372],[0.18125,0.020370370370370372],[0.18125,0.020370370370370372],[0.18125,0.020370370370370372],[0.18125,0.020370370370370372],[0.18125,0.020370370370370372],[0.17708333333333334,0.022222222222222223],[0.171875,0.024074074074074074],[0.16458333333333333,0.025925925925925925],[0.15416666666666667,0.03333333333333333],[0.14479166666666668,0.037037037037037035],[0.13125,0.046296296296296294],[0.11666666666666667,0.053703703703703705],[0.09375,0.06666666666666667],[0.07708333333333334,0.07777777777777778],[0.06145833333333333,0.08518518518518518],[0.04583333333333333,0.09259259259259259],[0.030208333333333334,0.10185185185185185],[0.017708333333333333,0.10925925925925926],[0.008333333333333333,0.11296296296296296],[-0.0020833333333333333,0.12222222222222222],[-0.013541666666666667,0.13518518518518519],[-0.020833333333333332,0.1425925925925926],[-0.023958333333333335,0.14629629629629629],[-0.028125,0.15185185185185185],[-0.030208333333333334,0.1537037037037037],[-0.03125,0.1537037037037037],[-0.03333333333333333,0.15555555555555556],[-0.03333333333333333,0.15555555555555556],[-0.03333333333333333,0.15555555555555556],[-0.03333333333333333,0.15555555555555556],[-0.03333333333333333,0.15555555555555556],[-0.03333333333333333,0.15555555555555556],[-0.03333333333333333,0.15555555555555556],[-0.03333333333333333,0.15555555555555556],[-0.03333333333333333,0.15555555555555556],[-0.03333333333333333,0.15555555555555556],[-0.03333333333333333,0.15555555555555556],[-0.03333333333333333,0.15555555555555556],[-0.03333333333333333,0.15555555555555556],[-0.03333333333333333,0.15555555555555556],[-0.03333333333333333,0.15555555555555556],[-0.03333333333333333,0.15555555555555556],[-0.03333333333333333,0.15555555555555556],[-0.03333333333333333,0.15555555555555556],[-0.03333333333333333,0.15555555555555556],[-0.03333333333333333,0.15555555555555556],[-0.03333333333333333,0.15555555555555556],[-0.03333333333333333,0.15555555555555556],[-0.03333333333333333,0.15555555555555556],[-0.03333333333333333,0.15555555555555556],[-0.03333333333333333,0.15555555555555556],[-0.03333333333333333,0.15555555555555556],[-0.03333333333333333,0.15555555555555556],[-0.03333333333333333,0.15555555555555556],[-0.03333333333333333,0.15555555555555556],[-0.03333333333333333,0.15555555555555556],[-0.03229166666666667,0.1574074074074074],[-0.020833333333333332,0.1574074074074074],[-0.008333333333333333,0.1574074074074074],[0.011458333333333333,0.1537037037037037],[0.034375,0.14629629629629629],[0.06354166666666666,0.14074074074074075],[0.084375,0.13518518518518519],[0.10416666666666667,0.13148148148148148],[0.11770833333333333,0.1259259259259259],[0.12916666666666668,0.12407407407407407],[0.134375,0.12222222222222222],[0.13854166666666667,0.12222222222222222],[0.140625,0.12037037037037036],[0.140625,0.12037037037037036],[0.14166666666666666,0.12037037037037036],[0.14166666666666666,0.12037037037037036],[0.14166666666666666,0.12037037037037036],[0.14166666666666666,0.12037037037037036],[0.14166666666666666,0.12037037037037036],[0.14166666666666666,0.12037037037037036],[0.14166666666666666,0.12037037037037036],[0.14166666666666666,0.12037037037037036],[0.14166666666666666,0.12037037037037036],[0.14166666666666666,0.12037037037037036],[0.14166666666666666,0.12037037037037036],[0.14166666666666666,0.12037037037037036],[0.14166666666666666,0.12037037037037036],[0.14166666666666666,0.12037037037037036],[0.14166666666666666,0.12037037037037036],[0.14166666666666666,0.12037037037037036],[0.14166666666666666,0.12037037037037036],[0.14166666666666666,0.12037037037037036],[0.14166666666666666,0.12037037037037036],[0.14166666666666666,0.12037037037037036],[0.14166666666666666,0.12037037037037036],[0.14166666666666666,0.12037037037037036],[0.14166666666666666,0.12037037037037036],[0.14166666666666666,0.12037037037037036],[0.14166666666666666,0.12037037037037036],[0.14166666666666666,0.12037037037037036],[0.14166666666666666,0.12037037037037036],[0.14166666666666666,0.12037037037037036],[0.14166666666666666,0.12037037037037036],[0.14166666666666666,0.12037037037037036],[0.14166666666666666,0.12037037037037036],[0.14166666666666666,0.12037037037037036],[0.14166666666666666,0.12037037037037036],[0.14166666666666666,0.12037037037037036],[0.14166666666666666,0.12037037037037036],[0.14166666666666666,0.12037037037037036],[0.14166666666666666,0.12037037037037036],[0.14166666666666666,0.12037037037037036],[0.14270833333333333,0.12037037037037036],[0.14479166666666668,0.12037037037037036],[0.15104166666666666,0.12777777777777777],[0.15416666666666667,0.13333333333333333],[0.159375,0.13703703703703704],[0.16145833333333334,0.14074074074074075],[0.1625,0.14074074074074075],[0.1625,0.14074074074074075],[0.1625,0.14074074074074075],[0.1625,0.14074074074074075],[0.1625,0.14074074074074075],[0.1625,0.14074074074074075],[0.1625,0.14074074074074075],[0.1625,0.14074074074074075],[0.1625,0.14074074074074075],[0.1625,0.14074074074074075],[0.1625,0.14074074074074075],[0.1625,0.14074074074074075],[0.1625,0.14074074074074075],[0.1625,0.14074074074074075],[0.1625,0.14074074074074075],[0.1625,0.14074074074074075],[0.1625,0.14074074074074075],[0.1625,0.14074074074074075],[0.1625,0.14074074074074075],[0.1625,0.14074074074074075],[0.1625,0.14074074074074075],[0.1625,0.14074074074074075],[0.1625,0.14074074074074075],[0.1625,0.14074074074074075],[0.1625,0.14074074074074075],[0.1625,0.14074074074074075],[0.1625,0.14074074074074075],[0.1625,0.14074074074074075],[0.1625,0.14074074074074075],[0.1625,0.14074074074074075],[0.1625,0.14074074074074075],[0.1625,0.14074074074074075],[0.1625,0.14074074074074075],[0.1625,0.14074074074074075],[0.1625,0.14074074074074075],[0.1625,0.14074074074074075],[0.1625,0.14074074074074075],[0.1625,0.14074074074074075],[0.1625,0.14074074074074075],[0.1625,0.14074074074074075],[0.1625,0.14074074074074075],[0.1625,0.14074074074074075],[0.1625,0.14074074074074075],[0.1625,0.14074074074074075],[0.1625,0.14074074074074075],[0.1625,0.14074074074074075],[0.1625,0.14074074074074075],[0.1625,0.14074074074074075],[0.1625,0.14074074074074075],[0.1625,0.14074074074074075],[0.1625,0.14074074074074075],[0.1625,0.14074074074074075],[0.1625,0.14074074074074075],[0.1625,0.14074074074074075],[0.1625,0.14074074074074075],[0.1625,0.14074074074074075],[0.1625,0.14074074074074075],[0.1625,0.14074074074074075],[0.1625,0.14074074074074075],[0.1625,0.14074074074074075],[0.1625,0.14074074074074075],[0.1625,0.14074074074074075],[0.1625,0.14074074074074075],[0.1625,0.14074074074074075],[0.1625,0.14074074074074075],[0.1625,0.14074074074074075],[0.1625,0.14074074074074075],[0.1625,0.14074074074074075],[0.1625,0.14074074074074075],[0.1625,0.14074074074074075],[0.1625,0.14074074074074075],[0.1625,0.14074074074074075],[0.1625,0.14074074074074075],[0.1625,0.14074074074074075],[0.1625,0.14074074074074075],[0.1625,0.14074074074074075],[0.1625,0.14074074074074075],[0.1625,0.14074074074074075],[0.1625,0.14074074074074075],[0.1625,0.14074074074074075],[0.1625,0.14074074074074075],[0.1625,0.14074074074074075],[0.1625,0.14074074074074075],[0.1625,0.14074074074074075],[0.1625,0.14074074074074075],[0.1625,0.14074074074074075],[0.1625,0.14074074074074075],[0.1625,0.14074074074074075],[0.1625,0.14074074074074075],[0.1625,0.14074074074074075],[0.1625,0.14074074074074075],[0.1625,0.14074074074074075],[0.1625,0.14074074074074075],[0.1625,0.14074074074074075],[0.1625,0.14074074074074075],[0.1625,0.14074074074074075],[0.1625,0.14074074074074075],[0.1625,0.14074074074074075],[0.1625,0.14074074074074075],[0.1625,0.14074074074074075],[0.1625,0.14074074074074075],[0.1625,0.14074074074074075],[0.1625,0.14074074074074075],[0.1625,0.14074074074074075],[0.1625,0.14074074074074075],[0.1625,0.14074074074074075],[0.1625,0.14074074074074075],[0.1625,0.14074074074074075],[0.1625,0.14074074074074075],[0.1625,0.14074074074074075],[0.1625,0.14074074074074075],[0.1625,0.14074074074074075],[0.1625,0.14074074074074075],[0.1625,0.14074074074074075],[0.1625,0.14074074074074075],[0.1625,0.14074074074074075],[0.1625,0.14074074074074075],[0.1625,0.14074074074074075],[0.1625,0.14074074074074075],[0.1625,0.14074074074074075],[0.1625,0.14074074074074075],[0.1625,0.14074074074074075],[0.1625,0.14074074074074075],[0.1625,0.14074074074074075],[0.1625,0.14074074074074075],[0.1625,0.14074074074074075],[0.1625,0.14074074074074075],[0.1625,0.14074074074074075],[0.1625,0.14074074074074075],[0.1625,0.14074074074074075],[0.1625,0.14074074074074075],[0.1625,0.14074074074074075],[0.1625,0.14074074074074075],[0.1625,0.14074074074074075],[0.1625,0.14074074074074075],[0.1625,0.14074074074074075],[0.1625,0.14074074074074075],[0.1625,0.14074074074074075],[0.1625,0.14074074074074075],[0.1625,0.14074074074074075],[0.1625,0.14074074074074075],[0.1625,0.14074074074074075],[0.1625,0.14074074074074075],[0.1625,0.14074074074074075],[0.1625,0.14074074074074075],[0.1625,0.14074074074074075],[0.1625,0.14074074074074075],[0.1625,0.14074074074074075],[0.1625,0.14074074074074075],[0.1625,0.14074074074074075],[0.1625,0.14074074074074075],[0.1625,0.14074074074074075],[0.1625,0.14074074074074075],[0.1625,0.14074074074074075],[0.1625,0.14074074074074075],[0.1625,0.14074074074074075],[0.1625,0.14074074074074075],[0.1625,0.14074074074074075],[0.1625,0.14074074074074075],[0.1625,0.14074074074074075],[0.1625,0.14074074074074075],[0.1625,0.14074074074074075],[0.1625,0.14074074074074075],[0.1625,0.14074074074074075],[0.1625,0.14074074074074075],[0.1625,0.14074074074074075],[0.1625,0.14074074074074075],[0.1625,0.14074074074074075],[0.1625,0.14074074074074075],[0.1625,0.14074074074074075],[0.1625,0.14074074074074075],[0.1625,0.14074074074074075],[0.1625,0.14074074074074075],[0.1625,0.14074074074074075],[0.1625,0.14074074074074075],[0.1625,0.14074074074074075],[0.1625,0.14074074074074075],[0.1625,0.14074074074074075],[0.1625,0.14074074074074075],[0.1625,0.14074074074074075],[0.1625,0.14074074074074075],[0.1625,0.14074074074074075],[0.1625,0.14074074074074075],[0.1625,0.14074074074074075],[0.1625,0.14074074074074075],[0.1625,0.14074074074074075],[0.1625,0.14074074074074075],[0.1625,0.14074074074074075],[0.1625,0.14074074074074075],[0.1625,0.14074074074074075],[0.1625,0.14074074074074075],[0.1625,0.14074074074074075]]","[[0.11208333333333324,-0.2964814814814815],[0.11208333333333324,-0.2964814814814815],[0.12072916666666676,-0.27611111111111114],[0.12072916666666676,-0.27611111111111114],[0.12989583333333338,-0.2890740740740741],[0.12989583333333338,-0.2890740740740741],[0.14458333333333329,-0.26296296296296295],[0.14458333333333329,-0.26296296296296295],[0.12625000000000006,-0.32018518518518513],[0.12625000000000006,-0.32018518518518513],[0.15395833333333328,-0.33555555555555555],[0.15395833333333328,-0.33555555555555555],[0.1875,-0.28592592592592586],[0.15875000000000009,-0.3051851851851852],[0.16656250000000009,-0.29129629629629633],[0.16124999999999995,-0.23925925925925923],[0.16124999999999995,-0.23925925925925923],[0.12135416666666667,-0.13481481481481483],[0.12135416666666667,-0.13481481481481483],[0.10416666666666667,-0.11703703703703702],[0.0865624999999999,-0.06555555555555552],[0.06729166666666657,-0.004629629629629629],[0.07520833333333338,0.058703703703703786],[0.06208333333333336,0.11222222222222226],[0.06208333333333336,0.11222222222222226],[0.016250000000000025,0.09962962962962954],[0.024687500000000046,0.09499999999999992],[0.01895833333333338,0.10314814814814824],[0.009791666666666643,0.10962962962962972],[0.049374999999999974,0.10851851851851856],[0.05489583333333338,0.06500000000000004],[0.05406249999999998,0.04407407407407399],[0.075,0.04981481481481477],[0.08760416666666657,0.07703703703703708],[0.08822916666666672,0.07740740740740733],[0.11302083333333333,0.07296296296296292],[0.13083333333333325,0.09388888888888898],[0.12625000000000006,0.12666666666666662],[0.14093749999999997,0.13796296296296295],[0.1414583333333333,0.10444444444444441],[0.15770833333333342,0.18000000000000008],[0.17302083333333323,0.20462962962962963],[0.14093749999999997,0.17537037037037045],[0.10625,0.14166666666666666],[0.10114583333333324,0.12722222222222232],[0.08802083333333334,0.12462962962962955],[0.06749999999999995,0.10796296296296289],[0.05416666666666667,0.10574074074074079],[0.04708333333333338,0.15],[0.051145833333333356,0.16537037037037028],[0.05531250000000002,0.15907407407407403],[0.060104166666666715,0.13444444444444448],[0.084375,0.08314814814814811],[0.10864583333333329,0.03185185185185194],[0.11677083333333324,0.041666666666666664],[0.11843750000000004,0.04277777777777782],[0.12625000000000006,0.08203703703703695],[0.14093749999999997,0.05351851851851848],[0.12385416666666677,-0.03740740740740749],[0.10166666666666657,-0.07740740740740742],[0.09677083333333343,-0.11574074074074074],[0.09229166666666658,-0.11981481481481479],[0.09395833333333338,-0.07000000000000002],[0.11885416666666657,-0.028888888888888933],[0.12989583333333338,0.0005555555555554713],[0.14104166666666676,0.030000000000000086],[0.15052083333333333,0.01648148148148144],[0.18552083333333325,0.04611111111111107],[0.2048958333333334,0.11259259259259251],[0.2326041666666666,0.152962962962963],[0.24947916666666667,0.1712962962962963],[0.2569791666666667,0.1772222222222223],[0.2717708333333334,0.14944444444444452],[0.26020833333333326,0.13425925925925927],[0.25583333333333325,0.08962962962962959],[0.24656250000000005,0.027222222222222307],[0.24614583333333329,0.012222222222222264],[0.23572916666666663,-0.0035185185185184764],[0.23947916666666677,-0.017592592592592594],[0.22458333333333325,-0.02092592592592584],[0.21604166666666677,-0.038703703703703664],[0.21583333333333338,-0.059999999999999956],[0.19031250000000005,-0.006111111111111027],[0.1716666666666666,0.0455555555555556],[0.1021874999999999,0.08111111111111102],[0.03958333333333333,0.16611111111111118],[-0.03458333333333338,0.19685185185185178],[-0.1516666666666667,0.22851851851851848],[-0.240625,0.26722222222222214],[-0.3452083333333333,0.2959259259259258],[-0.3980208333333334,0.41574074074074074],[-0.44031250000000005,0.5568518518518519],[-0.44031250000000005,0.5568518518518519],[-0.43864583333333335,0.6235185185185186],[-0.4267708333333334,0.6666666666666666],[-0.3589583333333334,0.7131481481481482],[-0.28406250000000005,0.7075925925925927],[-0.20708333333333329,0.7337037037037037],[-0.10218750000000003,0.7787037037037037],[-0.02010416666666662,0.8196296296296297],[0.05416666666666667,0.852962962962963],[0.09541666666666657,0.8112962962962963],[0.10697916666666671,0.7398148148148148],[0.09260416666666677,0.7012962962962964],[0.07708333333333334,0.6946296296296297],[0.059791666666666646,0.6875925925925925],[0.008541666666666715,0.6762962962962964],[-0.042708333333333334,0.665],[-0.07281249999999997,0.6164814814814814],[-0.09406249999999995,0.5692592592592592],[-0.08760416666666669,0.5329629629629629],[-0.07989583333333337,0.47740740740740734],[-0.08010416666666664,0.4329629629629629],[-0.09114583333333333,0.3592592592592593],[-0.09760416666666671,0.3285185185185185],[-0.10218750000000003,0.2985185185185186],[-0.11770833333333333,0.24574074074074082],[-0.11447916666666665,0.17925925925925917],[-0.12927083333333336,0.12925925925925918],[-0.13114583333333332,0.07981481481481485],[-0.13322916666666665,0.10666666666666672],[-0.15677083333333333,0.11500000000000005],[-0.17250000000000001,0.13240740740740742],[-0.17739583333333328,0.17907407407407416],[-0.17093750000000002,0.18037037037037032],[-0.1720833333333334,0.19203703703703712],[-0.13072916666666667,0.1794444444444444],[-0.10427083333333335,0.25555555555555554],[-0.10427083333333335,0.25555555555555554],[-0.09416666666666665,0.3237037037037036],[-0.10218750000000003,0.3509259259259259],[-0.10572916666666667,0.30703703703703694],[-0.10572916666666667,0.30703703703703694],[-0.11218750000000005,0.30055555555555546],[-0.09427083333333333,0.2807407407407408],[-0.06135416666666664,0.24870370370370362],[-0.06135416666666664,0.24870370370370362],[-0.06114583333333338,0.18722222222222226],[-0.06114583333333338,0.18722222222222226],[-0.07197916666666669,0.14074074074074075],[-0.06614583333333333,0.18277777777777787],[-0.06416666666666669,0.14981481481481476],[-0.05343749999999995,0.11648148148148144],[-0.04052083333333331,0.1198148148148149],[-0.021354166666666667,0.15351851851851847],[0.0006250000000000236,0.17333333333333337],[-0.010104166666666714,0.14092592592592595],[-0.03187500000000002,0.12666666666666662],[-0.04052083333333331,0.14166666666666666],[-0.028958333333333287,0.11703703703703712],[-0.03718750000000005,0.10259259259259255],[-0.051250000000000046,0.055740740740740785],[-0.05354166666666664,0.07018518518518514],[-0.041666666666666664,0.07537037037037045],[-0.041666666666666664,0.07537037037037045],[-0.05499999999999995,0.0455555555555556],[-0.09510416666666661,0.08796296296296297],[-0.09906250000000003,0.15648148148148147],[-0.11656249999999997,0.2361111111111111],[-0.16604166666666664,0.3485185185185186],[-0.21156250000000001,0.43574074074074065],[-0.26291666666666663,0.5272222222222223],[-0.2911458333333333,0.5977777777777777],[-0.3188541666666667,0.6153703703703702],[-0.33999999999999997,0.6805555555555556],[-0.3540625,0.7642592592592593],[-0.3217708333333333,0.7585185185185186],[-0.2872916666666666,0.7853703703703704],[-0.2648958333333333,0.7827777777777779],[-0.21510416666666668,0.7240740740740741],[-0.16843750000000005,0.7414814814814814],[-0.16843750000000005,0.7414814814814814],[-0.11958333333333329,0.7275925925925926],[-0.09718749999999995,0.7281481481481482],[-0.06583333333333338,0.7138888888888889],[-0.06489583333333329,0.6516666666666666],[-0.04874999999999995,0.5685185185185185],[-0.05499999999999995,0.5164814814814814],[-0.07312500000000005,0.45185185185185184],[-0.07229166666666664,0.3757407407407407],[-0.07916666666666666,0.36796296296296305],[-0.0671875,0.3472222222222222],[-0.06572916666666669,0.28129629629629627],[-0.03916666666666669,0.2748148148148148],[-0.03239583333333336,0.26185185185185184],[-0.01593749999999995,0.25851851851851854],[-0.013020833333333334,0.2748148148148148],[-0.010104166666666714,0.2911111111111112],[-0.013645833333333357,0.3162962962962962],[-0.014479166666666644,0.3653703703703703],[-0.0328125,0.32629629629629636],[-0.057500000000000044,0.2818518518518519],[-0.06229166666666662,0.28481481481481474],[-0.08302083333333338,0.26722222222222214],[-0.09739583333333333,0.24351851851851852],[-0.11177083333333329,0.2198148148148149],[-0.12468750000000005,0.17981481481481484],[-0.1376041666666667,0.1398148148148148],[-0.1376041666666667,0.1398148148148148],[-0.13270833333333332,0.10351851851851848],[-0.12854166666666664,0.09351851851851851],[-0.10375000000000002,0.11925925925925922],[-0.09614583333333329,0.11518518518518527],[-0.09791666666666667,0.1088888888888888],[-0.1063541666666667,0.0933333333333333],[-0.10677083333333333,0.10981481481481473],[-0.10718749999999998,0.12629629629629638],[-0.10739583333333336,0.15648148148148147],[-0.09291666666666672,0.205925925925926],[-0.08864583333333335,0.2505555555555555],[-0.09812500000000005,0.2390740740740741],[-0.10760416666666663,0.22759259259259254],[-0.11260416666666669,0.24314814814814806],[-0.11760416666666665,0.25870370370370377],[-0.13093750000000004,0.24648148148148152],[-0.1258333333333333,0.27314814814814814],[-0.1258333333333333,0.27314814814814814],[-0.11656249999999997,0.26592592592592595],[-0.09760416666666671,0.2624074074074075],[-0.09333333333333335,0.23962962962962958],[-0.09479166666666666,0.17018518518518513],[-0.08177083333333333,0.13055555555555556],[-0.0640625,0.12129629629629629],[-0.04104166666666664,0.08148148148148149],[-0.019583333333333286,0.039629629629629584],[0.010208333333333286,-0.027037037037037078],[-0.006979166666666714,-0.12666666666666662],[0.00916666666666662,-0.12851851851851848],[0.00916666666666662,-0.12851851851851848],[0.03604166666666669,-0.18944444444444447],[0.027083333333333334,-0.21129629629629634],[0.029166666666666667,-0.17555555555555558],[0.04385416666666669,-0.16055555555555553],[0.03968750000000002,-0.18351851851851855],[0.029791666666666692,-0.21092592592592588],[0.01593749999999995,-0.22296296296296292],[0.011666666666666714,-0.16407407407407412],[0.016770833333333356,-0.11166666666666669],[0.014791666666666713,-0.12537037037037035],[-0.003333333333333381,-0.09888888888888885],[0.011562500000000024,-0.11518518518518517],[0.004270833333333357,-0.16111111111111112],[-0.024374999999999977,-0.1668518518518519],[-0.052291666666666715,-0.15351851851851847],[-0.0938541666666667,-0.14870370370370373],[-0.10197916666666665,-0.11777777777777781],[-0.10281250000000004,-0.15111111111111114],[-0.10281250000000004,-0.15111111111111114],[-0.09906250000000003,-0.16888888888888887],[-0.09906250000000003,-0.16888888888888887],[-0.13312499999999997,-0.20666666666666672],[-0.13312499999999997,-0.20666666666666672],[-0.13322916666666665,-0.18944444444444447],[-0.13322916666666665,-0.18944444444444447],[-0.12562500000000001,-0.14888888888888885],[-0.12562500000000001,-0.14888888888888885],[-0.09989583333333331,-0.08425925925925926],[-0.09989583333333331,-0.08425925925925926],[-0.0860416666666667,-0.10981481481481484],[-0.041875000000000044,-0.1542592592592593],[-0.041875000000000044,-0.1542592592592593],[0.006666666666666643,-0.11481481481481481],[0.006666666666666643,-0.11481481481481481],[0.049687500000000044,-0.09037037037037039],[0.049687500000000044,-0.09037037037037039],[0.08260416666666662,-0.010740740740740657],[0.10031249999999996,0.03759259259259251],[0.10031249999999996,0.03759259259259251],[0.1382291666666667,0.1051851851851851],[0.1382291666666667,0.1051851851851851],[0.14729166666666677,0.14074074074074075],[0.11416666666666657,0.06740740740740736],[0.08614583333333338,0.029259259259259176],[0.059583333333333384,0.056296296296296254],[0.03135416666666669,0.10240740740740732],[0.036666666666666715,0.07962962962962963],[-0.01270833333333338,0.0031481481481482323],[-0.06218750000000005,-0.07333333333333338],[-0.05,-0.11629629629629631],[-0.0375,-0.13092592592592592],[-0.06635416666666671,-0.17370370370370372],[-0.05791666666666669,-0.1272222222222222],[-0.06395833333333331,-0.1427777777777778],[-0.05375000000000003,-0.14592592592592596],[-0.0655208333333333,-0.15092592592592594],[-0.1094791666666667,-0.12759259259259256],[-0.11395833333333331,-0.10888888888888891],[-0.1280208333333333,-0.07092592592592595],[-0.14895833333333333,-0.04259259259259259],[-0.2111458333333334,-0.06611111111111109],[-0.2101041666666667,-0.08592592592592588],[-0.21906249999999997,-0.08629629629629634],[-0.21104166666666668,-0.06148148148148146],[-0.19947916666666668,-0.04277777777777782],[-0.19947916666666668,-0.04277777777777782],[-0.1935416666666666,-0.049074074074074076],[-0.15916666666666662,-0.07629629629629628],[-0.15916666666666662,-0.07629629629629628],[-0.1203125,-0.07388888888888885],[-0.06968749999999997,-0.07759259259259255],[-0.06947916666666672,-0.0764814814814815],[-0.03999999999999997,-0.07518518518518523],[-0.0375,-0.07240740740740745],[0.010312499999999976,-0.11796296296296294],[0.043020833333333286,-0.15777777777777777],[0.07510416666666657,-0.1983333333333334],[0.06812500000000009,-0.13962962962962958],[0.04791666666666667,-0.09592592592592594],[-0.02781250000000005,-0.019999999999999917],[-0.09791666666666667,0.052407407407407326],[-0.12447916666666667,0.11999999999999991],[-0.17520833333333338,0.18777777777777774],[-0.18406250000000005,0.26703703703703713],[-0.2263541666666666,0.3277777777777778],[-0.24968750000000003,0.41166666666666657],[-0.27281249999999996,0.46055555555555566],[-0.26208333333333333,0.42907407407407416],[-0.2423958333333334,0.43555555555555564],[-0.1648958333333333,0.42962962962962964],[-0.1648958333333333,0.42962962962962964],[-0.10687500000000003,0.3764814814814814],[-0.07416666666666671,0.29870370370370364],[-0.011874999999999976,0.23203703703703696],[0.022812499999999975,0.16351851851851842],[0.049583333333333354,0.12537037037037047],[0.050312499999999954,0.04351851851851852],[0.06416666666666669,0.007777777777777862],[0.08854166666666667,-0.003333333333333249],[0.084375,-0.06703703703703702],[0.09937500000000009,-0.11981481481481479],[0.14135416666666673,-0.10999999999999996],[0.17645833333333344,-0.0955555555555556],[0.1818749999999999,-0.07611111111111116],[0.17302083333333323,-0.06629629629629631],[0.18552083333333325,-0.037037037037037035],[0.2169791666666666,0.0235185185185186],[0.2169791666666666,0.0235185185185186],[0.22447916666666667,0.06555555555555552],[0.22864583333333333,0.07018518518518514],[0.24385416666666657,0.11018518518518519],[0.23125,0.11351851851851844],[0.2033333333333334,0.09185185185185189],[0.16375000000000003,0.11055555555555564],[0.13468749999999996,0.1242592592592593],[0.027083333333333334,0.10703703703703696],[-0.09552083333333337,0.09129629629629621],[-0.2077083333333333,0.06185185185185181],[-0.30927083333333333,0.03981481481481482],[-0.4,0.05555555555555555],[-0.49125,0.07111111111111107],[-0.5825,0.10388888888888893],[-0.6663541666666667,0.13240740740740742],[-0.7115625,0.1398148148148148],[-0.7376041666666667,0.13851851851851843],[-0.6793750000000001,0.19592592592592584],[-0.6214583333333333,0.24944444444444452],[-0.5594791666666666,0.2911111111111112],[-0.4975,0.33277777777777784],[-0.44104166666666667,0.33129629629629626],[-0.390625,0.3296296296296296],[-0.34020833333333333,0.2777777777777778],[-0.29447916666666674,0.2759259259259259],[-0.24510416666666662,0.2111111111111111],[-0.2022916666666667,0.16999999999999993],[-0.17677083333333338,0.1242592592592593],[-0.14937499999999998,0.07759259259259255],[-0.1476041666666667,0.01574074074074074],[-0.13614583333333338,-0.018333333333333292],[-0.13552083333333337,-0.06833333333333329],[-0.11979166666666667,-0.11166666666666669],[-0.12093750000000002,-0.12296296296296293],[-0.12937500000000005,-0.17703703703703708],[-0.16802083333333329,-0.15037037037037035],[-0.20666666666666664,-0.12370370370370372],[-0.23374999999999999,-0.12018518518518514],[-0.25968749999999996,-0.10351851851851848],[-0.27364583333333337,-0.06277777777777774],[-0.2972916666666666,-0.04981481481481477],[-0.3032291666666667,-0.012962962962962963],[-0.3032291666666667,-0.012962962962962963],[-0.3202083333333333,0.034999999999999955],[-0.3202083333333333,0.034999999999999955],[-0.32697916666666665,0.05814814814814811],[-0.3178125,0.13648148148148156],[-0.3178125,0.13648148148148156],[-0.28479166666666667,0.1868518518518518],[-0.28479166666666667,0.1868518518518518],[-0.28791666666666665,0.20185185185185187],[-0.28791666666666665,0.20185185185185187],[-0.28458333333333335,0.23851851851851844],[-0.28458333333333335,0.23851851851851844],[-0.27125,0.2485185185185186],[-0.27125,0.2485185185185186],[-0.24895833333333334,0.26444444444444437],[-0.24895833333333334,0.26444444444444437],[-0.23572916666666663,0.2794444444444444],[-0.23572916666666663,0.2794444444444444],[-0.2273958333333333,0.28166666666666673],[-0.2007291666666667,0.28777777777777774],[-0.1727083333333333,0.32981481481481484],[-0.16416666666666668,0.30185185185185187],[-0.16416666666666668,0.30185185185185187],[-0.16937500000000003,0.27259259259259266],[-0.13968750000000002,0.2838888888888888],[-0.09781249999999998,0.2874074074074075],[-0.06614583333333333,0.3212962962962963],[-0.06614583333333333,0.3212962962962963],[-0.05635416666666669,0.32407407407407407],[-0.05635416666666669,0.32407407407407407],[-0.03718750000000005,0.32518518518518524],[0.003541666666666643,0.3731481481481482],[-0.00791666666666669,0.369074074074074],[-0.01083333333333331,0.3949999999999999],[-0.005624999999999976,0.4327777777777779],[0.008229166666666643,0.4322222222222222],[0.02333333333333331,0.4264814814814814],[0.021249999999999977,0.42888888888888893],[0.016354166666666715,0.4153703703703703],[0.007604166666666619,0.39648148148148155],[-0.007187499999999976,0.3861111111111111],[-0.036666666666666715,0.3531481481481482],[-0.030312500000000023,0.3507407407407407],[-0.03250000000000005,0.3183333333333333],[-0.028958333333333287,0.30833333333333335],[-0.02364583333333338,0.3146296296296296],[-0.01864583333333331,0.322037037037037],[-0.01427083333333338,0.34592592592592586],[-0.013541666666666667,0.34037037037037027],[-0.024583333333333356,0.3738888888888888],[-0.036458333333333336,0.3949999999999999],[-0.05770833333333331,0.38333333333333336],[-0.05770833333333331,0.3987037037037036],[-0.06270833333333338,0.427962962962963],[-0.05552083333333328,0.43499999999999994],[-0.08697916666666666,0.4364814814814816],[-0.1045833333333333,0.4385185185185184],[-0.14572916666666663,0.3968518518518518],[-0.16989583333333336,0.4007407407407407],[-0.16989583333333336,0.4007407407407407],[-0.15625,0.40666666666666673],[-0.1404166666666666,0.39592592592592585],[-0.1273958333333333,0.4038888888888889],[-0.13416666666666663,0.40018518518518525],[-0.13937499999999994,0.3801851851851851],[-0.16458333333333333,0.3544444444444444],[-0.16156250000000003,0.3562962962962963],[-0.1720833333333334,0.35648148148148145],[-0.14739583333333334,0.3646296296296296],[-0.13156249999999994,0.39518518518518514],[-0.16020833333333329,0.36500000000000005],[-0.16802083333333329,0.362962962962963],[-0.17114583333333327,0.3705555555555556],[-0.16072916666666662,0.3603703703703704],[-0.17229166666666665,0.35407407407407415],[-0.17281249999999998,0.34592592592592586],[-0.16635416666666672,0.35537037037037034],[-0.15916666666666662,0.31425925925925935],[-0.16447916666666665,0.27037037037037037],[-0.17583333333333329,0.24388888888888896],[-0.15343749999999995,0.2522222222222223],[-0.1460416666666667,0.2542592592592592],[-0.11062500000000004,0.2081481481481481],[-0.10187499999999995,0.20851851851851855],[-0.06770833333333333,0.2074074074074074],[-0.052291666666666715,0.1866666666666666],[-0.04385416666666669,0.14833333333333337],[-0.03854166666666667,0.15259259259259256],[-0.03250000000000005,0.18592592592592588],[-0.027395833333333286,0.12370370370370362],[-0.004062499999999977,0.07407407407407407],[0.017812500000000023,0.0257407407407407],[-0.0020833333333333333,0.057777777777777865],[-0.0032291666666666905,0.02833333333333325],[0.0078125,0.027222222222222307],[0.023958333333333335,0.06944444444444445],[0.041979166666666616,0.12240740740740745],[0.0740624999999999,0.16999999999999993],[0.0978125000000001,0.18722222222222226],[0.1368750000000001,0.2294444444444444],[0.15270833333333325,0.27092592592592585],[0.16177083333333328,0.27240740740740743],[0.18322916666666675,0.27074074074074084],[0.20541666666666672,0.3050000000000001],[0.21541666666666662,0.3109259259259259],[0.22854166666666675,0.3044444444444444],[0.2397916666666667,0.28722222222222227],[0.2390625,0.2616666666666666],[0.2459374999999999,0.23740740740740748],[0.23947916666666677,0.2507407407407407],[0.23302083333333337,0.2640740740740741],[0.24031250000000004,0.3264814814814814],[0.25270833333333326,0.3592592592592593],[0.24739583333333334,0.3416666666666667],[0.23927083333333338,0.3109259259259259],[0.23270833333333343,0.2762962962962964],[0.23333333333333334,0.2540740740740742],[0.2516666666666666,0.21277777777777773],[0.2700000000000001,0.1714814814814815],[0.26833333333333326,0.15833333333333333],[0.26666666666666666,0.14518518518518514],[0.26666666666666666,0.14518518518518514],[0.2720833333333334,0.0794444444444444],[0.26020833333333326,0.02907407407407416],[0.2582291666666668,0.01055555555555564],[0.26375000000000004,0.013888888888888888],[0.2791666666666667,0.02814814814814823],[0.2772916666666667,0.03888888888888889],[0.26541666666666663,0.09574074074074082],[0.2529166666666666,0.13925925925925933],[0.2609375,0.1316666666666667],[0.25802083333333337,0.07351851851851861],[0.25802083333333337,0.07351851851851861],[0.23854166666666668,0.06333333333333342],[0.23854166666666668,0.06333333333333342],[0.24468750000000009,0.06129629629629634],[0.24468750000000009,0.06129629629629634]]","[[0.11208333333333324,-0.2964814814814815,0.000299999999811007],[0.11208333333333324,-0.2964814814814815,0.03189999999990789],[0.12072916666666676,-0.27611111111111114,0.03910000000009006],[0.12072916666666676,-0.27611111111111114,0.055799999999820216],[0.12989583333333338,-0.2890740740740741,0.0761000000000962],[0.12989583333333338,-0.2890740740740741,0.08910000000010143],[0.14458333333333329,-0.26296296296296295,0.10579999999981737],[0.14458333333333329,-0.26296296296296295,0.12239999999991369],[0.12625000000000006,-0.32018518518518513,0.1391000000000986],[0.12625000000000006,-0.32018518518518513,0.15579999999981453],[0.15395833333333328,-0.33555555555555555,0.17239999999991085],[0.15395833333333328,-0.33555555555555555,0.18910000000009575],[0.1875,-0.28592592592592586,0.20589999999991448],[0.15875000000000009,-0.3051851851851852,0.22710000000009245],[0.16656250000000009,-0.29129629629629633,0.24410000000010257],[0.16124999999999995,-0.23925925925925923,0.26229999999981146],[0.16124999999999995,-0.23925925925925923,0.27250000000000796],[0.12135416666666667,-0.13481481481481483,0.28910000000009006],[0.12135416666666667,-0.13481481481481483,0.3057999999998202],[0.10416666666666667,-0.11703703703703702,0.32239999999991653],[0.0865624999999999,-0.06555555555555552,0.33910000000010143],[0.06729166666666657,-0.004629629629629629,0.3557999999998174],[0.07520833333333338,0.058703703703703786,0.3723999999999137],[0.06208333333333336,0.11222222222222226,0.3891000000000986],[0.06208333333333336,0.11222222222222226,0.40579999999981453],[0.016250000000000025,0.09962962962962954,0.42239999999991085],[0.024687500000000046,0.09499999999999992,0.43969999999971776],[0.01895833333333338,0.10314814814814824,0.4579999999999984],[0.009791666666666643,0.10962962962962972,0.4725000000000108],[0.049374999999999974,0.10851851851851856,0.4895000000000067],[0.05489583333333338,0.06500000000000004,0.5096999999997252],[0.05406249999999998,0.04407407407407399,0.5238999999999123],[0.075,0.04981481481481477,0.5391999999997239],[0.08760416666666657,0.07703703703703708,0.5559999999999974],[0.08822916666666672,0.07740740740740733,0.5751999999997253],[0.11302083333333333,0.07296296296296292,0.5893999999999124],[0.13083333333333325,0.09388888888888898,0.6064999999999969],[0.12625000000000006,0.12666666666666662,0.6258999999999162],[0.14093749999999997,0.13796296296296295,0.6406000000000915],[0.1414583333333333,0.10444444444444441,0.6561999999997283],[0.15770833333333342,0.18000000000000008,0.6724999999999994],[0.17302083333333323,0.20462962962962963,0.6922999999998183],[0.14093749999999997,0.17537037037037045,0.7087999999998118],[0.10625,0.14166666666666666,0.7241000000000923],[0.10114583333333324,0.12722222222222232,0.7420000000000044],[0.08802083333333334,0.12462962962962955,0.7573999999999046],[0.06749999999999995,0.10796296296296289,0.7730000000000103],[0.05416666666666667,0.10574074074074079,0.7935000000000088],[0.04708333333333338,0.15,0.8100000000000023],[0.051145833333333356,0.16537037037037028,0.8250000000000028],[0.05531250000000002,0.15907407407407403,0.840100000000092],[0.060104166666666715,0.13444444444444448,0.8592999999998199],[0.084375,0.08314814814814811,0.8753999999999138],[0.10864583333333329,0.03185185185185194,0.8891000000000986],[0.11677083333333324,0.041666666666666664,0.905699999999726],[0.11843750000000004,0.04277777777777782,0.9222999999998223],[0.12625000000000006,0.08203703703703695,0.9391000000000957],[0.14093749999999997,0.05351851851851848,0.9556999999997231],[0.12385416666666677,-0.03740740740740749,0.972399999999908],[0.10166666666666657,-0.07740740740740742,0.9891000000000929],[0.09677083333333343,-0.11574074074074074,1.006699999999725],[0.09229166666666658,-0.11981481481481479,1.0223999999999052],[0.09395833333333338,-0.07000000000000002,1.0390000000000015],[0.11885416666666657,-0.028888888888888933,1.0557999999998202],[0.12989583333333338,0.0005555555555554713,1.0723999999999165],[0.14104166666666676,0.030000000000000086,1.0891000000001014],[0.15052083333333333,0.01648148148148144,1.105899999999906],[0.18552083333333325,0.04611111111111107,1.1223999999999137],[0.2048958333333334,0.11259259259259251,1.1391000000000986],[0.2326041666666666,0.152962962962963,1.155699999999726],[0.24947916666666667,0.1712962962962963,1.1724999999999994],[0.2569791666666667,0.1772222222222223,1.1890000000000072],[0.2717708333333334,0.14944444444444452,1.205699999999723],[0.26020833333333326,0.13425925925925927,1.2225000000000108],[0.25583333333333325,0.08962962962962959,1.239100000000093],[0.24656250000000005,0.027222222222222307,1.255799999999823],[0.24614583333333329,0.012222222222222264,1.2723999999999052],[0.23572916666666663,-0.0035185185185184764,1.28910000000009],[0.23947916666666677,-0.017592592592592594,1.3066000000001026],[0.22458333333333325,-0.02092592592592584,1.3225000000000051],[0.21604166666666677,-0.038703703703703664,1.3391000000001014],[0.21583333333333338,-0.059999999999999956,1.3557999999998174],[0.19031250000000005,-0.006111111111111027,1.3723999999999137],[0.1716666666666666,0.0455555555555556,1.3891000000000986],[0.1021874999999999,0.08111111111111102,1.4057999999998145],[0.03958333333333333,0.16611111111111118,1.4223999999999108],[-0.03458333333333338,0.19685185185185178,1.4391000000000957],[-0.1516666666666667,0.22851851851851848,1.455699999999723],[-0.240625,0.26722222222222214,1.4726000000000994],[-0.3452083333333333,0.2959259259259258,1.489100000000093],[-0.3980208333333334,0.41574074074074074,1.5056999999997203],[-0.44031250000000005,0.5568518518518519,1.527000000000001],[-0.44031250000000005,0.5568518518518519,1.53910000000009],[-0.43864583333333335,0.6235185185185186,1.5557999999998202],[-0.4267708333333334,0.6666666666666666,1.5725000000000051],[-0.3589583333333334,0.7131481481481482,1.5891000000001014],[-0.28406250000000005,0.7075925925925927,1.605899999999906],[-0.20708333333333329,0.7337037037037037,1.622299999999811],[-0.10218750000000003,0.7787037037037037,1.63900000000001],[-0.02010416666666662,0.8196296296296297,1.655699999999726],[0.05416666666666667,0.852962962962963,1.6726000000001022],[0.09541666666666657,0.8112962962962963,1.6891000000000957],[0.10697916666666671,0.7398148148148148,1.706299999999814],[0.09260416666666677,0.7012962962962964,1.7225000000000108],[0.07708333333333334,0.6946296296296297,1.739100000000093],[0.059791666666666646,0.6875925925925925,1.755799999999823],[0.008541666666666715,0.6762962962962964,1.7723999999999052],[-0.042708333333333334,0.665,1.78910000000009],[-0.07281249999999997,0.6164814814814814,1.8056999999997174],[-0.09406249999999995,0.5692592592592592,1.8223999999999165],[-0.08760416666666669,0.5329629629629629,1.8391000000001014],[-0.07989583333333337,0.47740740740740734,1.8557999999998174],[-0.08010416666666664,0.4329629629629629,1.8726000000000909],[-0.09114583333333333,0.3592592592592593,1.8891000000000986],[-0.09760416666666671,0.3285185185185185,1.9057999999998145],[-0.10218750000000003,0.2985185185185186,1.9223999999999108],[-0.11770833333333333,0.24574074074074082,1.9390000000000072],[-0.11447916666666665,0.17925925925925917,1.955699999999723],[-0.12927083333333336,0.12925925925925918,1.972399999999908],[-0.13114583333333332,0.07981481481481485,1.989100000000093],[-0.13322916666666665,0.10666666666666672,2.0056999999997203],[-0.15677083333333333,0.11500000000000005,2.022399999999905],[-0.17250000000000001,0.13240740740740742,2.0390000000000015],[-0.17739583333333328,0.17907407407407416,2.05579999999982],[-0.17093750000000002,0.18037037037037032,2.0722999999998137],[-0.1720833333333334,0.19203703703703712,2.0891000000001014],[-0.13072916666666667,0.1794444444444444,2.1057999999998174],[-0.10427083333333335,0.25555555555555554,2.126799999999818],[-0.10427083333333335,0.25555555555555554,2.1391000000000986],[-0.09416666666666665,0.3237037037037036,2.1557999999998145],[-0.10218750000000003,0.3509259259259259,2.1766999999997267],[-0.10572916666666667,0.30703703703703694,2.198399999999907],[-0.10572916666666667,0.30703703703703694,2.205699999999723],[-0.11218750000000005,0.30055555555555546,2.222399999999908],[-0.09427083333333333,0.2807407407407408,2.24369999999972],[-0.06135416666666664,0.24870370370370362,2.2622999999998115],[-0.06135416666666664,0.24870370370370362,2.272500000000008],[-0.06114583333333338,0.18722222222222226,2.289199999999724],[-0.06114583333333338,0.18722222222222226,2.30579999999982],[-0.07197916666666669,0.14074074074074075,2.3223999999999165],[-0.06614583333333333,0.18277777777777787,2.3391000000001014],[-0.06416666666666669,0.14981481481481476,2.355699999999729],[-0.05343749999999995,0.11648148148148144,2.3723999999999137],[-0.04052083333333331,0.1198148148148149,2.38900000000001],[-0.021354166666666667,0.15351851851851847,2.4071000000000993],[0.0006250000000000236,0.17333333333333337,2.422399999999911],[-0.010104166666666714,0.14092592592592595,2.4397999999998206],[-0.03187500000000002,0.12666666666666662,2.455699999999723],[-0.04052083333333331,0.14166666666666666,2.4722999999998194],[-0.028958333333333287,0.11703703703703712,2.489100000000093],[-0.03718750000000005,0.10259259259259255,2.506600000000091],[-0.051250000000000046,0.055740740740740785,2.522399999999905],[-0.05354166666666664,0.07018518518518514,2.5390000000000015],[-0.041666666666666664,0.07537037037037045,2.5575000000000045],[-0.041666666666666664,0.07537037037037045,2.5748999999999143],[-0.05499999999999995,0.0455555555555556,2.590399999999917],[-0.09510416666666661,0.08796296296296297,2.609000000000009],[-0.09906250000000003,0.15648148148148147,2.6225000000000023],[-0.11656249999999997,0.2361111111111111,2.63900000000001],[-0.16604166666666664,0.3485185185185186,2.655699999999726],[-0.21156250000000001,0.43574074074074065,2.6726000000001022],[-0.26291666666666663,0.5272222222222223,2.6891000000000957],[-0.2911458333333333,0.5977777777777777,2.705699999999723],[-0.3188541666666667,0.6153703703703702,2.722399999999908],[-0.33999999999999997,0.6805555555555556,2.7390000000000043],[-0.3540625,0.7642592592592593,2.7556999999997203],[-0.3217708333333333,0.7585185185185186,2.772399999999905],[-0.2872916666666666,0.7853703703703704,2.78910000000009],[-0.2648958333333333,0.7827777777777779,2.805899999999909],[-0.21510416666666668,0.7240740740740741,2.8251999999997253],[-0.16843750000000005,0.7414814814814814,2.840100000000092],[-0.16843750000000005,0.7414814814814814,2.855699999999729],[-0.11958333333333329,0.7275925925925926,2.8723999999999137],[-0.09718749999999995,0.7281481481481482,2.88900000000001],[-0.06583333333333338,0.7138888888888889,2.9066999999997307],[-0.06489583333333329,0.6516666666666666,2.922399999999911],[-0.04874999999999995,0.5685185185185185,2.939000000000007],[-0.05499999999999995,0.5164814814814814,2.955699999999723],[-0.07312500000000005,0.45185185185185184,2.972500000000011],[-0.07229166666666664,0.3757407407407407,2.9890000000000043],[-0.07916666666666666,0.36796296296296305,3.006699999999725],[-0.0671875,0.3472222222222222,3.022399999999905],[-0.06572916666666669,0.28129629629629627,3.0401999999997287],[-0.03916666666666669,0.2748148148148148,3.055899999999909],[-0.03239583333333336,0.26185185185185184,3.0723999999999165],[-0.01593749999999995,0.25851851851851854,3.0889999999999986],[-0.013020833333333334,0.2748148148148148,3.1060000000000088],[-0.010104166666666714,0.2911111111111112,3.1223999999999137],[-0.013645833333333357,0.3162962962962962,3.139499999999998],[-0.014479166666666644,0.3653703703703703,3.155699999999726],[-0.0328125,0.32629629629629636,3.1722999999998223],[-0.057500000000000044,0.2818518518518519,3.189000000000007],[-0.06229166666666662,0.28481481481481474,3.205699999999723],[-0.08302083333333338,0.26722222222222214,3.222399999999908],[-0.09739583333333333,0.24351851851851852,3.2390000000000043],[-0.11177083333333329,0.2198148148148149,3.2556999999997203],[-0.12468750000000005,0.17981481481481484,3.2722999999998166],[-0.1376041666666667,0.1398148148148148,3.2941000000000997],[-0.1376041666666667,0.1398148148148148,3.30579999999982],[-0.13270833333333332,0.10351851851851848,3.3223999999999165],[-0.12854166666666664,0.09351851851851851,3.3391000000001014],[-0.10375000000000002,0.11925925925925922,3.355699999999729],[-0.09614583333333329,0.11518518518518527,3.3723999999999137],[-0.09791666666666667,0.1088888888888888,3.38900000000001],[-0.1063541666666667,0.0933333333333333,3.405699999999726],[-0.10677083333333333,0.10981481481481473,3.4222999999998223],[-0.10718749999999998,0.12629629629629638,3.439000000000007],[-0.10739583333333336,0.15648148148148147,3.455699999999723],[-0.09291666666666672,0.205925925925926,3.4722999999998194],[-0.08864583333333335,0.2505555555555555,3.489100000000093],[-0.09812500000000005,0.2390740740740741,3.5062999999998112],[-0.10760416666666663,0.22759259259259254,3.522399999999905],[-0.11260416666666669,0.24314814814814806,3.5390000000000015],[-0.11760416666666665,0.25870370370370377,3.5556999999997174],[-0.13093750000000004,0.24648148148148152,3.5723999999999165],[-0.1258333333333333,0.27314814814814814,3.5938999999999055],[-0.1258333333333333,0.27314814814814814,3.6057999999998174],[-0.11656249999999997,0.26592592592592595,3.6225000000000023],[-0.09760416666666671,0.2624074074074075,3.639199999999718],[-0.09333333333333335,0.23962962962962958,3.6580000000000013],[-0.09479166666666666,0.17018518518518513,3.6726000000001022],[-0.08177083333333333,0.13055555555555556,3.689299999999818],[-0.0640625,0.12129629629629629,3.709899999999905],[-0.04104166666666664,0.08148148148148149,3.7241000000000923],[-0.019583333333333286,0.039629629629629584,3.7391999999997267],[0.010208333333333286,-0.027037037037037078,3.7560000000000002],[-0.006979166666666714,-0.12666666666666662,3.774899999999917],[0.00916666666666662,-0.12851851851851848,3.7892999999998125],[0.00916666666666662,-0.12851851851851848,3.805899999999909],[0.03604166666666669,-0.18944444444444447,3.8253999999999166],[0.027083333333333334,-0.21129629629629634,3.8391000000001014],[0.029166666666666667,-0.17555555555555558,3.855899999999906],[0.04385416666666669,-0.16055555555555553,3.8751999999997224],[0.03968750000000002,-0.18351851851851855,3.889199999999718],[0.029791666666666692,-0.21092592592592588,3.9065000000000083],[0.01593749999999995,-0.22296296296296292,3.9252999999998224],[0.011666666666666714,-0.16407407407407412,3.9391000000000957],[0.016770833333333356,-0.11166666666666669,3.955699999999723],[0.014791666666666713,-0.12537037037037035,3.972399999999908],[-0.003333333333333381,-0.09888888888888885,3.9890000000000043],[0.011562500000000024,-0.11518518518518517,4.00869999999972],[0.004270833333333357,-0.16111111111111112,4.022299999999817],[-0.024374999999999977,-0.1668518518518519,4.03910000000009],[-0.052291666666666715,-0.15351851851851847,4.055699999999717],[-0.0938541666666667,-0.14870370370370373,4.072299999999814],[-0.10197916666666665,-0.11777777777777781,4.088999999999999],[-0.10281250000000004,-0.15111111111111114,4.105699999999729],[-0.10281250000000004,-0.15111111111111114,4.122399999999914],[-0.09906250000000003,-0.16888888888888887,4.13900000000001],[-0.09906250000000003,-0.16888888888888887,4.1557999999998145],[-0.13312499999999997,-0.20666666666666672,4.172499999999999],[-0.13312499999999997,-0.20666666666666672,4.189000000000007],[-0.13322916666666665,-0.18944444444444447,4.205699999999723],[-0.13322916666666665,-0.18944444444444447,4.222299999999819],[-0.12562500000000001,-0.14888888888888885,4.239100000000093],[-0.12562500000000001,-0.14888888888888885,4.255799999999823],[-0.09989583333333331,-0.08425925925925926,4.272399999999905],[-0.09989583333333331,-0.08425925925925926,4.28910000000009],[-0.0860416666666667,-0.10981481481481484,4.305699999999717],[-0.041875000000000044,-0.1542592592592593,4.327199999999721],[-0.041875000000000044,-0.1542592592592593,4.339100000000101],[0.006666666666666643,-0.11481481481481481,4.355699999999729],[0.006666666666666643,-0.11481481481481481,4.372299999999811],[0.049687500000000044,-0.09037037037037039,4.389100000000099],[0.049687500000000044,-0.09037037037037039,4.405699999999726],[0.08260416666666662,-0.010740740740740657,4.422399999999911],[0.10031249999999996,0.03759259259259251,4.444799999999816],[0.10031249999999996,0.03759259259259251,4.455799999999812],[0.1382291666666667,0.1051851851851851,4.472699999999719],[0.1382291666666667,0.1051851851851851,4.489100000000093],[0.14729166666666677,0.14074074074074075,4.509500000000003],[0.11416666666666657,0.06740740740740736,4.525500000000008],[0.08614583333333338,0.029259259259259176,4.540600000000097],[0.059583333333333384,0.056296296296296254,4.55579999999982],[0.03135416666666669,0.10240740740740732,4.574899999999914],[0.036666666666666715,0.07962962962962963,4.589199999999721],[-0.01270833333333338,0.0031481481481482323,4.608000000000004],[-0.06218750000000005,-0.07333333333333338,4.622500000000002],[-0.05,-0.11629629629629631,4.642100000000099],[-0.0375,-0.13092592592592592,4.655699999999726],[-0.06635416666666671,-0.17370370370370372,4.673699999999727],[-0.05791666666666669,-0.1272222222222222,4.689100000000096],[-0.06395833333333331,-0.1427777777777778,4.709399999999917],[-0.05375000000000003,-0.14592592592592596,4.723199999999721],[-0.0655208333333333,-0.15092592592592594,4.740100000000098],[-0.1094791666666667,-0.12759259259259256,4.756500000000003],[-0.11395833333333331,-0.10888888888888891,4.772299999999817],[-0.1280208333333333,-0.07092592592592595,4.7890000000000015],[-0.14895833333333333,-0.04259259259259259,4.806600000000103],[-0.2111458333333334,-0.06611111111111109,4.822299999999814],[-0.2101041666666667,-0.08592592592592588,4.838999999999999],[-0.21906249999999997,-0.08629629629629634,4.855699999999729],[-0.21104166666666668,-0.06148148148148146,4.872399999999914],[-0.19947916666666668,-0.04277777777777782,4.8940000000000055],[-0.19947916666666668,-0.04277777777777782,4.905699999999726],[-0.1935416666666666,-0.049074074074074076,4.922399999999911],[-0.15916666666666662,-0.07629629629629628,4.939100000000096],[-0.15916666666666662,-0.07629629629629628,4.955699999999723],[-0.1203125,-0.07388888888888885,4.972399999999908],[-0.06968749999999997,-0.07759259259259255,4.989100000000093],[-0.06947916666666672,-0.0764814814814815,5.008799999999823],[-0.03999999999999997,-0.07518518518518523,5.022299999999817],[-0.0375,-0.07240740740740745,5.0390000000000015],[0.010312499999999976,-0.11796296296296294,5.055699999999717],[0.043020833333333286,-0.15777777777777777,5.07319999999973],[0.07510416666666657,-0.1983333333333334,5.088999999999999],[0.06812500000000009,-0.13962962962962958,5.108699999999729],[0.04791666666666667,-0.09592592592592594,5.122399999999914],[-0.02781250000000005,-0.019999999999999917,5.13900000000001],[-0.09791666666666667,0.052407407407407326,5.155699999999726],[-0.12447916666666667,0.11999999999999991,5.172399999999911],[-0.17520833333333338,0.18777777777777774,5.189000000000007],[-0.18406250000000005,0.26703703703703713,5.209100000000092],[-0.2263541666666666,0.3277777777777778,5.2252999999998195],[-0.24968750000000003,0.41166666666666657,5.239000000000004],[-0.27281249999999996,0.46055555555555566,5.25569999999972],[-0.26208333333333333,0.42907407407407416,5.272299999999817],[-0.2423958333333334,0.43555555555555564,5.2890000000000015],[-0.1648958333333333,0.42962962962962964,5.313399999999916],[-0.1648958333333333,0.42962962962962964,5.322500000000005],[-0.10687500000000003,0.3764814814814814,5.339199999999721],[-0.07416666666666671,0.29870370370370364,5.355799999999817],[-0.011874999999999976,0.23203703703703696,5.375500000000002],[0.022812499999999975,0.16351851851851842,5.390000000000001],[0.049583333333333354,0.12537037037037047,5.408199999999724],[0.050312499999999954,0.04351851851851852,5.422299999999822],[0.06416666666666669,0.007777777777777862,5.439000000000007],[0.08854166666666667,-0.003333333333333249,5.455799999999812],[0.084375,-0.06703703703703702,5.472500000000011],[0.09937500000000009,-0.11981481481481479,5.488899999999916],[0.14135416666666673,-0.10999999999999996,5.508499999999998],[0.17645833333333344,-0.0955555555555556,5.52339999999991],[0.1818749999999999,-0.07611111111111116,5.5390000000000015],[0.17302083333333323,-0.06629629629629631,5.555699999999717],[0.18552083333333325,-0.037037037037037035,5.5723999999999165],[0.2169791666666666,0.0235185185185186,5.590699999999728],[0.2169791666666666,0.0235185185185186,5.605699999999729],[0.22447916666666667,0.06555555555555552,5.622399999999914],[0.22864583333333333,0.07018518518518514,5.639100000000099],[0.24385416666666657,0.11018518518518519,5.655699999999726],[0.23125,0.11351851851851844,5.672299999999822],[0.2033333333333334,0.09185185185185189,5.689100000000096],[0.16375000000000003,0.11055555555555564,5.7056000000001035],[0.13468749999999996,0.1242592592592593,5.722299999999819],[0.027083333333333334,0.10703703703703696,5.739100000000093],[-0.09552083333333337,0.09129629629629621,5.75569999999972],[-0.2077083333333333,0.06185185185185181,5.772299999999817],[-0.30927083333333333,0.03981481481481482,5.7890000000000015],[-0.4,0.05555555555555555,5.808500000000009],[-0.49125,0.07111111111111107,5.822299999999814],[-0.5825,0.10388888888888893,5.838999999999999],[-0.6663541666666667,0.13240740740740742,5.855600000000095],[-0.7115625,0.1398148148148148,5.872299999999811],[-0.7376041666666667,0.13851851851851843,5.88900000000001],[-0.6793750000000001,0.19592592592592584,5.909100000000095],[-0.6214583333333333,0.24944444444444452,5.922699999999722],[-0.5594791666666666,0.2911111111111112,5.939000000000007],[-0.4975,0.33277777777777784,5.9556000000001035],[-0.44104166666666667,0.33129629629629626,5.972299999999819],[-0.390625,0.3296296296296296,5.989100000000093],[-0.34020833333333333,0.2777777777777778,6.008899999999912],[-0.29447916666666674,0.2759259259259259,6.022299999999817],[-0.24510416666666662,0.2111111111111111,6.0390000000000015],[-0.2022916666666667,0.16999999999999993,6.055699999999717],[-0.17677083333333338,0.1242592592592593,6.072299999999814],[-0.14937499999999998,0.07759259259259255,6.089100000000101],[-0.1476041666666667,0.01574074074074074,6.106199999999731],[-0.13614583333333338,-0.018333333333333292,6.122299999999811],[-0.13552083333333337,-0.06833333333333329,6.138899999999907],[-0.11979166666666667,-0.11166666666666669,6.155600000000092],[-0.12093750000000002,-0.12296296296296293,6.172299999999822],[-0.12937500000000005,-0.17703703703703708,6.189000000000007],[-0.16802083333333329,-0.15037037037037035,6.2065000000000055],[-0.20666666666666664,-0.12370370370370372,6.222399999999908],[-0.23374999999999999,-0.12018518518518514,6.239000000000004],[-0.25968749999999996,-0.10351851851851848,6.255799999999823],[-0.27364583333333337,-0.06277777777777774,6.272399999999905],[-0.2972916666666666,-0.04981481481481477,6.2890000000000015],[-0.3032291666666667,-0.012962962962962963,6.3095],[-0.3032291666666667,-0.012962962962962963,6.322299999999814],[-0.3202083333333333,0.034999999999999955,6.339100000000101],[-0.3202083333333333,0.034999999999999955,6.355699999999729],[-0.32697916666666665,0.05814814814814811,6.372299999999811],[-0.3178125,0.13648148148148156,6.390299999999812],[-0.3178125,0.13648148148148156,6.405699999999726],[-0.28479166666666667,0.1868518518518518,6.422399999999911],[-0.28479166666666667,0.1868518518518518,6.439000000000007],[-0.28791666666666665,0.20185185185185187,6.4556000000001035],[-0.28791666666666665,0.20185185185185187,6.472399999999908],[-0.28458333333333335,0.23851851851851844,6.489000000000004],[-0.28458333333333335,0.23851851851851844,6.50569999999972],[-0.27125,0.2485185185185186,6.522299999999817],[-0.27125,0.2485185185185186,6.5390000000000015],[-0.24895833333333334,0.26444444444444437,6.555600000000098],[-0.24895833333333334,0.26444444444444437,6.5723999999999165],[-0.23572916666666663,0.2794444444444444,6.588999999999999],[-0.23572916666666663,0.2794444444444444,6.605699999999729],[-0.2273958333333333,0.28166666666666673,6.622299999999811],[-0.2007291666666667,0.28777777777777774,6.644199999999728],[-0.1727083333333333,0.32981481481481484,6.66110000000009],[-0.16416666666666668,0.30185185185185187,6.67779999999982],[-0.16416666666666668,0.30185185185185187,6.689000000000007],[-0.16937500000000003,0.27259259259259266,6.7056000000001035],[-0.13968750000000002,0.2838888888888888,6.723399999999913],[-0.09781249999999998,0.2874074074074075,6.740100000000098],[-0.06614583333333333,0.3212962962962963,6.758799999999823],[-0.06614583333333333,0.3212962962962963,6.778500000000008],[-0.05635416666666669,0.32407407407407407,6.796999999999997],[-0.05635416666666669,0.32407407407407407,6.80579999999982],[-0.03718750000000005,0.32518518518518524,6.822299999999814],[0.003541666666666643,0.3731481481481482,6.838999999999999],[-0.00791666666666669,0.369074074074074,6.855699999999729],[-0.01083333333333331,0.3949999999999999,6.872299999999811],[-0.005624999999999976,0.4327777777777779,6.88900000000001],[0.008229166666666643,0.4322222222222222,6.905699999999726],[0.02333333333333331,0.4264814814814814,6.922299999999822],[0.021249999999999977,0.42888888888888893,6.939000000000007],[0.016354166666666715,0.4153703703703703,6.9556000000001035],[0.007604166666666619,0.39648148148148155,6.972299999999819],[-0.007187499999999976,0.3861111111111111,6.989000000000004],[-0.036666666666666715,0.3531481481481482,7.005600000000101],[-0.030312500000000023,0.3507407407407407,7.022299999999817],[-0.03250000000000005,0.3183333333333333,7.0390000000000015],[-0.028958333333333287,0.30833333333333335,7.055699999999717],[-0.02364583333333338,0.3146296296296296,7.075199999999725],[-0.01864583333333331,0.322037037037037,7.092500000000001],[-0.01427083333333338,0.34592592592592586,7.108600000000095],[-0.013541666666666667,0.34037037037037027,7.122299999999811],[-0.024583333333333356,0.3738888888888888,7.139100000000099],[-0.036458333333333336,0.3949999999999999,7.155600000000092],[-0.05770833333333331,0.38333333333333336,7.172399999999911],[-0.05770833333333331,0.3987037037037036,7.189000000000007],[-0.06270833333333338,0.427962962962963,7.2065000000000055],[-0.05552083333333328,0.43499999999999994,7.222299999999819],[-0.08697916666666666,0.4364814814814816,7.239000000000004],[-0.1045833333333333,0.4385185185185184,7.255600000000101],[-0.14572916666666663,0.3968518518518518,7.276100000000099],[-0.16989583333333336,0.4007407407407407,7.288899999999913],[-0.16989583333333336,0.4007407407407407,7.305699999999717],[-0.15625,0.40666666666666673,7.322299999999814],[-0.1404166666666666,0.39592592592592585,7.342500000000001],[-0.1273958333333333,0.4038888888888889,7.355699999999729],[-0.13416666666666663,0.40018518518518525,7.372299999999811],[-0.13937499999999994,0.3801851851851851,7.38900000000001],[-0.16458333333333333,0.3544444444444444,7.406899999999908],[-0.16156250000000003,0.3562962962962963,7.422299999999822],[-0.1720833333333334,0.35648148148148145,7.438899999999904],[-0.14739583333333334,0.3646296296296296,7.455699999999723],[-0.13156249999999994,0.39518518518518514,7.472999999999999],[-0.16020833333333329,0.36500000000000005,7.489000000000004],[-0.16802083333333329,0.362962962962963,7.505799999999823],[-0.17114583333333327,0.3705555555555556,7.522299999999817],[-0.16072916666666662,0.3603703703703704,7.5390000000000015],[-0.17229166666666665,0.35407407407407415,7.555600000000098],[-0.17281249999999998,0.34592592592592586,7.572799999999816],[-0.16635416666666672,0.35537037037037034,7.588999999999999],[-0.15916666666666662,0.31425925925925935,7.606499999999997],[-0.16447916666666665,0.27037037037037037,7.622299999999811],[-0.17583333333333329,0.24388888888888896,7.63900000000001],[-0.15343749999999995,0.2522222222222223,7.6557999999998145],[-0.1460416666666667,0.2542592592592592,7.672299999999822],[-0.11062500000000004,0.2081481481481481,7.689000000000007],[-0.10187499999999995,0.20851851851851855,7.705699999999723],[-0.06770833333333333,0.2074074074074074,7.722299999999819],[-0.052291666666666715,0.1866666666666666,7.739000000000004],[-0.04385416666666669,0.14833333333333337,7.755600000000101],[-0.03854166666666667,0.15259259259259256,7.772199999999728],[-0.03250000000000005,0.18592592592592588,7.7890000000000015],[-0.027395833333333286,0.12370370370370362,7.805600000000098],[-0.004062499999999977,0.07407407407407407,7.822299999999814],[0.017812500000000023,0.0257407407407407,7.838999999999999],[-0.0020833333333333333,0.057777777777777865,7.855600000000095],[-0.0032291666666666905,0.02833333333333325,7.872299999999811],[0.0078125,0.027222222222222307,7.88900000000001],[0.023958333333333335,0.06944444444444445,7.905699999999726],[0.041979166666666616,0.12240740740740745,7.922399999999911],[0.0740624999999999,0.16999999999999993,7.939699999999718],[0.0978125000000001,0.18722222222222226,7.9556000000001035],[0.1368750000000001,0.2294444444444444,7.972299999999819],[0.15270833333333325,0.27092592592592585,7.989699999999729],[0.16177083333333328,0.27240740740740743,8.008499999999998],[0.18322916666666675,0.27074074074074084,8.022299999999817],[0.20541666666666672,0.3050000000000001,8.039000000000001],[0.21541666666666662,0.3109259259259259,8.055600000000098],[0.22854166666666675,0.3044444444444444,8.072299999999814],[0.2397916666666667,0.28722222222222227,8.088999999999999],[0.2390625,0.2616666666666666,8.105600000000095],[0.2459374999999999,0.23740740740740748,8.122199999999722],[0.23947916666666677,0.2507407407407407,8.138899999999907],[0.23302083333333337,0.2640740740740741,8.155600000000092],[0.24031250000000004,0.3264814814814814,8.172299999999822],[0.25270833333333326,0.3592592592592593,8.189000000000007],[0.24739583333333334,0.3416666666666667,8.205600000000103],[0.23927083333333338,0.3109259259259259,8.22229999999982],[0.23270833333333343,0.2762962962962964,8.238899999999916],[0.23333333333333334,0.2540740740740742,8.25569999999972],[0.2516666666666666,0.21277777777777773,8.272299999999817],[0.2700000000000001,0.1714814814814815,8.288899999999913],[0.26833333333333326,0.15833333333333333,8.305600000000098],[0.26666666666666666,0.14518518518518514,8.322299999999814],[0.26666666666666666,0.14518518518518514,8.339600000000104],[0.2720833333333334,0.0794444444444444,8.355699999999729],[0.26020833333333326,0.02907407407407416,8.372299999999811],[0.2582291666666668,0.01055555555555564,8.38900000000001],[0.26375000000000004,0.013888888888888888,8.405799999999815],[0.2791666666666667,0.02814814814814823,8.422299999999822],[0.2772916666666667,0.03888888888888889,8.439100000000096],[0.26541666666666663,0.09574074074074082,8.455699999999723],[0.2529166666666666,0.13925925925925933,8.47219999999973],[0.2609375,0.1316666666666667,8.489000000000004],[0.25802083333333337,0.07351851851851861,8.510899999999907],[0.25802083333333337,0.07351851851851861,8.522299999999817],[0.23854166666666668,0.06333333333333342,8.539000000000001],[0.23854166666666668,0.06333333333333342,8.555699999999717],[0.24468750000000009,0.06129629629629634,8.572299999999814],[0.24468750000000009,0.06129629629629634,8.588999999999999]]","[0.000299999999811007,0.03189999999990789,0.03910000000009006,0.055799999999820216,0.0761000000000962,0.08910000000010143,0.10579999999981737,0.12239999999991369,0.1391000000000986,0.15579999999981453,0.17239999999991085,0.18910000000009575,0.20589999999991448,0.22710000000009245,0.24410000000010257,0.26229999999981146,0.27250000000000796,0.28910000000009006,0.3057999999998202,0.32239999999991653,0.33910000000010143,0.3557999999998174,0.3723999999999137,0.3891000000000986,0.40579999999981453,0.42239999999991085,0.43969999999971776,0.4579999999999984,0.4725000000000108,0.4895000000000067,0.5096999999997252,0.5238999999999123,0.5391999999997239,0.5559999999999974,0.5751999999997253,0.5893999999999124,0.6064999999999969,0.6258999999999162,0.6406000000000915,0.6561999999997283,0.6724999999999994,0.6922999999998183,0.7087999999998118,0.7241000000000923,0.7420000000000044,0.7573999999999046,0.7730000000000103,0.7935000000000088,0.8100000000000023,0.8250000000000028,0.840100000000092,0.8592999999998199,0.8753999999999138,0.8891000000000986,0.905699999999726,0.9222999999998223,0.9391000000000957,0.9556999999997231,0.972399999999908,0.9891000000000929,1.006699999999725,1.0223999999999052,1.0390000000000015,1.0557999999998202,1.0723999999999165,1.0891000000001014,1.105899999999906,1.1223999999999137,1.1391000000000986,1.155699999999726,1.1724999999999994,1.1890000000000072,1.205699999999723,1.2225000000000108,1.239100000000093,1.255799999999823,1.2723999999999052,1.28910000000009,1.3066000000001026,1.3225000000000051,1.3391000000001014,1.3557999999998174,1.3723999999999137,1.3891000000000986,1.4057999999998145,1.4223999999999108,1.4391000000000957,1.455699999999723,1.4726000000000994,1.489100000000093,1.5056999999997203,1.527000000000001,1.53910000000009,1.5557999999998202,1.5725000000000051,1.5891000000001014,1.605899999999906,1.622299999999811,1.63900000000001,1.655699999999726,1.6726000000001022,1.6891000000000957,1.706299999999814,1.7225000000000108,1.739100000000093,1.755799999999823,1.7723999999999052,1.78910000000009,1.8056999999997174,1.8223999999999165,1.8391000000001014,1.8557999999998174,1.8726000000000909,1.8891000000000986,1.9057999999998145,1.9223999999999108,1.9390000000000072,1.955699999999723,1.972399999999908,1.989100000000093,2.0056999999997203,2.022399999999905,2.0390000000000015,2.05579999999982,2.0722999999998137,2.0891000000001014,2.1057999999998174,2.126799999999818,2.1391000000000986,2.1557999999998145,2.1766999999997267,2.198399999999907,2.205699999999723,2.222399999999908,2.24369999999972,2.2622999999998115,2.272500000000008,2.289199999999724,2.30579999999982,2.3223999999999165,2.3391000000001014,2.355699999999729,2.3723999999999137,2.38900000000001,2.4071000000000993,2.422399999999911,2.4397999999998206,2.455699999999723,2.4722999999998194,2.489100000000093,2.506600000000091,2.522399999999905,2.5390000000000015,2.5575000000000045,2.5748999999999143,2.590399999999917,2.609000000000009,2.6225000000000023,2.63900000000001,2.655699999999726,2.6726000000001022,2.6891000000000957,2.705699999999723,2.722399999999908,2.7390000000000043,2.7556999999997203,2.772399999999905,2.78910000000009,2.805899999999909,2.8251999999997253,2.840100000000092,2.855699999999729,2.8723999999999137,2.88900000000001,2.9066999999997307,2.922399999999911,2.939000000000007,2.955699999999723,2.972500000000011,2.9890000000000043,3.006699999999725,3.022399999999905,3.0401999999997287,3.055899999999909,3.0723999999999165,3.0889999999999986,3.1060000000000088,3.1223999999999137,3.139499999999998,3.155699999999726,3.1722999999998223,3.189000000000007,3.205699999999723,3.222399999999908,3.2390000000000043,3.2556999999997203,3.2722999999998166,3.2941000000000997,3.30579999999982,3.3223999999999165,3.3391000000001014,3.355699999999729,3.3723999999999137,3.38900000000001,3.405699999999726,3.4222999999998223,3.439000000000007,3.455699999999723,3.4722999999998194,3.489100000000093,3.5062999999998112,3.522399999999905,3.5390000000000015,3.5556999999997174,3.5723999999999165,3.5938999999999055,3.6057999999998174,3.6225000000000023,3.639199999999718,3.6580000000000013,3.6726000000001022,3.689299999999818,3.709899999999905,3.7241000000000923,3.7391999999997267,3.7560000000000002,3.774899999999917,3.7892999999998125,3.805899999999909,3.8253999999999166,3.8391000000001014,3.855899999999906,3.8751999999997224,3.889199999999718,3.9065000000000083,3.9252999999998224,3.9391000000000957,3.955699999999723,3.972399999999908,3.9890000000000043,4.00869999999972,4.022299999999817,4.03910000000009,4.055699999999717,4.072299999999814,4.088999999999999,4.105699999999729,4.122399999999914,4.13900000000001,4.1557999999998145,4.172499999999999,4.189000000000007,4.205699999999723,4.222299999999819,4.239100000000093,4.255799999999823,4.272399999999905,4.28910000000009,4.305699999999717,4.327199999999721,4.339100000000101,4.355699999999729,4.372299999999811,4.389100000000099,4.405699999999726,4.422399999999911,4.444799999999816,4.455799999999812,4.472699999999719,4.489100000000093,4.509500000000003,4.525500000000008,4.540600000000097,4.55579999999982,4.574899999999914,4.589199999999721,4.608000000000004,4.622500000000002,4.642100000000099,4.655699999999726,4.673699999999727,4.689100000000096,4.709399999999917,4.723199999999721,4.740100000000098,4.756500000000003,4.772299999999817,4.7890000000000015,4.806600000000103,4.822299999999814,4.838999999999999,4.855699999999729,4.872399999999914,4.8940000000000055,4.905699999999726,4.922399999999911,4.939100000000096,4.955699999999723,4.972399999999908,4.989100000000093,5.008799999999823,5.022299999999817,5.0390000000000015,5.055699999999717,5.07319999999973,5.088999999999999,5.108699999999729,5.122399999999914,5.13900000000001,5.155699999999726,5.172399999999911,5.189000000000007,5.209100000000092,5.2252999999998195,5.239000000000004,5.25569999999972,5.272299999999817,5.2890000000000015,5.313399999999916,5.322500000000005,5.339199999999721,5.355799999999817,5.375500000000002,5.390000000000001,5.408199999999724,5.422299999999822,5.439000000000007,5.455799999999812,5.472500000000011,5.488899999999916,5.508499999999998,5.52339999999991,5.5390000000000015,5.555699999999717,5.5723999999999165,5.590699999999728,5.605699999999729,5.622399999999914,5.639100000000099,5.655699999999726,5.672299999999822,5.689100000000096,5.7056000000001035,5.722299999999819,5.739100000000093,5.75569999999972,5.772299999999817,5.7890000000000015,5.808500000000009,5.822299999999814,5.838999999999999,5.855600000000095,5.872299999999811,5.88900000000001,5.909100000000095,5.922699999999722,5.939000000000007,5.9556000000001035,5.972299999999819,5.989100000000093,6.008899999999912,6.022299999999817,6.0390000000000015,6.055699999999717,6.072299999999814,6.089100000000101,6.106199999999731,6.122299999999811,6.138899999999907,6.155600000000092,6.172299999999822,6.189000000000007,6.2065000000000055,6.222399999999908,6.239000000000004,6.255799999999823,6.272399999999905,6.2890000000000015,6.3095,6.322299999999814,6.339100000000101,6.355699999999729,6.372299999999811,6.390299999999812,6.405699999999726,6.422399999999911,6.439000000000007,6.4556000000001035,6.472399999999908,6.489000000000004,6.50569999999972,6.522299999999817,6.5390000000000015,6.555600000000098,6.5723999999999165,6.588999999999999,6.605699999999729,6.622299999999811,6.644199999999728,6.66110000000009,6.67779999999982,6.689000000000007,6.7056000000001035,6.723399999999913,6.740100000000098,6.758799999999823,6.778500000000008,6.796999999999997,6.80579999999982,6.822299999999814,6.838999999999999,6.855699999999729,6.872299999999811,6.88900000000001,6.905699999999726,6.922299999999822,6.939000000000007,6.9556000000001035,6.972299999999819,6.989000000000004,7.005600000000101,7.022299999999817,7.0390000000000015,7.055699999999717,7.075199999999725,7.092500000000001,7.108600000000095,7.122299999999811,7.139100000000099,7.155600000000092,7.172399999999911,7.189000000000007,7.2065000000000055,7.222299999999819,7.239000000000004,7.255600000000101,7.276100000000099,7.288899999999913,7.305699999999717,7.322299999999814,7.342500000000001,7.355699999999729,7.372299999999811,7.38900000000001,7.406899999999908,7.422299999999822,7.438899999999904,7.455699999999723,7.472999999999999,7.489000000000004,7.505799999999823,7.522299999999817,7.5390000000000015,7.555600000000098,7.572799999999816,7.588999999999999,7.606499999999997,7.622299999999811,7.63900000000001,7.6557999999998145,7.672299999999822,7.689000000000007,7.705699999999723,7.722299999999819,7.739000000000004,7.755600000000101,7.772199999999728,7.7890000000000015,7.805600000000098,7.822299999999814,7.838999999999999,7.855600000000095,7.872299999999811,7.88900000000001,7.905699999999726,7.922399999999911,7.939699999999718,7.9556000000001035,7.972299999999819,7.989699999999729,8.008499999999998,8.022299999999817,8.039000000000001,8.055600000000098,8.072299999999814,8.088999999999999,8.105600000000095,8.122199999999722,8.138899999999907,8.155600000000092,8.172299999999822,8.189000000000007,8.205600000000103,8.22229999999982,8.238899999999916,8.25569999999972,8.272299999999817,8.288899999999913,8.305600000000098,8.322299999999814,8.339600000000104,8.355699999999729,8.372299999999811,8.38900000000001,8.405799999999815,8.422299999999822,8.439100000000096,8.455699999999723,8.47219999999973,8.489000000000004,8.510899999999907,8.522299999999817,8.539000000000001,8.555699999999717,8.572299999999814,8.588999999999999]","[1733113573378,1733113573402,1733113573409,1733113573426,1733113573446,1733113573459,1733113573476,1733113573493,1733113573509,1733113573526,1733113573543,1733113573559,1733113573576,1733113573597,1733113573614,1733113573632,1733113573643,1733113573659,1733113573676,1733113573692,1733113573709,1733113573726,1733113573742,1733113573759,1733113573776,1733113573793,1733113573810,1733113573828,1733113573843,1733113573860,1733113573880,1733113573894,1733113573909,1733113573926,1733113573945,1733113573960,1733113573977,1733113573996,1733113574011,1733113574026,1733113574043,1733113574062,1733113574079,1733113574094,1733113574112,1733113574127,1733113574143,1733113574164,1733113574180,1733113574195,1733113574210,1733113574229,1733113574245,1733113574259,1733113574276,1733113574293,1733113574309,1733113574326,1733113574342,1733113574359,1733113574377,1733113574392,1733113574409,1733113574426,1733113574442,1733113574459,1733113574476,1733113574492,1733113574509,1733113574526,1733113574542,1733113574559,1733113574576,1733113574593,1733113574609,1733113574626,1733113574642,1733113574659,1733113574677,1733113574692,1733113574709,1733113574726,1733113574742,1733113574759,1733113574776,1733113574792,1733113574809,1733113574826,1733113574843,1733113574859,1733113574876,1733113574897,1733113574909,1733113574926,1733113574943,1733113574959,1733113574976,1733113574992,1733113575009,1733113575026,1733113575043,1733113575059,1733113575076,1733113575092,1733113575109,1733113575126,1733113575142,1733113575159,1733113575176,1733113575192,1733113575209,1733113575226,1733113575243,1733113575259,1733113575276,1733113575293,1733113575309,1733113575326,1733113575342,1733113575359,1733113575376,1733113575392,1733113575409,1733113575426,1733113575442,1733113575459,1733113575476,1733113575497,1733113575509,1733113575526,1733113575547,1733113575568,1733113575576,1733113575592,1733113575614,1733113575632,1733113575643,1733113575659,1733113575676,1733113575692,1733113575709,1733113575726,1733113575742,1733113575759,1733113575777,1733113575792,1733113575810,1733113575826,1733113575842,1733113575859,1733113575877,1733113575892,1733113575909,1733113575928,1733113575945,1733113575960,1733113575979,1733113575992,1733113576009,1733113576026,1733113576043,1733113576059,1733113576076,1733113576092,1733113576109,1733113576126,1733113576142,1733113576159,1733113576176,1733113576195,1733113576210,1733113576226,1733113576242,1733113576259,1733113576277,1733113576292,1733113576309,1733113576326,1733113576342,1733113576359,1733113576377,1733113576392,1733113576410,1733113576426,1733113576442,1733113576459,1733113576476,1733113576492,1733113576510,1733113576526,1733113576542,1733113576559,1733113576576,1733113576592,1733113576609,1733113576626,1733113576642,1733113576664,1733113576676,1733113576692,1733113576709,1733113576726,1733113576742,1733113576759,1733113576776,1733113576792,1733113576809,1733113576826,1733113576842,1733113576859,1733113576876,1733113576892,1733113576909,1733113576926,1733113576942,1733113576964,1733113576976,1733113576993,1733113577009,1733113577028,1733113577043,1733113577059,1733113577080,1733113577094,1733113577109,1733113577126,1733113577145,1733113577159,1733113577176,1733113577196,1733113577209,1733113577226,1733113577245,1733113577259,1733113577277,1733113577295,1733113577309,1733113577326,1733113577342,1733113577359,1733113577379,1733113577392,1733113577409,1733113577426,1733113577442,1733113577459,1733113577476,1733113577492,1733113577509,1733113577526,1733113577543,1733113577559,1733113577576,1733113577592,1733113577609,1733113577626,1733113577642,1733113577659,1733113577676,1733113577697,1733113577709,1733113577726,1733113577742,1733113577759,1733113577776,1733113577792,1733113577815,1733113577826,1733113577843,1733113577859,1733113577880,1733113577896,1733113577911,1733113577926,1733113577945,1733113577959,1733113577978,1733113577993,1733113578012,1733113578026,1733113578044,1733113578059,1733113578079,1733113578093,1733113578110,1733113578127,1733113578142,1733113578159,1733113578177,1733113578192,1733113578209,1733113578226,1733113578242,1733113578264,1733113578276,1733113578292,1733113578309,1733113578326,1733113578342,1733113578359,1733113578379,1733113578392,1733113578409,1733113578426,1733113578443,1733113578459,1733113578479,1733113578493,1733113578509,1733113578526,1733113578542,1733113578559,1733113578579,1733113578595,1733113578609,1733113578626,1733113578642,1733113578659,1733113578683,1733113578692,1733113578709,1733113578726,1733113578746,1733113578760,1733113578778,1733113578792,1733113578809,1733113578826,1733113578843,1733113578859,1733113578879,1733113578893,1733113578909,1733113578926,1733113578942,1733113578961,1733113578976,1733113578993,1733113579009,1733113579026,1733113579042,1733113579059,1733113579076,1733113579092,1733113579109,1733113579126,1733113579142,1733113579159,1733113579179,1733113579192,1733113579209,1733113579226,1733113579242,1733113579259,1733113579279,1733113579293,1733113579309,1733113579326,1733113579342,1733113579359,1733113579379,1733113579392,1733113579409,1733113579426,1733113579442,1733113579459,1733113579476,1733113579492,1733113579509,1733113579526,1733113579542,1733113579559,1733113579577,1733113579592,1733113579609,1733113579626,1733113579643,1733113579659,1733113579680,1733113579692,1733113579709,1733113579726,1733113579742,1733113579760,1733113579776,1733113579792,1733113579809,1733113579826,1733113579842,1733113579859,1733113579876,1733113579892,1733113579909,1733113579926,1733113579942,1733113579959,1733113579976,1733113579992,1733113580014,1733113580031,1733113580048,1733113580059,1733113580076,1733113580093,1733113580110,1733113580129,1733113580149,1733113580167,1733113580176,1733113580192,1733113580209,1733113580226,1733113580242,1733113580259,1733113580276,1733113580292,1733113580309,1733113580326,1733113580342,1733113580359,1733113580376,1733113580392,1733113580409,1733113580426,1733113580445,1733113580463,1733113580479,1733113580492,1733113580509,1733113580526,1733113580542,1733113580559,1733113580577,1733113580592,1733113580609,1733113580626,1733113580646,1733113580659,1733113580676,1733113580692,1733113580713,1733113580726,1733113580742,1733113580759,1733113580777,1733113580792,1733113580809,1733113580826,1733113580843,1733113580859,1733113580876,1733113580892,1733113580909,1733113580926,1733113580943,1733113580959,1733113580977,1733113580992,1733113581009,1733113581026,1733113581042,1733113581059,1733113581076,1733113581092,1733113581109,1733113581126,1733113581142,1733113581159,1733113581176,1733113581192,1733113581209,1733113581226,1733113581242,1733113581259,1733113581276,1733113581293,1733113581310,1733113581326,1733113581342,1733113581360,1733113581379,1733113581392,1733113581409,1733113581426,1733113581442,1733113581459,1733113581476,1733113581492,1733113581509,1733113581526,1733113581542,1733113581559,1733113581576,1733113581592,1733113581609,1733113581626,1733113581642,1733113581659,1733113581676,1733113581692,1733113581710,1733113581726,1733113581742,1733113581759,1733113581776,1733113581792,1733113581809,1733113581826,1733113581842,1733113581859,1733113581881,1733113581892,1733113581909,1733113581926,1733113581942,1733113581959]","[[1067.6,379.9],[1067.6,379.9],[1075.9,390.9],[1075.9,390.9],[1084.7,383.9],[1084.7,383.9],[1098.8,398],[1098.8,398],[1081.2,367.1],[1081.2,367.1],[1107.8,358.8],[1107.8,358.8],[1140,385.6],[1112.4,375.2],[1119.9,382.7],[1114.8,410.8],[1114.8,410.8],[1076.5,467.2],[1076.5,467.2],[1060,476.8],[1043.1,504.6],[1024.6,537.5],[1032.2,571.7],[1019.6,600.6],[1019.6,600.6],[975.6,593.8],[983.7,591.3],[978.2,595.7],[969.4,599.2],[1007.4,598.6],[1012.7,575.1],[1011.9,563.8],[1032,566.9],[1044.1,581.6],[1044.7,581.8],[1068.5,579.4],[1085.6,590.7],[1081.2,608.4],[1095.3,614.5],[1095.8,596.4],[1111.4,637.2],[1126.1,650.5],[1095.3,634.7],[1062,616.5],[1057.1,608.7],[1044.5,607.3],[1024.8,598.3],[1012,597.1],[1005.2,621],[1009.1,629.3],[1013.1,625.9],[1017.7,612.6],[1041,584.9],[1064.3,557.2],[1072.1,562.5],[1073.7,563.1],[1081.2,584.3],[1095.3,568.9],[1078.9,519.8],[1057.6,498.2],[1052.9,477.5],[1048.6,475.3],[1050.2,502.2],[1074.1,524.4],[1084.7,540.3],[1095.4,556.2],[1104.5,548.9],[1138.1,564.9],[1156.7,600.8],[1183.3,622.6],[1199.5,632.5],[1206.7,635.7],[1220.9,620.7],[1209.8,612.5],[1205.6,588.4],[1196.7,554.7],[1196.3,546.6],[1186.3,538.1],[1189.9,530.5],[1175.6,528.7],[1167.4,519.1],[1167.2,507.6],[1142.7,536.7],[1124.8,564.6],[1058.1,583.8],[998,629.7],[926.8,646.3],[814.4,663.4],[729,684.3],[628.6,699.8],[577.9,764.5],[537.3,840.7],[537.3,840.7],[538.9,876.7],[550.3,900],[615.4,925.1],[687.3,922.1],[761.2,936.2],[861.9,960.5],[940.7,982.6],[1012,1000.6],[1051.6,978.1],[1062.7,939.5],[1048.9,918.7],[1034,915.1],[1017.4,911.3],[968.2,905.2],[919,899.1],[890.1,872.9],[869.7,847.4],[875.9,827.8],[883.3,797.8],[883.1,773.8],[872.5,734],[866.3,717.4],[861.9,701.2],[847,672.7],[850.1,636.8],[835.9,609.8],[834.1,583.1],[832.1,597.6],[809.5,602.1],[794.4,611.5],[789.7,636.7],[795.9,637.4],[794.8,643.7],[834.5,636.9],[859.9,678],[859.9,678],[869.6,714.8],[861.9,729.5],[858.5,705.8],[858.5,705.8],[852.3,702.3],[869.5,691.6],[901.1,674.3],[901.1,674.3],[901.3,641.1],[901.3,641.1],[890.9,616],[896.5,638.7],[898.4,620.9],[908.7,602.9],[921.1,604.7],[939.5,622.9],[960.6,633.6],[950.3,616.1],[929.4,608.4],[921.1,616.5],[932.2,603.2],[924.3,595.4],[910.8,570.1],[908.6,577.9],[920,580.7],[920,580.7],[907.2,564.6],[868.7,587.5],[864.9,624.5],[848.1,667.5],[800.6,728.2],[756.9,775.3],[707.6,824.7],[680.5,862.8],[653.9,872.3],[633.6,907.5],[620.1,952.7],[651.1,949.6],[684.2,964.1],[705.7,962.7],[753.5,931],[798.3,940.4],[798.3,940.4],[845.2,932.9],[866.7,933.2],[896.8,925.5],[897.7,891.9],[913.2,847],[907.2,818.9],[889.8,784],[890.6,742.9],[884,738.7],[895.5,727.5],[896.9,691.9],[922.4,688.4],[928.9,681.4],[944.7,679.6],[947.5,688.4],[950.3,697.2],[946.9,710.8],[946.1,737.3],[928.5,716.2],[904.8,692.2],[900.2,693.8],[880.3,684.3],[866.5,671.5],[852.7,658.7],[840.3,637.1],[827.9,615.5],[827.9,615.5],[832.6,595.9],[836.6,590.5],[860.4,604.4],[867.7,602.2],[866,598.8],[857.9,590.4],[857.5,599.3],[857.1,608.2],[856.9,624.5],[870.8,651.2],[874.9,675.3],[865.8,669.1],[856.7,662.9],[851.9,671.3],[847.1,679.7],[834.3,673.1],[839.2,687.5],[839.2,687.5],[848.1,683.6],[866.3,681.7],[870.4,669.4],[869,631.9],[881.5,610.5],[898.5,605.5],[920.6,584],[941.2,561.4],[969.8,525.4],[953.3,471.6],[968.8,470.6],[968.8,470.6],[994.6,437.7],[986,425.9],[988,445.2],[1002.1,453.3],[998.1,440.9],[988.6,426.1],[975.3,419.6],[971.2,451.4],[976.1,479.7],[974.2,472.3],[956.8,486.6],[971.1,477.8],[964.1,453],[936.6,449.9],[909.8,457.1],[869.9,459.7],[862.1,476.4],[861.3,458.4],[861.3,458.4],[864.9,448.8],[864.9,448.8],[832.2,428.4],[832.2,428.4],[832.1,437.7],[832.1,437.7],[839.4,459.6],[839.4,459.6],[864.1,494.5],[864.1,494.5],[877.4,480.7],[919.8,456.7],[919.8,456.7],[966.4,478],[966.4,478],[1007.7,491.2],[1007.7,491.2],[1039.3,534.2],[1056.3,560.3],[1056.3,560.3],[1092.7,596.8],[1092.7,596.8],[1101.4,616],[1069.6,576.4],[1042.7,555.8],[1017.2,570.4],[990.1,595.3],[995.2,583],[947.8,541.7],[900.3,500.4],[912,477.2],[924,469.3],[896.3,446.2],[904.4,471.3],[898.6,462.9],[908.4,461.2],[897.1,458.5],[854.9,471.1],[850.6,481.2],[837.1,501.7],[817,517],[757.3,504.3],[758.3,493.6],[749.7,493.4],[757.4,506.8],[768.5,516.9],[768.5,516.9],[774.2,513.5],[807.2,498.8],[807.2,498.8],[844.5,500.1],[893.1,498.1],[893.3,498.7],[921.6,499.4],[924,500.9],[969.9,476.3],[1001.3,454.8],[1032.1,432.9],[1025.4,464.6],[1006,488.2],[933.3,529.2],[866,568.3],[840.5,604.8],[791.8,641.4],[783.3,684.2],[742.7,717],[720.3,762.3],[698.1,788.7],[708.4,771.7],[727.3,775.2],[801.7,772],[801.7,772],[857.4,743.3],[888.8,701.3],[948.6,665.3],[981.9,628.3],[1007.6,607.7],[1008.3,563.5],[1021.6,544.2],[1045,538.2],[1041,503.8],[1055.4,475.3],[1095.7,480.6],[1129.4,488.4],[1134.6,498.9],[1126.1,504.2],[1138.1,520],[1168.3,552.7],[1168.3,552.7],[1175.5,575.4],[1179.5,577.9],[1194.1,599.5],[1182,601.3],[1155.2,589.6],[1117.2,599.7],[1089.3,607.1],[986,597.8],[868.3,589.3],[760.6,573.4],[663.1,561.5],[576,570],[488.4,578.4],[400.8,596.1],[320.3,611.5],[276.9,615.5],[251.9,614.8],[307.8,645.8],[363.4,674.7],[422.9,697.2],[482.4,719.7],[536.6,718.9],[585,718],[633.4,690],[677.3,689],[724.7,654],[765.8,631.8],[790.3,607.1],[816.6,581.9],[818.3,548.5],[829.3,530.1],[829.9,503.1],[845,479.7],[843.9,473.6],[835.8,444.4],[798.7,458.8],[761.6,473.2],[735.6,475.1],[710.7,484.1],[697.3,506.1],[674.6,513.1],[668.9,533],[668.9,533],[652.6,558.9],[652.6,558.9],[646.1,571.4],[654.9,613.7],[654.9,613.7],[686.6,640.9],[686.6,640.9],[683.6,649],[683.6,649],[686.8,668.8],[686.8,668.8],[699.6,674.2],[699.6,674.2],[721,682.8],[721,682.8],[733.7,690.9],[733.7,690.9],[741.7,692.1],[767.3,695.4],[794.2,718.1],[802.4,703],[802.4,703],[797.4,687.2],[825.9,693.3],[866.1,695.2],[896.5,713.5],[896.5,713.5],[905.9,715],[905.9,715],[924.3,715.6],[963.4,741.5],[952.4,739.3],[949.6,753.3],[954.6,773.7],[967.9,773.4],[982.4,770.3],[980.4,771.6],[975.7,764.3],[967.3,754.1],[953.1,748.5],[924.8,730.7],[930.9,729.4],[928.8,711.9],[932.2,706.5],[937.3,709.9],[942.1,713.9],[946.3,726.8],[947,723.8],[936.4,741.9],[925,753.3],[904.6,747],[904.6,755.3],[899.8,771.1],[906.7,774.9],[876.5,775.7],[859.6,776.8],[820.1,754.3],[796.9,756.4],[796.9,756.4],[810,759.6],[825.2,753.8],[837.7,758.1],[831.2,756.1],[826.2,745.3],[802,731.4],[804.9,732.4],[794.8,732.5],[818.5,736.9],[833.7,753.4],[806.2,737.1],[798.7,736],[795.7,740.1],[805.7,734.6],[794.6,731.2],[794.1,726.8],[800.3,731.9],[807.2,709.7],[802.1,686],[791.2,671.7],[812.7,676.2],[819.8,677.3],[853.8,652.4],[862.2,652.6],[895,652],[909.8,640.8],[917.9,620.1],[923,622.4],[928.8,640.4],[933.7,606.8],[956.1,580],[977.1,553.9],[958,571.2],[956.9,555.3],[967.5,554.7],[983,577.5],[1000.3,606.1],[1031.1,631.8],[1053.9,641.1],[1091.4,663.9],[1106.6,686.3],[1115.3,687.1],[1135.9,686.2],[1157.2,704.7],[1166.8,707.9],[1179.4,704.4],[1190.2,695.1],[1189.5,681.3],[1196.1,668.2],[1189.9,675.4],[1183.7,682.6],[1190.7,716.3],[1202.6,734],[1197.5,724.5],[1189.7,707.9],[1183.4,689.2],[1184,677.2],[1201.6,654.9],[1219.2,632.6],[1217.6,625.5],[1216,618.4],[1216,618.4],[1221.2,582.9],[1209.8,555.7],[1207.9,545.7],[1213.2,547.5],[1228,555.2],[1226.2,561],[1214.8,591.7],[1202.8,615.2],[1210.5,611.1],[1207.7,579.7],[1207.7,579.7],[1189,574.2],[1189,574.2],[1194.9,573.1],[1194.9,573.1]]","[0,0.151169218]","[0.151169218,0.151169218]","[-0.151169218,-0.151169218]","[-0.151169218,0]","[0,-0.151169218]","[0.151169218,-0.151169218]","[0,0]","[0.151169218,0]",0,0,0,0,1,2,Smartphone,7,1,11,9
