inst1_resp.keys,inst1_resp.rt,calibrationMouse.x,calibrationMouse.y,calibrationMouse.leftButton,calibrationMouse.midButton,calibrationMouse.rightButton,calibrationClick.x,calibrationClick.y,calibrationClick.leftButton,calibrationClick.midButton,calibrationClick.rightButton,trialsc.thisRepN,trialsc.thisTrialN,trialsc.thisN,trialsc.thisIndex,trialsc.ran,calibration_x,calibration_y,participant,session,date,expName,psychopyVersion,OS,frameRate,calibrationClick.clicked_name,ScreenRes_pixels,Camera_pixels,mouse_2.x,mouse_2.y,mouse_2.leftButton,mouse_2.midButton,mouse_2.rightButton,mouse_2.time,mouse_2.clicked_name,mouse.x,mouse.y,mouse.leftButton,mouse.midButton,mouse.rightButton,mouse.time,mouse.clicked_name,Choice,Trial,TrialDuration,MOUSE_GAZE,ET_GAZE,ET_GAZE_x_T,time,unixTime,ET_GAZE_NF,Loc_Option1_label,Loc_Option2_label,Loc_Cost_label,Loc_Qual_label,Loc_Option1_cost,Loc_Option2_cost,Loc_Option1_quality,Loc_Option2_quality,trials.thisRepN,trials.thisTrialN,trials.thisN,trials.thisIndex,trials.ran,Block,Device,cost1,qual1,cost2,qual2
space,2.2613,0.01875,-0.084994753,1,0,0,-0.683333333,0.009443861,1,0,0,0,0,0,2,1,-0.67,0,33,001,2024-12-02_10h32.41.218,Attention_exp_legacy,2023.1.0,Win32,60.24096386,,,,,,,,,,,,,,,,,,,,,,,,,,,,,,,,,,,,,,,,,,,,,
,,,,,,,0.335416667,0.691500525,1,0,0,0,1,1,18,1,0.33,0.67,33,001,2024-12-02_10h32.41.218,Attention_exp_legacy,2023.1.0,Win32,60.24096386,,,,,,,,,,,,,,,,,,,,,,,,,,,,,,,,,,,,,,,,,,,,,
,,,,,,,0.66875,-0.65792235,1,0,0,0,2,2,20,1,0.67,-0.67,33,001,2024-12-02_10h32.41.218,Attention_exp_legacy,2023.1.0,Win32,60.24096386,,,,,,,,,,,,,,,,,,,,,,,,,,,,,,,,,,,,,,,,,,,,,
,,,,,,,-0.661458333,-0.65792235,1,0,0,0,3,3,0,1,-0.67,-0.67,33,001,2024-12-02_10h32.41.218,Attention_exp_legacy,2023.1.0,Win32,60.24096386,,,,,,,,,,,,,,,,,,,,,,,,,,,,,,,,,,,,,,,,,,,,,
,,,,,,,-0.33125,0.028331584,1,0,0,0,4,4,6,1,-0.33,0,33,001,2024-12-02_10h32.41.218,Attention_exp_legacy,2023.1.0,Win32,60.24096386,,,,,,,,,,,,,,,,,,,,,,,,,,,,,,,,,,,,,,,,,,,,,
,,,,,,,-0.319791667,-0.630640084,1,0,0,0,5,5,4,1,-0.33,-0.67,33,001,2024-12-02_10h32.41.218,Attention_exp_legacy,2023.1.0,Win32,60.24096386,,,,,,,,,,,,,,,,,,,,,,,,,,,,,,,,,,,,,,,,,,,,,
,,,,,,,0.014583333,0.697796432,1,0,0,0,6,6,13,1,0,0.67,33,001,2024-12-02_10h32.41.218,Attention_exp_legacy,2023.1.0,Win32,60.24096386,,,,,,,,,,,,,,,,,,,,,,,,,,,,,,,,,,,,,,,,,,,,,
,,,,,,,0.359375,-0.641133263,1,0,0,0,7,7,14,1,0.33,-0.67,33,001,2024-12-02_10h32.41.218,Attention_exp_legacy,2023.1.0,Win32,60.24096386,,,,,,,,,,,,,,,,,,,,,,,,,,,,,,,,,,,,,,,,,,,,,
,,,,,,,0.336458333,-0.345225603,1,0,0,0,8,8,15,1,0.33,-0.33,33,001,2024-12-02_10h32.41.218,Attention_exp_legacy,2023.1.0,Win32,60.24096386,,,,,,,,,,,,,,,,,,,,,,,,,,,,,,,,,,,,,,,,,,,,,
,,,,,,,-0.332291667,0.714585519,1,0,0,0,9,9,8,1,-0.33,0.67,33,001,2024-12-02_10h32.41.218,Attention_exp_legacy,2023.1.0,Win32,60.24096386,,,,,,,,,,,,,,,,,,,,,,,,,,,,,,,,,,,,,,,,,,,,,
,,,,,,,-0.0125,-0.630640084,1,0,0,0,10,10,9,1,0,-0.67,33,001,2024-12-02_10h32.41.218,Attention_exp_legacy,2023.1.0,Win32,60.24096386,,,,,,,,,,,,,,,,,,,,,,,,,,,,,,,,,,,,,,,,,,,,,
,,,,,,,-0.001041667,0.011542497,1,0,0,0,11,11,11,1,0,0,33,001,2024-12-02_10h32.41.218,Attention_exp_legacy,2023.1.0,Win32,60.24096386,,,,,,,,,,,,,,,,,,,,,,,,,,,,,,,,,,,,,,,,,,,,,
,,,,,,,0.66875,0.66841553,1,0,0,0,12,12,19,1,0.67,0.67,33,001,2024-12-02_10h32.41.218,Attention_exp_legacy,2023.1.0,Win32,60.24096386,calibration_square,,,,,,,,,,,,,,,,,,,,,,,,,,,,,,,,,,,,,,,,,,,,
,,,,,,,-0.659375,0.347324239,1,0,0,0,13,13,3,1,-0.67,0.33,33,001,2024-12-02_10h32.41.218,Attention_exp_legacy,2023.1.0,Win32,60.24096386,,,,,,,,,,,,,,,,,,,,,,,,,,,,,,,,,,,,,,,,,,,,,
,,,,,,,-0.330208333,0.338929696,1,0,0,0,14,14,7,1,-0.33,0.33,33,001,2024-12-02_10h32.41.218,Attention_exp_legacy,2023.1.0,Win32,60.24096386,calibration_square,,,,,,,,,,,,,,,,,,,,,,,,,,,,,,,,,,,,,,,,,,,,
,,,,,,,-0.646875,-0.26547744,1,0,0,0,15,15,1,1,-0.67,-0.33,33,001,2024-12-02_10h32.41.218,Attention_exp_legacy,2023.1.0,Win32,60.24096386,,,,,,,,,,,,,,,,,,,,,,,,,,,,,,,,,,,,,,,,,,,,,
,,,,,,,-0.346875,-0.324239244,1,0,0,0,16,16,5,1,-0.33,-0.33,33,001,2024-12-02_10h32.41.218,Attention_exp_legacy,2023.1.0,Win32,60.24096386,,,,,,,,,,,,,,,,,,,,,,,,,,,,,,,,,,,,,,,,,,,,,
,,,,,,,0.344791667,0.353620147,1,0,0,0,17,17,17,1,0.33,0.33,33,001,2024-12-02_10h32.41.218,Attention_exp_legacy,2023.1.0,Win32,60.24096386,,,,,,,,,,,,,,,,,,,,,,,,,,,,,,,,,,,,,,,,,,,,,
,,,,,,,0,-0.307450157,1,0,0,0,18,18,10,1,0,-0.33,33,001,2024-12-02_10h32.41.218,Attention_exp_legacy,2023.1.0,Win32,60.24096386,,,,,,,,,,,,,,,,,,,,,,,,,,,,,,,,,,,,,,,,,,,,,
,,,,,,,0.317708333,-0.045120672,1,0,0,0,19,19,16,1,0.33,0,33,001,2024-12-02_10h32.41.218,Attention_exp_legacy,2023.1.0,Win32,60.24096386,,,,,,,,,,,,,,,,,,,,,,,,,,,,,,,,,,,,,,,,,,,,,
,,,,,,,0.028125,0.439664218,1,0,0,0,20,20,12,1,0,0.33,33,001,2024-12-02_10h32.41.218,Attention_exp_legacy,2023.1.0,Win32,60.24096386,,,,,,,,,,,,,,,,,,,,,,,,,,,,,,,,,,,,,,,,,,,,,
,,,,,,,,,,,,,,,,,,,33,001,2024-12-02_10h32.41.218,Attention_exp_legacy,2023.1.0,Win32,60.24096386,,"[1920,953]","[640,480]",[-0.004166666666666667],[-0.48163693599160545],[1],[0],[0],[1.2304999999999922],"[""StartButton""]",[0.03229166666666667],[0.13326337880377753],[1],[0],[0],[4.063699999928474],"[""Option1_label""]",Option1_label,1,5.0853,"[[-0.6177083333333333,-0.4459601259181532],[-1,-0.3809024134312697],[-1,-0.4669464847848898],[-1,-0.6369359916054564],[-1,-0.8342077649527807],[-1,-0.8719832109129066],[-1,-0.8719832109129066],[-1,-0.8719832109129066],[-1,-0.8719832109129066],[-1,-1.0818467995802727],[-1,-1.0818467995802727],[-1,-1.0818467995802727],[-1,-1.0818467995802727],[-1,-1.0818467995802727],[-1,-1.0818467995802727],[-1,-1.0818467995802727],[-1,-1.0818467995802727],[-1,-1.0818467995802727],[-1,-1.0818467995802727],[-1,-1.0818467995802727],[-1,-1.0818467995802727],[-1,-1.0818467995802727],[-1,-1.0818467995802727],[-1,-1.0818467995802727],[-1,-1.0818467995802727],[-1,-1.0818467995802727],[-1,-1.0818467995802727],[-1,-1.0818467995802727],[-1,-1.0818467995802727],[-1,-1.0818467995802727],[-1,-1.0818467995802727],[-1,-1.0818467995802727],[-1,-1.0818467995802727],[-1,-1.0818467995802727],[-1,-1.0818467995802727],[-1,-1.0818467995802727],[-1,-1.0818467995802727],[-1,-1.0818467995802727],[-0.8302083333333333,-0.9832109129066107],[-0.609375,-0.8426023084994754],[-0.46875,-0.6033578174186779],[-0.46875,-0.6033578174186779],[-0.46875,-0.6033578174186779],[-0.46875,-0.6033578174186779],[-0.46875,-0.6033578174186779],[-0.46875,-0.6033578174186779],[-0.46875,-0.6033578174186779],[-0.46875,-0.6033578174186779],[-0.46875,-0.6033578174186779],[-0.46875,-0.6033578174186779],[-0.46875,-0.6033578174186779],[-0.46875,-0.6033578174186779],[-0.46875,-0.6033578174186779],[-0.43854166666666666,-0.5844700944386149],[-0.425,-0.5844700944386149],[-0.4239583333333333,-0.5802728226652676],[-0.428125,-0.5760755508919203],[-0.43125,-0.5760755508919203],[-0.43125,-0.5760755508919203],[-0.43125,-0.5760755508919203],[-0.425,-0.5739769150052466],[-0.371875,-0.559286463798531],[-0.31979166666666664,-0.5383001049317944],[-0.253125,-0.4837355718782791],[-0.203125,-0.42077649527806926],[-0.165625,-0.3683105981112277],[-0.14895833333333333,-0.34312696747114374],[-0.13958333333333334,-0.3284365162644281],[-0.1375,-0.32633788037775446],[-0.13541666666666666,-0.32633788037775446],[-0.13541666666666666,-0.3284365162644281],[-0.13854166666666667,-0.33263378803777544],[-0.13854166666666667,-0.33263378803777544],[-0.13854166666666667,-0.33263378803777544],[-0.10520833333333333,-0.2864637985309549],[-0.04479166666666667,-0.18782791185729275],[-0.023958333333333335,-0.14375655823714587],[-0.020833333333333332,-0.1353620146904512],[-0.008333333333333333,-0.09968520461699895],[-0.00625,-0.08919202518363065],[-0.00625,-0.08709338929695698],[-0.00625,-0.08709338929695698],[-0.00625,-0.08709338929695698],[-0.00625,-0.08709338929695698],[-0.00625,-0.08499475341028331],[0.003125,-0.0031479538300104933],[0.010416666666666666,0.04302203567681007],[0.014583333333333334,0.06820566631689402],[0.016666666666666666,0.08289611752360965],[0.019791666666666666,0.1080797481636936],[0.020833333333333332,0.11227701993704092],[0.023958333333333335,0.11857292759706191],[0.03229166666666667,0.13326337880377753],[0.03229166666666667,0.13326337880377753],[0.03229166666666667,0.13326337880377753],[0.03229166666666667,0.13326337880377753],[0.03229166666666667,0.13326337880377753],[0.03229166666666667,0.13326337880377753],[0.03229166666666667,0.13326337880377753],[0.03229166666666667,0.13326337880377753],[0.03229166666666667,0.13326337880377753],[0.03229166666666667,0.13326337880377753],[0.03229166666666667,0.13326337880377753],[0.030208333333333334,0.1248688352570829],[0.019791666666666666,0.06820566631689402],[0.009375,0.011542497376705142],[0.00625,-0.005246589716684155],[0.00625,-0.005246589716684155],[0.00625,-0.005246589716684155],[0.00625,-0.005246589716684155],[0.00625,-0.005246589716684155],[0.00625,-0.005246589716684155],[0.00625,-0.005246589716684155],[0.005208333333333333,-0.007345225603357817],[0.005208333333333333,-0.007345225603357817],[0.005208333333333333,-0.007345225603357817],[0.005208333333333333,-0.00944386149003148],[0.005208333333333333,-0.00944386149003148],[0.005208333333333333,-0.00944386149003148]]","[[-0.18343750000000003,0.2795383001049319],[-0.18343750000000003,0.2795383001049319],[-0.20687500000000003,0.21825813221406087],[-0.20687500000000003,0.21825813221406087],[-0.28447916666666667,0.23819517313746066],[-0.28447916666666667,0.23819517313746066],[-0.3173958333333334,0.2440713536201468],[-0.3173958333333334,0.2440713536201468],[-0.39041666666666663,0.24931794333683097],[-0.39041666666666663,0.24931794333683097],[-0.39041666666666663,0.24931794333683097],[-0.44635416666666666,0.2793284365162645],[-0.44635416666666666,0.2793284365162645],[-0.5213541666666667,0.3101783840503672],[-0.5213541666666667,0.3101783840503672],[-0.5829166666666666,0.3280167890870933],[-0.5829166666666666,0.3280167890870933],[-0.546875,0.3246589716684156],[-0.546875,0.3246589716684156],[-0.5320833333333334,0.34858342077649535],[-0.5320833333333334,0.34858342077649535],[-0.5283333333333333,0.39307450157397683],[-0.5283333333333333,0.39307450157397683],[-0.5585416666666667,0.3953830010493179],[-0.5585416666666667,0.3953830010493179],[-0.5409375,0.37544596012591813],[-0.5409375,0.37544596012591813],[-0.5638541666666667,0.3330535152151103],[-0.5638541666666667,0.3330535152151103],[-0.5207291666666667,0.23651626442812182],[-0.5207291666666667,0.23651626442812182],[-0.5634374999999999,0.18740818467995793],[-0.5634374999999999,0.18740818467995793],[-0.5159375,0.10954879328436526],[-0.5159375,0.10954879328436526],[-0.4905208333333333,0.033788037775446006],[-0.4905208333333333,0.033788037775446006],[-0.4516666666666667,-0.04428121720881432],[-0.4516666666666667,-0.04428121720881432],[-0.4516666666666667,-0.04428121720881432],[-0.45875,-0.0062959076600209865],[-0.45875,-0.0062959076600209865],[-0.45375000000000004,0.012801678908709386],[-0.45375000000000004,0.012801678908709386],[-0.43416666666666665,0.055613850996852045],[-0.43416666666666665,0.055613850996852045],[-0.40270833333333333,0.04973767051416577],[-0.40270833333333333,0.04973767051416577],[-0.3676041666666666,0.09087093389296948],[-0.3676041666666666,0.09087093389296948],[-0.33010416666666664,0.18279118572927602],[-0.33010416666666664,0.18279118572927602],[-0.25354166666666667,0.21825813221406087],[-0.25354166666666667,0.21825813221406087],[-0.23177083333333334,0.2734522560335781],[-0.23177083333333334,0.2734522560335781],[-0.23343750000000002,0.3540398740818469],[-0.23343750000000002,0.3540398740818469],[-0.2319791666666667,0.46799580272822666],[-0.2319791666666667,0.46799580272822666],[-0.21031249999999999,0.4392444910807974],[-0.21031249999999999,0.4392444910807974],[-0.21281249999999996,0.42770199370409223],[-0.21281249999999996,0.42770199370409223],[-0.1703125,0.432109129066107],[-0.1703125,0.432109129066107],[-0.17260416666666673,0.459601259181532],[-0.17260416666666673,0.459601259181532],[-0.17302083333333335,0.46065057712486884],[-0.17302083333333335,0.46065057712486884],[-0.2217708333333333,0.43378803777544606],[-0.2217708333333333,0.43378803777544606],[-0.18093750000000006,0.46736621196222466],[-0.18093750000000006,0.46736621196222466],[-0.17916666666666667,0.5097586568730325],[-0.17916666666666667,0.5097586568730325],[-0.15135416666666662,0.4770199370409233],[-0.15135416666666662,0.4770199370409233],[-0.14229166666666668,0.459601259181532],[-0.14229166666666668,0.459601259181532],[-0.1092708333333333,0.40692549842602305],[-0.1092708333333333,0.40692549842602305],[-0.1092708333333333,0.40692549842602305],[-0.06770833333333333,0.4230849947534103],[-0.06770833333333333,0.4230849947534103],[-0.06531250000000005,0.3750262329485835],[-0.06531250000000005,0.3750262329485835],[-0.03135416666666669,0.3336831059811123],[-0.03135416666666669,0.3336831059811123],[-0.019479166666666714,0.2990556138509968],[-0.019479166666666714,0.2990556138509968],[0.00927083333333331,0.25561385099685197],[0.00927083333333331,0.25561385099685197],[-0.013541666666666667,0.20713536201469054],[-0.013541666666666667,0.20713536201469054],[-0.013541666666666667,0.20713536201469054],[-0.030208333333333334,0.11584470094438624],[-0.030208333333333334,0.11584470094438624],[-0.030208333333333334,0.11584470094438624],[-0.014791666666666713,0.0977964323189927],[-0.014791666666666713,0.0977964323189927],[-0.030729166666666665,0.028121720881427024],[-0.030729166666666665,0.028121720881427024],[-0.04677083333333331,0.019307450157397668],[-0.04677083333333331,0.019307450157397668],[-0.04656250000000005,-0.06925498426023086],[-0.04656250000000005,-0.06925498426023086],[-0.05166666666666669,-0.09989506820566636],[-0.05166666666666669,-0.09989506820566636],[-0.06156250000000003,-0.1221406086044071],[-0.06156250000000003,-0.1221406086044071],[-0.034687499999999954,-0.13305351521511014],[-0.034687499999999954,-0.13305351521511014],[-0.02635416666666662,-0.1311647429171039],[-0.02635416666666662,-0.1311647429171039],[-0.03114583333333331,-0.1387198321091291],[-0.03114583333333331,-0.1387198321091291],[-0.04104166666666664,-0.13410283315844695],[-0.04104166666666664,-0.13410283315844695]]","[[-0.18343750000000003,0.2795383001049319,0.0006000000238515213],[-0.18343750000000003,0.2795383001049319,0.13339999997616303],[-0.20687500000000003,0.21825813221406087,0.1723999999761645],[-0.20687500000000003,0.21825813221406087,0.2481000000238538],[-0.28447916666666667,0.23819517313746066,0.31960000002385414],[-0.28447916666666667,0.23819517313746066,0.337799999952324],[-0.3173958333333334,0.2440713536201468,0.35070000004769497],[-0.3173958333333334,0.2440713536201468,0.3726000000238514],[-0.39041666666666663,0.24931794333683097,0.38579999995232583],[-0.39041666666666663,0.24931794333683097,0.4895000000000067],[-0.39041666666666663,0.24931794333683097,0.49200000000000443],[-0.44635416666666666,0.2793284365162645,0.5346000000238433],[-0.44635416666666666,0.2793284365162645,0.6188999999761648],[-0.5213541666666667,0.3101783840503672,0.6606000000238481],[-0.5213541666666667,0.3101783840503672,0.7298999999761691],[-0.5829166666666666,0.3280167890870933,0.7501000000238491],[-0.5829166666666666,0.3280167890870933,0.8426000000238503],[-0.546875,0.3246589716684156,0.8575000000000017],[-0.546875,0.3246589716684156,0.8700000000000045],[-0.5320833333333334,0.34858342077649535,0.8932000000476847],[-0.5320833333333334,0.34858342077649535,0.9167999999523175],[-0.5283333333333333,0.39307450157397683,0.9452999999523257],[-0.5283333333333333,0.39307450157397683,1.0135000000000076],[-0.5585416666666667,0.3953830010493179,1.0363999999761688],[-0.5585416666666667,0.3953830010493179,1.0757000000476893],[-0.5409375,0.37544596012591813,1.1083999999761573],[-0.5409375,0.37544596012591813,1.1210000000000093],[-0.5638541666666667,0.3330535152151103,1.1426000000238474],[-0.5638541666666667,0.3330535152151103,1.1825000000000045],[-0.5207291666666667,0.23651626442812182,1.2345000000000113],[-0.5207291666666667,0.23651626442812182,1.2462000000476934],[-0.5634374999999999,0.18740818467995793,1.2905000000000086],[-0.5634374999999999,0.18740818467995793,1.3415000000000106],[-0.5159375,0.10954879328436526,1.3613999999761575],[-0.5159375,0.10954879328436526,1.3808999999761653],[-0.4905208333333333,0.033788037775446006,1.4612999999523169],[-0.4905208333333333,0.033788037775446006,1.475799999952315],[-0.4516666666666667,-0.04428121720881432,1.5091000000238495],[-0.4516666666666667,-0.04428121720881432,1.5637000000476888],[-0.4516666666666667,-0.04428121720881432,1.6001000000238434],[-0.45875,-0.0062959076600209865,1.6703999999761692],[-0.45875,-0.0062959076600209865,1.6882000000476864],[-0.45375000000000004,0.012801678908709386,1.7045000000000101],[-0.45375000000000004,0.012801678908709386,1.7445000000000022],[-0.43416666666666665,0.055613850996852045,1.764100000023845],[-0.43416666666666665,0.055613850996852045,1.838100000023843],[-0.40270833333333333,0.04973767051416577,1.8476000000238457],[-0.40270833333333333,0.04973767051416577,1.8785000000000025],[-0.3676041666666666,0.09087093389296948,1.963100000023843],[-0.3676041666666666,0.09087093389296948,1.9812000000476928],[-0.33010416666666664,0.18279118572927602,2.0076000000238423],[-0.33010416666666664,0.18279118572927602,2.0406000000238436],[-0.25354166666666667,0.21825813221406087,2.1438999999761705],[-0.25354166666666667,0.21825813221406087,2.178600000023849],[-0.23177083333333334,0.2734522560335781,2.1970000000000027],[-0.23177083333333334,0.2734522560335781,2.2327000000476858],[-0.23343750000000002,0.3540398740818469,2.251100000023854],[-0.23343750000000002,0.3540398740818469,2.3006000000238487],[-0.2319791666666667,0.46799580272822666,2.3117000000476935],[-0.2319791666666667,0.46799580272822666,2.3413999999761614],[-0.21031249999999999,0.4392444910807974,2.4548999999761634],[-0.21031249999999999,0.4392444910807974,2.467200000047683],[-0.21281249999999996,0.42770199370409223,2.4957999999523253],[-0.21281249999999996,0.42770199370409223,2.530200000047685],[-0.1703125,0.432109129066107,2.584799999952324],[-0.1703125,0.432109129066107,2.6042999999523175],[-0.17260416666666673,0.459601259181532,2.6440000000000055],[-0.17260416666666673,0.459601259181532,2.654700000047683],[-0.17302083333333335,0.46065057712486884,2.7195000000000107],[-0.17302083333333335,0.46065057712486884,2.9210000000000065],[-0.2217708333333333,0.43378803777544606,2.9865000000000066],[-0.2217708333333333,0.43378803777544606,3.030200000047685],[-0.18093750000000006,0.46736621196222466,3.0717000000476844],[-0.18093750000000006,0.46736621196222466,3.1046000000238507],[-0.17916666666666667,0.5097586568730325,3.168899999976162],[-0.17916666666666667,0.5097586568730325,3.2125000000000057],[-0.15135416666666662,0.4770199370409233,3.2337000000476905],[-0.15135416666666662,0.4770199370409233,3.2480000000000047],[-0.14229166666666668,0.459601259181532,3.336500000000001],[-0.14229166666666668,0.459601259181532,3.4040000000000106],[-0.1092708333333333,0.40692549842602305,3.413700000047683],[-0.1092708333333333,0.40692549842602305,3.4268999999761576],[-0.1092708333333333,0.40692549842602305,3.432899999976158],[-0.06770833333333333,0.4230849947534103,3.472899999976164],[-0.06770833333333333,0.4230849947534103,3.5320000000000107],[-0.06531250000000005,0.3750262329485835,3.6567999999523266],[-0.06531250000000005,0.3750262329485835,3.7395000000000067],[-0.03135416666666669,0.3336831059811123,3.76810000002385],[-0.03135416666666669,0.3336831059811123,3.8135000000000048],[-0.019479166666666714,0.2990556138509968,3.8840000000000003],[-0.019479166666666714,0.2990556138509968,3.9533999999761704],[0.00927083333333331,0.25561385099685197,3.988299999952318],[0.00927083333333331,0.25561385099685197,4.046700000047693],[-0.013541666666666667,0.20713536201469054,4.062799999952318],[-0.013541666666666667,0.20713536201469054,4.075100000023852],[-0.013541666666666667,0.20713536201469054,4.0828999999761635],[-0.030208333333333334,0.11584470094438624,4.15510000002385],[-0.030208333333333334,0.11584470094438624,4.2532999999523184],[-0.030208333333333334,0.11584470094438624,4.255500000000012],[-0.014791666666666713,0.0977964323189927,4.26700000000001],[-0.014791666666666713,0.0977964323189927,4.278600000023843],[-0.030729166666666665,0.028121720881427024,4.352600000023841],[-0.030729166666666665,0.028121720881427024,4.372200000047684],[-0.04677083333333331,0.019307450157397668,4.442100000023842],[-0.04677083333333331,0.019307450157397668,4.498700000047691],[-0.04656250000000005,-0.06925498426023086,4.564100000023842],[-0.04656250000000005,-0.06925498426023086,4.643200000047685],[-0.05166666666666669,-0.09989506820566636,4.6510000000000105],[-0.05166666666666669,-0.09989506820566636,4.705399999976166],[-0.06156250000000003,-0.1221406086044071,4.72170000004769],[-0.06156250000000003,-0.1221406086044071,4.748299999952323],[-0.034687499999999954,-0.13305351521511014,4.792500000000004],[-0.034687499999999954,-0.13305351521511014,4.83470000004769],[-0.02635416666666662,-0.1311647429171039,4.878799999952321],[-0.02635416666666662,-0.1311647429171039,4.929500000000004],[-0.03114583333333331,-0.1387198321091291,4.946200000047696],[-0.03114583333333331,-0.1387198321091291,5.0491000000238415],[-0.04104166666666664,-0.13410283315844695,5.068700000047684],[-0.04104166666666664,-0.13410283315844695,5.085299999952326]]","[0.0006000000238515213,0.13339999997616303,0.1723999999761645,0.2481000000238538,0.31960000002385414,0.337799999952324,0.35070000004769497,0.3726000000238514,0.38579999995232583,0.4895000000000067,0.49200000000000443,0.5346000000238433,0.6188999999761648,0.6606000000238481,0.7298999999761691,0.7501000000238491,0.8426000000238503,0.8575000000000017,0.8700000000000045,0.8932000000476847,0.9167999999523175,0.9452999999523257,1.0135000000000076,1.0363999999761688,1.0757000000476893,1.1083999999761573,1.1210000000000093,1.1426000000238474,1.1825000000000045,1.2345000000000113,1.2462000000476934,1.2905000000000086,1.3415000000000106,1.3613999999761575,1.3808999999761653,1.4612999999523169,1.475799999952315,1.5091000000238495,1.5637000000476888,1.6001000000238434,1.6703999999761692,1.6882000000476864,1.7045000000000101,1.7445000000000022,1.764100000023845,1.838100000023843,1.8476000000238457,1.8785000000000025,1.963100000023843,1.9812000000476928,2.0076000000238423,2.0406000000238436,2.1438999999761705,2.178600000023849,2.1970000000000027,2.2327000000476858,2.251100000023854,2.3006000000238487,2.3117000000476935,2.3413999999761614,2.4548999999761634,2.467200000047683,2.4957999999523253,2.530200000047685,2.584799999952324,2.6042999999523175,2.6440000000000055,2.654700000047683,2.7195000000000107,2.9210000000000065,2.9865000000000066,3.030200000047685,3.0717000000476844,3.1046000000238507,3.168899999976162,3.2125000000000057,3.2337000000476905,3.2480000000000047,3.336500000000001,3.4040000000000106,3.413700000047683,3.4268999999761576,3.432899999976158,3.472899999976164,3.5320000000000107,3.6567999999523266,3.7395000000000067,3.76810000002385,3.8135000000000048,3.8840000000000003,3.9533999999761704,3.988299999952318,4.046700000047693,4.062799999952318,4.075100000023852,4.0828999999761635,4.15510000002385,4.2532999999523184,4.255500000000012,4.26700000000001,4.278600000023843,4.352600000023841,4.372200000047684,4.442100000023842,4.498700000047691,4.564100000023842,4.643200000047685,4.6510000000000105,4.705399999976166,4.72170000004769,4.748299999952323,4.792500000000004,4.83470000004769,4.878799999952321,4.929500000000004,4.946200000047696,5.0491000000238415,5.068700000047684,5.085299999952326]","[1733106842681,1733106842803,1733106842842,1733106842918,1733106842989,1733106843007,1733106843020,1733106843042,1733106843055,1733106843159,1733106843161,1733106843204,1733106843288,1733106843330,1733106843399,1733106843419,1733106843512,1733106843527,1733106843539,1733106843563,1733106843586,1733106843615,1733106843683,1733106843706,1733106843745,1733106843778,1733106843790,1733106843812,1733106843852,1733106843904,1733106843916,1733106843960,1733106844011,1733106844031,1733106844050,1733106844131,1733106844145,1733106844178,1733106844233,1733106844270,1733106844340,1733106844358,1733106844374,1733106844414,1733106844434,1733106844508,1733106844517,1733106844548,1733106844633,1733106844651,1733106844677,1733106844710,1733106844813,1733106844848,1733106844866,1733106844902,1733106844920,1733106844970,1733106844981,1733106845011,1733106845124,1733106845137,1733106845165,1733106845200,1733106845254,1733106845274,1733106845313,1733106845324,1733106845389,1733106845590,1733106845656,1733106845700,1733106845741,1733106845774,1733106845838,1733106845882,1733106845903,1733106845917,1733106846006,1733106846073,1733106846083,1733106846096,1733106846102,1733106846142,1733106846201,1733106846326,1733106846409,1733106846438,1733106846483,1733106846553,1733106846623,1733106846658,1733106846716,1733106846732,1733106846745,1733106846752,1733106846825,1733106846923,1733106846925,1733106846936,1733106846948,1733106847022,1733106847042,1733106847111,1733106847168,1733106847234,1733106847313,1733106847320,1733106847375,1733106847391,1733106847418,1733106847462,1733106847505,1733106847548,1733106847599,1733106847616,1733106847719,1733106847738,1733106847755]","[[783.9,609.7],[783.9,609.7],[761.4,580.5],[761.4,580.5],[686.9,590],[686.9,590],[655.3,592.8],[655.3,592.8],[585.2,595.3],[585.2,595.3],[585.2,595.3],[531.5,609.6],[531.5,609.6],[459.5,624.3],[459.5,624.3],[400.4,632.8],[400.4,632.8],[435,631.2],[435,631.2],[449.2,642.6],[449.2,642.6],[452.8,663.8],[452.8,663.8],[423.8,664.9],[423.8,664.9],[440.7,655.4],[440.7,655.4],[418.7,635.2],[418.7,635.2],[460.1,589.2],[460.1,589.2],[419.1,565.8],[419.1,565.8],[464.7,528.7],[464.7,528.7],[489.1,492.6],[489.1,492.6],[526.4,455.4],[526.4,455.4],[526.4,455.4],[519.6,473.5],[519.6,473.5],[524.4,482.6],[524.4,482.6],[543.2,503],[543.2,503],[573.4,500.2],[573.4,500.2],[607.1,519.8],[607.1,519.8],[643.1,563.6],[643.1,563.6],[716.6,580.5],[716.6,580.5],[737.5,606.8],[737.5,606.8],[735.9,645.2],[735.9,645.2],[737.3,699.5],[737.3,699.5],[758.1,685.8],[758.1,685.8],[755.7,680.3],[755.7,680.3],[796.5,682.4],[796.5,682.4],[794.3,695.5],[794.3,695.5],[793.9,696],[793.9,696],[747.1,683.2],[747.1,683.2],[786.3,699.2],[786.3,699.2],[788,719.4],[788,719.4],[814.7,703.8],[814.7,703.8],[823.4,695.5],[823.4,695.5],[855.1,670.4],[855.1,670.4],[855.1,670.4],[895,678.1],[895,678.1],[897.3,655.2],[897.3,655.2],[929.9,635.5],[929.9,635.5],[941.3,619],[941.3,619],[968.9,598.3],[968.9,598.3],[947,575.2],[947,575.2],[947,575.2],[931,531.7],[931,531.7],[931,531.7],[945.8,523.1],[945.8,523.1],[930.5,489.9],[930.5,489.9],[915.1,485.7],[915.1,485.7],[915.3,443.5],[915.3,443.5],[910.4,428.9],[910.4,428.9],[900.9,418.3],[900.9,418.3],[926.7,413.1],[926.7,413.1],[934.7,414],[934.7,414],[930.1,410.4],[930.1,410.4],[920.6,412.6],[920.6,412.6]]","[0,0.151169218]","[0.151169218,0.151169218]","[-0.151169218,-0.151169218]","[-0.151169218,0]","[0,-0.151169218]","[0.151169218,-0.151169218]","[0,0]","[0.151169218,0]",0,0,0,0,1,1,Smartphone,7,7,15,9
,,,,,,,,,,,,,,,,,,,33,001,2024-12-02_10h32.41.218,Attention_exp_legacy,2023.1.0,Win32,60.24096386,,,,,,,,,,,[0.18958333333333333],[0.12067156348373557],[1],[0],[0],[1.7807999999523076],"[""Option2_label""]",Option2_label,2,2.8597,"[[0.003125,-0.011542497376705142],[0.003125,-0.011542497376705142],[0.003125,-0.011542497376705142],[0.003125,-0.011542497376705142],[0.003125,-0.011542497376705142],[0.003125,-0.011542497376705142],[0.003125,-0.011542497376705142],[0.003125,-0.011542497376705142],[0.003125,-0.011542497376705142],[0.003125,-0.011542497376705142],[0.003125,-0.011542497376705142],[0.003125,-0.011542497376705142],[0.003125,-0.011542497376705142],[0.003125,-0.011542497376705142],[0.003125,-0.011542497376705142],[0.003125,-0.011542497376705142],[0.003125,-0.011542497376705142],[0.003125,-0.011542497376705142],[0.003125,-0.011542497376705142],[0.003125,-0.011542497376705142],[0.003125,-0.011542497376705142],[0.003125,-0.011542497376705142],[0.003125,-0.011542497376705142],[0.003125,-0.011542497376705142],[0.003125,-0.011542497376705142],[0.003125,-0.011542497376705142],[0.003125,-0.011542497376705142],[0.003125,-0.011542497376705142],[0.003125,-0.011542497376705142],[0.003125,-0.011542497376705142],[0.003125,-0.011542497376705142],[0.008333333333333333,-0.011542497376705142],[0.05416666666666667,0.017838405036726127],[0.08020833333333334,0.03252885624344176],[0.09583333333333334,0.040923399790136414],[0.10729166666666666,0.05141657922350472],[0.146875,0.07450157397691501],[0.17291666666666666,0.09548793284365163],[0.18854166666666666,0.11227701993704092],[0.18958333333333333,0.12067156348373557],[0.18958333333333333,0.12067156348373557],[0.18958333333333333,0.12067156348373557],[0.18958333333333333,0.12067156348373557],[0.18958333333333333,0.12067156348373557],[0.18958333333333333,0.12067156348373557],[0.18958333333333333,0.12067156348373557],[0.18958333333333333,0.12067156348373557],[0.18958333333333333,0.12067156348373557],[0.18958333333333333,0.12067156348373557],[0.18958333333333333,0.12067156348373557],[0.18958333333333333,0.12067156348373557],[0.18958333333333333,0.12067156348373557],[0.18958333333333333,0.12067156348373557],[0.18958333333333333,0.12067156348373557],[0.18958333333333333,0.12067156348373557],[0.18958333333333333,0.12067156348373557],[0.18958333333333333,0.12067156348373557],[0.18958333333333333,0.12067156348373557],[0.18958333333333333,0.12067156348373557],[0.18958333333333333,0.12067156348373557],[0.18958333333333333,0.12067156348373557],[0.18958333333333333,0.12067156348373557],[0.18958333333333333,0.12067156348373557],[0.18958333333333333,0.12067156348373557],[0.18958333333333333,0.12067156348373557],[0.18958333333333333,0.12067156348373557],[0.18958333333333333,0.12067156348373557],[0.18958333333333333,0.12067156348373557],[0.18958333333333333,0.12067156348373557]]","[[-0.0328125,0.2713536201469044],[-0.024791666666666618,0.26379853095487943],[-0.024791666666666618,0.26379853095487943],[-0.017604166666666643,0.19706190975865684],[-0.017604166666666643,0.19706190975865684],[0.001145833333333357,0.2335781741867785],[0.001145833333333357,0.2335781741867785],[0.04812500000000005,0.25435466946484797],[0.04812500000000005,0.25435466946484797],[0.08395833333333323,0.20461699895068206],[0.08395833333333323,0.20461699895068206],[0.09958333333333323,0.17586568730325278],[0.09958333333333323,0.17586568730325278],[0.09260416666666677,0.16935991605456463],[0.09260416666666677,0.16935991605456463],[0.09562499999999995,0.1651626442812173],[0.09562499999999995,0.1651626442812173],[0.09604166666666672,0.14291710388247644],[0.09604166666666672,0.14291710388247644],[0.11395833333333343,0.1259181532004197],[0.11395833333333343,0.1259181532004197],[0.12937500000000005,0.12906610703043023],[0.12937500000000005,0.12906610703043023],[0.14593749999999991,0.11563483735571883],[0.14593749999999991,0.11563483735571883],[0.1478125000000001,0.11416579223504718],[0.1478125000000001,0.11416579223504718],[0.13479166666666675,0.08436516264428132],[0.13479166666666675,0.08436516264428132],[0.10989583333333333,0.08772298006295898],[0.10989583333333333,0.08772298006295898],[0.0962500000000001,0.08310598111227707],[0.0962500000000001,0.08310598111227707],[0.12041666666666657,0.07806925498426033],[0.12041666666666657,0.07806925498426033],[0.115625,0.06526757607555093],[0.115625,0.06526757607555093],[0.1131249999999999,0.07953830010493175],[0.1131249999999999,0.07953830010493175],[0.10885416666666667,0.056033578174186756],[0.10885416666666667,0.056033578174186756],[0.10885416666666667,0.056033578174186756],[0.09874999999999995,0.058551941238195127],[0.09874999999999995,0.058551941238195127],[0.09874999999999995,0.058551941238195127],[0.10895833333333324,0.07177334732423922],[0.10895833333333324,0.07177334732423922],[0.1146874999999999,0.09359916054564538],[0.1146874999999999,0.09359916054564538],[0.13010416666666677,0.075131164742917],[0.13010416666666677,0.075131164742917],[0.1616666666666667,0.05834207764952783],[0.1616666666666667,0.05834207764952783],[0.17312500000000006,0.014480587618048222],[0.17312500000000006,0.014480587618048222],[0.15322916666666658,-0.03231899265477435],[0.15322916666666658,-0.03231899265477435],[0.17041666666666658,-0.08562434417628544],[0.17041666666666658,-0.08562434417628544],[0.1616666666666667,-0.14942287513116473],[0.1616666666666667,-0.14942287513116473],[0.1616666666666667,-0.14942287513116473],[0.1560416666666666,-0.18363064008394545],[0.1560416666666666,-0.18363064008394545],[0.16135416666666677,-0.2333683105981112],[0.16135416666666677,-0.2333683105981112],[0.15229166666666671,-0.29947534102833157],[0.15229166666666671,-0.29947534102833157],[0.15635416666666657,-0.3920251836306401]]","[[-0.0328125,0.2713536201469044,0.00010000002384913387],[-0.024791666666666618,0.26379853095487943,0.055399999976160075],[-0.024791666666666618,0.26379853095487943,0.07579999995232356],[-0.017604166666666643,0.19706190975865684,0.09960000002384106],[-0.017604166666666643,0.19706190975865684,0.1280000000000001],[0.001145833333333357,0.2335781741867785,0.19410000002385175],[0.001145833333333357,0.2335781741867785,0.22810000002384356],[0.04812500000000005,0.25435466946484797,0.27010000002384515],[0.04812500000000005,0.25435466946484797,0.3372999999523216],[0.08395833333333323,0.20461699895068206,0.37060000002384186],[0.08395833333333323,0.20461699895068206,0.41020000004769486],[0.09958333333333323,0.17586568730325278,0.47560000002384584],[0.09958333333333323,0.17586568730325278,0.5727999999523234],[0.09260416666666677,0.16935991605456463,0.6037999999523151],[0.09260416666666677,0.16935991605456463,0.6152999999523274],[0.09562499999999995,0.1651626442812173,0.6311000000238494],[0.09562499999999995,0.1651626442812173,0.6767000000476884],[0.09604166666666672,0.14291710388247644,0.7565000000000026],[0.09604166666666672,0.14291710388247644,0.7831000000238504],[0.11395833333333343,0.1259181532004197,0.7991000000238415],[0.11395833333333343,0.1259181532004197,0.8150000000000119],[0.12937500000000005,0.12906610703043023,0.8547999999523199],[0.12937500000000005,0.12906610703043023,0.8920000000000101],[0.14593749999999991,0.11563483735571883,0.9726000000238457],[0.14593749999999991,0.11563483735571883,0.9897000000476908],[0.1478125000000001,0.11416579223504718,1.0365000000000038],[0.1478125000000001,0.11416579223504718,1.0947000000476947],[0.13479166666666675,0.08436516264428132,1.1388999999761609],[0.13479166666666675,0.08436516264428132,1.1647999999523222],[0.10989583333333333,0.08772298006295898,1.2226000000238457],[0.10989583333333333,0.08772298006295898,1.3261000000238425],[0.0962500000000001,0.08310598111227707,1.3815000000000026],[0.0962500000000001,0.08310598111227707,1.4237999999523225],[0.12041666666666657,0.07806925498426033,1.4401000000238469],[0.12041666666666657,0.07806925498426033,1.457399999976161],[0.115625,0.06526757607555093,1.4825000000000017],[0.115625,0.06526757607555093,1.578100000023852],[0.1131249999999999,0.07953830010493175,1.5888999999761637],[0.1131249999999999,0.07953830010493175,1.6877999999523183],[0.10885416666666667,0.056033578174186756,1.7423999999761577],[0.10885416666666667,0.056033578174186756,1.782399999976164],[0.10885416666666667,0.056033578174186756,1.7862999999523197],[0.09874999999999995,0.058551941238195127,1.849600000023841],[0.09874999999999995,0.058551941238195127,1.8872000000476845],[0.09874999999999995,0.058551941238195127,1.9235000000000042],[0.10895833333333324,0.07177334732423922,1.9552999999523166],[0.10895833333333324,0.07177334732423922,1.9772999999523222],[0.1146874999999999,0.09359916054564538,2.038700000047683],[0.1146874999999999,0.09359916054564538,2.0512999999523203],[0.13010416666666677,0.075131164742917,2.0900000000000034],[0.13010416666666677,0.075131164742917,2.116600000023851],[0.1616666666666667,0.05834207764952783,2.1330000000000098],[0.1616666666666667,0.05834207764952783,2.1638999999761666],[0.17312500000000006,0.014480587618048222,2.200299999952321],[0.17312500000000006,0.014480587618048222,2.2221000000238433],[0.15322916666666658,-0.03231899265477435,2.3098999999761674],[0.15322916666666658,-0.03231899265477435,2.3242999999523164],[0.17041666666666658,-0.08562434417628544,2.3595000000000113],[0.17041666666666658,-0.08562434417628544,2.3841000000238495],[0.1616666666666667,-0.14942287513116473,2.4011000000238454],[0.1616666666666667,-0.14942287513116473,2.421799999952327],[0.1616666666666667,-0.14942287513116473,2.4566000000238404],[0.1560416666666666,-0.18363064008394545,2.48279999995232],[0.1560416666666666,-0.18363064008394545,2.5372999999523245],[0.16135416666666677,-0.2333683105981112,2.569700000047689],[0.16135416666666677,-0.2333683105981112,2.668799999952327],[0.15229166666666671,-0.29947534102833157,2.724200000047688],[0.15229166666666671,-0.29947534102833157,2.759600000023852],[0.15635416666666657,-0.3920251836306401,2.8597000000476953]]","[0.00010000002384913387,0.055399999976160075,0.07579999995232356,0.09960000002384106,0.1280000000000001,0.19410000002385175,0.22810000002384356,0.27010000002384515,0.3372999999523216,0.37060000002384186,0.41020000004769486,0.47560000002384584,0.5727999999523234,0.6037999999523151,0.6152999999523274,0.6311000000238494,0.6767000000476884,0.7565000000000026,0.7831000000238504,0.7991000000238415,0.8150000000000119,0.8547999999523199,0.8920000000000101,0.9726000000238457,0.9897000000476908,1.0365000000000038,1.0947000000476947,1.1388999999761609,1.1647999999523222,1.2226000000238457,1.3261000000238425,1.3815000000000026,1.4237999999523225,1.4401000000238469,1.457399999976161,1.4825000000000017,1.578100000023852,1.5888999999761637,1.6877999999523183,1.7423999999761577,1.782399999976164,1.7862999999523197,1.849600000023841,1.8872000000476845,1.9235000000000042,1.9552999999523166,1.9772999999523222,2.038700000047683,2.0512999999523203,2.0900000000000034,2.116600000023851,2.1330000000000098,2.1638999999761666,2.200299999952321,2.2221000000238433,2.3098999999761674,2.3242999999523164,2.3595000000000113,2.3841000000238495,2.4011000000238454,2.421799999952327,2.4566000000238404,2.48279999995232,2.5372999999523245,2.569700000047689,2.668799999952327,2.724200000047688,2.759600000023852,2.8597000000476953]","[1733106848811,1733106848865,1733106848885,1733106848909,1733106848937,1733106849004,1733106849038,1733106849080,1733106849147,1733106849180,1733106849220,1733106849285,1733106849382,1733106849413,1733106849425,1733106849441,1733106849486,1733106849566,1733106849593,1733106849608,1733106849624,1733106849664,1733106849701,1733106849782,1733106849799,1733106849846,1733106849904,1733106849948,1733106849974,1733106850032,1733106850136,1733106850191,1733106850233,1733106850250,1733106850267,1733106850292,1733106850387,1733106850398,1733106850497,1733106850552,1733106850592,1733106850596,1733106850659,1733106850697,1733106850733,1733106850765,1733106850787,1733106850848,1733106850861,1733106850899,1733106850926,1733106850942,1733106850973,1733106851010,1733106851031,1733106851119,1733106851134,1733106851169,1733106851193,1733106851211,1733106851231,1733106851266,1733106851292,1733106851347,1733106851379,1733106851478,1733106851534,1733106851569,1733106851669]","[[928.5,605.8],[936.2,602.2],[936.2,602.2],[943.1,570.4],[943.1,570.4],[961.1,587.8],[961.1,587.8],[1006.2,597.7],[1006.2,597.7],[1040.6,574],[1040.6,574],[1055.6,560.3],[1055.6,560.3],[1048.9,557.2],[1048.9,557.2],[1051.8,555.2],[1051.8,555.2],[1052.2,544.6],[1052.2,544.6],[1069.4,536.5],[1069.4,536.5],[1084.2,538],[1084.2,538],[1100.1,531.6],[1100.1,531.6],[1101.9,530.9],[1101.9,530.9],[1089.4,516.7],[1089.4,516.7],[1065.5,518.3],[1065.5,518.3],[1052.4,516.1],[1052.4,516.1],[1075.6,513.7],[1075.6,513.7],[1071,507.6],[1071,507.6],[1068.6,514.4],[1068.6,514.4],[1064.5,503.2],[1064.5,503.2],[1064.5,503.2],[1054.8,504.4],[1054.8,504.4],[1054.8,504.4],[1064.6,510.7],[1064.6,510.7],[1070.1,521.1],[1070.1,521.1],[1084.9,512.3],[1084.9,512.3],[1115.2,504.3],[1115.2,504.3],[1126.2,483.4],[1126.2,483.4],[1107.1,461.1],[1107.1,461.1],[1123.6,435.7],[1123.6,435.7],[1115.2,405.3],[1115.2,405.3],[1115.2,405.3],[1109.8,389],[1109.8,389],[1114.9,365.3],[1114.9,365.3],[1106.2,333.8],[1106.2,333.8],[1110.1,289.7]]","[0,0.151169218]","[0.151169218,0.151169218]","[-0.151169218,0]","[-0.151169218,-0.151169218]","[0,0]","[0.151169218,0]","[0,-0.151169218]","[0.151169218,-0.151169218]",0,1,1,1,1,1,Smartphone,9,1,11,5
,,,,,,,,,,,,,,,,,,,33,001,2024-12-02_10h32.41.218,Attention_exp_legacy,2023.1.0,Win32,60.24096386,,,,,,,,,,,[0.19166666666666668],[0.13326337880377753],[1],[0],[0],[2.336299999952317],"[""Option2_label""]",Option2_label,3,3.3436,"[[0.18958333333333333,0.12067156348373557],[0.18958333333333333,0.12067156348373557],[0.18958333333333333,0.12067156348373557],[0.18958333333333333,0.12067156348373557],[0.18958333333333333,0.12067156348373557],[0.18958333333333333,0.12067156348373557],[0.18958333333333333,0.12067156348373557],[0.18958333333333333,0.12067156348373557],[0.18958333333333333,0.12067156348373557],[0.18958333333333333,0.12067156348373557],[0.18958333333333333,0.12067156348373557],[0.18958333333333333,0.12067156348373557],[0.18958333333333333,0.12067156348373557],[0.18958333333333333,0.12067156348373557],[0.18958333333333333,0.12067156348373557],[0.18958333333333333,0.12067156348373557],[0.18958333333333333,0.12067156348373557],[0.18958333333333333,0.12067156348373557],[0.18958333333333333,0.12067156348373557],[0.18958333333333333,0.12067156348373557],[0.18958333333333333,0.12067156348373557],[0.18958333333333333,0.12067156348373557],[0.18958333333333333,0.12067156348373557],[0.18958333333333333,0.12067156348373557],[0.18958333333333333,0.12067156348373557],[0.18958333333333333,0.12067156348373557],[0.18958333333333333,0.12067156348373557],[0.18958333333333333,0.12067156348373557],[0.18958333333333333,0.12067156348373557],[0.18958333333333333,0.12067156348373557],[0.18958333333333333,0.12067156348373557],[0.18958333333333333,0.12067156348373557],[0.18958333333333333,0.12067156348373557],[0.18958333333333333,0.12067156348373557],[0.18958333333333333,0.12067156348373557],[0.18958333333333333,0.12067156348373557],[0.18958333333333333,0.12067156348373557],[0.18958333333333333,0.12067156348373557],[0.18958333333333333,0.12067156348373557],[0.18958333333333333,0.12067156348373557],[0.18958333333333333,0.12067156348373557],[0.18958333333333333,0.12067156348373557],[0.18958333333333333,0.12067156348373557],[0.18958333333333333,0.12067156348373557],[0.18958333333333333,0.12067156348373557],[0.18958333333333333,0.12067156348373557],[0.18958333333333333,0.12067156348373557],[0.18958333333333333,0.12067156348373557],[0.18958333333333333,0.12067156348373557],[0.18958333333333333,0.12067156348373557],[0.18958333333333333,0.12067156348373557],[0.18958333333333333,0.12067156348373557],[0.18958333333333333,0.12067156348373557],[0.18958333333333333,0.12067156348373557],[0.190625,0.1248688352570829],[0.190625,0.1311647429171039],[0.19166666666666668,0.13326337880377753],[0.19166666666666668,0.13326337880377753],[0.19166666666666668,0.13326337880377753],[0.19166666666666668,0.13326337880377753],[0.19166666666666668,0.13326337880377753],[0.19166666666666668,0.13326337880377753],[0.19166666666666668,0.13326337880377753],[0.19166666666666668,0.13326337880377753],[0.19166666666666668,0.13326337880377753],[0.19166666666666668,0.13326337880377753],[0.19166666666666668,0.13326337880377753],[0.19166666666666668,0.13326337880377753],[0.19166666666666668,0.13326337880377753],[0.19166666666666668,0.13326337880377753],[0.19166666666666668,0.13326337880377753],[0.19166666666666668,0.13326337880377753],[0.19166666666666668,0.13326337880377753],[0.19166666666666668,0.13326337880377753],[0.19166666666666668,0.13326337880377753],[0.19166666666666668,0.13326337880377753],[0.19166666666666668,0.13326337880377753],[0.19166666666666668,0.13326337880377753],[0.19166666666666668,0.13326337880377753],[0.19166666666666668,0.13326337880377753],[0.19166666666666668,0.13326337880377753],[0.19166666666666668,0.13326337880377753],[0.19166666666666668,0.13326337880377753],[0.19166666666666668,0.13326337880377753],[0.19166666666666668,0.13326337880377753],[0.19166666666666668,0.13326337880377753],[0.19166666666666668,0.13326337880377753],[0.19166666666666668,0.13326337880377753],[0.19166666666666668,0.13326337880377753]]","[[0.10229166666666671,-0.16642182581322143],[0.10229166666666671,-0.16642182581322143],[0.09010416666666667,-0.16180482686253939],[0.09010416666666667,-0.16180482686253939],[0.05458333333333331,-0.1147953830010493],[0.05458333333333331,-0.1147953830010493],[0.01739583333333338,-0.13389296956977967],[0.01739583333333338,-0.13389296956977967],[0.015208333333333357,-0.12235047219307453],[0.015208333333333357,-0.12235047219307453],[0.016145833333333335,-0.12864637985309552],[0.016145833333333335,-0.12864637985309552],[0.030104166666666644,-0.11290661070304304],[0.030104166666666644,-0.11290661070304304],[0.033645833333333285,-0.15089192025183626],[0.04604166666666672,-0.20356768100734524],[0.04604166666666672,-0.20356768100734524],[0.03739583333333331,-0.23483735571878275],[0.03739583333333331,-0.23483735571878275],[0.0678124999999999,-0.2667366211962225],[0.0678124999999999,-0.2667366211962225],[0.05291666666666662,-0.2226652675760756],[0.05291666666666662,-0.2226652675760756],[0.0609375,-0.2337880377754459],[0.0609375,-0.2337880377754459],[0.04906250000000002,-0.2436516264428122],[0.04906250000000002,-0.2436516264428122],[0.03572916666666662,-0.23756558237145853],[0.03572916666666662,-0.23756558237145853],[0.01739583333333338,-0.22728226652675762],[0.01739583333333338,-0.22728226652675762],[-0.005312500000000024,-0.2400839454354669],[-0.005312500000000024,-0.2400839454354669],[-0.02312500000000005,-0.19013641133263384],[-0.02312500000000005,-0.19013641133263384],[-0.03875000000000005,-0.14732423924449106],[-0.03875000000000005,-0.14732423924449106],[-0.04562499999999995,-0.15362014690451203],[-0.04562499999999995,-0.15362014690451203],[-0.06041666666666667,-0.14795383001049317],[-0.06041666666666667,-0.14795383001049317],[-0.03937499999999995,-0.12570828961175232],[-0.03937499999999995,-0.12570828961175232],[-0.04479166666666667,-0.00041972717733470855],[-0.04479166666666667,-0.00041972717733470855],[-0.04041666666666662,0.09674711437565588],[-0.04041666666666662,0.09674711437565588],[-0.0171875,0.17082896117523605],[-0.0171875,0.17082896117523605],[0.01895833333333338,0.22812172088142718],[0.01895833333333338,0.22812172088142718],[0.041770833333333354,0.2772298006295908],[0.041770833333333354,0.2772298006295908],[0.07979166666666657,0.304302203567681],[0.07979166666666657,0.304302203567681],[0.11104166666666657,0.28898216159496337],[0.11104166666666657,0.28898216159496337],[0.11104166666666657,0.28898216159496337],[0.13770833333333338,0.3055613850996853],[0.13770833333333338,0.3055613850996853],[0.1423958333333334,0.30661070304302207],[0.1423958333333334,0.30661070304302207],[0.14177083333333323,0.26862539349422876],[0.14177083333333323,0.26862539349422876],[0.1622916666666666,0.1383001049317943],[0.1622916666666666,0.1383001049317943],[0.18937499999999996,0.08289611752360965],[0.18937499999999996,0.08289611752360965],[0.1931250000000001,0.02833158447009444],[0.1931250000000001,0.02833158447009444],[0.19697916666666657,-0.03294858342077647],[0.19697916666666657,-0.03294858342077647],[0.1970833333333334,-0.043231899265477484],[0.1970833333333334,-0.043231899265477484],[0.18562500000000004,-0.07639034627492125],[0.18562500000000004,-0.07639034627492125],[0.17614583333333325,-0.0505771248688353],[0.17614583333333325,-0.0505771248688353],[0.1650000000000001,-0.0711437565582371],[0.1650000000000001,-0.0711437565582371],[0.16875,-0.06232948583420774],[0.16875,-0.06232948583420774],[0.1618750000000001,-0.06841552990556143],[0.1618750000000001,-0.06841552990556143],[0.1618750000000001,-0.06841552990556143],[0.1634375000000001,-0.06568730325288565],[0.1634375000000001,-0.06568730325288565],[0.18427083333333344,-0.0709338929695698],[0.18427083333333344,-0.0709338929695698]]","[[0.10229166666666671,-0.16642182581322143,0.00010000002383492301],[0.10229166666666671,-0.16642182581322143,0.0367000000476736],[0.09010416666666667,-0.16180482686253939,0.06920000004768667],[0.09010416666666667,-0.16180482686253939,0.10210000002383879],[0.05458333333333331,-0.1147953830010493,0.1448999999761611],[0.05458333333333331,-0.1147953830010493,0.21599999999999397],[0.01739583333333338,-0.13389296956977967,0.24389999997615064],[0.01739583333333338,-0.13389296956977967,0.2896000000238388],[0.015208333333333357,-0.12235047219307453,0.3333000000715174],[0.015208333333333357,-0.12235047219307453,0.38730000007151943],[0.016145833333333335,-0.12864637985309552,0.4208000000715231],[0.016145833333333335,-0.12864637985309552,0.43949999999999534],[0.030104166666666644,-0.11290661070304304,0.47080000007152023],[0.030104166666666644,-0.11290661070304304,0.5218999999761564],[0.033645833333333285,-0.15089192025183626,0.565399999976151],[0.04604166666666672,-0.20356768100734524,0.5943000000715273],[0.04604166666666672,-0.20356768100734524,0.605300000071523],[0.03739583333333331,-0.23483735571878275,0.6306000000238328],[0.03739583333333331,-0.23483735571878275,0.7548999999761605],[0.0678124999999999,-0.2667366211962225,0.7988999999761575],[0.0678124999999999,-0.2667366211962225,0.8158999999761534],[0.05291666666666662,-0.2226652675760756,0.8737000000476769],[0.05291666666666662,-0.2226652675760756,0.937800000071519],[0.0609375,-0.2337880377754459,0.9727000000476806],[0.0609375,-0.2337880377754459,0.9933000000715282],[0.04906250000000002,-0.2436516264428122,1.028700000047678],[0.04906250000000002,-0.2436516264428122,1.048700000047674],[0.03572916666666662,-0.23756558237145853,1.0828000000715292],[0.03572916666666662,-0.23756558237145853,1.1041000000238341],[0.01739583333333338,-0.22728226652675762,1.1313000000715192],[0.01739583333333338,-0.22728226652675762,1.1498000000715223],[-0.005312500000000024,-0.2400839454354669,1.1727000000476835],[-0.005312500000000024,-0.2400839454354669,1.1961000000238329],[-0.02312500000000005,-0.19013641133263384,1.2191000000238432],[-0.02312500000000005,-0.19013641133263384,1.2873999999761594],[-0.03875000000000005,-0.14732423924449106,1.3386000000238454],[-0.03875000000000005,-0.14732423924449106,1.394999999999996],[-0.04562499999999995,-0.15362014690451203,1.4201000000238366],[-0.04562499999999995,-0.15362014690451203,1.4363999999761603],[-0.06041666666666667,-0.14795383001049317,1.4797000000476856],[-0.06041666666666667,-0.14795383001049317,1.575200000047687],[-0.03937499999999995,-0.12570828961175232,1.6176000000238417],[-0.03937499999999995,-0.12570828961175232,1.6288999999761558],[-0.04479166666666667,-0.00041972717733470855,1.6613000000715203],[-0.04479166666666667,-0.00041972717733470855,1.7043000000715267],[-0.04041666666666662,0.09674711437565588,1.7199999999999989],[-0.04041666666666662,0.09674711437565588,1.8900000000000006],[-0.0171875,0.17082896117523605,1.9187000000476786],[-0.0171875,0.17082896117523605,1.9978999999761555],[0.01895833333333338,0.22812172088142718,2.0462000000476763],[0.01895833333333338,0.22812172088142718,2.06660000002384],[0.041770833333333354,0.2772298006295908,2.096600000023841],[0.041770833333333354,0.2772298006295908,2.1198999999761554],[0.07979166666666657,0.304302203567681,2.1413000000715243],[0.07979166666666657,0.304302203567681,2.189200000047677],[0.11104166666666657,0.28898216159496337,2.2108000000715293],[0.11104166666666657,0.28898216159496337,2.337899999976159],[0.11104166666666657,0.28898216159496337,2.3732000000476745],[0.13770833333333338,0.3055613850996853,2.4371000000238325],[0.13770833333333338,0.3055613850996853,2.4495000000000005],[0.1423958333333334,0.30661070304302207,2.4657000000476756],[0.1423958333333334,0.30661070304302207,2.4851000000238344],[0.14177083333333323,0.26862539349422876,2.5189999999999912],[0.14177083333333323,0.26862539349422876,2.539500000000004],[0.1622916666666666,0.1383001049317943,2.5663999999761558],[0.1622916666666666,0.1383001049317943,2.5807000000476847],[0.18937499999999996,0.08289611752360965,2.620600000023842],[0.18937499999999996,0.08289611752360965,2.6430000000000007],[0.1931250000000001,0.02833158447009444,2.6868000000715284],[0.1931250000000001,0.02833158447009444,2.7187000000476758],[0.19697916666666657,-0.03294858342077647,2.856800000071516],[0.19697916666666657,-0.03294858342077647,2.870700000047677],[0.1970833333333334,-0.043231899265477484,2.890700000047687],[0.1970833333333334,-0.043231899265477484,2.9664999999999964],[0.18562500000000004,-0.07639034627492125,2.9778999999761595],[0.18562500000000004,-0.07639034627492125,2.9896000000238416],[0.17614583333333325,-0.0505771248688353,3.003300000071519],[0.17614583333333325,-0.0505771248688353,3.0378000000715275],[0.1650000000000001,-0.0711437565582371,3.059600000023835],[0.1650000000000001,-0.0711437565582371,3.0816000000238404],[0.16875,-0.06232948583420774,3.108100000023839],[0.16875,-0.06232948583420774,3.1438999999761563],[0.1618750000000001,-0.06841552990556143,3.1881000000238373],[0.1618750000000001,-0.06841552990556143,3.23299999999999],[0.1618750000000001,-0.06841552990556143,3.2381000000238345],[0.1634375000000001,-0.06568730325288565,3.2607000000476773],[0.1634375000000001,-0.06568730325288565,3.2751000000238406],[0.18427083333333344,-0.0709338929695698,3.3303999999761515],[0.18427083333333344,-0.0709338929695698,3.343600000023841]]","[0.00010000002383492301,0.0367000000476736,0.06920000004768667,0.10210000002383879,0.1448999999761611,0.21599999999999397,0.24389999997615064,0.2896000000238388,0.3333000000715174,0.38730000007151943,0.4208000000715231,0.43949999999999534,0.47080000007152023,0.5218999999761564,0.565399999976151,0.5943000000715273,0.605300000071523,0.6306000000238328,0.7548999999761605,0.7988999999761575,0.8158999999761534,0.8737000000476769,0.937800000071519,0.9727000000476806,0.9933000000715282,1.028700000047678,1.048700000047674,1.0828000000715292,1.1041000000238341,1.1313000000715192,1.1498000000715223,1.1727000000476835,1.1961000000238329,1.2191000000238432,1.2873999999761594,1.3386000000238454,1.394999999999996,1.4201000000238366,1.4363999999761603,1.4797000000476856,1.575200000047687,1.6176000000238417,1.6288999999761558,1.6613000000715203,1.7043000000715267,1.7199999999999989,1.8900000000000006,1.9187000000476786,1.9978999999761555,2.0462000000476763,2.06660000002384,2.096600000023841,2.1198999999761554,2.1413000000715243,2.189200000047677,2.2108000000715293,2.337899999976159,2.3732000000476745,2.4371000000238325,2.4495000000000005,2.4657000000476756,2.4851000000238344,2.5189999999999912,2.539500000000004,2.5663999999761558,2.5807000000476847,2.620600000023842,2.6430000000000007,2.6868000000715284,2.7187000000476758,2.856800000071516,2.870700000047677,2.890700000047687,2.9664999999999964,2.9778999999761595,2.9896000000238416,3.003300000071519,3.0378000000715275,3.059600000023835,3.0816000000238404,3.108100000023839,3.1438999999761563,3.1881000000238373,3.23299999999999,3.2381000000238345,3.2607000000476773,3.2751000000238406,3.3303999999761515,3.343600000023841]","[1733106852713,1733106852748,1733106852781,1733106852813,1733106852856,1733106852927,1733106852955,1733106853001,1733106853045,1733106853099,1733106853132,1733106853151,1733106853182,1733106853233,1733106853277,1733106853306,1733106853317,1733106853342,1733106853466,1733106853510,1733106853527,1733106853585,1733106853649,1733106853684,1733106853705,1733106853740,1733106853760,1733106853794,1733106853815,1733106853843,1733106853861,1733106853884,1733106853907,1733106853930,1733106853999,1733106854050,1733106854106,1733106854131,1733106854148,1733106854191,1733106854287,1733106854329,1733106854340,1733106854373,1733106854416,1733106854431,1733106854601,1733106854630,1733106854709,1733106854757,1733106854778,1733106854808,1733106854831,1733106854853,1733106854900,1733106854922,1733106855049,1733106855085,1733106855148,1733106855161,1733106855177,1733106855196,1733106855230,1733106855251,1733106855278,1733106855292,1733106855332,1733106855354,1733106855398,1733106855430,1733106855568,1733106855582,1733106855602,1733106855678,1733106855689,1733106855701,1733106855715,1733106855749,1733106855771,1733106855793,1733106855819,1733106855855,1733106855900,1733106855944,1733106855949,1733106855972,1733106855986,1733106856042,1733106856055]","[[1058.2,397.2],[1058.2,397.2],[1046.5,399.4],[1046.5,399.4],[1012.4,421.8],[1012.4,421.8],[976.7,412.7],[976.7,412.7],[974.6,418.2],[974.6,418.2],[975.5,415.2],[975.5,415.2],[988.9,422.7],[988.9,422.7],[992.3,404.6],[1004.2,379.5],[1004.2,379.5],[995.9,364.6],[995.9,364.6],[1025.1,349.4],[1025.1,349.4],[1010.8,370.4],[1010.8,370.4],[1018.5,365.1],[1018.5,365.1],[1007.1,360.4],[1007.1,360.4],[994.3,363.3],[994.3,363.3],[976.7,368.2],[976.7,368.2],[954.9,362.1],[954.9,362.1],[937.8,385.9],[937.8,385.9],[922.8,406.3],[922.8,406.3],[916.2,403.3],[916.2,403.3],[902,406],[902,406],[922.2,416.6],[922.2,416.6],[917,476.3],[917,476.3],[921.2,522.6],[921.2,522.6],[943.5,557.9],[943.5,557.9],[978.2,585.2],[978.2,585.2],[1000.1,608.6],[1000.1,608.6],[1036.6,621.5],[1036.6,621.5],[1066.6,614.2],[1066.6,614.2],[1066.6,614.2],[1092.2,622.1],[1092.2,622.1],[1096.7,622.6],[1096.7,622.6],[1096.1,604.5],[1096.1,604.5],[1115.8,542.4],[1115.8,542.4],[1141.8,516],[1141.8,516],[1145.4,490],[1145.4,490],[1149.1,460.8],[1149.1,460.8],[1149.2,455.9],[1149.2,455.9],[1138.2,440.1],[1138.2,440.1],[1129.1,452.4],[1129.1,452.4],[1118.4,442.6],[1118.4,442.6],[1122,446.8],[1122,446.8],[1115.4,443.9],[1115.4,443.9],[1115.4,443.9],[1116.9,445.2],[1116.9,445.2],[1136.9,442.7],[1136.9,442.7]]","[0,0.151169218]","[0.151169218,0.151169218]","[-0.151169218,-0.151169218]","[-0.151169218,0]","[0,-0.151169218]","[0.151169218,-0.151169218]","[0,0]","[0.151169218,0]",0,2,2,2,1,1,Smartphone,5,1,7,3
,,,,,,,,,,,,,,,,,,,33,001,2024-12-02_10h32.41.218,Attention_exp_legacy,2023.1.0,Win32,60.24096386,,,,,,,,,,,[0.01875],[0.1353620146904512],[1],[0],[0],[1.9660999999046282],"[""Option1_label""]",Option1_label,4,2.9879,"[[0.19166666666666668,0.13326337880377753],[0.19166666666666668,0.13326337880377753],[0.19166666666666668,0.13326337880377753],[0.19166666666666668,0.13326337880377753],[0.19166666666666668,0.13326337880377753],[0.19166666666666668,0.13326337880377753],[0.19166666666666668,0.13326337880377753],[0.19166666666666668,0.13326337880377753],[0.19166666666666668,0.13326337880377753],[0.19166666666666668,0.13326337880377753],[0.190625,0.13326337880377753],[0.190625,0.13326337880377753],[0.190625,0.13326337880377753],[0.190625,0.13326337880377753],[0.190625,0.13326337880377753],[0.18958333333333333,0.13326337880377753],[0.18854166666666666,0.13326337880377753],[0.184375,0.12906610703043023],[0.18125,0.1248688352570829],[0.178125,0.12277019937040923],[0.16875,0.11647429171038824],[0.16666666666666666,0.11437565582371459],[0.16458333333333333,0.11017838405036726],[0.159375,0.11017838405036726],[0.15729166666666666,0.10598111227701994],[0.15625,0.10598111227701994],[0.15208333333333332,0.10598111227701994],[0.15208333333333332,0.10598111227701994],[0.15208333333333332,0.10598111227701994],[0.13645833333333332,0.10598111227701994],[0.13541666666666666,0.10598111227701994],[0.13541666666666666,0.10598111227701994],[0.09270833333333334,0.11017838405036726],[0.065625,0.12067156348373557],[0.021875,0.13326337880377753],[0.01875,0.1353620146904512],[0.01875,0.1353620146904512],[0.01875,0.1353620146904512],[0.01875,0.1353620146904512],[0.01875,0.1353620146904512],[0.01875,0.1353620146904512],[0.01875,0.1353620146904512],[0.01875,0.1353620146904512],[0.01875,0.1353620146904512],[0.01875,0.1353620146904512],[0.01875,0.1353620146904512],[0.01875,0.1353620146904512],[0.01875,0.1353620146904512],[0.01875,0.1353620146904512],[0.01875,0.1353620146904512],[0.01875,0.1353620146904512],[0.01875,0.1353620146904512],[0.01875,0.1353620146904512],[0.01875,0.1353620146904512],[0.01875,0.1353620146904512],[0.01875,0.1353620146904512],[0.01875,0.1353620146904512],[0.01875,0.1353620146904512],[0.01875,0.1353620146904512],[0.01875,0.1353620146904512],[0.01875,0.1353620146904512],[0.01875,0.1353620146904512],[0.01875,0.1353620146904512],[0.01875,0.1353620146904512],[0.01875,0.1353620146904512],[0.01875,0.1353620146904512],[0.01875,0.1353620146904512],[0.01875,0.1353620146904512]]","[[0.16291666666666677,-0.1924449108079748],[0.16291666666666677,-0.1924449108079748],[0.16062500000000005,-0.1855194123819517],[0.16062500000000005,-0.1855194123819517],[0.17416666666666672,-0.23504721930745015],[0.17416666666666672,-0.23504721930745015],[0.190625,-0.2094438614900315],[0.190625,-0.2094438614900315],[0.1959374999999999,-0.20419727177334734],[0.1959374999999999,-0.20419727177334734],[0.19375,-0.21657922350472192],[0.19375,-0.21657922350472192],[0.19458333333333327,-0.18698845750262336],[0.19458333333333327,-0.18698845750262336],[0.1990624999999999,-0.1760755508919202],[0.1990624999999999,-0.1760755508919202],[0.19864583333333338,-0.15781741867785937],[0.19864583333333338,-0.15781741867785937],[0.19458333333333327,-0.1622245540398741],[0.19458333333333327,-0.1622245540398741],[0.19864583333333338,-0.18426023084994755],[0.19864583333333338,-0.18426023084994755],[0.21281249999999996,-0.1517313746065058],[0.21281249999999996,-0.1517313746065058],[0.19874999999999995,-0.07009443861490026],[0.19874999999999995,-0.07009443861490026],[0.19281249999999991,-0.04658971668415528],[0.19281249999999991,-0.04658971668415528],[0.18885416666666663,-0.018048268625393542],[0.18885416666666663,-0.018048268625393542],[0.17583333333333329,-0.015529905561385051],[0.17583333333333329,-0.015529905561385051],[0.1742708333333333,-0.006086044071353572],[0.1742708333333333,-0.006086044071353572],[0.14020833333333324,0.020776495278069206],[0.14020833333333324,0.020776495278069206],[0.11666666666666667,0.003357817418677907],[0.11666666666666667,0.003357817418677907],[0.10718750000000009,-0.015320041972717757],[0.10718750000000009,-0.015320041972717757],[0.09093749999999995,0.008394543546694649],[0.09093749999999995,0.008394543546694649],[0.09093749999999995,0.008394543546694649],[0.06333333333333328,-0.033788037775446006],[0.06333333333333328,-0.033788037775446006],[0.018333333333333358,0.0679958027282266],[0.018333333333333358,0.0679958027282266],[0.018333333333333358,0.0679958027282266],[0.001979166666666643,0.07722980062959067],[0.001979166666666643,0.07722980062959067],[-0.020729166666666642,0.10996852046169985],[-0.020729166666666642,0.10996852046169985],[-0.024583333333333356,0.1756558237145856],[-0.024583333333333356,0.1756558237145856],[-0.024687500000000046,0.18384050367261284],[-0.024687500000000046,0.18384050367261284],[-0.03791666666666664,0.22854144805876175],[-0.03791666666666664,0.22854144805876175],[-0.0014583333333333095,0.2065057712486883],[-0.0014583333333333095,0.2065057712486883],[0.0037500000000000237,0.25120671563483743],[0.0037500000000000237,0.25120671563483743],[0.005729166666666666,0.25267576075550885],[0.005729166666666666,0.25267576075550885],[0.03270833333333331,0.2564533053515216],[0.03270833333333331,0.2564533053515216],[0.06760416666666676,0.10975865687303243],[0.06760416666666676,0.10975865687303243]]","[[0.16291666666666677,-0.1924449108079748,0.00020000004768405688],[0.16291666666666677,-0.1924449108079748,0.03739999997615939],[0.16062500000000005,-0.1855194123819517,0.06999999999999318],[0.16062500000000005,-0.1855194123819517,0.09010000002383833],[0.17416666666666672,-0.23504721930745015,0.27310000002384527],[0.17416666666666672,-0.23504721930745015,0.30810000002384186],[0.190625,-0.2094438614900315,0.3411000000238431],[0.190625,-0.2094438614900315,0.41039999997614984],[0.1959374999999999,-0.20419727177334734,0.4457000000476796],[0.1959374999999999,-0.20419727177334734,0.48149999999999693],[0.19375,-0.21657922350472192,0.5351000000238457],[0.19375,-0.21657922350472192,0.6222000000476839],[0.19458333333333327,-0.18698845750262336,0.64220000004768],[0.19458333333333327,-0.18698845750262336,0.6552999999523195],[0.1990624999999999,-0.1760755508919202,0.6832000000476768],[0.1990624999999999,-0.1760755508919202,0.7297000000476856],[0.19864583333333338,-0.15781741867785937,0.7907000000476785],[0.19864583333333338,-0.15781741867785937,0.8127999999523183],[0.19458333333333327,-0.1622245540398741,0.8723999999761531],[0.19458333333333327,-0.1622245540398741,0.8917000000476776],[0.19864583333333338,-0.18426023084994755,1.0112000000476797],[0.19864583333333338,-0.18426023084994755,1.025399999976159],[0.21281249999999996,-0.1517313746065058,1.0836000000238357],[0.21281249999999996,-0.1517313746065058,1.1340000000000003],[0.19874999999999995,-0.07009443861490026,1.1451000000238452],[0.19874999999999995,-0.07009443861490026,1.1627000000476784],[0.19281249999999991,-0.04658971668415528,1.2388999999761552],[0.19281249999999991,-0.04658971668415528,1.2533999999761534],[0.18885416666666663,-0.018048268625393542,1.2742999999523192],[0.18885416666666663,-0.018048268625393542,1.320799999952314],[0.17583333333333329,-0.015529905561385051,1.3527999999523104],[0.17583333333333329,-0.015529905561385051,1.3667999999523204],[0.1742708333333333,-0.006086044071353572,1.4522999999523165],[0.1742708333333333,-0.006086044071353572,1.5259999999999962],[0.14020833333333324,0.020776495278069206,1.6255000000000024],[0.14020833333333324,0.020776495278069206,1.6683999999761596],[0.11666666666666667,0.003357817418677907,1.6809999999999974],[0.11666666666666667,0.003357817418677907,1.7241000000238387],[0.10718750000000009,-0.015320041972717757,1.7408999999761505],[0.10718750000000009,-0.015320041972717757,1.761499999999998],[0.09093749999999995,0.008394543546694649,1.8306000000238356],[0.09093749999999995,0.008394543546694649,1.9682999999523076],[0.09093749999999995,0.008394543546694649,1.9792999999523175],[0.06333333333333328,-0.033788037775446006,2.0421000000238365],[0.06333333333333328,-0.033788037775446006,2.0806000000238356],[0.018333333333333358,0.0679958027282266,2.1056000000238413],[0.018333333333333358,0.0679958027282266,2.2262999999523174],[0.018333333333333358,0.0679958027282266,2.228700000047681],[0.001979166666666643,0.07722980062959067,2.249899999976151],[0.001979166666666643,0.07722980062959067,2.274000000000001],[-0.020729166666666642,0.10996852046169985,2.3047000000476885],[-0.020729166666666642,0.10996852046169985,2.318399999976151],[-0.024583333333333356,0.1756558237145856,2.343999999999994],[-0.024583333333333356,0.1756558237145856,2.4025000000000034],[-0.024687500000000046,0.18384050367261284,2.4711000000238386],[-0.024687500000000046,0.18384050367261284,2.4937000000476814],[-0.03791666666666664,0.22854144805876175,2.5379999999999967],[-0.03791666666666664,0.22854144805876175,2.5831000000238333],[-0.0014583333333333095,0.2065057712486883,2.606600000023846],[-0.0014583333333333095,0.2065057712486883,2.6512000000476803],[0.0037500000000000237,0.25120671563483743,2.6766000000238392],[0.0037500000000000237,0.25120671563483743,2.711299999952317],[0.005729166666666666,0.25267576075550885,2.756899999976156],[0.005729166666666666,0.25267576075550885,2.7674999999999983],[0.03270833333333331,0.2564533053515216,2.783100000023836],[0.03270833333333331,0.2564533053515216,2.856499999999997],[0.06760416666666676,0.10975865687303243,2.9441000000238375],[0.06760416666666676,0.10975865687303243,2.9878999999761504]]","[0.00020000004768405688,0.03739999997615939,0.06999999999999318,0.09010000002383833,0.27310000002384527,0.30810000002384186,0.3411000000238431,0.41039999997614984,0.4457000000476796,0.48149999999999693,0.5351000000238457,0.6222000000476839,0.64220000004768,0.6552999999523195,0.6832000000476768,0.7297000000476856,0.7907000000476785,0.8127999999523183,0.8723999999761531,0.8917000000476776,1.0112000000476797,1.025399999976159,1.0836000000238357,1.1340000000000003,1.1451000000238452,1.1627000000476784,1.2388999999761552,1.2533999999761534,1.2742999999523192,1.320799999952314,1.3527999999523104,1.3667999999523204,1.4522999999523165,1.5259999999999962,1.6255000000000024,1.6683999999761596,1.6809999999999974,1.7241000000238387,1.7408999999761505,1.761499999999998,1.8306000000238356,1.9682999999523076,1.9792999999523175,2.0421000000238365,2.0806000000238356,2.1056000000238413,2.2262999999523174,2.228700000047681,2.249899999976151,2.274000000000001,2.3047000000476885,2.318399999976151,2.343999999999994,2.4025000000000034,2.4711000000238386,2.4937000000476814,2.5379999999999967,2.5831000000238333,2.606600000023846,2.6512000000476803,2.6766000000238392,2.711299999952317,2.756899999976156,2.7674999999999983,2.783100000023836,2.856499999999997,2.9441000000238375,2.9878999999761504]","[1733106857060,1733106857095,1733106857128,1733106857148,1733106857331,1733106857366,1733106857399,1733106857468,1733106857504,1733106857539,1733106857593,1733106857680,1733106857700,1733106857713,1733106857741,1733106857788,1733106857849,1733106857871,1733106857930,1733106857950,1733106858069,1733106858083,1733106858141,1733106858192,1733106858203,1733106858221,1733106858297,1733106858311,1733106858332,1733106858379,1733106858411,1733106858425,1733106858510,1733106858584,1733106858683,1733106858726,1733106858739,1733106858782,1733106858799,1733106858819,1733106858889,1733106859026,1733106859037,1733106859100,1733106859138,1733106859164,1733106859284,1733106859287,1733106859308,1733106859332,1733106859363,1733106859376,1733106859402,1733106859460,1733106859529,1733106859552,1733106859596,1733106859641,1733106859665,1733106859709,1733106859735,1733106859769,1733106859815,1733106859825,1733106859841,1733106859914,1733106860002,1733106860046]","[[1116.4,384.8],[1116.4,384.8],[1114.2,388.1],[1114.2,388.1],[1127.2,364.5],[1127.2,364.5],[1143,376.7],[1143,376.7],[1148.1,379.2],[1148.1,379.2],[1146,373.3],[1146,373.3],[1146.8,387.4],[1146.8,387.4],[1151.1,392.6],[1151.1,392.6],[1150.7,401.3],[1150.7,401.3],[1146.8,399.2],[1146.8,399.2],[1150.7,388.7],[1150.7,388.7],[1164.3,404.2],[1164.3,404.2],[1150.8,443.1],[1150.8,443.1],[1145.1,454.3],[1145.1,454.3],[1141.3,467.9],[1141.3,467.9],[1128.8,469.1],[1128.8,469.1],[1127.3,473.6],[1127.3,473.6],[1094.6,486.4],[1094.6,486.4],[1072,478.1],[1072,478.1],[1062.9,469.2],[1062.9,469.2],[1047.3,480.5],[1047.3,480.5],[1047.3,480.5],[1020.8,460.4],[1020.8,460.4],[977.6,508.9],[977.6,508.9],[977.6,508.9],[961.9,513.3],[961.9,513.3],[940.1,528.9],[940.1,528.9],[936.4,560.2],[936.4,560.2],[936.3,564.1],[936.3,564.1],[923.6,585.4],[923.6,585.4],[958.6,574.9],[958.6,574.9],[963.6,596.2],[963.6,596.2],[965.5,596.9],[965.5,596.9],[991.4,598.7],[991.4,598.7],[1024.9,528.8],[1024.9,528.8]]","[0,0.151169218]","[0.151169218,0.151169218]","[-0.151169218,0]","[-0.151169218,-0.151169218]","[0,0]","[0.151169218,0]","[0,-0.151169218]","[0.151169218,-0.151169218]",0,3,3,3,1,1,Smartphone,9,5,5,3
,,,,,,,,,,,,,,,,,,,33,001,2024-12-02_10h32.41.218,Attention_exp_legacy,2023.1.0,Win32,60.24096386,,,,,,,,,,,[0.13645833333333332],[0.16054564533053514],[1],[0],[0],[3.679100000023837],"[""Option2_label""]",Option2_label,5,4.7019,"[[0.01875,0.1353620146904512],[0.01875,0.1353620146904512],[0.01875,0.1353620146904512],[0.01875,0.1353620146904512],[0.01875,0.1353620146904512],[0.01875,0.1353620146904512],[0.01875,0.1353620146904512],[0.01875,0.1353620146904512],[0.01875,0.1353620146904512],[0.01875,0.1353620146904512],[0.01875,0.1353620146904512],[0.01875,0.1353620146904512],[0.01875,0.1353620146904512],[0.01875,0.1353620146904512],[0.01875,0.1353620146904512],[0.01875,0.1353620146904512],[0.01875,0.1353620146904512],[0.01875,0.1353620146904512],[0.01875,0.1353620146904512],[0.01875,0.1353620146904512],[0.01875,0.1353620146904512],[0.01875,0.1353620146904512],[0.01875,0.1353620146904512],[0.01875,0.1353620146904512],[0.01875,0.1353620146904512],[0.01875,0.1353620146904512],[0.01875,0.1353620146904512],[0.01875,0.1353620146904512],[0.01875,0.1353620146904512],[0.01875,0.1353620146904512],[0.01875,0.1353620146904512],[0.01875,0.1353620146904512],[0.01875,0.1353620146904512],[0.01875,0.1353620146904512],[0.01875,0.1353620146904512],[0.01875,0.1353620146904512],[0.01875,0.1353620146904512],[0.01875,0.1353620146904512],[0.01875,0.1353620146904512],[0.01875,0.1353620146904512],[0.01875,0.1353620146904512],[0.01875,0.1353620146904512],[0.01875,0.1353620146904512],[0.01875,0.1353620146904512],[0.01875,0.1353620146904512],[0.01875,0.1353620146904512],[0.01875,0.1353620146904512],[0.01875,0.1353620146904512],[0.01875,0.1353620146904512],[0.01875,0.1353620146904512],[0.01875,0.1353620146904512],[0.01875,0.1353620146904512],[0.01875,0.1353620146904512],[0.01875,0.1353620146904512],[0.020833333333333332,0.13746065057712487],[0.021875,0.13746065057712487],[0.023958333333333335,0.13746065057712487],[0.03125,0.13955928646379853],[0.03125,0.13955928646379853],[0.03333333333333333,0.13955928646379853],[0.03333333333333333,0.13955928646379853],[0.03333333333333333,0.13955928646379853],[0.03333333333333333,0.13955928646379853],[0.03333333333333333,0.13955928646379853],[0.03333333333333333,0.13955928646379853],[0.03333333333333333,0.13955928646379853],[0.03333333333333333,0.13955928646379853],[0.03333333333333333,0.13955928646379853],[0.03333333333333333,0.13955928646379853],[0.034375,0.13955928646379853],[0.03958333333333333,0.13955928646379853],[0.04895833333333333,0.13955928646379853],[0.052083333333333336,0.13955928646379853],[0.05520833333333333,0.13955928646379853],[0.0625,0.13955928646379853],[0.075,0.1416579223504722],[0.08125,0.14375655823714587],[0.08125,0.14375655823714587],[0.08125,0.14375655823714587],[0.10416666666666667,0.15005246589716684],[0.115625,0.15424973767051417],[0.12708333333333333,0.1584470094438615],[0.13229166666666667,0.16054564533053514],[0.134375,0.16054564533053514],[0.13541666666666666,0.16054564533053514],[0.13645833333333332,0.16054564533053514],[0.13645833333333332,0.16054564533053514],[0.13645833333333332,0.16054564533053514],[0.13645833333333332,0.16054564533053514],[0.13645833333333332,0.16054564533053514],[0.13645833333333332,0.16054564533053514],[0.1375,0.16054564533053514],[0.1375,0.1458551941238195],[0.1375,0.13955928646379853],[0.1375,0.1353620146904512],[0.1375,0.13326337880377753],[0.1375,0.13326337880377753],[0.1375,0.13326337880377753],[0.1375,0.13326337880377753],[0.1375,0.13326337880377753],[0.1375,0.13326337880377753],[0.1375,0.13326337880377753],[0.1375,0.13326337880377753],[0.1375,0.13326337880377753],[0.1375,0.13326337880377753],[0.1375,0.13326337880377753],[0.1375,0.13326337880377753],[0.13541666666666666,0.1311647429171039],[0.13541666666666666,0.1311647429171039],[0.134375,0.1311647429171039],[0.134375,0.1311647429171039],[0.134375,0.1311647429171039],[0.134375,0.1311647429171039]]","[[0.011041666666666691,-0.0339979013641133],[0.011041666666666691,-0.0339979013641133],[0.025833333333333285,-0.00797481636935994],[0.025833333333333285,-0.00797481636935994],[0.043020833333333286,0.015110178384050344],[0.043020833333333286,0.015110178384050344],[0.05531250000000002,0.058971668415529956],[0.05531250000000002,0.058971668415529956],[0.10593750000000005,0.07534102833158442],[0.10593750000000005,0.07534102833158442],[0.103125,0.07366211962224559],[0.103125,0.07366211962224559],[0.09302083333333329,0.05582371458551946],[0.09302083333333329,0.05582371458551946],[0.1099999999999999,0.05267576075550897],[0.1099999999999999,0.05267576075550897],[0.1243750000000001,0.07618048268625384],[0.1243750000000001,0.07618048268625384],[0.14072916666666657,0.09527806925498421],[0.14072916666666657,0.09527806925498421],[0.14677083333333343,0.06526757607555093],[0.14677083333333343,0.06526757607555093],[0.14364583333333342,0.06023084994753408],[0.14364583333333342,0.06023084994753408],[0.12489583333333343,0.05267576075550897],[0.12489583333333343,0.05267576075550897],[0.12645833333333342,0.05645330535152146],[0.12645833333333342,0.05645330535152146],[0.1178124999999999,0.07471143756558242],[0.1178124999999999,0.07471143756558242],[0.10718750000000009,0.07030430220356768],[0.10718750000000009,0.07030430220356768],[0.11395833333333343,0.09590766002098645],[0.11395833333333343,0.09590766002098645],[0.1224999999999999,0.05414480587618051],[0.1224999999999999,0.05414480587618051],[0.12822916666666656,0.001049317943336831],[0.12822916666666656,0.001049317943336831],[0.12958333333333344,0.029171038824763854],[0.12958333333333344,0.029171038824763854],[0.12999999999999995,0.01594963273871988],[0.12999999999999995,0.01594963273871988],[0.12333333333333343,0.004616998950682033],[0.12333333333333343,0.004616998950682033],[0.13875000000000004,0.003987408184679911],[0.13875000000000004,0.003987408184679911],[0.1428124999999999,-0.017628541448058713],[0.1428124999999999,-0.017628541448058713],[0.1224999999999999,-0.020146904512067205],[0.1224999999999999,-0.020146904512067205],[0.12208333333333338,0.020566631689401912],[0.12208333333333338,0.020566631689401912],[0.1009375000000001,0.027701993704092317],[0.1009375000000001,0.027701993704092317],[0.065625,0.07345225603357818],[0.065625,0.07345225603357818],[0.040625,0.06862539349422873],[0.040625,0.06862539349422873],[0.051145833333333356,0.020776495278069206],[0.051145833333333356,0.020776495278069206],[0.040625,0.038195173137460625],[0.040625,0.038195173137460625],[0.044166666666666646,0.03798530954879333],[0.044166666666666646,0.03798530954879333],[0.04354166666666662,0.019727177334732376],[0.04354166666666662,0.019727177334732376],[0.05625,0.023084994753410283],[0.05625,0.023084994753410283],[0.057083333333333285,-0.01636935991605459],[0.057083333333333285,-0.01636935991605459],[0.0740624999999999,-0.024344176285414527],[0.0740624999999999,-0.024344176285414527],[0.09270833333333334,-0.017628541448058713],[0.09270833333333334,-0.017628541448058713],[0.11031250000000009,-0.06652675760755507],[0.11031250000000009,-0.06652675760755507],[0.11843750000000004,-0.04868835257082894],[0.11843750000000004,-0.04868835257082894],[0.08812499999999991,-0.061070304302203615],[0.08812499999999991,-0.061070304302203615],[0.0709374999999999,-0.036096537250786966],[0.0709374999999999,-0.036096537250786966],[0.058333333333333334,-0.05960125918153196],[0.058333333333333334,-0.05960125918153196],[0.04906250000000002,-0.05792235047219312],[0.04906250000000002,-0.05792235047219312],[0.04906250000000002,-0.05792235047219312],[0.04906250000000002,-0.05792235047219312],[0.02687499999999995,-0.0780692549842602],[0.02687499999999995,-0.0780692549842602],[0.05302083333333331,-0.0977964323189927],[0.05302083333333331,-0.0977964323189927],[0.05437500000000005,-0.15194123819517308],[0.05437500000000005,-0.15194123819517308],[0.06749999999999995,-0.17061909758656876],[0.06749999999999995,-0.17061909758656876],[0.07385416666666676,-0.13074501573976918],[0.07385416666666676,-0.13074501573976918],[0.07010416666666662,-0.10870933892969573],[0.07010416666666662,-0.10870933892969573],[0.09270833333333334,-0.09066107030430218],[0.09270833333333334,-0.09066107030430218],[0.10062499999999991,-0.1376705141657923],[0.10062499999999991,-0.1376705141657923],[0.12260416666666671,-0.09695697796432316],[0.12260416666666671,-0.09695697796432316],[0.1365624999999999,-0.09108079748163689],[0.1365624999999999,-0.09108079748163689],[0.14583333333333334,-0.10283315844700944],[0.14583333333333334,-0.10283315844700944],[0.14729166666666677,-0.10912906610703044],[0.14729166666666677,-0.10912906610703044],[0.14135416666666673,-0.13410283315844695]]","[[0.011041666666666691,-0.0339979013641133,0.00030000007153319075],[0.011041666666666691,-0.0339979013641133,0.10600000000000875],[0.025833333333333285,-0.00797481636935994,0.1823999999761554],[0.025833333333333285,-0.00797481636935994,0.2196000000238456],[0.043020833333333286,0.015110178384050344,0.24910000002384436],[0.043020833333333286,0.015110178384050344,0.2653999999761538],[0.05531250000000002,0.058971668415529956,0.30800000000000693],[0.05531250000000002,0.058971668415529956,0.32049999999999557],[0.10593750000000005,0.07534102833158442,0.4333000000715259],[0.10593750000000005,0.07534102833158442,0.4922000000476885],[0.103125,0.07366211962224559,0.5386000000238482],[0.103125,0.07366211962224559,0.5747000000476845],[0.09302083333333329,0.05582371458551946,0.6188000000715306],[0.09302083333333329,0.05582371458551946,0.6350000000000051],[0.1099999999999999,0.05267576075550897,0.7517000000476912],[0.1099999999999999,0.05267576075550897,0.7638000000715266],[0.1243750000000001,0.07618048268625384,0.8036000000238488],[0.1243750000000001,0.07618048268625384,0.8174999999999955],[0.14072916666666657,0.09527806925498421,0.8433000000715225],[0.14072916666666657,0.09527806925498421,0.8751000000238491],[0.14677083333333343,0.06526757607555093,0.9277000000476789],[0.14677083333333343,0.06526757607555093,0.9838000000715255],[0.14364583333333342,0.06023084994753408,1.044100000023846],[0.14364583333333342,0.06023084994753408,1.056600000023849],[0.12489583333333343,0.05267576075550897,1.092300000071532],[0.12489583333333343,0.05267576075550897,1.1140000000000043],[0.12645833333333342,0.05645330535152146,1.1513000000715294],[0.12645833333333342,0.05645330535152146,1.1653999999761595],[0.1178124999999999,0.07471143756558242,1.1897000000476794],[0.1178124999999999,0.07471143756558242,1.308300000071526],[0.10718750000000009,0.07030430220356768,1.3217000000476844],[0.10718750000000009,0.07030430220356768,1.3347000000476896],[0.11395833333333343,0.09590766002098645,1.366500000000002],[0.11395833333333343,0.09590766002098645,1.4137000000476831],[0.1224999999999999,0.05414480587618051,1.4452000000476914],[0.1224999999999999,0.05414480587618051,1.4698000000715297],[0.12822916666666656,0.001049317943336831,1.4869999999999948],[0.12822916666666656,0.001049317943336831,1.5027000000476818],[0.12958333333333344,0.029171038824763854,1.5163000000715243],[0.12958333333333344,0.029171038824763854,1.5816000000238404],[0.12999999999999995,0.01594963273871988,1.6113999999761575],[0.12999999999999995,0.01594963273871988,1.6581000000238504],[0.12333333333333343,0.004616998950682033,1.7017000000476799],[0.12333333333333343,0.004616998950682033,1.7406000000238464],[0.13875000000000004,0.003987408184679911,1.7778000000715224],[0.13875000000000004,0.003987408184679911,1.834100000023838],[0.1428124999999999,-0.017628541448058713,1.8463000000715226],[0.1428124999999999,-0.017628541448058713,1.9078999999761663],[0.1224999999999999,-0.020146904512067205,1.9367000000476793],[0.1224999999999999,-0.020146904512067205,1.9510000000000076],[0.12208333333333338,0.020566631689401912,1.9763000000715323],[0.12208333333333338,0.020566631689401912,2.045500000000004],[0.1009375000000001,0.027701993704092317,2.073999999999998],[0.1009375000000001,0.027701993704092317,2.1688000000715277],[0.065625,0.07345225603357818,2.2198000000715297],[0.065625,0.07345225603357818,2.234100000023844],[0.040625,0.06862539349422873,2.2991000000238415],[0.040625,0.06862539349422873,2.3553999999761572],[0.051145833333333356,0.020776495278069206,2.38510000002384],[0.051145833333333356,0.020776495278069206,2.485700000047686],[0.040625,0.038195173137460625,2.5132000000476893],[0.040625,0.038195173137460625,2.576999999999998],[0.044166666666666646,0.03798530954879333,2.616700000047686],[0.044166666666666646,0.03798530954879333,2.6299999999999955],[0.04354166666666662,0.019727177334732376,2.653600000023843],[0.04354166666666662,0.019727177334732376,2.7403999999761623],[0.05625,0.023084994753410283,2.7778000000715224],[0.05625,0.023084994753410283,2.850999999999999],[0.057083333333333285,-0.01636935991605459,2.8957000000476825],[0.057083333333333285,-0.01636935991605459,2.927499999999995],[0.0740624999999999,-0.024344176285414527,2.974200000047688],[0.0740624999999999,-0.024344176285414527,3.0962000000476877],[0.09270833333333334,-0.017628541448058713,3.106600000023846],[0.09270833333333334,-0.017628541448058713,3.122],[0.11031250000000009,-0.06652675760755507,3.182200000047686],[0.11031250000000009,-0.06652675760755507,3.2758999999761613],[0.11843750000000004,-0.04868835257082894,3.3018999999761576],[0.11843750000000004,-0.04868835257082894,3.3562000000476786],[0.08812499999999991,-0.061070304302203615,3.3843000000715335],[0.08812499999999991,-0.061070304302203615,3.4155000000000086],[0.0709374999999999,-0.036096537250786966,3.491800000071521],[0.0709374999999999,-0.036096537250786966,3.535600000023848],[0.058333333333333334,-0.05960125918153196,3.5546000000238394],[0.058333333333333334,-0.05960125918153196,3.572200000047687],[0.04906250000000002,-0.05792235047219312,3.6471000000238405],[0.04906250000000002,-0.05792235047219312,3.680600000023844],[0.04906250000000002,-0.05792235047219312,3.687300000071531],[0.04906250000000002,-0.05792235047219312,3.790999999999997],[0.02687499999999995,-0.0780692549842602,3.808000000000007],[0.02687499999999995,-0.0780692549842602,3.866800000071521],[0.05302083333333331,-0.0977964323189927,3.887899999976156],[0.05302083333333331,-0.0977964323189927,3.9526000000238497],[0.05437500000000005,-0.15194123819517308,3.9748999999761594],[0.05437500000000005,-0.15194123819517308,4.017399999976163],[0.06749999999999995,-0.17061909758656876,4.0333999999761545],[0.06749999999999995,-0.17061909758656876,4.107800000071521],[0.07385416666666676,-0.13074501573976918,4.123000000000005],[0.07385416666666676,-0.13074501573976918,4.134399999976154],[0.07010416666666662,-0.10870933892969573,4.176000000000002],[0.07010416666666662,-0.10870933892969573,4.209000000000003],[0.09270833333333334,-0.09066107030430218,4.228399999976162],[0.09270833333333334,-0.09066107030430218,4.301700000047688],[0.10062499999999991,-0.1376705141657923,4.326600000023845],[0.10062499999999991,-0.1376705141657923,4.348700000047685],[0.12260416666666671,-0.09695697796432316,4.365300000071528],[0.12260416666666671,-0.09695697796432316,4.4140000000000015],[0.1365624999999999,-0.09108079748163689,4.448800000071529],[0.1365624999999999,-0.09108079748163689,4.551500000000004],[0.14583333333333334,-0.10283315844700944,4.5663000000715215],[0.14583333333333334,-0.10283315844700944,4.644600000023843],[0.14729166666666677,-0.10912906610703044,4.654899999976166],[0.14729166666666677,-0.10912906610703044,4.67230000007153],[0.14135416666666673,-0.13410283315844695,4.701899999976163]]","[0.00030000007153319075,0.10600000000000875,0.1823999999761554,0.2196000000238456,0.24910000002384436,0.2653999999761538,0.30800000000000693,0.32049999999999557,0.4333000000715259,0.4922000000476885,0.5386000000238482,0.5747000000476845,0.6188000000715306,0.6350000000000051,0.7517000000476912,0.7638000000715266,0.8036000000238488,0.8174999999999955,0.8433000000715225,0.8751000000238491,0.9277000000476789,0.9838000000715255,1.044100000023846,1.056600000023849,1.092300000071532,1.1140000000000043,1.1513000000715294,1.1653999999761595,1.1897000000476794,1.308300000071526,1.3217000000476844,1.3347000000476896,1.366500000000002,1.4137000000476831,1.4452000000476914,1.4698000000715297,1.4869999999999948,1.5027000000476818,1.5163000000715243,1.5816000000238404,1.6113999999761575,1.6581000000238504,1.7017000000476799,1.7406000000238464,1.7778000000715224,1.834100000023838,1.8463000000715226,1.9078999999761663,1.9367000000476793,1.9510000000000076,1.9763000000715323,2.045500000000004,2.073999999999998,2.1688000000715277,2.2198000000715297,2.234100000023844,2.2991000000238415,2.3553999999761572,2.38510000002384,2.485700000047686,2.5132000000476893,2.576999999999998,2.616700000047686,2.6299999999999955,2.653600000023843,2.7403999999761623,2.7778000000715224,2.850999999999999,2.8957000000476825,2.927499999999995,2.974200000047688,3.0962000000476877,3.106600000023846,3.122,3.182200000047686,3.2758999999761613,3.3018999999761576,3.3562000000476786,3.3843000000715335,3.4155000000000086,3.491800000071521,3.535600000023848,3.5546000000238394,3.572200000047687,3.6471000000238405,3.680600000023844,3.687300000071531,3.790999999999997,3.808000000000007,3.866800000071521,3.887899999976156,3.9526000000238497,3.9748999999761594,4.017399999976163,4.0333999999761545,4.107800000071521,4.123000000000005,4.134399999976154,4.176000000000002,4.209000000000003,4.228399999976162,4.301700000047688,4.326600000023845,4.348700000047685,4.365300000071528,4.4140000000000015,4.448800000071529,4.551500000000004,4.5663000000715215,4.644600000023843,4.654899999976166,4.67230000007153,4.701899999976163]","[1733106861084,1733106861188,1733106861265,1733106861302,1733106861331,1733106861348,1733106861390,1733106861403,1733106861516,1733106861575,1733106861621,1733106861657,1733106861701,1733106861717,1733106861834,1733106861846,1733106861886,1733106861900,1733106861926,1733106861957,1733106862010,1733106862066,1733106862126,1733106862139,1733106862175,1733106862196,1733106862234,1733106862248,1733106862272,1733106862391,1733106862404,1733106862417,1733106862449,1733106862496,1733106862528,1733106862552,1733106862569,1733106862585,1733106862599,1733106862664,1733106862694,1733106862740,1733106862784,1733106862823,1733106862860,1733106862917,1733106862929,1733106862990,1733106863019,1733106863033,1733106863059,1733106863128,1733106863156,1733106863251,1733106863302,1733106863316,1733106863381,1733106863438,1733106863467,1733106863568,1733106863596,1733106863659,1733106863699,1733106863712,1733106863736,1733106863823,1733106863860,1733106863933,1733106863978,1733106864010,1733106864057,1733106864179,1733106864189,1733106864204,1733106864265,1733106864358,1733106864384,1733106864439,1733106864467,1733106864498,1733106864574,1733106864618,1733106864637,1733106864655,1733106864730,1733106864763,1733106864770,1733106864873,1733106864890,1733106864949,1733106864970,1733106865035,1733106865057,1733106865100,1733106865116,1733106865190,1733106865205,1733106865217,1733106865258,1733106865291,1733106865311,1733106865384,1733106865409,1733106865431,1733106865448,1733106865496,1733106865531,1733106865634,1733106865649,1733106865727,1733106865737,1733106865755,1733106865784]","[[970.6,460.3],[970.6,460.3],[984.8,472.7],[984.8,472.7],[1001.3,483.7],[1001.3,483.7],[1013.1,504.6],[1013.1,504.6],[1061.7,512.4],[1061.7,512.4],[1059,511.6],[1059,511.6],[1049.3,503.1],[1049.3,503.1],[1065.6,501.6],[1065.6,501.6],[1079.4,512.8],[1079.4,512.8],[1095.1,521.9],[1095.1,521.9],[1100.9,507.6],[1100.9,507.6],[1097.9,505.2],[1097.9,505.2],[1079.9,501.6],[1079.9,501.6],[1081.4,503.4],[1081.4,503.4],[1073.1,512.1],[1073.1,512.1],[1062.9,510],[1062.9,510],[1069.4,522.2],[1069.4,522.2],[1077.6,502.3],[1077.6,502.3],[1083.1,477],[1083.1,477],[1084.4,490.4],[1084.4,490.4],[1084.8,484.1],[1084.8,484.1],[1078.4,478.7],[1078.4,478.7],[1093.2,478.4],[1093.2,478.4],[1097.1,468.1],[1097.1,468.1],[1077.6,466.9],[1077.6,466.9],[1077.2,486.3],[1077.2,486.3],[1056.9,489.7],[1056.9,489.7],[1023,511.5],[1023,511.5],[999,509.2],[999,509.2],[1009.1,486.4],[1009.1,486.4],[999,494.7],[999,494.7],[1002.4,494.6],[1002.4,494.6],[1001.8,485.9],[1001.8,485.9],[1014,487.5],[1014,487.5],[1014.8,468.7],[1014.8,468.7],[1031.1,464.9],[1031.1,464.9],[1049,468.1],[1049,468.1],[1065.9,444.8],[1065.9,444.8],[1073.7,453.3],[1073.7,453.3],[1044.6,447.4],[1044.6,447.4],[1028.1,459.3],[1028.1,459.3],[1016,448.1],[1016,448.1],[1007.1,448.9],[1007.1,448.9],[1007.1,448.9],[1007.1,448.9],[985.8,439.3],[985.8,439.3],[1010.9,429.9],[1010.9,429.9],[1012.2,404.1],[1012.2,404.1],[1024.8,395.2],[1024.8,395.2],[1030.9,414.2],[1030.9,414.2],[1027.3,424.7],[1027.3,424.7],[1049,433.3],[1049,433.3],[1056.6,410.9],[1056.6,410.9],[1077.7,430.3],[1077.7,430.3],[1091.1,433.1],[1091.1,433.1],[1100,427.5],[1100,427.5],[1101.4,424.5],[1101.4,424.5],[1095.7,412.6]]","[0,0.151169218]","[0.151169218,0.151169218]","[-0.151169218,-0.151169218]","[-0.151169218,0]","[0,-0.151169218]","[0.151169218,-0.151169218]","[0,0]","[0.151169218,0]",0,4,4,4,1,1,Smartphone,5,3,13,9
