inst1_resp.keys,inst1_resp.rt,calibrationMouse.x,calibrationMouse.y,calibrationMouse.leftButton,calibrationMouse.midButton,calibrationMouse.rightButton,calibrationClick.x,calibrationClick.y,calibrationClick.leftButton,calibrationClick.midButton,calibrationClick.rightButton,calibrationClick.clicked_name,trialsc.thisRepN,trialsc.thisTrialN,trialsc.thisN,trialsc.thisIndex,trialsc.ran,calibration_x,calibration_y,participant,session,date,expName,psychopyVersion,OS,frameRate,ScreenRes_pixels,Camera_pixels,mouse_2.x,mouse_2.y,mouse_2.leftButton,mouse_2.midButton,mouse_2.rightButton,mouse_2.time,mouse_2.clicked_name,mouse.x,mouse.y,mouse.leftButton,mouse.midButton,mouse.rightButton,mouse.time,mouse.clicked_name,Choice,Trial,TrialDuration,MOUSE_GAZE,ET_GAZE,ET_GAZE_x_T,time,unixTime,ET_GAZE_NF,Loc_Option1_label,Loc_Option2_label,Loc_Cost_label,Loc_Qual_label,Loc_Option1_cost,Loc_Option2_cost,Loc_Option1_quality,Loc_Option2_quality,trials.thisRepN,trials.thisTrialN,trials.thisN,trials.thisIndex,trials.ran,Block,Device,cost1,qual1,cost2,qual2
space,2.217,0.142708333,0.231481481,1,0,0,0.335416667,0.337037037,1,0,0,calibration_square,0,0,0,17,1,0.33,0.33,25,001,2024-11-28_12h32.15.483,Attention_exp_legacy,2023.1.0,Win32,59.88023952,,,,,,,,,,,,,,,,,,,,,,,,,,,,,,,,,,,,,,,,,,,,
,,,,,,,-0.338541667,0.338888889,1,0,0,calibration_square,0,1,1,7,1,-0.33,0.33,25,001,2024-11-28_12h32.15.483,Attention_exp_legacy,2023.1.0,Win32,59.88023952,,,,,,,,,,,,,,,,,,,,,,,,,,,,,,,,,,,,,,,,,,,,
,,,,,,,-0.671875,0.005555556,1,0,0,calibration_square,0,2,2,2,1,-0.67,0,25,001,2024-11-28_12h32.15.483,Attention_exp_legacy,2023.1.0,Win32,59.88023952,,,,,,,,,,,,,,,,,,,,,,,,,,,,,,,,,,,,,,,,,,,,
,,,,,,,-0.003125,-0.007407407,1,0,0,calibration_square,0,3,3,11,1,0,0,25,001,2024-11-28_12h32.15.483,Attention_exp_legacy,2023.1.0,Win32,59.88023952,,,,,,,,,,,,,,,,,,,,,,,,,,,,,,,,,,,,,,,,,,,,
,,,,,,,0.326041667,-0.32962963,1,0,0,calibration_square,0,4,4,15,1,0.33,-0.33,25,001,2024-11-28_12h32.15.483,Attention_exp_legacy,2023.1.0,Win32,59.88023952,,,,,,,,,,,,,,,,,,,,,,,,,,,,,,,,,,,,,,,,,,,,
,,,,,,,-0.008333333,-0.675925926,1,0,0,calibration_square,0,5,5,9,1,0,-0.67,25,001,2024-11-28_12h32.15.483,Attention_exp_legacy,2023.1.0,Win32,59.88023952,,,,,,,,,,,,,,,,,,,,,,,,,,,,,,,,,,,,,,,,,,,,
,,,,,,,0.323958333,0.685185185,1,0,0,,0,6,6,18,1,0.33,0.67,25,001,2024-11-28_12h32.15.483,Attention_exp_legacy,2023.1.0,Win32,59.88023952,,,,,,,,,,,,,,,,,,,,,,,,,,,,,,,,,,,,,,,,,,,,
,,,,,,,-0.667708333,-0.674074074,1,0,0,calibration_square,0,7,7,0,1,-0.67,-0.67,25,001,2024-11-28_12h32.15.483,Attention_exp_legacy,2023.1.0,Win32,59.88023952,,,,,,,,,,,,,,,,,,,,,,,,,,,,,,,,,,,,,,,,,,,,
,,,,,,,-0.327083333,-0.675925926,1,0,0,calibration_square,0,8,8,4,1,-0.33,-0.67,25,001,2024-11-28_12h32.15.483,Attention_exp_legacy,2023.1.0,Win32,59.88023952,,,,,,,,,,,,,,,,,,,,,,,,,,,,,,,,,,,,,,,,,,,,
,,,,,,,0.677083333,-0.672222222,1,0,0,calibration_square,0,9,9,20,1,0.67,-0.67,25,001,2024-11-28_12h32.15.483,Attention_exp_legacy,2023.1.0,Win32,59.88023952,,,,,,,,,,,,,,,,,,,,,,,,,,,,,,,,,,,,,,,,,,,,
,,,,,,,-0.327083333,0,1,0,0,calibration_square,0,10,10,6,1,-0.33,0,25,001,2024-11-28_12h32.15.483,Attention_exp_legacy,2023.1.0,Win32,59.88023952,,,,,,,,,,,,,,,,,,,,,,,,,,,,,,,,,,,,,,,,,,,,
,,,,,,,0.003125,0.675925926,1,0,0,calibration_square,0,11,11,13,1,0,0.67,25,001,2024-11-28_12h32.15.483,Attention_exp_legacy,2023.1.0,Win32,59.88023952,,,,,,,,,,,,,,,,,,,,,,,,,,,,,,,,,,,,,,,,,,,,
,,,,,,,-0.001041667,0.333333333,1,0,0,calibration_square,0,12,12,12,1,0,0.33,25,001,2024-11-28_12h32.15.483,Attention_exp_legacy,2023.1.0,Win32,59.88023952,,,,,,,,,,,,,,,,,,,,,,,,,,,,,,,,,,,,,,,,,,,,
,,,,,,,0.670833333,0.668518519,1,0,0,calibration_square,0,13,13,19,1,0.67,0.67,25,001,2024-11-28_12h32.15.483,Attention_exp_legacy,2023.1.0,Win32,59.88023952,,,,,,,,,,,,,,,,,,,,,,,,,,,,,,,,,,,,,,,,,,,,
,,,,,,,-0.673958333,0.333333333,1,0,0,calibration_square,0,14,14,3,1,-0.67,0.33,25,001,2024-11-28_12h32.15.483,Attention_exp_legacy,2023.1.0,Win32,59.88023952,,,,,,,,,,,,,,,,,,,,,,,,,,,,,,,,,,,,,,,,,,,,
,,,,,,,-0.673958333,-0.32962963,1,0,0,calibration_square,0,15,15,1,1,-0.67,-0.33,25,001,2024-11-28_12h32.15.483,Attention_exp_legacy,2023.1.0,Win32,59.88023952,,,,,,,,,,,,,,,,,,,,,,,,,,,,,,,,,,,,,,,,,,,,
,,,,,,,0.321875,-0.672222222,1,0,0,calibration_square,0,16,16,14,1,0.33,-0.67,25,001,2024-11-28_12h32.15.483,Attention_exp_legacy,2023.1.0,Win32,59.88023952,,,,,,,,,,,,,,,,,,,,,,,,,,,,,,,,,,,,,,,,,,,,
,,,,,,,-0.328125,-0.325925926,1,0,0,calibration_square,0,17,17,5,1,-0.33,-0.33,25,001,2024-11-28_12h32.15.483,Attention_exp_legacy,2023.1.0,Win32,59.88023952,,,,,,,,,,,,,,,,,,,,,,,,,,,,,,,,,,,,,,,,,,,,
,,,,,,,0,-0.318518519,1,0,0,,0,18,18,10,1,0,-0.33,25,001,2024-11-28_12h32.15.483,Attention_exp_legacy,2023.1.0,Win32,59.88023952,,,,,,,,,,,,,,,,,,,,,,,,,,,,,,,,,,,,,,,,,,,,
,,,,,,,0.334375,-0.001851852,1,0,0,calibration_square,0,19,19,16,1,0.33,0,25,001,2024-11-28_12h32.15.483,Attention_exp_legacy,2023.1.0,Win32,59.88023952,,,,,,,,,,,,,,,,,,,,,,,,,,,,,,,,,,,,,,,,,,,,
,,,,,,,-0.328125,0.674074074,1,0,0,calibration_square,0,20,20,8,1,-0.33,0.67,25,001,2024-11-28_12h32.15.483,Attention_exp_legacy,2023.1.0,Win32,59.88023952,,,,,,,,,,,,,,,,,,,,,,,,,,,,,,,,,,,,,,,,,,,,
,,,,,,,,,,,,,,,,,,,,25,001,2024-11-28_12h32.15.483,Attention_exp_legacy,2023.1.0,Win32,59.88023952,"[1920,1080]","[640,480]",[-0.0010416666666666667],[-0.48518518518518516],[1],[0],[0],[4.629200000017882],"[""StartButton""]",[0.15833333333333333],[0.16296296296296298],[1],[0],[0],[4.363699999988079],"[""Option2_label""]",Option2_label,1,5.3719,"[[0.008333333333333333,0.2222222222222222],[0.008333333333333333,0.2222222222222222],[0.008333333333333333,0.2222222222222222],[0.008333333333333333,0.2222222222222222],[0.008333333333333333,0.2222222222222222],[0.008333333333333333,0.2222222222222222],[0.008333333333333333,0.2222222222222222],[0.008333333333333333,0.2222222222222222],[0.008333333333333333,0.2222222222222222],[0.008333333333333333,0.2222222222222222],[0.008333333333333333,0.2222222222222222],[0.008333333333333333,0.2222222222222222],[0.008333333333333333,0.2222222222222222],[0.008333333333333333,0.2222222222222222],[0.008333333333333333,0.2222222222222222],[0.008333333333333333,0.2222222222222222],[0.008333333333333333,0.2222222222222222],[0.008333333333333333,0.2222222222222222],[0.008333333333333333,0.2222222222222222],[0.008333333333333333,0.2222222222222222],[0.008333333333333333,0.2222222222222222],[0.008333333333333333,0.2222222222222222],[0.008333333333333333,0.2222222222222222],[0.008333333333333333,0.2222222222222222],[0.008333333333333333,0.2222222222222222],[0.008333333333333333,0.2222222222222222],[0.008333333333333333,0.2222222222222222],[0.008333333333333333,0.2222222222222222],[0.008333333333333333,0.21851851851851853],[0.008333333333333333,0.21666666666666667],[0.007291666666666667,0.21481481481481482],[0.007291666666666667,0.2111111111111111],[0.005208333333333333,0.2074074074074074],[0.004166666666666667,0.2037037037037037],[0.0010416666666666667,0.19444444444444445],[0,0.18518518518518517],[-0.007291666666666667,0.16296296296296298],[-0.0125,0.1425925925925926],[-0.014583333333333334,0.13148148148148148],[-0.021875,0.11296296296296296],[-0.034375,0.07592592592592592],[-0.04479166666666667,0.05925925925925926],[-0.05625,0.037037037037037035],[-0.065625,0.025925925925925925],[-0.07291666666666667,0.014814814814814815],[-0.08125,0.001851851851851852],[-0.090625,-0.005555555555555556],[-0.096875,-0.012962962962962963],[-0.10416666666666667,-0.018518518518518517],[-0.11041666666666666,-0.020370370370370372],[-0.1125,-0.020370370370370372],[-0.11979166666666667,-0.024074074074074074],[-0.12291666666666666,-0.024074074074074074],[-0.125,-0.024074074074074074],[-0.12708333333333333,-0.024074074074074074],[-0.134375,-0.024074074074074074],[-0.14479166666666668,-0.024074074074074074],[-0.15625,-0.024074074074074074],[-0.16875,-0.016666666666666666],[-0.16979166666666667,-0.016666666666666666],[-0.17083333333333334,-0.016666666666666666],[-0.17083333333333334,-0.016666666666666666],[-0.17083333333333334,-0.016666666666666666],[-0.17083333333333334,-0.016666666666666666],[-0.17083333333333334,-0.016666666666666666],[-0.17083333333333334,-0.016666666666666666],[-0.17083333333333334,-0.016666666666666666],[-0.17083333333333334,-0.016666666666666666],[-0.17083333333333334,-0.016666666666666666],[-0.17083333333333334,-0.016666666666666666],[-0.17083333333333334,-0.016666666666666666],[-0.17083333333333334,-0.016666666666666666],[-0.171875,-0.011111111111111112],[-0.16875,-0.005555555555555556],[-0.15520833333333334,0],[-0.134375,0.009259259259259259],[-0.10416666666666667,0.014814814814814815],[-0.065625,0.016666666666666666],[-0.008333333333333333,0.020370370370370372],[0.03854166666666667,0.027777777777777776],[0.071875,0.03148148148148148],[0.09895833333333333,0.03888888888888889],[0.11666666666666667,0.03888888888888889],[0.11875,0.03888888888888889],[0.11875,0.03888888888888889],[0.11875,0.03888888888888889],[0.11875,0.03888888888888889],[0.11875,0.03888888888888889],[0.11979166666666667,0.03888888888888889],[0.11979166666666667,0.03888888888888889],[0.11979166666666667,0.03888888888888889],[0.11979166666666667,0.03888888888888889],[0.11979166666666667,0.03888888888888889],[0.11979166666666667,0.03888888888888889],[0.11979166666666667,0.03888888888888889],[0.11979166666666667,0.03888888888888889],[0.11979166666666667,0.03888888888888889],[0.11979166666666667,0.03888888888888889],[0.11979166666666667,0.03888888888888889],[0.11979166666666667,0.03888888888888889],[0.11979166666666667,0.03888888888888889],[0.11979166666666667,0.03888888888888889],[0.11979166666666667,0.03888888888888889],[0.12083333333333333,0.04259259259259259],[0.12083333333333333,0.053703703703703705],[0.12083333333333333,0.06666666666666667],[0.11979166666666667,0.09074074074074075],[0.11458333333333333,0.10185185185185185],[0.10520833333333333,0.11666666666666667],[0.09270833333333334,0.12962962962962962],[0.07916666666666666,0.13703703703703704],[0.06458333333333334,0.1425925925925926],[0.05625,0.14629629629629629],[0.053125,0.14814814814814814],[0.05,0.14814814814814814],[0.04583333333333333,0.14814814814814814],[0.04375,0.14814814814814814],[0.03958333333333333,0.14814814814814814],[0.03333333333333333,0.14814814814814814],[0.03229166666666667,0.14814814814814814],[0.030208333333333334,0.14814814814814814],[0.026041666666666668,0.1425925925925926],[0.021875,0.14074074074074075],[0.020833333333333332,0.1388888888888889],[0.017708333333333333,0.13703703703703704],[0.016666666666666666,0.13333333333333333],[0.014583333333333334,0.13148148148148148],[0.011458333333333333,0.12777777777777777],[0.008333333333333333,0.12222222222222222],[0.005208333333333333,0.11666666666666667],[0,0.10740740740740741],[-0.00625,0.08518518518518518],[-0.01875,0.022222222222222223],[-0.026041666666666668,-0.027777777777777776],[-0.029166666666666667,-0.07037037037037037],[-0.029166666666666667,-0.10740740740740741],[-0.027083333333333334,-0.13333333333333333],[-0.026041666666666668,-0.14629629629629629],[-0.022916666666666665,-0.15185185185185185],[-0.022916666666666665,-0.15185185185185185],[-0.022916666666666665,-0.1537037037037037],[-0.022916666666666665,-0.1537037037037037],[-0.022916666666666665,-0.1537037037037037],[-0.022916666666666665,-0.1537037037037037],[-0.022916666666666665,-0.1537037037037037],[-0.022916666666666665,-0.1537037037037037],[-0.022916666666666665,-0.1537037037037037],[-0.022916666666666665,-0.1537037037037037],[-0.022916666666666665,-0.1537037037037037],[-0.022916666666666665,-0.1537037037037037],[-0.022916666666666665,-0.1537037037037037],[-0.022916666666666665,-0.15185185185185185],[-0.022916666666666665,-0.15185185185185185],[-0.022916666666666665,-0.15185185185185185],[-0.022916666666666665,-0.15185185185185185],[-0.023958333333333335,-0.14814814814814814],[-0.023958333333333335,-0.14814814814814814],[-0.023958333333333335,-0.14814814814814814],[-0.023958333333333335,-0.14814814814814814],[-0.023958333333333335,-0.14814814814814814],[-0.023958333333333335,-0.14814814814814814],[-0.020833333333333332,-0.14814814814814814],[-0.003125,-0.14629629629629629],[0.023958333333333335,-0.14629629629629629],[0.05625,-0.14629629629629629],[0.09270833333333334,-0.14629629629629629],[0.12395833333333334,-0.14629629629629629],[0.16770833333333332,-0.1388888888888889],[0.1875,-0.13518518518518519],[0.20104166666666667,-0.13333333333333333],[0.20520833333333333,-0.13333333333333333],[0.21145833333333333,-0.13333333333333333],[0.21145833333333333,-0.13333333333333333],[0.21145833333333333,-0.13333333333333333],[0.21145833333333333,-0.13333333333333333],[0.21145833333333333,-0.13333333333333333],[0.21145833333333333,-0.13333333333333333],[0.21145833333333333,-0.13333333333333333],[0.21145833333333333,-0.13333333333333333],[0.21145833333333333,-0.13333333333333333],[0.21145833333333333,-0.13333333333333333],[0.21145833333333333,-0.13333333333333333],[0.21145833333333333,-0.13333333333333333],[0.21145833333333333,-0.13333333333333333],[0.21145833333333333,-0.13333333333333333],[0.21145833333333333,-0.13333333333333333],[0.196875,-0.13333333333333333],[0.17083333333333334,-0.13333333333333333],[0.12916666666666668,-0.1259259259259259],[0.08541666666666667,-0.11296296296296296],[0.03958333333333333,-0.10185185185185185],[0.0020833333333333333,-0.09259259259259259],[-0.005208333333333333,-0.09074074074074075],[-0.0125,-0.08888888888888889],[-0.0125,-0.08888888888888889],[-0.0125,-0.08888888888888889],[-0.0125,-0.08888888888888889],[-0.0125,-0.08888888888888889],[-0.0125,-0.08888888888888889],[-0.0125,-0.08888888888888889],[-0.0125,-0.08888888888888889],[-0.0125,-0.08888888888888889],[-0.0125,-0.08888888888888889],[-0.0125,-0.08888888888888889],[-0.0125,-0.08888888888888889],[-0.0125,-0.08888888888888889],[-0.013541666666666667,-0.08148148148148149],[-0.013541666666666667,-0.06851851851851852],[-0.011458333333333333,-0.046296296296296294],[-0.010416666666666666,-0.018518518518518517],[-0.010416666666666666,0.018518518518518517],[-0.010416666666666666,0.05185185185185185],[-0.010416666666666666,0.07407407407407407],[-0.010416666666666666,0.08148148148148149],[-0.010416666666666666,0.08148148148148149],[-0.010416666666666666,0.08148148148148149],[-0.010416666666666666,0.08148148148148149],[-0.010416666666666666,0.08148148148148149],[-0.010416666666666666,0.08148148148148149],[-0.010416666666666666,0.08148148148148149],[-0.010416666666666666,0.07407407407407407],[-0.010416666666666666,0.05555555555555555],[-0.007291666666666667,0.03518518518518519],[-0.004166666666666667,0.018518518518518517],[0.0010416666666666667,0.005555555555555556],[0.00625,-0.005555555555555556],[0.008333333333333333,-0.009259259259259259],[0.010416666666666666,-0.016666666666666666],[0.013541666666666667,-0.018518518518518517],[0.019791666666666666,-0.020370370370370372],[0.030208333333333334,-0.022222222222222223],[0.04583333333333333,-0.022222222222222223],[0.07916666666666666,-0.022222222222222223],[0.1,-0.022222222222222223],[0.121875,-0.022222222222222223],[0.1375,-0.022222222222222223],[0.14583333333333334,-0.022222222222222223],[0.14895833333333333,-0.022222222222222223],[0.153125,-0.020370370370370372],[0.15625,-0.016666666666666666],[0.1625,-0.007407407407407408],[0.16666666666666666,0.003703703703703704],[0.16770833333333332,0.007407407407407408],[0.16770833333333332,0.014814814814814815],[0.16770833333333332,0.037037037037037035],[0.165625,0.06111111111111111],[0.16458333333333333,0.07777777777777778],[0.1625,0.10555555555555556],[0.16041666666666668,0.11296296296296296],[0.159375,0.12777777777777777],[0.159375,0.1425925925925926],[0.159375,0.14629629629629629],[0.159375,0.1537037037037037],[0.15833333333333333,0.16296296296296298],[0.15833333333333333,0.16296296296296298],[0.15833333333333333,0.16296296296296298],[0.15833333333333333,0.16296296296296298],[0.15833333333333333,0.16296296296296298],[0.15833333333333333,0.16296296296296298],[0.15833333333333333,0.16296296296296298],[0.15833333333333333,0.16296296296296298],[0.15833333333333333,0.16296296296296298],[0.15833333333333333,0.16296296296296298],[0.15833333333333333,0.16296296296296298],[0.15833333333333333,0.16296296296296298],[0.15833333333333333,0.16296296296296298],[0.15833333333333333,0.16296296296296298],[0.15833333333333333,0.1648148148148148],[0.15833333333333333,0.1648148148148148],[0.15833333333333333,0.1648148148148148],[0.15833333333333333,0.1648148148148148],[0.16041666666666668,0.1648148148148148],[0.1625,0.16111111111111112],[0.16354166666666667,0.16111111111111112],[0.16354166666666667,0.16111111111111112],[0.16354166666666667,0.16111111111111112],[0.16354166666666667,0.16111111111111112],[0.16458333333333333,0.16111111111111112],[0.16458333333333333,0.16111111111111112],[0.16458333333333333,0.16111111111111112],[0.16458333333333333,0.16111111111111112],[0.16458333333333333,0.16111111111111112],[0.16458333333333333,0.16111111111111112],[0.16458333333333333,0.16111111111111112],[0.16458333333333333,0.15925925925925927],[0.16458333333333333,0.15925925925925927],[0.16458333333333333,0.15925925925925927],[0.16458333333333333,0.15925925925925927],[0.16458333333333333,0.15925925925925927],[0.16458333333333333,0.15925925925925927],[0.16458333333333333,0.15925925925925927],[0.16458333333333333,0.15925925925925927],[0.16458333333333333,0.1574074074074074],[0.16458333333333333,0.1574074074074074],[0.16458333333333333,0.1574074074074074],[0.16458333333333333,0.1574074074074074],[0.16458333333333333,0.1574074074074074],[0.16458333333333333,0.1574074074074074],[0.16458333333333333,0.1574074074074074],[0.16458333333333333,0.1574074074074074],[0.16458333333333333,0.1574074074074074],[0.16458333333333333,0.1574074074074074],[0.16458333333333333,0.1574074074074074],[0.16458333333333333,0.1574074074074074],[0.16458333333333333,0.1574074074074074],[0.16458333333333333,0.1574074074074074],[0.16458333333333333,0.1574074074074074],[0.16458333333333333,0.1574074074074074],[0.16458333333333333,0.1574074074074074],[0.16458333333333333,0.1574074074074074],[0.16458333333333333,0.1574074074074074],[0.16458333333333333,0.1574074074074074],[0.16458333333333333,0.1574074074074074],[0.16458333333333333,0.1574074074074074],[0.16458333333333333,0.1574074074074074],[0.16458333333333333,0.1574074074074074],[0.16458333333333333,0.1574074074074074],[0.16458333333333333,0.1574074074074074],[0.16458333333333333,0.1574074074074074],[0.16458333333333333,0.1574074074074074],[0.16458333333333333,0.1574074074074074],[0.16458333333333333,0.1574074074074074],[0.16458333333333333,0.1574074074074074]]","[[0.04385416666666669,-0.3942592592592592],[0.04385416666666669,-0.3942592592592592],[0.049687500000000044,-0.4361111111111111],[0.06760416666666676,-0.465],[0.06760416666666676,-0.465],[0.051250000000000046,-0.4583333333333333],[0.03125,-0.447037037037037],[0.043124999999999976,-0.44166666666666665],[0.05499999999999995,-0.43629629629629635],[0.06375000000000004,-0.4398148148148148],[0.07249999999999991,-0.4433333333333333],[0.09166666666666666,-0.45870370370370367],[0.11083333333333342,-0.4740740740740741],[0.11104166666666657,-0.4644444444444445],[0.13270833333333343,-0.47092592592592597],[0.13270833333333343,-0.47092592592592597],[0.15281250000000005,-0.49851851851851847],[0.14520833333333344,-0.4866666666666667],[0.11083333333333342,-0.4764814814814815],[0.08989583333333329,-0.45611111111111113],[0.06833333333333323,-0.4425925925925926],[0.04677083333333331,-0.42907407407407405],[0.019687499999999976,-0.40796296296296297],[-0.007395833333333357,-0.3442592592592592],[-0.034375,-0.28111111111111114],[-0.034375,-0.28111111111111114],[-0.1016666666666667,-0.2111111111111111],[-0.14895833333333333,-0.17240740740740745],[-0.15979166666666664,-0.16277777777777774],[-0.15979166666666664,-0.16277777777777774],[-0.14708333333333337,-0.1507407407407407],[-0.14708333333333337,-0.1507407407407407],[-0.1716666666666666,-0.1653703703703704],[-0.1716666666666666,-0.1653703703703704],[-0.17927083333333335,-0.14333333333333328],[-0.14375,-0.12037037037037036],[-0.11312500000000002,-0.07240740740740745],[-0.08250000000000005,-0.06703703703703702],[-0.08250000000000005,-0.06703703703703702],[-0.08552083333333335,-0.07703703703703708],[-0.08552083333333335,-0.07703703703703708],[-0.05364583333333333,-0.06074074074074076],[-0.0453125,-0.0514814814814814],[-0.03697916666666667,-0.04222222222222214],[-0.03697916666666667,-0.04222222222222214],[-0.06083333333333331,-0.027962962962963005],[-0.04052083333333331,0.011481481481481566],[-0.05166666666666669,0.040740740740740744],[-0.08760416666666669,0.05740740740740741],[-0.12854166666666664,0.04314814814814806],[-0.12854166666666664,0.04314814814814806],[-0.15958333333333338,0.0235185185185186],[-0.16979166666666667,0.03777777777777774],[-0.16979166666666667,0.03777777777777774],[-0.1622916666666666,0.025185185185185227],[-0.1586458333333333,0.04277777777777782],[-0.16833333333333336,0.08814814814814818],[-0.14437500000000003,0.0955555555555556],[-0.16375000000000003,0.08537037037037042],[-0.16375000000000003,0.08537037037037042],[-0.1460416666666667,0.10166666666666663],[-0.16468750000000001,0.11833333333333329],[-0.16749999999999995,0.13833333333333342],[-0.18020833333333333,0.16370370370370366],[-0.1622916666666666,0.17333333333333337],[-0.15916666666666662,0.18425925925925926],[-0.17770833333333336,0.202962962962963],[-0.1829166666666667,0.19388888888888897],[-0.19958333333333336,0.1735185185185186],[-0.19322916666666667,0.16203703703703703],[-0.20406249999999998,0.12333333333333338],[-0.16270833333333337,0.10444444444444441],[-0.12895833333333329,0.08296296296296288],[-0.11499999999999998,0.11259259259259251],[-0.11885416666666669,0.13944444444444437],[-0.12010416666666662,0.14592592592592585],[-0.09229166666666669,0.1527777777777778],[-0.09229166666666669,0.1527777777777778],[-0.0733333333333333,0.16314814814814818],[-0.05489583333333338,0.19740740740740745],[-0.036458333333333336,0.23166666666666672],[0.0016666666666666904,0.24740740740740744],[0.019583333333333286,0.2627777777777777],[0.012916666666666642,0.2716666666666668],[0.012916666666666642,0.2716666666666668],[0.01072916666666662,0.2162962962962962],[0.021562500000000047,0.1485185185185186],[0.05562499999999997,0.11203703703703703],[0.049791666666666616,0.08481481481481473],[0.049791666666666616,0.08481481481481473],[0.07760416666666667,0.05685185185185194],[0.07760416666666667,0.05685185185185194],[0.09072916666666657,0.04000000000000004],[0.09041666666666662,0.03296296296296288],[0.09041666666666662,0.03296296296296288],[0.03802083333333333,0.0242592592592593],[0.011041666666666691,0.009074074074074031],[0.005624999999999976,0.013518518518518435],[0.033645833333333285,0.040370370370370286],[0.05364583333333333,0.08555555555555563],[0.05364583333333333,0.08555555555555563],[0.06343749999999998,0.13518518518518519],[0.12000000000000005,0.13185185185185194],[0.1664583333333333,0.1579629629629629],[0.1664583333333333,0.1579629629629629],[0.1564583333333334,0.12555555555555548],[0.15989583333333332,0.08333333333333333],[0.15989583333333332,0.08333333333333333],[0.18520833333333328,0.07074074074074083],[0.17156250000000003,0.08666666666666659],[0.2039583333333333,0.06777777777777783],[0.1929166666666667,0.032407407407407406],[0.13916666666666658,0.02629629629629638],[0.13916666666666658,0.02629629629629638],[0.10479166666666657,-0.03148148148148148],[0.043958333333333384,-0.04092592592592597],[-0.009375,-0.050370370370370454],[-0.0018749999999999527,-0.003888888888888931],[0.0016666666666666904,0.005740740740740783],[0.0016666666666666904,0.005740740740740783],[0.025729166666666713,0.027962962962963005],[0.04760416666666671,0.03981481481481482],[0.04562499999999995,0.058333333333333334],[0.03937499999999995,0.05555555555555555],[0.03937499999999995,0.05555555555555555],[0.07114583333333328,0.019999999999999917],[0.05645833333333338,0.07074074074074083],[0.06906249999999996,0.1111111111111111],[0.049687500000000044,0.09796296296296292],[0.030312500000000023,0.08481481481481473],[0.030312500000000023,0.08481481481481473],[0.014895833333333285,0.10851851851851856],[0.006562499999999953,0.10666666666666672],[0,0.08499999999999996],[-0.0702083333333333,0.09425925925925922],[-0.07489583333333331,0.11777777777777781],[-0.10416666666666667,0.12222222222222222],[-0.10416666666666667,0.12222222222222222],[-0.1219791666666667,0.07666666666666662],[-0.08468749999999996,0.035740740740740656],[-0.08468749999999996,0.035740740740740656],[-0.09593750000000002,0.02814814814814823],[-0.10718749999999998,0.020555555555555598],[-0.12000000000000005,0.03296296296296288],[-0.1498958333333333,0.04888888888888885],[-0.1313541666666667,0.048333333333333374],[-0.06833333333333336,0.03185185185185194],[-0.06270833333333338,0.04203703703703712],[-0.06270833333333338,0.04203703703703712],[-0.0328125,0.06888888888888897],[-0.0328125,0.06888888888888897],[-0.008645833333333287,0.09222222222222214],[-0.008645833333333287,0.09222222222222214],[-0.004270833333333357,0.09351851851851851],[0.022395833333333334,0.10574074074074079],[0.022395833333333334,0.10574074074074079],[0.03291666666666669,0.0911111111111112],[0.040625,0.11314814814814819],[0.08135416666666657,0.11222222222222226],[0.07364583333333338,0.12777777777777777],[0.04624999999999998,0.12833333333333324],[0.04031250000000005,0.11648148148148144],[0.04031250000000005,0.11648148148148144],[0.00947916666666669,0.11166666666666658],[-0.017604166666666643,0.10018518518518522],[-0.017604166666666643,0.10018518518518522],[-0.049479166666666664,0.11148148148148157],[-0.05614583333333331,0.11277777777777774],[-0.05614583333333331,0.11277777777777774],[-0.05333333333333338,0.0985185185185186],[-0.05333333333333338,0.0985185185185186],[-0.033749999999999974,0.07685185185185185],[-0.04604166666666672,0.021296296296296296],[-0.06822916666666666,0.036481481481481566],[-0.07072916666666665,0.06666666666666667],[-0.07479166666666662,0.08425925925925926],[-0.03312499999999995,0.07111111111111107],[0.005729166666666666,0.05351851851851848],[0.00635416666666669,0.03629629629629634],[-0.0005208333333333333,0.05907407407407403],[0.021458333333333357,0.09092592592592597],[0.03104166666666662,0.07351851851851861],[0.020624999999999952,0.14574074074074084],[0.034687499999999954,0.15462962962962962],[0.01875,0.15185185185185185],[0.004375000000000047,0.16166666666666657],[-0.0034374999999999527,0.21814814814814806],[0.007500000000000047,0.24685185185185177],[0.03916666666666669,0.2722222222222222],[0.08916666666666657,0.24462962962962967],[0.11697916666666662,0.25037037037037047],[0.115625,0.25462962962962965],[0.13177083333333334,0.22925925925925916],[0.12791666666666662,0.20962962962962972],[0.1484375,0.18574074074074065],[0.1484375,0.18574074074074065],[0.17437500000000009,0.19907407407407407],[0.18041666666666673,0.18296296296296288],[0.1951041666666666,0.19981481481481478],[0.15260416666666668,0.20333333333333325],[0.15260416666666668,0.20333333333333325],[0.11010416666666671,0.20685185185185193],[0.05427083333333336,0.21055555555555563],[0.0296875,0.21888888888888897],[-0.01270833333333338,0.21944444444444444],[-0.01270833333333338,0.21944444444444444],[-0.030312500000000023,0.18888888888888888],[-0.05614583333333331,0.21814814814814806],[-0.06875,0.20018518518518522],[-0.06875,0.20018518518518522],[-0.0453125,0.15425925925925918],[-0.1078125,0.1557407407407408],[-0.1078125,0.1557407407407408],[-0.10177083333333338,0.1727777777777777],[-0.10177083333333338,0.1727777777777777],[-0.09593750000000002,0.18462962962962973],[-0.07614583333333336,0.19499999999999992],[-0.10406249999999997,0.21074074074074065],[-0.11281249999999995,0.23111111111111102],[-0.07531249999999995,0.23333333333333334],[-0.022083333333333382,0.19277777777777783],[-0.002916666666666619,0.1646296296296296],[-0.02666666666666669,0.17388888888888884],[-0.013437499999999976,0.16296296296296298],[-0.013437499999999976,0.16296296296296298],[0.00916666666666662,0.08555555555555563],[0.01072916666666662,0.06185185185185181],[0.01072916666666662,0.06185185185185181],[0.012187500000000047,0.041666666666666664],[0.08729166666666661,-0.02166666666666675],[0.08729166666666661,-0.02166666666666675],[0.1414583333333333,-0.09037037037037039],[0.10812499999999996,-0.07166666666666664],[0.07677083333333339,-0.072037037037037],[0.07677083333333339,-0.072037037037037],[0.1040625000000001,-0.040740740740740744],[0.11520833333333323,-0.02833333333333325],[0.15270833333333325,-0.03370370370370379],[0.14114583333333333,0.015370370370370286],[0.14114583333333333,0.015370370370370286],[0.12843749999999995,0.016851851851851896],[0.11572916666666658,0.02092592592592584],[0.11572916666666658,0.02092592592592584],[0.075,0.05962962962962971],[0.075,0.05962962962962971],[0.07593750000000009,0.10185185185185185],[0.1053124999999999,0.06388888888888888],[0.140625,0.06833333333333329],[0.140625,0.06833333333333329],[0.10510416666666676,0.060370370370370414],[0.08510416666666672,0.06833333333333329],[0.08510416666666672,0.06833333333333329],[0.08572916666666662,0.06740740740740736],[0.07395833333333333,0.07092592592592584],[0.07395833333333333,0.07092592592592584],[0.10135416666666662,0.072037037037037],[0.14312500000000009,0.04314814814814806],[0.1756249999999999,0.0005555555555554713],[0.19177083333333325,-0.014814814814814815],[0.2013541666666666,-0.0012962962962963806],[0.19947916666666668,0.009259259259259259],[0.22520833333333337,-0.001851851851851852],[0.2509375000000001,-0.012962962962962963],[0.2794791666666666,-0.019999999999999917],[0.32000000000000006,-0.05611111111111113],[0.32000000000000006,-0.05611111111111113],[0.3033333333333334,-0.06777777777777783],[0.28583333333333344,-0.051666666666666625],[0.27760416666666665,-0.021851851851851768],[0.27760416666666665,-0.021851851851851768],[0.26802083333333326,-0.01777777777777782],[0.26802083333333326,-0.01777777777777782],[0.3007291666666667,-0.021481481481481525],[0.3007291666666667,-0.021481481481481525],[0.30479166666666657,-0.07148148148148152],[0.30479166666666657,-0.07148148148148152],[0.3067708333333333,-0.0544444444444444],[0.28312499999999996,-0.08759259259259261],[0.25895833333333323,-0.10648148148148148],[0.2428124999999999,-0.08759259259259261],[0.2179166666666667,-0.10907407407407403],[0.19177083333333325,-0.14759259259259258],[0.19177083333333325,-0.14759259259259258],[0.2009375000000001,-0.17314814814814813],[0.15854166666666672,-0.1638888888888889],[0.15854166666666672,-0.1638888888888889],[0.11229166666666662,-0.1668518518518519],[0.11416666666666657,-0.12388888888888884],[0.11114583333333337,-0.13499999999999995],[0.1078125,-0.1331481481481481],[0.1078125,-0.1331481481481481],[0.09385416666666657,-0.10351851851851848],[0.084375,-0.06425925925925924],[0.084375,-0.06425925925925924],[0.12406249999999991,-0.03555555555555564],[0.15739583333333323,0.008148148148148106],[0.16708333333333342,0.0025925925925925505],[0.21552083333333344,0.008148148148148106],[0.25333333333333335,0.009074074074074031],[0.25333333333333335,0.009074074074074031],[0.2782291666666666,-0.03092592592592601],[0.28708333333333325,-0.050370370370370454],[0.35,-0.007592592592592635],[0.4006249999999999,-0.0020370370370370794],[0.4076041666666666,-0.06370370370370367],[0.4058333333333332,-0.09685185185185187],[0.45364583333333336,-0.11277777777777774],[0.4898958333333333,-0.09240740740740737],[0.4914583333333333,-0.08074074074074078],[0.4652083333333332,-0.044444444444444446],[0.4652083333333332,-0.044444444444444446],[0.4340625000000001,0.011666666666666582],[0.3870833333333332,0.07537037037037045],[0.37354166666666655,0.04814814814814815],[0.37354166666666655,0.04814814814814815],[0.34874999999999995,0.039629629629629584],[0.35010416666666655,0.09351851851851851],[0.2868750000000001,0.17796296296296302],[0.2868750000000001,0.17796296296296302],[0.16760416666666675,0.24462962962962967],[0.16760416666666675,0.24462962962962967],[0.09854166666666657,0.28888888888888886],[0.13385416666666666,0.24759259259259267]]","[[0.04385416666666669,-0.3942592592592592,0.00019999998807662678],[0.04385416666666669,-0.3942592592592592,0.034099999994040786],[0.049687500000000044,-0.4361111111111111,0.038299999982115196],[0.06760416666666676,-0.465,0.05889999997615547],[0.06760416666666676,-0.465,0.07179999998211883],[0.051250000000000046,-0.4583333333333333,0.08839999997615422],[0.03125,-0.447037037037037,0.10499999999999687],[0.043124999999999976,-0.44166666666666665,0.12159999999403936],[0.05499999999999995,-0.43629629629629635,0.14039999997616093],[0.06375000000000004,-0.4398148148148148,0.15500000000000114],[0.07249999999999991,-0.4433333333333333,0.1716999999880784],[0.09166666666666666,-0.45870370370370367,0.18839999997615564],[0.11083333333333342,-0.4740740740740741,0.20989999997615882],[0.11104166666666657,-0.4644444444444445,0.22500000000000142],[0.13270833333333343,-0.47092592592592597,0.24129999998211815],[0.13270833333333343,-0.47092592592592597,0.2550999999940373],[0.15281250000000005,-0.49851851851851847,0.27179999998211457],[0.14520833333333344,-0.4866666666666667,0.2886999999880757],[0.11083333333333342,-0.4764814814814815,0.3078999999761578],[0.08989583333333329,-0.45611111111111113,0.32169999998807697],[0.06833333333333323,-0.4425925925925926,0.3383999999761542],[0.04677083333333331,-0.42907407407407405,0.3549999999999969],[0.019687499999999976,-0.40796296296296297,0.37169999998808123],[-0.007395833333333357,-0.3442592592592592,0.3913999999761586],[-0.034375,-0.28111111111111114,0.4050999999940359],[-0.034375,-0.28111111111111114,0.4216999999880784],[-0.1016666666666667,-0.2111111111111111,0.43839999997615564],[-0.14895833333333333,-0.17240740740740745,0.45509999999404016],[-0.15979166666666664,-0.16277777777777774,0.4796999999880782],[-0.15979166666666664,-0.16277777777777774,0.48850000000000193],[-0.14708333333333337,-0.1507407407407407,0.505299999982121],[-0.14708333333333337,-0.1507407407407407,0.5218999999761564],[-0.1716666666666666,-0.1653703703703704,0.5433999999761596],[-0.1716666666666666,-0.1653703703703704,0.5552999999821182],[-0.17927083333333335,-0.14333333333333328,0.5718999999761607],[-0.14375,-0.12037037037037036,0.5923999999761591],[-0.11312500000000002,-0.07240740740740745,0.6088999999761597],[-0.08250000000000005,-0.06703703703703702,0.6277999999821162],[-0.08250000000000005,-0.06703703703703702,0.6385999999940424],[-0.08552083333333335,-0.07703703703703708,0.6571999999880802],[-0.08552083333333335,-0.07703703703703708,0.671899999976155],[-0.05364583333333333,-0.06074074074074076,0.6884999999999977],[-0.0453125,-0.0514814814814814,0.705199999988082],[-0.03697916666666667,-0.04222222222222214,0.726099999994041],[-0.03697916666666667,-0.04222222222222214,0.7385000000000019],[-0.06083333333333331,-0.027962962962963005,0.7550999999940373],[-0.04052083333333331,0.011481481481481566,0.7719999999999985],[-0.05166666666666669,0.040740740740740744,0.7929999999999993],[-0.08760416666666669,0.05740740740740741,0.8089999999999975],[-0.12854166666666664,0.04314814814814806,0.8232999999821189],[-0.12854166666666664,0.04314814814814806,0.8384999999999962],[-0.15958333333333338,0.0235185185185186,0.8573999999761597],[-0.16979166666666667,0.03777777777777774,0.8767999999821185],[-0.16979166666666667,0.03777777777777774,0.8885999999940424],[-0.1622916666666666,0.025185185185185227,0.9082999999821197],[-0.1586458333333333,0.04277777777777782,0.9240999999940414],[-0.16833333333333336,0.08814814814814818,0.9399999999999977],[-0.14437500000000003,0.0955555555555556,0.9604999999999961],[-0.16375000000000003,0.08537037037037042,0.97679999998212],[-0.16375000000000003,0.08537037037037042,0.9885000000000019],[-0.1460416666666667,0.10166666666666663,1.0051999999880792],[-0.16468750000000001,0.11833333333333329,1.022199999988075],[-0.16749999999999995,0.13833333333333342,1.038399999976157],[-0.18020833333333333,0.16370370370370366,1.058599999994037],[-0.1622916666666666,0.17333333333333337,1.0750000000000028],[-0.15916666666666662,0.18425925925925926,1.0917999999821149],[-0.17770833333333336,0.202962962962963,1.106399999976155],[-0.1829166666666667,0.19388888888888897,1.1216999999880812],[-0.19958333333333336,0.1735185185185186,1.141899999976161],[-0.19322916666666667,0.16203703703703703,1.1563999999761592],[-0.20406249999999998,0.12333333333333338,1.1717999999821203],[-0.16270833333333337,0.10444444444444441,1.1910000000000025],[-0.12895833333333329,0.08296296296296288,1.209699999988075],[-0.11499999999999998,0.11259259259259251,1.2250999999940362],[-0.11885416666666669,0.13944444444444437,1.2401999999880786],[-0.12010416666666662,0.14592592592592585,1.2550999999940373],[-0.09229166666666669,0.1527777777777778,1.2800000000000011],[-0.09229166666666669,0.1527777777777778,1.288599999994041],[-0.0733333333333333,0.16314814814814818,1.3051999999880763],[-0.05489583333333338,0.19740740740740745,1.3218999999761607],[-0.036458333333333336,0.23166666666666672,1.3418999999761567],[0.0016666666666666904,0.24740740740740744,1.3565999999940388],[0.019583333333333286,0.2627777777777777,1.3775999999940396],[0.012916666666666642,0.2716666666666668,1.3951999999880798],[0.012916666666666642,0.2716666666666668,1.4050000000000011],[0.01072916666666662,0.2162962962962962,1.4216999999880784],[0.021562500000000047,0.1485185185185186,1.4410000000000025],[0.05562499999999997,0.11203703703703703,1.456699999988082],[0.049791666666666616,0.08481481481481473,1.4795999999940364],[0.049791666666666616,0.08481481481481473,1.488299999982118],[0.07760416666666667,0.05685185185185194,1.5050999999940373],[0.07760416666666667,0.05685185185185194,1.5216999999880798],[0.09072916666666657,0.04000000000000004,1.538399999976157],[0.09041666666666662,0.03296296296296288,1.5600000000000023],[0.09041666666666662,0.03296296296296288,1.571699999988077],[0.03802083333333333,0.0242592592592593,1.5883999999761542],[0.011041666666666691,0.009074074074074031,1.6053999999761572],[0.005624999999999976,0.013518518518518435,1.6216999999880812],[0.033645833333333285,0.040370370370370286,1.6422999999821215],[0.05364583333333333,0.08555555555555563,1.6578999999761592],[0.05364583333333333,0.08555555555555563,1.6716999999880784],[0.06343749999999998,0.13518518518518519,1.6884999999999977],[0.12000000000000005,0.13185185185185194,1.7095999999940403],[0.1664583333333333,0.1579629629629629,1.7274999999999991],[0.1664583333333333,0.1579629629629629,1.738500000000002],[0.1564583333333334,0.12555555555555548,1.7550999999940373],[0.15989583333333332,0.08333333333333333,1.7815000000000012],[0.15989583333333332,0.08333333333333333,1.7886999999880757],[0.18520833333333328,0.07074074074074083,1.8052999999821182],[0.17156250000000003,0.08666666666666659,1.8218999999761607],[0.2039583333333333,0.06777777777777783,1.842399999976159],[0.1929166666666667,0.032407407407407406,1.857899999976155],[0.13916666666666658,0.02629629629629638,1.8796999999880768],[0.13916666666666658,0.02629629629629638,1.892699999988082],[0.10479166666666657,-0.03148148148148148,1.905099999994036],[0.043958333333333384,-0.04092592592592597,1.9217999999821203],[-0.009375,-0.050370370370370454,1.9384999999999977],[-0.0018749999999999527,-0.003888888888888931,1.9592999999821146],[0.0016666666666666904,0.005740740740740783,1.9770999999940386],[0.0016666666666666904,0.005740740740740783,1.988500000000002],[0.025729166666666713,0.027962962962963005,2.0090000000000003],[0.04760416666666671,0.03981481481481482,2.02469999998808],[0.04562499999999995,0.058333333333333334,2.0432999999821178],[0.03937499999999995,0.05555555555555555,2.0602999999821208],[0.03937499999999995,0.05555555555555555,2.0718999999761607],[0.07114583333333328,0.019999999999999917,2.08869999998808],[0.05645833333333338,0.07074074074074083,2.1066999999880807],[0.06906249999999996,0.1111111111111111,2.1261999999880814],[0.049687500000000044,0.09796296296296292,2.1420999999940378],[0.030312500000000023,0.08481481481481473,2.1569999999999965],[0.030312500000000023,0.08481481481481473,2.171999999999997],[0.014895833333333285,0.10851851851851856,2.1913999999761558],[0.006562499999999953,0.10666666666666672,2.209899999976159],[0,0.08499999999999996,2.2254999999999967],[-0.0702083333333333,0.09425925925925922,2.2431999999880787],[-0.07489583333333331,0.11777777777777781,2.25859999999404],[-0.10416666666666667,0.12222222222222222,2.2756999999880776],[-0.10416666666666667,0.12222222222222222,2.288499999999999],[-0.1219791666666667,0.07666666666666662,2.3087999999821207],[-0.08468749999999996,0.035740740740740656,2.323999999999998],[-0.08468749999999996,0.035740740740740656,2.3384999999999962],[-0.09593750000000002,0.02814814814814823,2.354999999999997],[-0.10718749999999998,0.020555555555555598,2.3716999999880812],[-0.12000000000000005,0.03296296296296288,2.3922999999821215],[-0.1498958333333333,0.04888888888888885,2.4077999999821174],[-0.1313541666666667,0.048333333333333374,2.424299999982118],[-0.06833333333333336,0.03185185185185194,2.440299999982116],[-0.06270833333333338,0.04203703703703712,2.45509999999404],[-0.06270833333333338,0.04203703703703712,2.4717999999821174],[-0.0328125,0.06888888888888897,2.488299999982118],[-0.0328125,0.06888888888888897,2.5050000000000026],[-0.008645833333333287,0.09222222222222214,2.525399999976159],[-0.008645833333333287,0.09222222222222214,2.538399999976157],[-0.004270833333333357,0.09351851851851851,2.5549999999999997],[0.022395833333333334,0.10574074074074079,2.57409999999404],[0.022395833333333334,0.10574074074074079,2.5919999999999987],[0.03291666666666669,0.0911111111111112,2.604999999999997],[0.040625,0.11314814814814819,2.6216999999880812],[0.08135416666666657,0.11222222222222226,2.6423999999761563],[0.07364583333333338,0.12777777777777777,2.6577999999821174],[0.04624999999999998,0.12833333333333324,2.676399999976155],[0.04031250000000005,0.11648148148148144,2.6953999999761606],[0.04031250000000005,0.11648148148148144,2.70509999999404],[0.00947916666666669,0.11166666666666658,2.7217999999821174],[-0.017604166666666643,0.10018518518518522,2.7408999999761576],[-0.017604166666666643,0.10018518518518522,2.758499999999998],[-0.049479166666666664,0.11148148148148157,2.7717999999821146],[-0.05614583333333331,0.11277777777777774,2.793099999994041],[-0.05614583333333331,0.11277777777777774,2.823299999982119],[-0.05333333333333338,0.0985185185185186,2.8291999999880773],[-0.05333333333333338,0.0985185185185186,2.8384999999999962],[-0.033749999999999974,0.07685185185185185,2.8551999999880806],[-0.04604166666666672,0.021296296296296296,2.871799999982116],[-0.06822916666666666,0.036481481481481566,2.891799999982119],[-0.07072916666666665,0.06666666666666667,2.905000000000001],[-0.07479166666666662,0.08425925925925926,2.9215999999940365],[-0.03312499999999995,0.07111111111111107,2.938299999982121],[0.005729166666666666,0.05351851851851848,2.9549999999999983],[0.00635416666666669,0.03629629629629634,2.976699999988078],[-0.0005208333333333333,0.05907407407407403,2.991500000000002],[0.021458333333333357,0.09092592592592597,3.008299999982121],[0.03104166666666662,0.07351851851851861,3.023799999982117],[0.020624999999999952,0.14574074074074084,3.0395999999940386],[0.034687499999999954,0.15462962962962962,3.0581999999880765],[0.01875,0.15185185185185185,3.0743999999761584],[0.004375000000000047,0.16166666666666657,3.091099999994036],[-0.0034374999999999527,0.21814814814814806,3.10779999998212],[0.007500000000000047,0.24685185185185177,3.1220999999940418],[0.03916666666666669,0.2722222222222222,3.1412999999821167],[0.08916666666666657,0.24462962962962967,3.1555999999940383],[0.11697916666666662,0.25037037037037047,3.17589999997616],[0.115625,0.25462962962962965,3.191199999988079],[0.13177083333333334,0.22925925925925916,3.206799999982117],[0.12791666666666662,0.20962962962962972,3.225799999982115],[0.1484375,0.18574074074074065,3.2407999999821158],[0.1484375,0.18574074074074065,3.2548999999761605],[0.17437500000000009,0.19907407407407407,3.2718999999761564],[0.18041666666666673,0.18296296296296288,3.2886999999880757],[0.1951041666666666,0.19981481481481478,3.3082999999821183],[0.15260416666666668,0.20333333333333325,3.3228999999761584],[0.15260416666666668,0.20333333333333325,3.3382999999821195],[0.11010416666666671,0.20685185185185193,3.354899999976155],[0.05427083333333336,0.21055555555555563,3.3716999999880812],[0.0296875,0.21888888888888897,3.391899999976161],[-0.01270833333333338,0.21944444444444444,3.4070999999940383],[-0.01270833333333338,0.21944444444444444,3.4216999999880784],[-0.030312500000000023,0.18888888888888888,3.440399999976158],[-0.05614583333333331,0.21814814814814806,3.45509999999404],[-0.06875,0.20018518518518522,3.4756999999880804],[-0.06875,0.20018518518518522,3.490599999994039],[-0.0453125,0.15425925925925918,3.505199999988079],[-0.1078125,0.1557407407407408,3.5227999999821193],[-0.1078125,0.1557407407407408,3.5411999999880805],[-0.10177083333333338,0.1727777777777777,3.555299999982118],[-0.10177083333333338,0.1727777777777777,3.571799999982119],[-0.09593750000000002,0.18462962962962973,3.5882999999821195],[-0.07614583333333336,0.19499999999999992,3.604999999999997],[-0.10406249999999997,0.21074074074074065,3.6215999999940394],[-0.11281249999999995,0.23111111111111102,3.641899999976161],[-0.07531249999999995,0.23333333333333334,3.6553999999761544],[-0.022083333333333382,0.19277777777777783,3.6755999999940414],[-0.002916666666666619,0.1646296296296296,3.691299999982121],[-0.02666666666666669,0.17388888888888884,3.7093999999761564],[-0.013437499999999976,0.16296296296296298,3.7271999999880805],[-0.013437499999999976,0.16296296296296298,3.738500000000002],[0.00916666666666662,0.08555555555555563,3.755499999999998],[0.01072916666666662,0.06185185185185181,3.7750999999940404],[0.01072916666666662,0.06185185185185181,3.7943999999761573],[0.012187500000000047,0.041666666666666664,3.8050999999940416],[0.08729166666666661,-0.02166666666666675,3.8218999999761607],[0.08729166666666661,-0.02166666666666675,3.8413999999761543],[0.1414583333333333,-0.09037037037037039,3.8551999999880806],[0.10812499999999996,-0.07166666666666664,3.872],[0.07677083333333339,-0.072037037037037,3.893599999994038],[0.07677083333333339,-0.072037037037037,3.905099999994036],[0.1040625000000001,-0.040740740740740744,3.921899999976155],[0.11520833333333323,-0.02833333333333325,3.9393999999761604],[0.15270833333333325,-0.03370370370370379,3.959699999988075],[0.14114583333333333,0.015370370370370286,3.9765000000000015],[0.14114583333333333,0.015370370370370286,3.98839999997616],[0.12843749999999995,0.016851851851851896,4.0087999999821164],[0.11572916666666658,0.02092592592592584,4.025999999999996],[0.11572916666666658,0.02092592592592584,4.038599999994041],[0.075,0.05962962962962971,4.058699999988079],[0.075,0.05962962962962971,4.071899999976161],[0.07593750000000009,0.10185185185185185,4.088599999994038],[0.1053124999999999,0.06388888888888888,4.107899999976155],[0.140625,0.06833333333333329,4.127899999976158],[0.140625,0.06833333333333329,4.1385000000000005],[0.10510416666666676,0.060370370370370414,4.155199999988078],[0.08510416666666672,0.06833333333333329,4.177899999976155],[0.08510416666666672,0.06833333333333329,4.188399999976156],[0.08572916666666662,0.06740740740740736,4.205199999988082],[0.07395833333333333,0.07092592592592584,4.2280000000000015],[0.07395833333333333,0.07092592592592584,4.238299999982118],[0.10135416666666662,0.072037037037037,4.255000000000003],[0.14312500000000009,0.04314814814814806,4.274000000000001],[0.1756249999999999,0.0005555555555554713,4.2890000000000015],[0.19177083333333325,-0.014814814814814815,4.308699999988079],[0.2013541666666666,-0.0012962962962963806,4.3235999999940375],[0.19947916666666668,0.009259259259259259,4.3382999999821195],[0.22520833333333337,-0.001851851851851852,4.354999999999997],[0.2509375000000001,-0.012962962962962963,4.371699999988081],[0.2794791666666666,-0.019999999999999917,4.391899999976161],[0.32000000000000006,-0.05611111111111113,4.407599999994041],[0.32000000000000006,-0.05611111111111113,4.421699999988078],[0.3033333333333334,-0.06777777777777783,4.438299999982121],[0.28583333333333344,-0.051666666666666625,4.454899999976156],[0.27760416666666665,-0.021851851851851768,4.479099999994041],[0.27760416666666665,-0.021851851851851768,4.488299999982118],[0.26802083333333326,-0.01777777777777782,4.505000000000003],[0.26802083333333326,-0.01777777777777782,4.521799999982115],[0.3007291666666667,-0.021481481481481525,4.54489999997616],[0.3007291666666667,-0.021481481481481525,4.555099999994042],[0.30479166666666657,-0.07148148148148152,4.571699999988077],[0.30479166666666657,-0.07148148148148152,4.5882999999821195],[0.3067708333333333,-0.0544444444444444,4.604999999999997],[0.28312499999999996,-0.08759259259259261,4.6270000000000024],[0.25895833333333323,-0.10648148148148148,4.642099999994038],[0.2428124999999999,-0.08759259259259261,4.6576999999880755],[0.2179166666666667,-0.10907407407407403,4.675099999994039],[0.19177083333333325,-0.14759259259259258,4.692],[0.19177083333333325,-0.14759259259259258,4.704999999999998],[0.2009375000000001,-0.17314814814814813,4.7216999999880755],[0.15854166666666672,-0.1638888888888889,4.741199999988076],[0.15854166666666672,-0.1638888888888889,4.755099999994037],[0.11229166666666662,-0.1668518518518519,4.77169999998808],[0.11416666666666657,-0.12388888888888884,4.788799999982118],[0.11114583333333337,-0.13499999999999995,4.8088999999761555],[0.1078125,-0.1331481481481481,4.824199999988082],[0.1078125,-0.1331481481481481,4.8382999999821195],[0.09385416666666657,-0.10351851851851848,4.854999999999997],[0.084375,-0.06425925925925924,4.880499999999998],[0.084375,-0.06425925925925924,4.8883999999761585],[0.12406249999999991,-0.03555555555555564,4.905000000000001],[0.15739583333333323,0.008148148148148106,4.9215999999940365],[0.16708333333333342,0.0025925925925925505,4.939599999994037],[0.21552083333333344,0.008148148148148106,4.956499999999998],[0.25333333333333335,0.009074074074074031,4.976899999976155],[0.25333333333333335,0.009074074074074031,4.988299999982118],[0.2782291666666666,-0.03092592592592601,5.0048999999761605],[0.28708333333333325,-0.050370370370370454,5.021599999994038],[0.35,-0.007592592592592635,5.038599999994041],[0.4006249999999999,-0.0020370370370370794,5.0588999999761555],[0.4076041666666666,-0.06370370370370367,5.074899999976161],[0.4058333333333332,-0.09685185185185187,5.091799999982115],[0.45364583333333336,-0.11277777777777774,5.108399999976157],[0.4898958333333333,-0.09240740740740737,5.123299999982116],[0.4914583333333333,-0.08074074074074078,5.141899999976161],[0.4652083333333332,-0.044444444444444446,5.156299999982117],[0.4652083333333332,-0.044444444444444446,5.171699999988078],[0.4340625000000001,0.011666666666666582,5.188399999976156],[0.3870833333333332,0.07537037037037045,5.204999999999998],[0.37354166666666655,0.04814814814814815,5.22529999998212],[0.37354166666666655,0.04814814814814815,5.23839999997616],[0.34874999999999995,0.039629629629629584,5.2548999999761605],[0.35010416666666655,0.09351851851851851,5.274499999999996],[0.2868750000000001,0.17796296296296302,5.292999999999999],[0.2868750000000001,0.17796296296296302,5.305],[0.16760416666666675,0.24462962962962967,5.321599999994042],[0.16760416666666675,0.24462962962962967,5.3382999999821195],[0.09854166666666657,0.28888888888888886,5.354999999999997],[0.13385416666666666,0.24759259259259267,5.371899999976158]]","[0.00019999998807662678,0.034099999994040786,0.038299999982115196,0.05889999997615547,0.07179999998211883,0.08839999997615422,0.10499999999999687,0.12159999999403936,0.14039999997616093,0.15500000000000114,0.1716999999880784,0.18839999997615564,0.20989999997615882,0.22500000000000142,0.24129999998211815,0.2550999999940373,0.27179999998211457,0.2886999999880757,0.3078999999761578,0.32169999998807697,0.3383999999761542,0.3549999999999969,0.37169999998808123,0.3913999999761586,0.4050999999940359,0.4216999999880784,0.43839999997615564,0.45509999999404016,0.4796999999880782,0.48850000000000193,0.505299999982121,0.5218999999761564,0.5433999999761596,0.5552999999821182,0.5718999999761607,0.5923999999761591,0.6088999999761597,0.6277999999821162,0.6385999999940424,0.6571999999880802,0.671899999976155,0.6884999999999977,0.705199999988082,0.726099999994041,0.7385000000000019,0.7550999999940373,0.7719999999999985,0.7929999999999993,0.8089999999999975,0.8232999999821189,0.8384999999999962,0.8573999999761597,0.8767999999821185,0.8885999999940424,0.9082999999821197,0.9240999999940414,0.9399999999999977,0.9604999999999961,0.97679999998212,0.9885000000000019,1.0051999999880792,1.022199999988075,1.038399999976157,1.058599999994037,1.0750000000000028,1.0917999999821149,1.106399999976155,1.1216999999880812,1.141899999976161,1.1563999999761592,1.1717999999821203,1.1910000000000025,1.209699999988075,1.2250999999940362,1.2401999999880786,1.2550999999940373,1.2800000000000011,1.288599999994041,1.3051999999880763,1.3218999999761607,1.3418999999761567,1.3565999999940388,1.3775999999940396,1.3951999999880798,1.4050000000000011,1.4216999999880784,1.4410000000000025,1.456699999988082,1.4795999999940364,1.488299999982118,1.5050999999940373,1.5216999999880798,1.538399999976157,1.5600000000000023,1.571699999988077,1.5883999999761542,1.6053999999761572,1.6216999999880812,1.6422999999821215,1.6578999999761592,1.6716999999880784,1.6884999999999977,1.7095999999940403,1.7274999999999991,1.738500000000002,1.7550999999940373,1.7815000000000012,1.7886999999880757,1.8052999999821182,1.8218999999761607,1.842399999976159,1.857899999976155,1.8796999999880768,1.892699999988082,1.905099999994036,1.9217999999821203,1.9384999999999977,1.9592999999821146,1.9770999999940386,1.988500000000002,2.0090000000000003,2.02469999998808,2.0432999999821178,2.0602999999821208,2.0718999999761607,2.08869999998808,2.1066999999880807,2.1261999999880814,2.1420999999940378,2.1569999999999965,2.171999999999997,2.1913999999761558,2.209899999976159,2.2254999999999967,2.2431999999880787,2.25859999999404,2.2756999999880776,2.288499999999999,2.3087999999821207,2.323999999999998,2.3384999999999962,2.354999999999997,2.3716999999880812,2.3922999999821215,2.4077999999821174,2.424299999982118,2.440299999982116,2.45509999999404,2.4717999999821174,2.488299999982118,2.5050000000000026,2.525399999976159,2.538399999976157,2.5549999999999997,2.57409999999404,2.5919999999999987,2.604999999999997,2.6216999999880812,2.6423999999761563,2.6577999999821174,2.676399999976155,2.6953999999761606,2.70509999999404,2.7217999999821174,2.7408999999761576,2.758499999999998,2.7717999999821146,2.793099999994041,2.823299999982119,2.8291999999880773,2.8384999999999962,2.8551999999880806,2.871799999982116,2.891799999982119,2.905000000000001,2.9215999999940365,2.938299999982121,2.9549999999999983,2.976699999988078,2.991500000000002,3.008299999982121,3.023799999982117,3.0395999999940386,3.0581999999880765,3.0743999999761584,3.091099999994036,3.10779999998212,3.1220999999940418,3.1412999999821167,3.1555999999940383,3.17589999997616,3.191199999988079,3.206799999982117,3.225799999982115,3.2407999999821158,3.2548999999761605,3.2718999999761564,3.2886999999880757,3.3082999999821183,3.3228999999761584,3.3382999999821195,3.354899999976155,3.3716999999880812,3.391899999976161,3.4070999999940383,3.4216999999880784,3.440399999976158,3.45509999999404,3.4756999999880804,3.490599999994039,3.505199999988079,3.5227999999821193,3.5411999999880805,3.555299999982118,3.571799999982119,3.5882999999821195,3.604999999999997,3.6215999999940394,3.641899999976161,3.6553999999761544,3.6755999999940414,3.691299999982121,3.7093999999761564,3.7271999999880805,3.738500000000002,3.755499999999998,3.7750999999940404,3.7943999999761573,3.8050999999940416,3.8218999999761607,3.8413999999761543,3.8551999999880806,3.872,3.893599999994038,3.905099999994036,3.921899999976155,3.9393999999761604,3.959699999988075,3.9765000000000015,3.98839999997616,4.0087999999821164,4.025999999999996,4.038599999994041,4.058699999988079,4.071899999976161,4.088599999994038,4.107899999976155,4.127899999976158,4.1385000000000005,4.155199999988078,4.177899999976155,4.188399999976156,4.205199999988082,4.2280000000000015,4.238299999982118,4.255000000000003,4.274000000000001,4.2890000000000015,4.308699999988079,4.3235999999940375,4.3382999999821195,4.354999999999997,4.371699999988081,4.391899999976161,4.407599999994041,4.421699999988078,4.438299999982121,4.454899999976156,4.479099999994041,4.488299999982118,4.505000000000003,4.521799999982115,4.54489999997616,4.555099999994042,4.571699999988077,4.5882999999821195,4.604999999999997,4.6270000000000024,4.642099999994038,4.6576999999880755,4.675099999994039,4.692,4.704999999999998,4.7216999999880755,4.741199999988076,4.755099999994037,4.77169999998808,4.788799999982118,4.8088999999761555,4.824199999988082,4.8382999999821195,4.854999999999997,4.880499999999998,4.8883999999761585,4.905000000000001,4.9215999999940365,4.939599999994037,4.956499999999998,4.976899999976155,4.988299999982118,5.0048999999761605,5.021599999994038,5.038599999994041,5.0588999999761555,5.074899999976161,5.091799999982115,5.108399999976157,5.123299999982116,5.141899999976161,5.156299999982117,5.171699999988078,5.188399999976156,5.204999999999998,5.22529999998212,5.23839999997616,5.2548999999761605,5.274499999999996,5.292999999999999,5.305,5.321599999994042,5.3382999999821195,5.354999999999997,5.371899999976158]","[1732768380268,1732768380294,1732768380298,1732768380319,1732768380332,1732768380349,1732768380365,1732768380382,1732768380400,1732768380415,1732768380432,1732768380449,1732768380470,1732768380485,1732768380501,1732768380515,1732768380532,1732768380549,1732768380568,1732768380582,1732768380599,1732768380615,1732768380632,1732768380652,1732768380665,1732768380682,1732768380699,1732768380715,1732768380740,1732768380749,1732768380765,1732768380782,1732768380804,1732768380815,1732768380832,1732768380853,1732768380869,1732768380888,1732768380899,1732768380917,1732768380932,1732768380949,1732768380965,1732768380986,1732768380999,1732768381015,1732768381032,1732768381053,1732768381069,1732768381083,1732768381099,1732768381118,1732768381137,1732768381149,1732768381169,1732768381184,1732768381200,1732768381221,1732768381237,1732768381249,1732768381265,1732768381282,1732768381298,1732768381319,1732768381335,1732768381352,1732768381366,1732768381382,1732768381402,1732768381417,1732768381432,1732768381451,1732768381470,1732768381485,1732768381500,1732768381515,1732768381540,1732768381549,1732768381565,1732768381582,1732768381602,1732768381617,1732768381638,1732768381655,1732768381665,1732768381682,1732768381701,1732768381717,1732768381740,1732768381748,1732768381765,1732768381782,1732768381799,1732768381820,1732768381832,1732768381848,1732768381865,1732768381882,1732768381902,1732768381918,1732768381932,1732768381949,1732768381970,1732768381988,1732768381999,1732768382015,1732768382042,1732768382049,1732768382065,1732768382082,1732768382103,1732768382118,1732768382140,1732768382153,1732768382165,1732768382182,1732768382199,1732768382219,1732768382237,1732768382249,1732768382269,1732768382285,1732768382303,1732768382320,1732768382332,1732768382349,1732768382367,1732768382386,1732768382402,1732768382417,1732768382432,1732768382452,1732768382470,1732768382486,1732768382503,1732768382519,1732768382536,1732768382549,1732768382569,1732768382584,1732768382599,1732768382615,1732768382632,1732768382652,1732768382668,1732768382684,1732768382700,1732768382715,1732768382732,1732768382748,1732768382765,1732768382785,1732768382799,1732768382815,1732768382834,1732768382852,1732768382865,1732768382882,1732768382903,1732768382918,1732768382937,1732768382956,1732768382965,1732768382982,1732768383001,1732768383019,1732768383032,1732768383053,1732768383083,1732768383089,1732768383099,1732768383115,1732768383132,1732768383152,1732768383165,1732768383182,1732768383198,1732768383215,1732768383237,1732768383252,1732768383268,1732768383284,1732768383300,1732768383318,1732768383334,1732768383351,1732768383368,1732768383382,1732768383401,1732768383416,1732768383436,1732768383451,1732768383467,1732768383486,1732768383501,1732768383515,1732768383532,1732768383549,1732768383568,1732768383583,1732768383598,1732768383615,1732768383632,1732768383652,1732768383667,1732768383682,1732768383701,1732768383715,1732768383736,1732768383751,1732768383765,1732768383783,1732768383801,1732768383815,1732768383832,1732768383848,1732768383865,1732768383882,1732768383902,1732768383915,1732768383936,1732768383951,1732768383970,1732768383987,1732768383999,1732768384016,1732768384035,1732768384055,1732768384065,1732768384082,1732768384102,1732768384115,1732768384132,1732768384154,1732768384165,1732768384182,1732768384199,1732768384220,1732768384237,1732768384249,1732768384269,1732768384286,1732768384299,1732768384319,1732768384332,1732768384349,1732768384368,1732768384388,1732768384399,1732768384415,1732768384438,1732768384449,1732768384465,1732768384488,1732768384498,1732768384515,1732768384534,1732768384549,1732768384569,1732768384584,1732768384598,1732768384615,1732768384632,1732768384652,1732768384668,1732768384682,1732768384698,1732768384715,1732768384739,1732768384748,1732768384765,1732768384782,1732768384805,1732768384815,1732768384832,1732768384848,1732768384865,1732768384887,1732768384902,1732768384918,1732768384935,1732768384952,1732768384965,1732768384982,1732768385001,1732768385015,1732768385032,1732768385049,1732768385069,1732768385084,1732768385098,1732768385115,1732768385141,1732768385149,1732768385165,1732768385182,1732768385200,1732768385217,1732768385237,1732768385248,1732768385265,1732768385282,1732768385299,1732768385319,1732768385335,1732768385352,1732768385369,1732768385383,1732768385402,1732768385416,1732768385432,1732768385448,1732768385465,1732768385485,1732768385498,1732768385515,1732768385535,1732768385553,1732768385565,1732768385582,1732768385598,1732768385615,1732768385632]","[[1002.1,327.1],[1002.1,327.1],[1007.7,304.5],[1024.9,288.9],[1024.9,288.9],[1009.2,292.5],[990,298.6],[1001.4,301.5],[1012.8,304.4],[1021.2,302.5],[1029.6,300.6],[1048,292.3],[1066.4,284],[1066.6,289.2],[1087.4,285.7],[1087.4,285.7],[1106.7,270.8],[1099.4,277.2],[1066.4,282.7],[1046.3,293.7],[1025.6,301],[1004.9,308.3],[978.9,319.7],[952.9,354.1],[927,388.2],[927,388.2],[862.4,426],[817,446.9],[806.6,452.1],[806.6,452.1],[818.8,458.6],[818.8,458.6],[795.2,450.7],[795.2,450.7],[787.9,462.6],[822,475],[851.4,500.9],[880.8,503.8],[880.8,503.8],[877.9,498.4],[877.9,498.4],[908.5,507.2],[916.5,512.2],[924.5,517.2],[924.5,517.2],[901.6,524.9],[921.1,546.2],[910.4,562],[875.9,571],[836.6,563.3],[836.6,563.3],[806.8,552.7],[797,560.4],[797,560.4],[804.2,553.6],[807.7,563.1],[798.4,587.6],[821.4,591.6],[802.8,586.1],[802.8,586.1],[819.8,594.9],[801.9,603.9],[799.2,614.7],[787,628.4],[804.2,633.6],[807.2,639.5],[789.4,649.6],[784.4,644.7],[768.4,633.7],[774.5,627.5],[764.1,606.6],[803.8,596.4],[836.2,584.8],[849.6,600.8],[845.9,615.3],[844.7,618.8],[871.4,622.5],[871.4,622.5],[889.6,628.1],[907.3,646.6],[925,665.1],[961.6,673.6],[978.8,681.9],[972.4,686.7],[972.4,686.7],[970.3,656.8],[980.7,620.2],[1013.4,600.5],[1007.8,585.8],[1007.8,585.8],[1034.5,570.7],[1034.5,570.7],[1047.1,561.6],[1046.8,557.8],[1046.8,557.8],[996.5,553.1],[970.6,544.9],[965.4,547.3],[992.3,561.8],[1011.5,586.2],[1011.5,586.2],[1020.9,613],[1075.2,611.2],[1119.8,625.3],[1119.8,625.3],[1110.2,607.8],[1113.5,585],[1113.5,585],[1137.8,578.2],[1124.7,586.8],[1155.8,576.6],[1145.2,557.5],[1093.6,554.2],[1093.6,554.2],[1060.6,523],[1002.2,517.9],[951,512.8],[958.2,537.9],[961.6,543.1],[961.6,543.1],[984.7,555.1],[1005.7,561.5],[1003.8,571.5],[997.8,570],[997.8,570],[1028.3,550.8],[1014.2,578.2],[1026.3,600],[1007.7,592.9],[989.1,585.8],[989.1,585.8],[974.3,598.6],[966.3,597.6],[960,585.9],[892.6,590.9],[888.1,603.6],[860,606],[860,606],[842.9,581.4],[878.7,559.3],[878.7,559.3],[867.9,555.2],[857.1,551.1],[844.8,557.8],[816.1,566.4],[833.9,566.1],[894.4,557.2],[899.8,562.7],[899.8,562.7],[928.5,577.2],[928.5,577.2],[951.7,589.8],[951.7,589.8],[955.9,590.5],[981.5,597.1],[981.5,597.1],[991.6,589.2],[999,601.1],[1038.1,600.6],[1030.7,609],[1004.4,609.3],[998.7,602.9],[998.7,602.9],[969.1,600.3],[943.1,594.1],[943.1,594.1],[912.5,600.2],[906.1,600.9],[906.1,600.9],[908.8,593.2],[908.8,593.2],[927.6,581.5],[915.8,551.5],[894.5,559.7],[892.1,576],[888.2,585.5],[928.2,578.4],[965.5,568.9],[966.1,559.6],[959.5,571.9],[980.6,589.1],[989.8,579.7],[979.8,618.7],[993.3,623.5],[978,622],[964.2,627.3],[956.7,657.8],[967.2,673.3],[997.6,687],[1045.6,672.1],[1072.3,675.2],[1071,677.5],[1086.5,663.8],[1082.8,653.2],[1102.5,640.3],[1102.5,640.3],[1127.4,647.5],[1133.2,638.8],[1147.3,647.9],[1106.5,649.8],[1106.5,649.8],[1065.7,651.7],[1012.1,653.7],[988.5,658.2],[947.8,658.5],[947.8,658.5],[930.9,642],[906.1,657.8],[894,648.1],[894,648.1],[916.5,623.3],[856.5,624.1],[856.5,624.1],[862.3,633.3],[862.3,633.3],[867.9,639.7],[886.9,645.3],[860.1,653.8],[851.7,664.8],[887.7,666],[938.8,644.1],[957.2,628.9],[934.4,633.9],[947.1,628],[947.1,628],[968.8,586.2],[970.3,573.4],[970.3,573.4],[971.7,562.5],[1043.8,528.3],[1043.8,528.3],[1095.8,491.2],[1063.8,501.3],[1033.7,501.1],[1033.7,501.1],[1059.9,518],[1070.6,524.7],[1106.6,521.8],[1095.5,548.3],[1095.5,548.3],[1083.3,549.1],[1071.1,551.3],[1071.1,551.3],[1032,572.2],[1032,572.2],[1032.9,595],[1061.1,574.5],[1095,576.9],[1095,576.9],[1060.9,572.6],[1041.7,576.9],[1041.7,576.9],[1042.3,576.4],[1031,578.3],[1031,578.3],[1057.3,578.9],[1097.4,563.3],[1128.6,540.3],[1144.1,532],[1153.3,539.3],[1151.5,545],[1176.2,539],[1200.9,533],[1228.3,529.2],[1267.2,509.7],[1267.2,509.7],[1251.2,503.4],[1234.4,512.1],[1226.5,528.2],[1226.5,528.2],[1217.3,530.4],[1217.3,530.4],[1248.7,528.4],[1248.7,528.4],[1252.6,501.4],[1252.6,501.4],[1254.5,510.6],[1231.8,492.7],[1208.6,482.5],[1193.1,492.7],[1169.2,481.1],[1144.1,460.3],[1144.1,460.3],[1152.9,446.5],[1112.2,451.5],[1112.2,451.5],[1067.8,449.9],[1069.6,473.1],[1066.7,467.1],[1063.5,468.1],[1063.5,468.1],[1050.1,484.1],[1041,505.3],[1041,505.3],[1079.1,520.8],[1111.1,544.4],[1120.4,541.4],[1166.9,544.4],[1203.2,544.9],[1203.2,544.9],[1227.1,523.3],[1235.6,512.8],[1296,535.9],[1344.6,538.9],[1351.3,505.6],[1349.6,487.7],[1395.5,479.1],[1430.3,490.1],[1431.8,496.4],[1406.6,516],[1406.6,516],[1376.7,546.3],[1331.6,580.7],[1318.6,566],[1318.6,566],[1294.8,561.4],[1296.1,590.5],[1235.4,636.1],[1235.4,636.1],[1120.9,672.1],[1120.9,672.1],[1054.6,696],[1088.5,673.7]]","[0,0.151169218]","[0.151169218,0.151169218]","[-0.151169218,-0.151169218]","[-0.151169218,0]","[0,-0.151169218]","[0.151169218,-0.151169218]","[0,0]","[0.151169218,0]",0,0,0,0,1,1,Smartphone,7,7,15,9
