inst1_resp.keys,inst1_resp.rt,calibrationMouse.x,calibrationMouse.y,calibrationMouse.leftButton,calibrationMouse.midButton,calibrationMouse.rightButton,calibrationClick.x,calibrationClick.y,calibrationClick.leftButton,calibrationClick.midButton,calibrationClick.rightButton,trialsc.thisRepN,trialsc.thisTrialN,trialsc.thisN,trialsc.thisIndex,trialsc.ran,calibration_x,calibration_y,participant,session,date,expName,psychopyVersion,OS,frameRate,calibrationClick.clicked_name,ScreenRes_pixels,Camera_pixels,mouse_2.x,mouse_2.y,mouse_2.leftButton,mouse_2.midButton,mouse_2.rightButton,mouse_2.time,mouse_2.clicked_name,mouse.x,mouse.y,mouse.leftButton,mouse.midButton,mouse.rightButton,mouse.time,mouse.clicked_name,Choice,Trial,TrialDuration,MOUSE_GAZE,ET_GAZE,ET_GAZE_x_T,time,unixTime,ET_GAZE_NF,Loc_Option1_label,Loc_Option2_label,Loc_Cost_label,Loc_Qual_label,Loc_Option1_cost,Loc_Option2_cost,Loc_Option1_quality,Loc_Option2_quality,trials.thisRepN,trials.thisTrialN,trials.thisN,trials.thisIndex,trials.ran,Block,Device,cost1,qual1,cost2,qual2
space,0.5326,-0.152083333,-0.001851852,1,0,0,0.003125,-0.32962963,0,0,0,0,0,0,10,1,0,-0.33,17,001,2024-12-02_13h14.40.363,Attention_exp_legacy,2023.1.0,Win32,59.88023952,,,,,,,,,,,,,,,,,,,,,,,,,,,,,,,,,,,,,,,,,,,,,
,,,,,,,-0.333333333,-0.318518519,1,0,0,0,1,1,5,1,-0.33,-0.33,17,001,2024-12-02_13h14.40.363,Attention_exp_legacy,2023.1.0,Win32,59.88023952,,,,,,,,,,,,,,,,,,,,,,,,,,,,,,,,,,,,,,,,,,,,,
,,,,,,,-0.328125,0.331481481,1,0,0,0,2,2,7,1,-0.33,0.33,17,001,2024-12-02_13h14.40.363,Attention_exp_legacy,2023.1.0,Win32,59.88023952,calibration_square,,,,,,,,,,,,,,,,,,,,,,,,,,,,,,,,,,,,,,,,,,,,
,,,,,,,-0.661458333,-0.005555556,1,0,0,0,3,3,2,1,-0.67,0,17,001,2024-12-02_13h14.40.363,Attention_exp_legacy,2023.1.0,Win32,59.88023952,calibration_square,,,,,,,,,,,,,,,,,,,,,,,,,,,,,,,,,,,,,,,,,,,,
,,,,,,,0.328125,0.662962963,1,0,0,0,4,4,18,1,0.33,0.67,17,001,2024-12-02_13h14.40.363,Attention_exp_legacy,2023.1.0,Win32,59.88023952,calibration_square,,,,,,,,,,,,,,,,,,,,,,,,,,,,,,,,,,,,,,,,,,,,
,,,,,,,0.338541667,0.333333333,1,0,0,0,5,5,17,1,0.33,0.33,17,001,2024-12-02_13h14.40.363,Attention_exp_legacy,2023.1.0,Win32,59.88023952,calibration_square,,,,,,,,,,,,,,,,,,,,,,,,,,,,,,,,,,,,,,,,,,,,
,,,,,,,-0.669791667,-0.307407407,1,0,0,0,6,6,1,1,-0.67,-0.33,17,001,2024-12-02_13h14.40.363,Attention_exp_legacy,2023.1.0,Win32,59.88023952,,,,,,,,,,,,,,,,,,,,,,,,,,,,,,,,,,,,,,,,,,,,,
,,,,,,,0.320833333,-0.674074074,1,0,0,0,7,7,14,1,0.33,-0.67,17,001,2024-12-02_13h14.40.363,Attention_exp_legacy,2023.1.0,Win32,59.88023952,calibration_square,,,,,,,,,,,,,,,,,,,,,,,,,,,,,,,,,,,,,,,,,,,,
,,,,,,,0.6625,-0.661111111,1,0,0,0,8,8,20,1,0.67,-0.67,17,001,2024-12-02_13h14.40.363,Attention_exp_legacy,2023.1.0,Win32,59.88023952,calibration_square,,,,,,,,,,,,,,,,,,,,,,,,,,,,,,,,,,,,,,,,,,,,
,,,,,,,-0.339583333,-0.662962963,1,0,0,0,9,9,4,1,-0.33,-0.67,17,001,2024-12-02_13h14.40.363,Attention_exp_legacy,2023.1.0,Win32,59.88023952,calibration_square,,,,,,,,,,,,,,,,,,,,,,,,,,,,,,,,,,,,,,,,,,,,
,,,,,,,-0.675,0.32962963,1,0,0,0,10,10,3,1,-0.67,0.33,17,001,2024-12-02_13h14.40.363,Attention_exp_legacy,2023.1.0,Win32,59.88023952,calibration_square,,,,,,,,,,,,,,,,,,,,,,,,,,,,,,,,,,,,,,,,,,,,
,,,,,,,0.325,0.022222222,1,0,0,0,11,11,16,1,0.33,0,17,001,2024-12-02_13h14.40.363,Attention_exp_legacy,2023.1.0,Win32,59.88023952,,,,,,,,,,,,,,,,,,,,,,,,,,,,,,,,,,,,,,,,,,,,,
,,,,,,,0.325,-0.301851852,1,0,0,0,12,12,15,1,0.33,-0.33,17,001,2024-12-02_13h14.40.363,Attention_exp_legacy,2023.1.0,Win32,59.88023952,,,,,,,,,,,,,,,,,,,,,,,,,,,,,,,,,,,,,,,,,,,,,
,,,,,,,-0.334375,0.001851852,1,0,0,0,13,13,6,1,-0.33,0,17,001,2024-12-02_13h14.40.363,Attention_exp_legacy,2023.1.0,Win32,59.88023952,calibration_square,,,,,,,,,,,,,,,,,,,,,,,,,,,,,,,,,,,,,,,,,,,,
,,,,,,,-0.669791667,-0.668518519,1,0,0,0,14,14,0,1,-0.67,-0.67,17,001,2024-12-02_13h14.40.363,Attention_exp_legacy,2023.1.0,Win32,59.88023952,calibration_square,,,,,,,,,,,,,,,,,,,,,,,,,,,,,,,,,,,,,,,,,,,,
,,,,,,,0.011458333,0.007407407,1,0,0,0,15,15,11,1,0,0,17,001,2024-12-02_13h14.40.363,Attention_exp_legacy,2023.1.0,Win32,59.88023952,,,,,,,,,,,,,,,,,,,,,,,,,,,,,,,,,,,,,,,,,,,,,
,,,,,,,0.004166667,0.35,1,0,0,0,16,16,12,1,0,0.33,17,001,2024-12-02_13h14.40.363,Attention_exp_legacy,2023.1.0,Win32,59.88023952,,,,,,,,,,,,,,,,,,,,,,,,,,,,,,,,,,,,,,,,,,,,,
,,,,,,,-0.001041667,0.67962963,1,0,0,0,17,17,13,1,0,0.67,17,001,2024-12-02_13h14.40.363,Attention_exp_legacy,2023.1.0,Win32,59.88023952,calibration_square,,,,,,,,,,,,,,,,,,,,,,,,,,,,,,,,,,,,,,,,,,,,
,,,,,,,0.665625,0.687037037,1,0,0,0,18,18,19,1,0.67,0.67,17,001,2024-12-02_13h14.40.363,Attention_exp_legacy,2023.1.0,Win32,59.88023952,,,,,,,,,,,,,,,,,,,,,,,,,,,,,,,,,,,,,,,,,,,,,
,,,,,,,0.004166667,-0.657407407,1,0,0,0,19,19,9,1,0,-0.67,17,001,2024-12-02_13h14.40.363,Attention_exp_legacy,2023.1.0,Win32,59.88023952,,,,,,,,,,,,,,,,,,,,,,,,,,,,,,,,,,,,,,,,,,,,,
,,,,,,,-0.336458333,0.687037037,1,0,0,0,20,20,8,1,-0.33,0.67,17,001,2024-12-02_13h14.40.363,Attention_exp_legacy,2023.1.0,Win32,59.88023952,,,,,,,,,,,,,,,,,,,,,,,,,,,,,,,,,,,,,,,,,,,,,
,,,,,,,,,,,,,,,,,,,17,001,2024-12-02_13h14.40.363,Attention_exp_legacy,2023.1.0,Win32,59.88023952,,"[1920,1080]","[640,480]",[0.029166666666666667],[-0.5166666666666667],[1],[0],[0],[1.158099999999628],"[""StartButton""]",[0.027083333333333334],[0.37407407407407406],[1],[0],[0],[2.2210999999996304],"[""Option1_label""]",Option1_label,1,3.2288,"[[0.034375,-0.5148148148148148],[0.034375,-0.5148148148148148],[0.034375,-0.5148148148148148],[0.034375,-0.5148148148148148],[0.034375,-0.5148148148148148],[0.034375,-0.5148148148148148],[0.034375,-0.5148148148148148],[0.034375,-0.5148148148148148],[0.034375,-0.5148148148148148],[0.034375,-0.5148148148148148],[0.034375,-0.5148148148148148],[0.034375,-0.5148148148148148],[0.034375,-0.5148148148148148],[0.034375,-0.5148148148148148],[0.034375,-0.5148148148148148],[0.034375,-0.5148148148148148],[0.034375,-0.5148148148148148],[0.034375,-0.5148148148148148],[0.034375,-0.5148148148148148],[0.034375,-0.5148148148148148],[0.034375,-0.5148148148148148],[0.034375,-0.5148148148148148],[0.034375,-0.5148148148148148],[0.034375,-0.5148148148148148],[0.034375,-0.5148148148148148],[0.034375,-0.5148148148148148],[0.034375,-0.5148148148148148],[0.034375,-0.5148148148148148],[0.034375,-0.512962962962963],[0.034375,-0.5074074074074074],[0.035416666666666666,-0.4925925925925926],[0.041666666666666664,-0.45185185185185184],[0.05416666666666667,-0.3925925925925926],[0.06979166666666667,-0.29444444444444445],[0.09270833333333334,-0.15925925925925927],[0.1125,0.022222222222222223],[0.12291666666666666,0.10185185185185185],[0.12708333333333333,0.15925925925925927],[0.13125,0.2037037037037037],[0.134375,0.23333333333333334],[0.134375,0.2611111111111111],[0.134375,0.2796296296296296],[0.134375,0.2962962962962963],[0.134375,0.31851851851851853],[0.134375,0.32407407407407407],[0.134375,0.3296296296296296],[0.134375,0.3351851851851852],[0.134375,0.3388888888888889],[0.134375,0.34074074074074073],[0.134375,0.3425925925925926],[0.134375,0.34629629629629627],[0.134375,0.34814814814814815],[0.134375,0.35185185185185186],[0.134375,0.3537037037037037],[0.134375,0.3574074074074074],[0.13333333333333333,0.3574074074074074],[0.13333333333333333,0.3574074074074074],[0.13333333333333333,0.3592592592592593],[0.13333333333333333,0.3592592592592593],[0.13333333333333333,0.3592592592592593],[0.13333333333333333,0.3592592592592593],[0.13333333333333333,0.3592592592592593],[0.13333333333333333,0.3592592592592593],[0.13333333333333333,0.3592592592592593],[0.13333333333333333,0.3592592592592593],[0.13333333333333333,0.3592592592592593],[0.13333333333333333,0.3592592592592593],[0.13333333333333333,0.3592592592592593],[0.13229166666666667,0.362962962962963],[0.13229166666666667,0.362962962962963],[0.13125,0.362962962962963],[0.13125,0.362962962962963],[0.13125,0.3648148148148148],[0.13125,0.3648148148148148],[0.13125,0.3648148148148148],[0.13125,0.3648148148148148],[0.13125,0.3648148148148148],[0.13125,0.3648148148148148],[0.13125,0.3648148148148148],[0.13125,0.3648148148148148],[0.13125,0.3648148148148148],[0.13125,0.3648148148148148],[0.13125,0.3648148148148148],[0.13125,0.3648148148148148],[0.13125,0.3648148148148148],[0.13125,0.3648148148148148],[0.13125,0.3648148148148148],[0.13125,0.3648148148148148],[0.13125,0.3648148148148148],[0.13125,0.3648148148148148],[0.13125,0.3648148148148148],[0.13125,0.3648148148148148],[0.13020833333333334,0.36666666666666664],[0.13020833333333334,0.3685185185185185],[0.13020833333333334,0.3685185185185185],[0.12916666666666668,0.37037037037037035],[0.12916666666666668,0.37037037037037035],[0.128125,0.37037037037037035],[0.128125,0.37037037037037035],[0.12708333333333333,0.37222222222222223],[0.12708333333333333,0.37222222222222223],[0.12708333333333333,0.37222222222222223],[0.12604166666666666,0.37222222222222223],[0.12395833333333334,0.37407407407407406],[0.12395833333333334,0.37407407407407406],[0.12395833333333334,0.37407407407407406],[0.12395833333333334,0.37407407407407406],[0.12395833333333334,0.37407407407407406],[0.12395833333333334,0.37407407407407406],[0.12395833333333334,0.37407407407407406],[0.12395833333333334,0.37407407407407406],[0.12291666666666666,0.37407407407407406],[0.12291666666666666,0.37407407407407406],[0.12291666666666666,0.37407407407407406],[0.121875,0.37407407407407406],[0.11875,0.37407407407407406],[0.11666666666666667,0.37407407407407406],[0.11458333333333333,0.37407407407407406],[0.11145833333333334,0.37407407407407406],[0.09583333333333334,0.37407407407407406],[0.07916666666666666,0.37407407407407406],[0.0625,0.37407407407407406],[0.046875,0.37407407407407406],[0.03854166666666667,0.37407407407407406],[0.03229166666666667,0.37407407407407406],[0.029166666666666667,0.37407407407407406],[0.027083333333333334,0.37407407407407406],[0.027083333333333334,0.37407407407407406],[0.027083333333333334,0.37407407407407406],[0.027083333333333334,0.37407407407407406],[0.027083333333333334,0.37407407407407406],[0.027083333333333334,0.37407407407407406],[0.027083333333333334,0.37407407407407406],[0.027083333333333334,0.37407407407407406],[0.027083333333333334,0.37407407407407406],[0.027083333333333334,0.37407407407407406],[0.027083333333333334,0.37407407407407406],[0.027083333333333334,0.37407407407407406],[0.027083333333333334,0.37407407407407406],[0.027083333333333334,0.37407407407407406],[0.027083333333333334,0.37407407407407406],[0.027083333333333334,0.37407407407407406],[0.027083333333333334,0.37407407407407406],[0.027083333333333334,0.37407407407407406],[0.027083333333333334,0.37407407407407406],[0.027083333333333334,0.37407407407407406],[0.027083333333333334,0.37407407407407406],[0.027083333333333334,0.37407407407407406],[0.027083333333333334,0.37407407407407406],[0.027083333333333334,0.37407407407407406],[0.027083333333333334,0.37407407407407406],[0.027083333333333334,0.37407407407407406],[0.027083333333333334,0.37407407407407406],[0.027083333333333334,0.37407407407407406],[0.027083333333333334,0.37407407407407406],[0.027083333333333334,0.37407407407407406],[0.027083333333333334,0.37407407407407406],[0.027083333333333334,0.37407407407407406],[0.027083333333333334,0.37407407407407406],[0.027083333333333334,0.37407407407407406],[0.027083333333333334,0.37407407407407406],[0.027083333333333334,0.37407407407407406],[0.027083333333333334,0.37407407407407406],[0.027083333333333334,0.37407407407407406],[0.027083333333333334,0.37407407407407406],[0.027083333333333334,0.37407407407407406],[0.027083333333333334,0.37407407407407406],[0.027083333333333334,0.37407407407407406],[0.027083333333333334,0.37407407407407406],[0.027083333333333334,0.37407407407407406],[0.027083333333333334,0.37407407407407406],[0.027083333333333334,0.37407407407407406],[0.027083333333333334,0.37407407407407406],[0.027083333333333334,0.37407407407407406],[0.027083333333333334,0.37407407407407406],[0.027083333333333334,0.37407407407407406],[0.027083333333333334,0.37407407407407406],[0.027083333333333334,0.37407407407407406],[0.027083333333333334,0.37407407407407406],[0.027083333333333334,0.37407407407407406],[0.027083333333333334,0.37407407407407406],[0.027083333333333334,0.37407407407407406],[0.027083333333333334,0.37407407407407406],[0.027083333333333334,0.37407407407407406],[0.027083333333333334,0.37407407407407406],[0.027083333333333334,0.37407407407407406],[0.027083333333333334,0.37407407407407406],[0.027083333333333334,0.37407407407407406],[0.027083333333333334,0.37407407407407406],[0.027083333333333334,0.37407407407407406],[0.027083333333333334,0.37407407407407406],[0.027083333333333334,0.37407407407407406],[0.027083333333333334,0.37407407407407406]]","[[-0.13895833333333332,-0.07666666666666662],[-0.13895833333333332,-0.07666666666666662],[-0.1436458333333333,-0.08759259259259261],[-0.15729166666666666,-0.11629629629629631],[-0.15499999999999994,-0.046481481481481526],[-0.15739583333333335,-0.010740740740740657],[-0.16145833333333334,0.018518518518518517],[-0.16218750000000004,0.04314814814814806],[-0.1436458333333333,0.06703703703703712],[-0.1342708333333333,0.09870370370370361],[-0.12781250000000005,0.13222222222222219],[-0.13208333333333327,0.15388888888888894],[-0.12906249999999997,0.16777777777777783],[-0.1170833333333333,0.19944444444444454],[-0.10239583333333328,0.17296296296296293],[-0.08500000000000002,0.17851851851851847],[-0.07406250000000002,0.17388888888888884],[-0.06520833333333335,0.15648148148148147],[-0.07218749999999995,0.1448148148148149],[-0.06208333333333336,0.1316666666666667],[-0.053125,0.13481481481481472],[-0.05499999999999995,0.14537037037037037],[-0.051145833333333356,0.11611111111111119],[-0.04729166666666664,0.0868518518518518],[-0.04989583333333331,0.06407407407407412],[-0.051874999999999956,0.032407407407407406],[-0.059895833333333336,-0.004074074074074159],[-0.06916666666666664,-0.023148148148148147],[-0.08614583333333338,-0.06500000000000004],[-0.08270833333333331,-0.02388888888888885],[-0.08333333333333333,0.023148148148148147],[-0.0751041666666667,0.061666666666666585],[-0.07135416666666666,0.05018518518518523],[-0.06979166666666667,0.09351851851851851],[-0.059375,0.09907407407407408],[-0.04760416666666671,0.11555555555555551],[-0.04656250000000005,0.1557407407407408],[-0.04552083333333338,0.19592592592592584],[-0.035000000000000024,0.25685185185185194],[-0.04760416666666671,0.23629629629629634],[-0.029062499999999977,0.16425925925925935],[-0.010312499999999976,0.07777777777777778],[0.005624999999999976,0.06796296296296304],[0.011562500000000024,0.02296296296296292],[0.015104166666666667,0.009259259259259259],[0.013437499999999976,-0.009629629629629714],[0.017499999999999953,-0.06277777777777774],[0.0453125,-0.1190740740740741],[0.04500000000000005,-0.11388888888888889],[0.05354166666666664,-0.14981481481481476],[0.034166666666666616,-0.09722222222222222],[0.014583333333333334,-0.0301851851851851],[0.00302083333333331,0.0477777777777777],[0.0036458333333333334,0.10611111111111103],[-0.00458333333333331,0.09222222222222214],[-0.007604166666666619,0.08351851851851856],[0.016770833333333356,0.09351851851851851],[0.01739583333333338,0.10666666666666672],[0.04354166666666662,0.06944444444444445],[0.05562499999999997,0.06555555555555552],[0.07249999999999991,0.013703703703703662],[0.08937499999999995,-0.03814814814814819],[0.08937499999999995,-0.03814814814814819],[0.09822916666666662,-0.10092592592592593],[0.10510416666666676,-0.13240740740740742],[0.13666666666666671,-0.10537037037037032],[0.16822916666666668,-0.07833333333333335],[0.16885416666666658,-0.062407407407407384],[0.1694791666666667,-0.046481481481481526],[0.1694791666666667,-0.046481481481481526],[0.17416666666666672,-0.028703703703703703],[0.17416666666666672,-0.028703703703703703],[0.18947916666666675,-0.02240740740740745],[0.18947916666666675,-0.02240740740740745],[0.1881249999999999,-0.047037037037036995],[0.1881249999999999,-0.047037037037036995],[0.1990624999999999,-0.08425925925925926],[0.1990624999999999,-0.08425925925925926],[0.20343749999999997,-0.08499999999999996],[0.20343749999999997,-0.08499999999999996],[0.21218750000000006,-0.11666666666666667],[0.1977083333333333,-0.10611111111111113],[0.16843750000000005,-0.050370370370370454],[0.15374999999999991,0.01314814814814819],[0.14187500000000006,0.028703703703703703],[0.12052083333333338,0.09296296296296305],[0.08854166666666667,0.16870370370370374],[0.07843749999999995,0.2361111111111111],[0.05604166666666662,0.3161111111111112],[0.041979166666666616,0.36370370370370364],[0.025520833333333333,0.41092592592592586],[0.006979166666666714,0.4383333333333334],[0.003854166666666714,0.42537037037037045],[0.02041666666666669,0.3566666666666667],[0.022291666666666644,0.35611111111111104],[0.03218749999999997,0.293888888888889],[0.03718750000000005,0.21518518518518526],[0.03156249999999995,0.19759259259259268],[0.04239583333333338,0.12314814814814815],[0.04750000000000002,0.09981481481481477],[0.058749999999999976,0.009074074074074031],[0.07947916666666661,-0.09037037037037039],[0.08624999999999995,-0.13425925925925927],[0.08229166666666667,-0.1618518518518518],[0.10458333333333343,-0.22925925925925927],[0.12687499999999996,-0.29666666666666663],[0.13729166666666662,-0.29814814814814816],[0.1493750000000001,-0.3164814814814814],[0.13916666666666658,-0.3087037037037037],[0.13291666666666657,-0.35611111111111116],[0.12072916666666676,-0.3359259259259259],[0.12072916666666676,-0.3359259259259259],[0.11062500000000004,-0.3218518518518519],[0.11833333333333323,-0.33370370370370367],[0.11729166666666657,-0.3066666666666667],[0.10979166666666676,-0.2975925925925926],[0.10499999999999995,-0.28166666666666673],[0.11697916666666662,-0.3151851851851852],[0.12979166666666658,-0.34296296296296297],[0.14375,-0.35259259259259257],[0.15343749999999995,-0.39462962962962966],[0.16291666666666677,-0.4368518518518518],[0.1788541666666667,-0.4492592592592593],[0.18614583333333337,-0.49018518518518517],[0.18864583333333323,-0.5283333333333333],[0.18322916666666675,-0.528888888888889],[0.18322916666666675,-0.528888888888889],[0.16843750000000005,-0.5068518518518518],[0.16843750000000005,-0.5068518518518518],[0.165625,-0.5046296296296297],[0.16062500000000005,-0.5296296296296297],[0.15177083333333338,-0.5125925925925926],[0.16510416666666666,-0.47185185185185186],[0.17552083333333332,-0.4227777777777778],[0.17739583333333328,-0.39740740740740743],[0.17833333333333337,-0.3701851851851851],[0.18385416666666668,-0.34518518518518515],[0.1921875,-0.3362962962962963],[0.2071875000000001,-0.3568518518518518],[0.20739583333333325,-0.33925925925925926],[0.2087500000000001,-0.3001851851851852],[0.21197916666666666,-0.28481481481481485],[0.1834374999999999,-0.2566666666666667],[0.1578125,-0.2368518518518518],[0.1321875000000001,-0.21703703703703703],[0.1,-0.21962962962962967],[0.07802083333333343,-0.21370370370370367],[0.05322916666666669,-0.19166666666666668],[0.014791666666666713,-0.1844444444444445],[-0.020833333333333332,-0.1955555555555556],[-0.05281250000000005,-0.22037037037037038],[-0.078125,-0.25092592592592594],[-0.08781249999999995,-0.24018518518518517],[-0.10291666666666661,-0.2294444444444444],[-0.1046875,-0.2442592592592592],[-0.09479166666666666,-0.24444444444444444],[-0.08250000000000005,-0.2551851851851852],[-0.0702083333333333,-0.26592592592592595],[-0.044270833333333336,-0.26185185185185184],[-0.03760416666666669,-0.27759259259259256],[-0.03604166666666669,-0.27759259259259256],[-0.034166666666666616,-0.24222222222222226],[-0.02333333333333331,-0.2994444444444444],[0.0048958333333333805,-0.34148148148148144],[0.008958333333333356,-0.2837037037037037],[-0.007395833333333357,-0.2294444444444444],[-0.01604166666666664,-0.17407407407407408],[-0.034062500000000044,-0.11333333333333331],[-0.05666666666666664,-0.07000000000000002],[-0.060000000000000026,-0.006851851851851936],[-0.06572916666666669,0.07666666666666662],[-0.07177083333333331,0.12481481481481477],[-0.08729166666666661,0.23537037037037042],[-0.11479166666666671,0.3307407407407408],[-0.11145833333333334,0.3087037037037038],[-0.06499999999999997,0.3287037037037037],[-0.05499999999999995,0.32444444444444454],[-0.035625000000000046,0.3148148148148148],[0.004166666666666667,0.362962962962963],[0.029166666666666667,0.3375925925925925],[0.06489583333333329,0.28425925925925927],[0.11020833333333328,0.2862962962962963],[0.15260416666666668,0.2814814814814815],[0.18041666666666673,0.2300000000000001],[0.19979166666666662,0.26129629629629636],[0.17833333333333337,0.22240740740740744],[0.1694791666666667,0.2035185185185185],[0.15520833333333334,0.17037037037037037],[0.12510416666666657,0.09685185185185177],[0.10614583333333343,0.09870370370370361],[0.08375000000000009,0.12166666666666676],[0.051770833333333384,0.08925925925925934],[0.018229166666666668,0.0257407407407407]]","[[-0.13895833333333332,-0.07666666666666662,0.000200000000184275],[-0.13895833333333332,-0.07666666666666662,0.0474000000003727],[-0.1436458333333333,-0.08759259259259261,0.062100000000555156],[-0.15729166666666666,-0.11629629629629631,0.07849999999999824],[-0.15499999999999994,-0.046481481481481526,0.09520000000018314],[-0.15739583333333335,-0.010740740740740657,0.11190000000037514],[-0.16145833333333334,0.018518518518518517,0.1287999999998135],[-0.16218750000000004,0.04314814814814806,0.14670000000018746],[-0.1436458333333333,0.06703703703703712,0.1619000000003723],[-0.1342708333333333,0.09870370370370361,0.17849999999999966],[-0.12781250000000005,0.13222222222222219,0.19520000000018456],[-0.13208333333333327,0.15388888888888894,0.21190000000036946],[-0.12906249999999997,0.16777777777777783,0.2287000000001882],[-0.1170833333333333,0.19944444444444454,0.24520000000018882],[-0.10239583333333328,0.17296296296296293,0.2617999999998162],[-0.08500000000000002,0.17851851851851847,0.2785000000000011],[-0.07406250000000002,0.17388888888888884,0.29510000000055925],[-0.06520833333333335,0.15648148148148147,0.3119000000003709],[-0.07218749999999995,0.1448148148148149,0.3286000000005558],[-0.06208333333333336,0.1316666666666667,0.34770000000018797],[-0.053125,0.13481481481481472,0.36190000000037514],[-0.05499999999999995,0.14537037037037037,0.37860000000056004],[-0.051145833333333356,0.11611111111111119,0.39510000000056067],[-0.04729166666666664,0.0868518518518518,0.4119000000003723],[-0.04989583333333331,0.06407407407407412,0.43010000000055726],[-0.051874999999999956,0.032407407407407406,0.44520000000018456],[-0.059895833333333336,-0.004074074074074159,0.46190000000036946],[-0.06916666666666664,-0.023148148148148147,0.47860000000056147],[-0.08614583333333338,-0.06500000000000004,0.49720000000018416],[-0.08270833333333331,-0.02388888888888885,0.5119000000003737],[-0.08333333333333333,0.023148148148148147,0.5289000000003696],[-0.0751041666666667,0.061666666666666585,0.5482999999998128],[-0.07135416666666666,0.05018518518518523,0.562200000000189],[-0.06979166666666667,0.09351851851851851,0.5787000000001825],[-0.059375,0.09907407407407408,0.5954000000003745],[-0.04760416666666671,0.11555555555555551,0.615299999999813],[-0.04656250000000005,0.1557407407407408,0.6302000000001868],[-0.04552083333333338,0.19592592592592584,0.6454000000003717],[-0.035000000000000024,0.25685185185185194,0.661999999999999],[-0.04760416666666671,0.23629629629629634,0.6814999999999998],[-0.029062499999999977,0.16425925925925935,0.6952999999998113],[-0.010312499999999976,0.07777777777777778,0.7121000000005608],[0.005624999999999976,0.06796296296296304,0.7322000000001836],[0.011562500000000024,0.02296296296296292,0.7479000000003708],[0.015104166666666667,0.009259259259259259,0.762400000000369],[0.013437499999999976,-0.009629629629629714,0.7787000000001854],[0.017499999999999953,-0.06277777777777774,0.7977999999998104],[0.0453125,-0.1190740740740741,0.812200000000189],[0.04500000000000005,-0.11388888888888889,0.8294000000003692],[0.05354166666666664,-0.14981481481481476,0.8485000000000014],[0.034166666666666616,-0.09722222222222222,0.8619000000003751],[0.014583333333333334,-0.0301851851851851,0.8787000000001868],[0.00302083333333331,0.0477777777777777,0.8952999999998141],[0.0036458333333333334,0.10611111111111103,0.9152999999998102],[-0.00458333333333331,0.09222222222222214,0.931700000000184],[-0.007604166666666619,0.08351851851851856,0.9489999999999981],[0.016770833333333356,0.09351851851851851,0.9639999999999986],[0.01739583333333338,0.10666666666666672,0.9814000000003702],[0.04354166666666662,0.06944444444444445,0.995100000000555],[0.05562499999999997,0.06555555555555552,1.0120000000000005],[0.07249999999999991,0.013703703703703662,1.0286000000005586],[0.08937499999999995,-0.03814814814814819,1.0507000000001838],[0.08937499999999995,-0.03814814814814819,1.0617999999998133],[0.09822916666666662,-0.10092592592592593,1.0784999999999982],[0.10510416666666676,-0.13240740740740742,1.0952000000001831],[0.13666666666666671,-0.10537037037037032,1.1119000000003751],[0.16822916666666668,-0.07833333333333335,1.1287000000001868],[0.16885416666666658,-0.062407407407407384,1.1452000000001874],[0.1694791666666667,-0.046481481481481526,1.1721000000005546],[0.1694791666666667,-0.046481481481481526,1.1789000000003682],[0.17416666666666672,-0.028703703703703703,1.1952999999998113],[0.17416666666666672,-0.028703703703703703,1.211799999999812],[0.18947916666666675,-0.02240740740740745,1.2349999999999994],[0.18947916666666675,-0.02240740740740745,1.2452000000001888],[0.1881249999999999,-0.047037037037036995,1.2619000000003737],[0.1881249999999999,-0.047037037037036995,1.278500000000001],[0.1990624999999999,-0.08425925925925926,1.295200000000186],[0.1990624999999999,-0.08425925925925926,1.3119000000003709],[0.20343749999999997,-0.08499999999999996,1.3286000000005558],[0.20343749999999997,-0.08499999999999996,1.3451000000005564],[0.21218750000000006,-0.11666666666666667,1.3619000000003751],[0.1977083333333333,-0.10611111111111113,1.3785000000000025],[0.16843750000000005,-0.050370370370370454,1.3952000000001874],[0.15374999999999991,0.01314814814814819,1.4117999999998148],[0.14187500000000006,0.028703703703703703,1.428700000000184],[0.12052083333333338,0.09296296296296305,1.4452000000001846],[0.08854166666666667,0.16870370370370374,1.461799999999812],[0.07843749999999995,0.2361111111111111,1.47840000000037],[0.05604166666666662,0.3161111111111112,1.4952000000001888],[0.041979166666666616,0.36370370370370364,1.5117999999998162],[0.025520833333333333,0.41092592592592586,1.5286000000005586],[0.006979166666666714,0.4383333333333334,1.5451000000005592],[0.003854166666666714,0.42537037037037045,1.5645000000000024],[0.02041666666666669,0.3566666666666667,1.579200000000185],[0.022291666666666644,0.35611111111111104,1.5952000000001831],[0.03218749999999997,0.293888888888889,1.6152000000001863],[0.03718750000000005,0.21518518518518526,1.63010000000056],[0.03156249999999995,0.19759259259259268,1.6461000000005583],[0.04239583333333338,0.12314814814814815,1.6619000000003723],[0.04750000000000002,0.09981481481481477,1.6819000000003683],[0.058749999999999976,0.009074074074074031,1.6952000000001846],[0.07947916666666661,-0.09037037037037039,1.7119000000003695],[0.08624999999999995,-0.13425925925925927,1.7334999999999994],[0.08229166666666667,-0.1618518518518518,1.748799999999811],[0.10458333333333343,-0.22925925925925927,1.7632000000001824],[0.12687499999999996,-0.29666666666666663,1.778500000000001],[0.13729166666666662,-0.29814814814814816,1.795499999999997],[0.1493750000000001,-0.3164814814814814,1.8117999999998133],[0.13916666666666658,-0.3087037037037037,1.8286000000005558],[0.13291666666666657,-0.35611111111111116,1.8451000000005564],[0.12072916666666676,-0.3359259259259259,1.8619000000003751],[0.12072916666666676,-0.3359259259259259,1.8810000000000002],[0.11062500000000004,-0.3218518518518519,1.8951000000005607],[0.11833333333333323,-0.33370370370370367,1.9139000000003747],[0.11729166666666657,-0.3066666666666667,1.9322999999998132],[0.10979166666666676,-0.2975925925925926,1.948100000000558],[0.10499999999999995,-0.28166666666666673,1.9641000000005562],[0.11697916666666662,-0.3151851851851852,1.9787000000001882],[0.12979166666666658,-0.34296296296296297,1.9986000000005575],[0.14375,-0.35259259259259257,2.0144000000003714],[0.15343749999999995,-0.39462962962962966,2.0297999999998098],[0.16291666666666677,-0.4368518518518518,2.0502000000001885],[0.1788541666666667,-0.4492592592592593,2.0649999999999977],[0.18614583333333337,-0.49018518518518517,2.078900000000374],[0.18864583333333323,-0.5283333333333333,2.09529999999981],[0.18322916666666675,-0.528888888888889,2.114700000000184],[0.18322916666666675,-0.528888888888889,2.1297000000001844],[0.16843750000000005,-0.5068518518518518,2.148900000000374],[0.16843750000000005,-0.5068518518518518,2.1617999999998148],[0.165625,-0.5046296296296297,2.1784999999999997],[0.16062500000000005,-0.5296296296296297,2.1952000000001846],[0.15177083333333338,-0.5125925925925926,2.2119000000003695],[0.16510416666666666,-0.47185185185185186,2.228499999999997],[0.17552083333333332,-0.4227777777777778,2.245200000000189],[0.17739583333333328,-0.39740740740740743,2.261799999999816],[0.17833333333333337,-0.3701851851851851,2.278500000000001],[0.18385416666666668,-0.34518518518518515,2.295200000000186],[0.1921875,-0.3362962962962963,2.311900000000371],[0.2071875000000001,-0.3568518518518518,2.3284999999999982],[0.20739583333333325,-0.33925925925925926,2.345200000000183],[0.2087500000000001,-0.3001851851851852,2.3617999999998105],[0.21197916666666666,-0.28481481481481485,2.3785000000000025],[0.1834374999999999,-0.2566666666666667,2.3951000000005607],[0.1578125,-0.2368518518518518,2.4117999999998148],[0.1321875000000001,-0.21703703703703703,2.4284999999999997],[0.1,-0.21962962962962967,2.4452000000001846],[0.07802083333333343,-0.21370370370370367,2.461799999999812],[0.05322916666666669,-0.19166666666666668,2.478499999999997],[0.014791666666666713,-0.1844444444444445,2.495200000000189],[-0.020833333333333332,-0.1955555555555556,2.511799999999816],[-0.05281250000000005,-0.22037037037037038,2.528500000000001],[-0.078125,-0.25092592592592594,2.545200000000186],[-0.08781249999999995,-0.24018518518518517,2.5617999999998133],[-0.10291666666666661,-0.2294444444444444,2.5784999999999982],[-0.1046875,-0.2442592592592592,2.595200000000183],[-0.09479166666666666,-0.24444444444444444,2.6117999999998105],[-0.08250000000000005,-0.2551851851851852,2.62860000000056],[-0.0702083333333333,-0.26592592592592595,2.6451000000005607],[-0.044270833333333336,-0.26185185185185184,2.6617999999998148],[-0.03760416666666669,-0.27759259259259256,2.6784999999999997],[-0.03604166666666669,-0.27759259259259256,2.695100000000558],[-0.034166666666666616,-0.24222222222222226,2.711799999999812],[-0.02333333333333331,-0.2994444444444444,2.728499999999997],[0.0048958333333333805,-0.34148148148148144,2.7485],[0.008958333333333356,-0.2837037037037037,2.762100000000558],[-0.007395833333333357,-0.2294444444444444,2.7784000000003743],[-0.01604166666666664,-0.17407407407407408,2.7951000000005592],[-0.034062500000000044,-0.11333333333333331,2.8117999999998133],[-0.05666666666666664,-0.07000000000000002,2.829100000000558],[-0.060000000000000026,-0.006851851851851936,2.8451000000005564],[-0.06572916666666669,0.07666666666666662,2.8617999999998105],[-0.07177083333333331,0.12481481481481477,2.8785000000000025],[-0.08729166666666661,0.23537037037037042,2.8951000000005607],[-0.11479166666666671,0.3307407407407408,2.9117999999998148],[-0.11145833333333334,0.3087037037037038,2.928600000000557],[-0.06499999999999997,0.3287037037037037,2.945100000000558],[-0.05499999999999995,0.32444444444444454,2.961799999999812],[-0.035625000000000046,0.3148148148148148,2.978499999999997],[0.004166666666666667,0.362962962962963,2.995200000000189],[0.029166666666666667,0.3375925925925925,3.011799999999816],[0.06489583333333329,0.28425925925925927,3.0286000000005586],[0.11020833333333328,0.2862962962962963,3.0484000000003704],[0.15260416666666668,0.2814814814814815,3.0617999999998133],[0.18041666666666673,0.2300000000000001,3.0784999999999982],[0.19979166666666662,0.26129629629629636,3.0951000000005564],[0.17833333333333337,0.22240740740740744,3.1117999999998105],[0.1694791666666667,0.2035185185185185,3.1284000000003687],[0.15520833333333334,0.17037037037037037,3.145299999999814],[0.12510416666666657,0.09685185185185177,3.1619000000003723],[0.10614583333333343,0.09870370370370361,3.1784999999999997],[0.08375000000000009,0.12166666666666676,3.1967000000001846],[0.051770833333333384,0.08925925925925934,3.211700000000185],[0.018229166666666668,0.0257407407407407,3.228799999999815]]","[0.000200000000184275,0.0474000000003727,0.062100000000555156,0.07849999999999824,0.09520000000018314,0.11190000000037514,0.1287999999998135,0.14670000000018746,0.1619000000003723,0.17849999999999966,0.19520000000018456,0.21190000000036946,0.2287000000001882,0.24520000000018882,0.2617999999998162,0.2785000000000011,0.29510000000055925,0.3119000000003709,0.3286000000005558,0.34770000000018797,0.36190000000037514,0.37860000000056004,0.39510000000056067,0.4119000000003723,0.43010000000055726,0.44520000000018456,0.46190000000036946,0.47860000000056147,0.49720000000018416,0.5119000000003737,0.5289000000003696,0.5482999999998128,0.562200000000189,0.5787000000001825,0.5954000000003745,0.615299999999813,0.6302000000001868,0.6454000000003717,0.661999999999999,0.6814999999999998,0.6952999999998113,0.7121000000005608,0.7322000000001836,0.7479000000003708,0.762400000000369,0.7787000000001854,0.7977999999998104,0.812200000000189,0.8294000000003692,0.8485000000000014,0.8619000000003751,0.8787000000001868,0.8952999999998141,0.9152999999998102,0.931700000000184,0.9489999999999981,0.9639999999999986,0.9814000000003702,0.995100000000555,1.0120000000000005,1.0286000000005586,1.0507000000001838,1.0617999999998133,1.0784999999999982,1.0952000000001831,1.1119000000003751,1.1287000000001868,1.1452000000001874,1.1721000000005546,1.1789000000003682,1.1952999999998113,1.211799999999812,1.2349999999999994,1.2452000000001888,1.2619000000003737,1.278500000000001,1.295200000000186,1.3119000000003709,1.3286000000005558,1.3451000000005564,1.3619000000003751,1.3785000000000025,1.3952000000001874,1.4117999999998148,1.428700000000184,1.4452000000001846,1.461799999999812,1.47840000000037,1.4952000000001888,1.5117999999998162,1.5286000000005586,1.5451000000005592,1.5645000000000024,1.579200000000185,1.5952000000001831,1.6152000000001863,1.63010000000056,1.6461000000005583,1.6619000000003723,1.6819000000003683,1.6952000000001846,1.7119000000003695,1.7334999999999994,1.748799999999811,1.7632000000001824,1.778500000000001,1.795499999999997,1.8117999999998133,1.8286000000005558,1.8451000000005564,1.8619000000003751,1.8810000000000002,1.8951000000005607,1.9139000000003747,1.9322999999998132,1.948100000000558,1.9641000000005562,1.9787000000001882,1.9986000000005575,2.0144000000003714,2.0297999999998098,2.0502000000001885,2.0649999999999977,2.078900000000374,2.09529999999981,2.114700000000184,2.1297000000001844,2.148900000000374,2.1617999999998148,2.1784999999999997,2.1952000000001846,2.2119000000003695,2.228499999999997,2.245200000000189,2.261799999999816,2.278500000000001,2.295200000000186,2.311900000000371,2.3284999999999982,2.345200000000183,2.3617999999998105,2.3785000000000025,2.3951000000005607,2.4117999999998148,2.4284999999999997,2.4452000000001846,2.461799999999812,2.478499999999997,2.495200000000189,2.511799999999816,2.528500000000001,2.545200000000186,2.5617999999998133,2.5784999999999982,2.595200000000183,2.6117999999998105,2.62860000000056,2.6451000000005607,2.6617999999998148,2.6784999999999997,2.695100000000558,2.711799999999812,2.728499999999997,2.7485,2.762100000000558,2.7784000000003743,2.7951000000005592,2.8117999999998133,2.829100000000558,2.8451000000005564,2.8617999999998105,2.8785000000000025,2.8951000000005607,2.9117999999998148,2.928600000000557,2.945100000000558,2.961799999999812,2.978499999999997,2.995200000000189,3.011799999999816,3.0286000000005586,3.0484000000003704,3.0617999999998133,3.0784999999999982,3.0951000000005564,3.1117999999998105,3.1284000000003687,3.145299999999814,3.1619000000003723,3.1784999999999997,3.1967000000001846,3.211700000000185,3.228799999999815]","[1733116522407,1733116522447,1733116522462,1733116522478,1733116522495,1733116522512,1733116522529,1733116522547,1733116522562,1733116522579,1733116522596,1733116522612,1733116522629,1733116522646,1733116522662,1733116522679,1733116522696,1733116522712,1733116522729,1733116522748,1733116522762,1733116522779,1733116522796,1733116522813,1733116522831,1733116522846,1733116522862,1733116522879,1733116522898,1733116522913,1733116522929,1733116522949,1733116522963,1733116522979,1733116522996,1733116523016,1733116523031,1733116523046,1733116523063,1733116523082,1733116523096,1733116523113,1733116523133,1733116523148,1733116523163,1733116523179,1733116523198,1733116523213,1733116523230,1733116523249,1733116523263,1733116523279,1733116523296,1733116523316,1733116523332,1733116523350,1733116523365,1733116523382,1733116523396,1733116523413,1733116523429,1733116523451,1733116523462,1733116523479,1733116523496,1733116523512,1733116523529,1733116523546,1733116523573,1733116523579,1733116523596,1733116523612,1733116523636,1733116523646,1733116523662,1733116523679,1733116523696,1733116523712,1733116523729,1733116523746,1733116523762,1733116523779,1733116523796,1733116523812,1733116523829,1733116523846,1733116523862,1733116523879,1733116523896,1733116523912,1733116523929,1733116523946,1733116523965,1733116523980,1733116523996,1733116524016,1733116524031,1733116524047,1733116524062,1733116524082,1733116524096,1733116524112,1733116524134,1733116524149,1733116524164,1733116524179,1733116524196,1733116524212,1733116524229,1733116524246,1733116524262,1733116524282,1733116524296,1733116524314,1733116524333,1733116524349,1733116524365,1733116524379,1733116524399,1733116524415,1733116524430,1733116524451,1733116524466,1733116524479,1733116524496,1733116524515,1733116524530,1733116524549,1733116524562,1733116524579,1733116524596,1733116524612,1733116524629,1733116524646,1733116524662,1733116524679,1733116524696,1733116524713,1733116524729,1733116524746,1733116524762,1733116524779,1733116524796,1733116524812,1733116524829,1733116524846,1733116524862,1733116524879,1733116524896,1733116524912,1733116524929,1733116524946,1733116524962,1733116524979,1733116524996,1733116525012,1733116525029,1733116525046,1733116525062,1733116525079,1733116525096,1733116525112,1733116525129,1733116525149,1733116525163,1733116525179,1733116525196,1733116525212,1733116525230,1733116525246,1733116525262,1733116525279,1733116525296,1733116525312,1733116525329,1733116525346,1733116525362,1733116525379,1733116525396,1733116525412,1733116525429,1733116525449,1733116525462,1733116525479,1733116525496,1733116525512,1733116525529,1733116525546,1733116525562,1733116525579,1733116525597,1733116525612,1733116525629]","[[826.6,498.6],[826.6,498.6],[822.1,492.7],[809,477.2],[811.2,514.9],[808.9,534.2],[805,550],[804.3,563.3],[822.1,576.2],[831.1,593.3],[837.3,611.4],[833.2,623.1],[836.1,630.6],[847.6,647.7],[861.7,633.4],[878.4,636.4],[888.9,633.9],[897.4,624.5],[890.7,618.2],[900.4,611.1],[909,612.8],[907.2,618.5],[910.9,602.7],[914.6,586.9],[912.1,574.6],[910.2,557.5],[902.5,537.8],[893.6,527.5],[877.3,504.9],[880.6,527.1],[880,552.5],[887.9,573.3],[891.5,567.1],[893,590.5],[903,593.5],[914.3,602.4],[915.3,624.1],[916.3,645.8],[926.4,678.7],[914.3,667.6],[932.1,628.7],[950.1,582],[965.4,576.7],[971.1,552.4],[974.5,545],[972.9,534.8],[976.8,506.1],[1003.5,475.7],[1003.2,478.5],[1011.4,459.1],[992.8,487.5],[974,523.7],[962.9,565.8],[963.5,597.3],[955.6,589.8],[952.7,585.1],[976.1,590.5],[976.7,597.6],[1001.8,577.5],[1013.4,575.4],[1029.6,547.4],[1045.8,519.4],[1045.8,519.4],[1054.3,485.5],[1060.9,468.5],[1091.2,483.1],[1121.5,497.7],[1122.1,506.3],[1122.7,514.9],[1122.7,514.9],[1127.2,524.5],[1127.2,524.5],[1141.9,527.9],[1141.9,527.9],[1140.6,514.6],[1140.6,514.6],[1151.1,494.5],[1151.1,494.5],[1155.3,494.1],[1155.3,494.1],[1163.7,477],[1149.8,482.7],[1121.7,512.8],[1107.6,547.1],[1096.2,555.5],[1075.7,590.2],[1045,631.1],[1035.3,667.5],[1013.8,710.7],[1000.3,736.4],[984.5,761.9],[966.7,776.7],[963.7,769.7],[979.6,732.6],[981.4,732.3],[990.9,698.7],[995.7,656.2],[990.3,646.7],[1000.7,606.5],[1005.6,593.9],[1016.4,544.9],[1036.3,491.2],[1042.8,467.5],[1039,452.6],[1060.4,416.2],[1081.8,379.8],[1091.8,379],[1103.4,369.1],[1093.6,373.3],[1087.6,347.7],[1075.9,358.6],[1075.9,358.6],[1066.2,366.2],[1073.6,359.8],[1072.6,374.4],[1065.4,379.3],[1060.8,387.9],[1072.3,369.8],[1084.6,354.8],[1098,349.6],[1107.3,326.9],[1116.4,304.1],[1131.7,297.4],[1138.7,275.3],[1141.1,254.7],[1135.9,254.4],[1135.9,254.4],[1121.7,266.3],[1121.7,266.3],[1119,267.5],[1114.2,254],[1105.7,263.2],[1118.5,285.2],[1128.5,311.7],[1130.3,325.4],[1131.2,340.1],[1136.5,353.6],[1144.5,358.4],[1158.9,347.3],[1159.1,356.8],[1160.4,377.9],[1163.5,386.2],[1136.1,401.4],[1111.5,412.1],[1086.9,422.8],[1056,421.4],[1034.9,424.6],[1011.1,436.5],[974.2,440.4],[940,434.4],[909.3,421],[885,404.5],[875.7,410.3],[861.2,416.1],[859.5,408.1],[869,408],[880.8,402.2],[892.6,396.4],[917.5,398.6],[923.9,390.1],[925.4,390.1],[927.2,409.2],[937.6,378.3],[964.7,355.6],[968.6,386.8],[952.9,416.1],[944.6,446],[927.3,478.8],[905.6,502.2],[902.4,536.3],[896.9,581.4],[891.1,607.4],[876.2,667.1],[849.8,718.6],[853,706.7],[897.6,717.5],[907.2,715.2],[925.8,710],[964,736],[988,722.3],[1022.3,693.5],[1065.8,694.6],[1106.5,692],[1133.2,664.2],[1151.8,681.1],[1131.2,660.1],[1122.7,649.9],[1109,632],[1080.1,592.3],[1061.9,593.3],[1040.4,605.7],[1009.7,588.2],[977.5,553.9]]","[0,0.37864299999999995]","[0.37864299999999995,0.37864299999999995]","[-0.37864299999999995,0]","[-0.37864299999999995,-0.37864299999999995]","[0,0]","[0.37864299999999995,0]","[0,-0.37864299999999995]","[0.37864299999999995,-0.37864299999999995]",0,0,0,0,1,3,Laptop,11,9,9,1
,,,,,,,,,,,,,,,,,,,17,001,2024-12-02_13h14.40.363,Attention_exp_legacy,2023.1.0,Win32,59.88023952,,,,,,,,,,,"[-0.011458333333333333,-0.0125]","[0.26481481481481484,0.3314814814814815]","[1,1]","[0,0]","[0,0]","[2.148400000000372,2.5484000000003704]","[""Option1_label"",""Option1_label""]",Option1_label,2,3.1663,"[[0.027083333333333334,0.37407407407407406],[0.025,0.37407407407407406],[0.023958333333333335,0.37407407407407406],[0.023958333333333335,0.37407407407407406],[0.023958333333333335,0.37407407407407406],[0.023958333333333335,0.37407407407407406],[0.023958333333333335,0.37407407407407406],[0.023958333333333335,0.37407407407407406],[0.022916666666666665,0.37407407407407406],[0.022916666666666665,0.37407407407407406],[0.022916666666666665,0.37407407407407406],[0.022916666666666665,0.37407407407407406],[0.022916666666666665,0.37407407407407406],[0.022916666666666665,0.37407407407407406],[0.022916666666666665,0.37407407407407406],[0.022916666666666665,0.37407407407407406],[0.022916666666666665,0.37407407407407406],[0.022916666666666665,0.37407407407407406],[0.022916666666666665,0.37407407407407406],[0.022916666666666665,0.37407407407407406],[0.022916666666666665,0.37407407407407406],[0.022916666666666665,0.37407407407407406],[0.022916666666666665,0.37407407407407406],[0.022916666666666665,0.37407407407407406],[0.022916666666666665,0.37407407407407406],[0.022916666666666665,0.37407407407407406],[0.022916666666666665,0.37407407407407406],[0.022916666666666665,0.37407407407407406],[0.022916666666666665,0.37407407407407406],[0.022916666666666665,0.37407407407407406],[0.022916666666666665,0.37407407407407406],[0.022916666666666665,0.37407407407407406],[0.022916666666666665,0.37407407407407406],[0.022916666666666665,0.37407407407407406],[0.022916666666666665,0.37407407407407406],[0.022916666666666665,0.37407407407407406],[0.022916666666666665,0.37407407407407406],[0.022916666666666665,0.37407407407407406],[0.022916666666666665,0.37407407407407406],[0.022916666666666665,0.37407407407407406],[0.022916666666666665,0.37407407407407406],[0.022916666666666665,0.37407407407407406],[0.022916666666666665,0.37407407407407406],[0.022916666666666665,0.37407407407407406],[0.022916666666666665,0.37407407407407406],[0.022916666666666665,0.37407407407407406],[0.022916666666666665,0.37407407407407406],[0.022916666666666665,0.37407407407407406],[0.022916666666666665,0.37407407407407406],[0.022916666666666665,0.37407407407407406],[0.022916666666666665,0.37407407407407406],[0.022916666666666665,0.37407407407407406],[0.022916666666666665,0.37407407407407406],[0.022916666666666665,0.37407407407407406],[0.022916666666666665,0.37407407407407406],[0.022916666666666665,0.37407407407407406],[0.022916666666666665,0.37407407407407406],[0.022916666666666665,0.37407407407407406],[0.022916666666666665,0.37407407407407406],[0.022916666666666665,0.37407407407407406],[0.022916666666666665,0.37407407407407406],[0.022916666666666665,0.37407407407407406],[0.022916666666666665,0.37407407407407406],[0.022916666666666665,0.37407407407407406],[0.022916666666666665,0.37407407407407406],[0.022916666666666665,0.37407407407407406],[0.022916666666666665,0.37407407407407406],[0.022916666666666665,0.37407407407407406],[0.022916666666666665,0.37407407407407406],[0.022916666666666665,0.37407407407407406],[0.022916666666666665,0.37407407407407406],[0.022916666666666665,0.37407407407407406],[0.022916666666666665,0.37407407407407406],[0.022916666666666665,0.37407407407407406],[0.022916666666666665,0.37407407407407406],[0.022916666666666665,0.37407407407407406],[0.022916666666666665,0.37407407407407406],[0.022916666666666665,0.37407407407407406],[0.022916666666666665,0.37407407407407406],[0.022916666666666665,0.37407407407407406],[0.022916666666666665,0.37407407407407406],[0.022916666666666665,0.37407407407407406],[0.022916666666666665,0.37407407407407406],[0.022916666666666665,0.37407407407407406],[0.022916666666666665,0.37407407407407406],[0.022916666666666665,0.37407407407407406],[0.022916666666666665,0.37407407407407406],[0.022916666666666665,0.37407407407407406],[0.022916666666666665,0.37407407407407406],[0.022916666666666665,0.37407407407407406],[0.022916666666666665,0.37407407407407406],[0.034375,0.37407407407407406],[0.08333333333333333,0.37407407407407406],[0.20104166666666667,0.34074074074074073],[0.26875,0.32592592592592595],[0.3145833333333333,0.3148148148148148],[0.35,0.31296296296296294],[0.378125,0.31296296296296294],[0.39895833333333336,0.31296296296296294],[0.41354166666666664,0.31296296296296294],[0.421875,0.31296296296296294],[0.428125,0.31296296296296294],[0.43645833333333334,0.3148148148148148],[0.43645833333333334,0.3148148148148148],[0.44166666666666665,0.3148148148148148],[0.44895833333333335,0.31666666666666665],[0.4552083333333333,0.32037037037037036],[0.4552083333333333,0.32037037037037036],[0.4552083333333333,0.32037037037037036],[0.4552083333333333,0.32037037037037036],[0.4552083333333333,0.32037037037037036],[0.4552083333333333,0.32037037037037036],[0.434375,0.32037037037037036],[0.3729166666666667,0.3074074074074074],[0.28020833333333334,0.28703703703703703],[0.17916666666666667,0.26481481481481484],[0.065625,0.2462962962962963],[0.04583333333333333,0.2462962962962963],[0.011458333333333333,0.2462962962962963],[0.0020833333333333333,0.24814814814814815],[-0.003125,0.2537037037037037],[-0.007291666666666667,0.2574074074074074],[-0.010416666666666666,0.26296296296296295],[-0.011458333333333333,0.26296296296296295],[-0.011458333333333333,0.26296296296296295],[-0.011458333333333333,0.26296296296296295],[-0.011458333333333333,0.26296296296296295],[-0.011458333333333333,0.26296296296296295],[-0.011458333333333333,0.26481481481481484],[-0.011458333333333333,0.26481481481481484],[-0.011458333333333333,0.26481481481481484],[-0.011458333333333333,0.26481481481481484],[-0.011458333333333333,0.26481481481481484],[-0.011458333333333333,0.26481481481481484],[-0.011458333333333333,0.26481481481481484],[-0.011458333333333333,0.26481481481481484],[-0.0125,0.2759259259259259],[-0.0125,0.29074074074074074],[-0.0125,0.3055555555555556],[-0.0125,0.3148148148148148],[-0.0125,0.32407407407407407],[-0.0125,0.32592592592592595],[-0.0125,0.3296296296296296],[-0.0125,0.3314814814814815],[-0.0125,0.3314814814814815],[-0.0125,0.3314814814814815],[-0.0125,0.3314814814814815],[-0.0125,0.3314814814814815],[-0.0125,0.3314814814814815],[-0.0125,0.3314814814814815],[-0.0125,0.3314814814814815],[-0.0125,0.3314814814814815],[-0.0125,0.3314814814814815],[-0.0125,0.3314814814814815],[-0.0125,0.3314814814814815],[-0.0125,0.3314814814814815],[-0.0125,0.3314814814814815],[-0.0125,0.3314814814814815],[-0.0125,0.3314814814814815],[-0.0125,0.3314814814814815],[-0.0125,0.3314814814814815],[-0.0125,0.3314814814814815],[-0.0125,0.3314814814814815],[-0.0125,0.3314814814814815],[-0.0125,0.3314814814814815],[-0.0125,0.3314814814814815],[-0.0125,0.3314814814814815],[-0.0125,0.3314814814814815],[-0.0125,0.3333333333333333],[-0.0125,0.337037037037037],[-0.0125,0.337037037037037],[-0.0125,0.337037037037037],[-0.0125,0.337037037037037],[-0.0125,0.337037037037037],[-0.0125,0.337037037037037],[-0.0125,0.337037037037037],[-0.0125,0.337037037037037],[-0.0125,0.337037037037037],[-0.0125,0.337037037037037],[-0.0125,0.337037037037037],[-0.0125,0.337037037037037],[-0.0125,0.337037037037037],[-0.0125,0.337037037037037],[-0.0125,0.337037037037037],[-0.0125,0.337037037037037],[-0.0125,0.337037037037037],[-0.0125,0.337037037037037],[-0.0125,0.337037037037037],[-0.0125,0.337037037037037],[-0.0125,0.337037037037037],[-0.0125,0.337037037037037]]","[[-0.024479166666666666,0.30907407407407406],[-0.028437499999999952,0.2996296296296295],[-0.012083333333333357,0.21796296296296305],[0.010625000000000048,0.12685185185185185],[0.03114583333333331,0.08740740740740749],[0.042916666666666714,0.09888888888888885],[0.04895833333333333,0.0985185185185186],[0.05375000000000003,0.10129629629629638],[0.050520833333333334,0.05333333333333325],[0.06354166666666666,-0.013703703703703662],[0.0765625,-0.08074074074074078],[0.08479166666666677,-0.1638888888888889],[0.07270833333333329,-0.17481481481481478],[0.06041666666666667,-0.16518518518518516],[0.05625,-0.20833333333333334],[0.04729166666666664,-0.25388888888888894],[0.05145833333333331,-0.3122222222222223],[0.04645833333333336,-0.3455555555555556],[0.049479166666666664,-0.32814814814814813],[0.02687499999999995,-0.2490740740740741],[0.004270833333333357,-0.17],[0.01906249999999995,-0.15111111111111114],[0.014687500000000023,-0.12370370370370372],[-0.009895833333333333,-0.12148148148148152],[-0.04041666666666662,-0.11814814814814817],[-0.06020833333333329,-0.07462962962962966],[-0.0936458333333333,-0.046296296296296294],[-0.11791666666666671,-0.04296296296296305],[-0.15354166666666663,-0.027777777777777776],[-0.16604166666666664,-0.08111111111111113],[-0.18187500000000004,-0.08648148148148146],[-0.23031250000000003,-0.015555555555555513],[-0.2703125,0.036481481481481566],[-0.284375,0.058333333333333334],[-0.28708333333333336,0.06185185185185181],[-0.305625,0.026111111111111154],[-0.31052083333333336,0.005555555555555556],[-0.31749999999999995,-0.01648148148148144],[-0.31312500000000004,-0.050370370370370454],[-0.3266666666666667,-0.062407407407407384],[-0.336875,-0.12240740740740745],[-0.3423958333333334,-0.192037037037037],[-0.33718750000000003,-0.2512962962962963],[-0.305625,-0.2561111111111111],[-0.28541666666666665,-0.24259259259259258],[-0.24500000000000005,-0.24259259259259258],[-0.2045833333333333,-0.24259259259259258],[-0.1670833333333333,-0.2507407407407407],[-0.1295833333333333,-0.2588888888888889],[-0.08770833333333337,-0.2735185185185185],[-0.04739583333333333,-0.27],[-0.011770833333333286,-0.25685185185185183],[0.024374999999999977,-0.27018518518518514],[0.028645833333333332,-0.3031481481481481],[0.06031249999999998,-0.2814814814814815],[0.08166666666666676,-0.2448148148148148],[0.11385416666666662,-0.21333333333333332],[0.15114583333333323,-0.15555555555555556],[0.18197916666666672,-0.10037037037037035],[0.2228125000000001,-0.06425925925925924],[0.2652083333333332,-0.046296296296296294],[0.27062499999999995,-0.046481481481481526],[0.2756249999999999,-0.02092592592592584],[0.26885416666666656,0.05759259259259263],[0.23468749999999997,0.08148148148148149],[0.21260416666666657,0.0992592592592593],[0.1796875,0.12222222222222222],[0.1796875,0.12222222222222222],[0.1359375,0.11333333333333341],[0.1359375,0.11333333333333341],[0.0990624999999999,0.13518518518518519],[0.0990624999999999,0.13518518518518519],[0.05416666666666667,0.18129629629629626],[0.05416666666666667,0.18129629629629626],[0.007083333333333286,0.21574074074074073],[0.007083333333333286,0.21574074074074073],[-0.004062499999999977,0.30092592592592593],[-0.004062499999999977,0.30092592592592593],[-0.02385416666666664,0.32444444444444454],[-0.057187499999999974,0.33722222222222226],[-0.08427083333333331,0.3303703703703703],[-0.11843750000000004,0.37166666666666676],[-0.15135416666666662,0.41351851851851845],[-0.18072916666666666,0.4681481481481481],[-0.20343749999999997,0.49907407407407406],[-0.22906249999999997,0.5392592592592593],[-0.2592708333333333,0.575],[-0.27583333333333326,0.5364814814814816],[-0.2838541666666667,0.5603703703703704],[-0.22010416666666663,0.5566666666666668],[-0.16302083333333334,0.5729629629629629],[-0.11468750000000003,0.5020370370370371],[-0.08552083333333335,0.39537037037037037],[-0.053125,0.29018518518518527],[-0.02781250000000005,0.18055555555555555],[0.03104166666666662,0.052962962962963],[0.09541666666666657,-0.0301851851851851],[0.13239583333333324,-0.06981481481481479],[0.18427083333333344,-0.1412962962962963],[0.19854166666666656,-0.21537037037037038],[0.19239583333333338,-0.2927777777777778],[0.19239583333333338,-0.33055555555555555],[0.22489583333333343,-0.28962962962962957],[0.24385416666666657,-0.2866666666666667],[0.26281249999999995,-0.2837037037037037],[0.24645833333333325,-0.2718518518518519],[0.2604166666666667,-0.29000000000000004],[0.2837500000000001,-0.30759259259259264],[0.2837500000000001,-0.30759259259259264],[0.2921875,-0.2933333333333333],[0.2829166666666666,-0.29314814814814816],[0.2829166666666666,-0.29314814814814816],[0.29229166666666656,-0.27981481481481485],[0.32614583333333325,-0.2657407407407407],[0.3466666666666666,-0.2935185185185185],[0.3984375,-0.30037037037037034],[0.39791666666666664,-0.2916666666666667],[0.39812500000000006,-0.2940740740740741],[0.3692708333333333,-0.2948148148148148],[0.3553124999999999,-0.28277777777777774],[0.34135416666666674,-0.2707407407407407],[0.33624999999999994,-0.2566666666666667],[0.2924999999999999,-0.2518518518518518],[0.221875,-0.24222222222222226],[0.17635416666666662,-0.25759259259259265],[0.11708333333333343,-0.255],[0.09177083333333323,-0.24814814814814815],[0.06843750000000005,-0.23555555555555555],[0.05333333333333338,-0.24814814814814815],[0.0078125,-0.23333333333333334],[-0.0390625,-0.23870370370370367],[-0.07468750000000005,-0.2490740740740741],[-0.06947916666666672,-0.2603703703703704],[-0.07114583333333328,-0.2711111111111111],[-0.08395833333333336,-0.27037037037037037],[-0.11958333333333329,-0.24888888888888885],[-0.13687499999999997,-0.24722222222222223],[-0.1265625,-0.2561111111111111],[-0.12447916666666667,-0.23981481481481481],[-0.08989583333333329,-0.25833333333333336],[-0.06968749999999997,-0.26722222222222225],[-0.06197916666666667,-0.2711111111111111],[-0.03875000000000005,-0.2881481481481482],[-0.03093750000000005,-0.3085185185185186],[-0.030416666666666713,-0.302962962962963],[-0.007083333333333286,-0.3181481481481482],[0.003854166666666714,-0.3257407407407407],[-0.012812499999999952,-0.3227777777777778],[-0.025729166666666713,-0.3381481481481482],[-0.05020833333333338,-0.36129629629629634],[-0.04552083333333338,-0.36500000000000005],[-0.04239583333333338,-0.3611111111111111],[-0.06791666666666671,-0.3605555555555555],[-0.07114583333333328,-0.35722222222222216],[-0.02302083333333336,-0.37351851851851847],[-0.050729166666666714,-0.3522222222222222],[-0.04510416666666662,-0.35648148148148145],[-0.044479166666666715,-0.3881481481481482],[-0.04760416666666671,-0.4014814814814815],[0.022291666666666644,-0.4140740740740741],[0.0787499999999999,-0.43555555555555553],[0.13562500000000005,-0.46648148148148144],[0.19739583333333333,-0.4816666666666667],[0.2521874999999999,-0.5020370370370371],[0.22927083333333323,-0.497037037037037],[0.2851041666666667,-0.5511111111111111],[0.3168750000000001,-0.5877777777777777],[0.340625,-0.6018518518518519],[0.340625,-0.6018518518518519],[0.3525000000000001,-0.577962962962963],[0.3081249999999999,-0.572037037037037],[0.2522916666666667,-0.5625925925925926],[0.21375000000000005,-0.5424074074074073],[0.17218749999999997,-0.5109259259259259],[0.14552083333333338,-0.48333333333333334],[0.13729166666666662,-0.47555555555555556],[0.1171875,-0.3611111111111111],[0.05947916666666669,-0.28351851851851856],[0.012812499999999952,-0.2131481481481482],[0.01427083333333338,-0.10277777777777777],[-0.025312499999999953,0.026481481481481398],[-0.041979166666666616,0.14388888888888898],[-0.07697916666666664,0.24611111111111106],[-0.09187500000000005,0.30574074074074076],[-0.12552083333333333,0.37666666666666665],[-0.13666666666666671,0.4235185185185186],[-0.13250000000000003,0.38629629629629636],[-0.07770833333333335,0.3816666666666667],[-0.020937500000000022,0.3890740740740741],[-0.01114583333333338,0.30629629629629623],[0.0234375,0.2064814814814815]]","[[-0.024479166666666666,0.30907407407407406,0],[-0.028437499999999952,0.2996296296296295,0.019200000000182627],[-0.012083333333333357,0.21796296296296305,0.03339999999943899],[0.010625000000000048,0.12685185185185185,0.04979999999981288],[0.03114583333333331,0.08740740740740749,0.06639999999944024],[0.042916666666666714,0.09888888888888885,0.08339999999944325],[0.04895833333333333,0.0985185185185186,0.10179999999981248],[0.05375000000000003,0.10129629629629638,0.1163999999994374],[0.050520833333333334,0.05333333333333325,0.1370999999996272],[0.06354166666666666,-0.013703703703703662,0.14989999999944104],[0.0765625,-0.08074074074074078,0.16639999999944166],[0.08479166666666677,-0.1638888888888889,0.18339999999943757],[0.07270833333333329,-0.17481481481481478,0.2022999999998092],[0.06041666666666667,-0.16518518518518516,0.21639999999943882],[0.05625,-0.20833333333333334,0.232999999999997],[0.04729166666666664,-0.25388888888888894,0.2497000000001819],[0.05145833333333331,-0.3122222222222223,0.2663999999994431],[0.04645833333333336,-0.3455555555555556,0.283099999999628],[0.049479166666666664,-0.32814814814814813,0.3017000000001815],[0.02687499999999995,-0.2490740740740741,0.3164999999999978],[0.004270833333333357,-0.17,0.33339999999944325],[0.01906249999999995,-0.15111111111111114,0.34979999999981004],[0.014687500000000023,-0.12370370370370372,0.36629999999981067],[-0.009895833333333333,-0.12148148148148152,0.3830999999996294],[-0.04041666666666662,-0.11814814814814817,0.402000000000001],[-0.06020833333333329,-0.07462962962962966,0.41639999999944166],[-0.0936458333333333,-0.046296296296296294,0.43299999999999983],[-0.11791666666666671,-0.04296296296296305,0.44970000000018473],[-0.15354166666666663,-0.027777777777777776,0.4668999999994412],[-0.16604166666666664,-0.08111111111111113,0.4830999999996237],[-0.18187500000000004,-0.08648148148148146,0.4997000000001819],[-0.23031250000000003,-0.015555555555555513,0.5163999999994431],[-0.2703125,0.036481481481481566,0.5334999999999965],[-0.284375,0.058333333333333334,0.5498999999994396],[-0.28708333333333336,0.06185185185185181,0.5664999999999978],[-0.305625,0.026111111111111154,0.5830999999996251],[-0.31052083333333336,0.005555555555555556,0.6012000000001834],[-0.31749999999999995,-0.01648148148148144,0.6165999999996288],[-0.31312500000000004,-0.050370370370370454,0.6329999999999956],[-0.3266666666666667,-0.062407407407407384,0.6497000000001876],[-0.336875,-0.12240740740740745,0.6663999999994417],[-0.3423958333333334,-0.192037037037037,0.6830999999996266],[-0.33718750000000003,-0.2512962962962963,0.6997999999998115],[-0.305625,-0.2561111111111111,0.7163999999994388],[-0.28541666666666665,-0.24259259259259258,0.732999999999997],[-0.24500000000000005,-0.24259259259259258,0.7497000000001819],[-0.2045833333333333,-0.24259259259259258,0.7663999999994431],[-0.1670833333333333,-0.2507407407407407,0.783099999999628],[-0.1295833333333333,-0.2588888888888889,0.8033999999994421],[-0.08770833333333337,-0.2735185185185185,0.8185000000000002],[-0.04739583333333333,-0.27,0.8329999999999984],[-0.011770833333333286,-0.25685185185185183,0.8497000000001833],[0.024374999999999977,-0.27018518518518514,0.8700999999996242],[0.028645833333333332,-0.3031481481481481,0.8862000000001871],[0.06031249999999998,-0.2814814814814815,0.9020999999996278],[0.08166666666666676,-0.2448148148148148,0.9162999999998149],[0.11385416666666662,-0.21333333333333332,0.9330999999996266],[0.15114583333333323,-0.15555555555555556,0.9497000000001847],[0.18197916666666672,-0.10037037037037035,0.9662999999998121],[0.2228125000000001,-0.06425925925925924,0.9830999999996237],[0.2652083333333332,-0.046296296296296294,0.9997000000001819],[0.27062499999999995,-0.046481481481481526,1.0165000000000006],[0.2756249999999999,-0.02092592592592584,1.033399999999439],[0.26885416666666656,0.05759259259259263,1.0497000000001862],[0.23468749999999997,0.08148148148148149,1.0662999999998135],[0.21260416666666657,0.0992592592592593,1.0847000000001827],[0.1796875,0.12222222222222222,1.0997000000001833],[0.1796875,0.12222222222222222,1.1163999999994374],[0.1359375,0.11333333333333341,1.1329999999999956],[0.1359375,0.11333333333333341,1.1497000000001876],[0.0990624999999999,0.13518518518518519,1.166299999999815],[0.0990624999999999,0.13518518518518519,1.1830999999996266],[0.05416666666666667,0.18129629629629626,1.1997000000001847],[0.05416666666666667,0.18129629629629626,1.2163999999994388],[0.007083333333333286,0.21574074074074073,1.232999999999997],[0.007083333333333286,0.21574074074074073,1.2497000000001819],[-0.004062499999999977,0.30092592592592593,1.266399999999443],[-0.004062499999999977,0.30092592592592593,1.283099999999628],[-0.02385416666666664,0.32444444444444454,1.2997000000001862],[-0.057187499999999974,0.33722222222222226,1.3202999999998113],[-0.08427083333333331,0.3303703703703703,1.3353999999994386],[-0.11843750000000004,0.37166666666666676,1.3495999999996258],[-0.15135416666666662,0.41351851851851845,1.3663999999994374],[-0.18072916666666666,0.4681481481481481,1.3872999999998115],[-0.20343749999999997,0.49907407407407406,1.4032999999998097],[-0.22906249999999997,0.5392592592592593,1.4163999999994417],[-0.2592708333333333,0.575,1.4332999999998108],[-0.27583333333333326,0.5364814814814816,1.4497000000001847],[-0.2838541666666667,0.5603703703703704,1.466299999999812],[-0.22010416666666663,0.5566666666666668,1.4840000000000018],[-0.16302083333333334,0.5729629629629629,1.4997000000001819],[-0.11468750000000003,0.5020370370370371,1.5188999999994408],[-0.08552083333333335,0.39537037037037037,1.5332999999998123],[-0.053125,0.29018518518518527,1.551299999999813],[-0.02781250000000005,0.18055555555555555,1.569799999999809],[0.03104166666666662,0.052962962962963,1.5847999999998095],[0.09541666666666657,-0.0301851851851851,1.5998999999994368],[0.13239583333333324,-0.06981481481481479,1.6163999999994374],[0.18427083333333344,-0.1412962962962963,1.636799999999809],[0.19854166666666656,-0.21537037037037038,1.650500000000001],[0.19239583333333338,-0.2927777777777778,1.6664999999999992],[0.19239583333333338,-0.33055555555555555,1.6869999999999976],[0.22489583333333343,-0.28962962962962957,1.7030999999996226],[0.24385416666666657,-0.2866666666666667,1.7177999999998121],[0.26281249999999995,-0.2837037037037037,1.7332000000001884],[0.24645833333333325,-0.2718518518518519,1.7533999999994379],[0.2604166666666667,-0.29000000000000004,1.769099999999625],[0.2837500000000001,-0.30759259259259264,1.7858999999994367],[0.2837500000000001,-0.30759259259259264,1.8002000000001814],[0.2921875,-0.2933333333333333,1.8164999999999978],[0.2829166666666666,-0.29314814814814816,1.839200000000183],[0.2829166666666666,-0.29314814814814816,1.8497000000001833],[0.29229166666666656,-0.27981481481481485,1.869200000000184],[0.32614583333333325,-0.2657407407407407,1.8855999999996271],[0.3466666666666666,-0.2935185185185185,1.9018999999994364],[0.3984375,-0.30037037037037034,1.919599999999626],[0.39791666666666664,-0.2916666666666667,1.935099999999629],[0.39812500000000006,-0.2940740740740741,1.9497999999998115],[0.3692708333333333,-0.2948148148148148,1.9687999999998098],[0.3553124999999999,-0.28277777777777774,1.9838999999994371],[0.34135416666666674,-0.2707407407407407,1.9997999999998157],[0.33624999999999994,-0.2566666666666667,2.021499999999996],[0.2924999999999999,-0.2518518518518518,2.0353999999994414],[0.221875,-0.24222222222222226,2.049799999999813],[0.17635416666666662,-0.25759259259259265,2.0663999999994402],[0.11708333333333343,-0.255,2.083099999999625],[0.09177083333333323,-0.24814814814814815,2.09979999999981],[0.06843750000000005,-0.23555555555555555,2.1162999999998107],[0.05333333333333338,-0.24814814814814815,2.1357000000001847],[0.0078125,-0.23333333333333334,2.1497000000001876],[-0.0390625,-0.23870370370370367,2.1663999999994417],[-0.07468750000000005,-0.2490740740740741,2.183599999999629],[-0.06947916666666672,-0.2603703703703704,2.1997000000001847],[-0.07114583333333328,-0.2711111111111111,2.2185999999996255],[-0.08395833333333336,-0.27037037037037037,2.2332000000001884],[-0.11958333333333329,-0.24888888888888885,2.249700000000182],[-0.13687499999999997,-0.24722222222222223,2.270299999999814],[-0.1265625,-0.2561111111111111,2.2855999999996257],[-0.12447916666666667,-0.23981481481481481,2.299799999999813],[-0.08989583333333329,-0.25833333333333336,2.3193999999994404],[-0.06968749999999997,-0.26722222222222225,2.3357000000001875],[-0.06197916666666667,-0.2711111111111111,2.34979999999981],[-0.03875000000000005,-0.2881481481481482,2.366500000000002],[-0.03093750000000005,-0.3085185185185186,2.386799999999809],[-0.030416666666666713,-0.302962962962963,2.3997000000001876],[-0.007083333333333286,-0.3181481481481482,2.4163999999994417],[0.003854166666666714,-0.3257407407407407,2.435099999999629],[-0.012812499999999952,-0.3227777777777778,2.4497000000001847],[-0.025729166666666713,-0.3381481481481482,2.466399999999439],[-0.05020833333333338,-0.36129629629629634,2.4830999999996237],[-0.04552083333333338,-0.36500000000000005,2.501899999999438],[-0.04239583333333338,-0.3611111111111111,2.5162999999998092],[-0.06791666666666671,-0.3605555555555555,2.5330000000000013],[-0.07114583333333328,-0.35722222222222216,2.5495999999996286],[-0.02302083333333336,-0.37351851851851847,2.5663999999994402],[-0.050729166666666714,-0.3522222222222222,2.583099999999625],[-0.04510416666666662,-0.35648148148148145,2.59979999999981],[-0.044479166666666715,-0.3881481481481482,2.619500000000002],[-0.04760416666666671,-0.4014814814814815,2.6335999999996247],[0.022291666666666644,-0.4140740740740741,2.6497000000001876],[0.0787499999999999,-0.43555555555555553,2.666299999999815],[0.13562500000000005,-0.46648148148148144,2.683200000000184],[0.19739583333333333,-0.4816666666666667,2.7032000000001872],[0.2521874999999999,-0.5020370370370371,2.716299999999812],[0.22927083333333323,-0.497037037037037,2.732999999999997],[0.2851041666666667,-0.5511111111111111,2.749700000000182],[0.3168750000000001,-0.5877777777777777,2.766399999999443],[0.340625,-0.6018518518518519,2.7832999999998123],[0.340625,-0.6018518518518519,2.8028999999994397],[0.3525000000000001,-0.577962962962963,2.816499999999998],[0.3081249999999999,-0.572037037037037,2.8329999999999984],[0.2522916666666667,-0.5625925925925926,2.8497000000001833],[0.21375000000000005,-0.5424074074074073,2.8663999999994374],[0.17218749999999997,-0.5109259259259259,2.8829999999999956],[0.14552083333333338,-0.48333333333333334,2.9012999999998144],[0.13729166666666662,-0.47555555555555556,2.9163999999994417],[0.1171875,-0.3611111111111111,2.933],[0.05947916666666669,-0.28351851851851856,2.9497000000001847],[0.012812499999999952,-0.2131481481481482,2.966299999999812],[0.01427083333333338,-0.10277777777777777,2.9834999999999994],[-0.025312499999999953,0.026481481481481398,3.0000999999996267],[-0.041979166666666616,0.14388888888888898,3.0162999999998092],[-0.07697916666666664,0.24611111111111106,3.033099999999628],[-0.09187500000000005,0.30574074074074076,3.049700000000186],[-0.12552083333333333,0.37666666666666665,3.0662999999998135],[-0.13666666666666671,0.4235185185185186,3.083799999999812],[-0.13250000000000003,0.38629629629629636,3.1000000000000014],[-0.07770833333333335,0.3816666666666667,3.1163999999994374],[-0.020937500000000022,0.3890740740740741,3.1329999999999956],[-0.01114583333333338,0.30629629629629623,3.1497000000001876],[0.0234375,0.2064814814814815,3.166299999999815]]","[0,0.019200000000182627,0.03339999999943899,0.04979999999981288,0.06639999999944024,0.08339999999944325,0.10179999999981248,0.1163999999994374,0.1370999999996272,0.14989999999944104,0.16639999999944166,0.18339999999943757,0.2022999999998092,0.21639999999943882,0.232999999999997,0.2497000000001819,0.2663999999994431,0.283099999999628,0.3017000000001815,0.3164999999999978,0.33339999999944325,0.34979999999981004,0.36629999999981067,0.3830999999996294,0.402000000000001,0.41639999999944166,0.43299999999999983,0.44970000000018473,0.4668999999994412,0.4830999999996237,0.4997000000001819,0.5163999999994431,0.5334999999999965,0.5498999999994396,0.5664999999999978,0.5830999999996251,0.6012000000001834,0.6165999999996288,0.6329999999999956,0.6497000000001876,0.6663999999994417,0.6830999999996266,0.6997999999998115,0.7163999999994388,0.732999999999997,0.7497000000001819,0.7663999999994431,0.783099999999628,0.8033999999994421,0.8185000000000002,0.8329999999999984,0.8497000000001833,0.8700999999996242,0.8862000000001871,0.9020999999996278,0.9162999999998149,0.9330999999996266,0.9497000000001847,0.9662999999998121,0.9830999999996237,0.9997000000001819,1.0165000000000006,1.033399999999439,1.0497000000001862,1.0662999999998135,1.0847000000001827,1.0997000000001833,1.1163999999994374,1.1329999999999956,1.1497000000001876,1.166299999999815,1.1830999999996266,1.1997000000001847,1.2163999999994388,1.232999999999997,1.2497000000001819,1.266399999999443,1.283099999999628,1.2997000000001862,1.3202999999998113,1.3353999999994386,1.3495999999996258,1.3663999999994374,1.3872999999998115,1.4032999999998097,1.4163999999994417,1.4332999999998108,1.4497000000001847,1.466299999999812,1.4840000000000018,1.4997000000001819,1.5188999999994408,1.5332999999998123,1.551299999999813,1.569799999999809,1.5847999999998095,1.5998999999994368,1.6163999999994374,1.636799999999809,1.650500000000001,1.6664999999999992,1.6869999999999976,1.7030999999996226,1.7177999999998121,1.7332000000001884,1.7533999999994379,1.769099999999625,1.7858999999994367,1.8002000000001814,1.8164999999999978,1.839200000000183,1.8497000000001833,1.869200000000184,1.8855999999996271,1.9018999999994364,1.919599999999626,1.935099999999629,1.9497999999998115,1.9687999999998098,1.9838999999994371,1.9997999999998157,2.021499999999996,2.0353999999994414,2.049799999999813,2.0663999999994402,2.083099999999625,2.09979999999981,2.1162999999998107,2.1357000000001847,2.1497000000001876,2.1663999999994417,2.183599999999629,2.1997000000001847,2.2185999999996255,2.2332000000001884,2.249700000000182,2.270299999999814,2.2855999999996257,2.299799999999813,2.3193999999994404,2.3357000000001875,2.34979999999981,2.366500000000002,2.386799999999809,2.3997000000001876,2.4163999999994417,2.435099999999629,2.4497000000001847,2.466399999999439,2.4830999999996237,2.501899999999438,2.5162999999998092,2.5330000000000013,2.5495999999996286,2.5663999999994402,2.583099999999625,2.59979999999981,2.619500000000002,2.6335999999996247,2.6497000000001876,2.666299999999815,2.683200000000184,2.7032000000001872,2.716299999999812,2.732999999999997,2.749700000000182,2.766399999999443,2.7832999999998123,2.8028999999994397,2.816499999999998,2.8329999999999984,2.8497000000001833,2.8663999999994374,2.8829999999999956,2.9012999999998144,2.9163999999994417,2.933,2.9497000000001847,2.966299999999812,2.9834999999999994,3.0000999999996267,3.0162999999998092,3.033099999999628,3.049700000000186,3.0662999999998135,3.083799999999812,3.1000000000000014,3.1163999999994374,3.1329999999999956,3.1497000000001876,3.166299999999815]","[1733116526647,1733116526665,1733116526679,1733116526696,1733116526712,1733116526729,1733116526748,1733116526762,1733116526783,1733116526796,1733116526812,1733116526829,1733116526848,1733116526862,1733116526879,1733116526896,1733116526912,1733116526929,1733116526948,1733116526962,1733116526979,1733116526996,1733116527012,1733116527029,1733116527048,1733116527062,1733116527079,1733116527096,1733116527113,1733116527129,1733116527146,1733116527162,1733116527179,1733116527196,1733116527212,1733116527229,1733116527247,1733116527263,1733116527279,1733116527296,1733116527312,1733116527329,1733116527346,1733116527362,1733116527379,1733116527396,1733116527412,1733116527429,1733116527449,1733116527464,1733116527479,1733116527496,1733116527516,1733116527532,1733116527548,1733116527562,1733116527579,1733116527596,1733116527612,1733116527629,1733116527646,1733116527662,1733116527679,1733116527696,1733116527712,1733116527731,1733116527746,1733116527762,1733116527779,1733116527796,1733116527812,1733116527829,1733116527846,1733116527862,1733116527879,1733116527896,1733116527912,1733116527929,1733116527946,1733116527966,1733116527981,1733116527996,1733116528012,1733116528033,1733116528049,1733116528062,1733116528079,1733116528096,1733116528112,1733116528130,1733116528146,1733116528165,1733116528179,1733116528197,1733116528216,1733116528231,1733116528246,1733116528262,1733116528283,1733116528296,1733116528313,1733116528333,1733116528349,1733116528364,1733116528379,1733116528399,1733116528415,1733116528432,1733116528446,1733116528462,1733116528485,1733116528496,1733116528515,1733116528532,1733116528548,1733116528566,1733116528581,1733116528596,1733116528615,1733116528630,1733116528646,1733116528667,1733116528681,1733116528696,1733116528712,1733116528729,1733116528746,1733116528762,1733116528782,1733116528796,1733116528812,1733116528830,1733116528846,1733116528865,1733116528879,1733116528896,1733116528916,1733116528932,1733116528946,1733116528965,1733116528982,1733116528996,1733116529012,1733116529033,1733116529046,1733116529062,1733116529081,1733116529096,1733116529112,1733116529129,1733116529148,1733116529162,1733116529179,1733116529196,1733116529212,1733116529229,1733116529246,1733116529265,1733116529280,1733116529296,1733116529312,1733116529329,1733116529349,1733116529362,1733116529379,1733116529396,1733116529412,1733116529429,1733116529449,1733116529462,1733116529479,1733116529496,1733116529512,1733116529529,1733116529547,1733116529562,1733116529579,1733116529596,1733116529612,1733116529630,1733116529646,1733116529662,1733116529679,1733116529696,1733116529712,1733116529730,1733116529746,1733116529762,1733116529779,1733116529796,1733116529812]","[[936.5,706.9],[932.7,701.8],[948.4,657.7],[970.2,608.5],[989.9,587.2],[1001.2,593.4],[1007,593.2],[1011.6,594.7],[1008.5,568.8],[1021,532.6],[1033.5,496.4],[1041.4,451.5],[1029.8,445.6],[1018,450.8],[1014,427.5],[1005.4,402.9],[1009.4,371.4],[1004.6,353.4],[1007.5,362.8],[985.8,405.5],[964.1,448.2],[978.3,458.4],[974.1,473.2],[950.5,474.4],[921.2,476.2],[902.2,499.7],[870.1,515],[846.8,516.8],[812.6,525],[800.6,496.2],[785.4,493.3],[738.9,531.6],[700.5,559.7],[687,571.5],[684.4,573.4],[666.6,554.1],[661.9,543],[655.2,531.1],[659.4,512.8],[646.4,506.3],[636.6,473.9],[631.3,436.3],[636.3,404.3],[666.6,401.7],[686,409],[724.8,409],[763.6,409],[799.6,404.6],[835.6,400.2],[875.8,392.3],[914.5,394.2],[948.7,401.3],[983.4,394.1],[987.5,376.3],[1017.9,388],[1038.4,407.8],[1069.3,424.8],[1105.1,456],[1134.7,485.8],[1173.9,505.3],[1214.6,515],[1219.8,514.9],[1224.6,528.7],[1218.1,571.1],[1185.3,584],[1164.1,593.6],[1132.5,606],[1132.5,606],[1090.5,601.2],[1090.5,601.2],[1055.1,613],[1055.1,613],[1012,637.9],[1012,637.9],[966.8,656.5],[966.8,656.5],[956.1,702.5],[956.1,702.5],[937.1,715.2],[905.1,722.1],[879.1,718.4],[846.3,740.7],[814.7,763.3],[786.5,792.8],[764.7,809.5],[740.1,831.2],[711.1,850.5],[695.2,829.7],[687.5,842.6],[748.7,840.6],[803.5,849.4],[849.9,811.1],[877.9,753.5],[909,696.7],[933.3,637.5],[989.8,568.6],[1051.6,523.7],[1087.1,502.3],[1136.9,463.7],[1150.6,423.7],[1144.7,381.9],[1144.7,361.5],[1175.9,383.6],[1194.1,385.2],[1212.3,386.8],[1196.6,393.2],[1210,383.4],[1232.4,373.9],[1232.4,373.9],[1240.5,381.6],[1231.6,381.7],[1231.6,381.7],[1240.6,388.9],[1273.1,396.5],[1292.8,381.5],[1342.5,377.8],[1342,382.5],[1342.2,381.2],[1314.5,380.8],[1301.1,387.3],[1287.7,393.8],[1282.8,401.4],[1240.8,404],[1173,409.2],[1129.3,400.9],[1072.4,402.3],[1048.1,406],[1025.7,412.8],[1011.2,406],[967.5,414],[922.5,411.1],[888.3,405.5],[893.3,399.4],[891.7,393.6],[879.4,394],[845.2,405.6],[828.6,406.5],[838.5,401.7],[840.5,410.5],[873.7,400.5],[893.1,395.7],[900.5,393.6],[922.8,384.4],[930.3,373.4],[930.8,376.4],[953.2,368.2],[963.7,364.1],[947.7,365.7],[935.3,357.4],[911.8,344.9],[916.3,342.9],[919.3,345],[894.8,345.3],[891.7,347.1],[937.9,338.3],[911.3,349.8],[916.7,347.5],[917.3,330.4],[914.3,323.2],[981.4,316.4],[1035.6,304.8],[1090.2,288.1],[1149.5,279.9],[1202.1,268.9],[1180.1,271.6],[1233.7,242.4],[1264.2,222.6],[1287,215],[1287,215],[1298.4,227.9],[1255.8,231.1],[1202.2,236.2],[1165.2,247.1],[1125.3,264.1],[1099.7,279],[1091.8,283.2],[1072.5,345],[1017.1,386.9],[972.3,424.9],[973.7,484.5],[935.7,554.3],[919.7,617.7],[886.1,672.9],[871.8,705.1],[839.5,743.4],[828.8,768.7],[832.8,748.6],[885.4,746.1],[939.9,750.1],[949.3,705.4],[982.5,651.5]]","[0,0.37864299999999995]","[0.37864299999999995,0.37864299999999995]","[-0.37864299999999995,0]","[-0.37864299999999995,-0.37864299999999995]","[0,0]","[0.37864299999999995,0]","[0,-0.37864299999999995]","[0.37864299999999995,-0.37864299999999995]",0,1,1,1,1,3,Laptop,5,5,13,7
