inst1_resp.keys,inst1_resp.rt,calibrationMouse.x,calibrationMouse.y,calibrationMouse.leftButton,calibrationMouse.midButton,calibrationMouse.rightButton,calibrationClick.x,calibrationClick.y,calibrationClick.leftButton,calibrationClick.midButton,calibrationClick.rightButton,trialsc.thisRepN,trialsc.thisTrialN,trialsc.thisN,trialsc.thisIndex,trialsc.ran,calibration_x,calibration_y,participant,session,date,expName,psychopyVersion,OS,frameRate,calibrationClick.clicked_name,ScreenRes_pixels,mouse_2.x,mouse_2.y,mouse_2.leftButton,mouse_2.midButton,mouse_2.rightButton,mouse_2.time,mouse_2.clicked_name,Camera_pixels,mouse.x,mouse.y,mouse.leftButton,mouse.midButton,mouse.rightButton,mouse.time,mouse.clicked_name,Choice,Trial,TrialDuration,MOUSE_GAZE,ET_GAZE,ET_GAZE_x_T,time,unixTime,ET_GAZE_NF,Loc_Option1_label,Loc_Option2_label,Loc_Cost_label,Loc_Qual_label,Loc_Option1_cost,Loc_Option2_cost,Loc_Option1_quality,Loc_Option2_quality,trials.thisRepN,trials.thisTrialN,trials.thisN,trials.thisIndex,trials.ran,Block,Device,cost1,qual1,cost2,qual2
space,2.317,0.242708333,0.390740741,1,0,0,0.675,-0.685185185,1,0,0,0,0,0,20,1,0.67,-0.67,19,001,2024-12-03_13h52.55.303,Attention_exp_legacy,2023.1.0,Win32,60.24096386,,,,,,,,,,,,,,,,,,,,,,,,,,,,,,,,,,,,,,,,,,,,,
,,,,,,,-0.002083333,0.340740741,1,0,0,0,1,1,12,1,0,0.33,19,001,2024-12-03_13h52.55.303,Attention_exp_legacy,2023.1.0,Win32,60.24096386,,,,,,,,,,,,,,,,,,,,,,,,,,,,,,,,,,,,,,,,,,,,,
,,,,,,,-0.311458333,-0.666666667,1,0,0,0,2,2,4,1,-0.33,-0.67,19,001,2024-12-03_13h52.55.303,Attention_exp_legacy,2023.1.0,Win32,60.24096386,,,,,,,,,,,,,,,,,,,,,,,,,,,,,,,,,,,,,,,,,,,,,
,,,,,,,0.010416667,-0.322222222,1,0,0,0,3,3,10,1,0,-0.33,19,001,2024-12-03_13h52.55.303,Attention_exp_legacy,2023.1.0,Win32,60.24096386,,,,,,,,,,,,,,,,,,,,,,,,,,,,,,,,,,,,,,,,,,,,,
,,,,,,,-0.3375,-0.005555556,1,0,0,0,4,4,6,1,-0.33,0,19,001,2024-12-03_13h52.55.303,Attention_exp_legacy,2023.1.0,Win32,60.24096386,calibration_square,,,,,,,,,,,,,,,,,,,,,,,,,,,,,,,,,,,,,,,,,,,,
,,,,,,,0.348958333,0.701851852,1,0,0,0,5,5,18,1,0.33,0.67,19,001,2024-12-03_13h52.55.303,Attention_exp_legacy,2023.1.0,Win32,60.24096386,,,,,,,,,,,,,,,,,,,,,,,,,,,,,,,,,,,,,,,,,,,,,
,,,,,,,-0.026041667,-0.666666667,1,0,0,0,6,6,9,1,0,-0.67,19,001,2024-12-03_13h52.55.303,Attention_exp_legacy,2023.1.0,Win32,60.24096386,,,,,,,,,,,,,,,,,,,,,,,,,,,,,,,,,,,,,,,,,,,,,
,,,,,,,0.329166667,0.37037037,1,0,0,0,7,7,17,1,0.33,0.33,19,001,2024-12-03_13h52.55.303,Attention_exp_legacy,2023.1.0,Win32,60.24096386,,,,,,,,,,,,,,,,,,,,,,,,,,,,,,,,,,,,,,,,,,,,,
,,,,,,,-0.338541667,-0.331481481,1,0,0,0,8,8,5,1,-0.33,-0.33,19,001,2024-12-03_13h52.55.303,Attention_exp_legacy,2023.1.0,Win32,60.24096386,calibration_square,,,,,,,,,,,,,,,,,,,,,,,,,,,,,,,,,,,,,,,,,,,,
,,,,,,,-0.613541667,0.337037037,1,0,0,0,9,9,3,1,-0.67,0.33,19,001,2024-12-03_13h52.55.303,Attention_exp_legacy,2023.1.0,Win32,60.24096386,,,,,,,,,,,,,,,,,,,,,,,,,,,,,,,,,,,,,,,,,,,,,
,,,,,,,0.325,0.014814815,1,0,0,0,10,10,16,1,0.33,0,19,001,2024-12-03_13h52.55.303,Attention_exp_legacy,2023.1.0,Win32,60.24096386,,,,,,,,,,,,,,,,,,,,,,,,,,,,,,,,,,,,,,,,,,,,,
,,,,,,,-0.65,-0.012962963,1,0,0,0,11,11,2,1,-0.67,0,19,001,2024-12-03_13h52.55.303,Attention_exp_legacy,2023.1.0,Win32,60.24096386,,,,,,,,,,,,,,,,,,,,,,,,,,,,,,,,,,,,,,,,,,,,,
,,,,,,,0.346875,-0.683333333,1,0,0,0,12,12,14,1,0.33,-0.67,19,001,2024-12-03_13h52.55.303,Attention_exp_legacy,2023.1.0,Win32,60.24096386,,,,,,,,,,,,,,,,,,,,,,,,,,,,,,,,,,,,,,,,,,,,,
,,,,,,,-0.070833333,0.709259259,1,0,0,0,13,13,13,1,0,0.67,19,001,2024-12-03_13h52.55.303,Attention_exp_legacy,2023.1.0,Win32,60.24096386,,,,,,,,,,,,,,,,,,,,,,,,,,,,,,,,,,,,,,,,,,,,,
,,,,,,,-0.690625,-0.314814815,1,0,0,0,14,14,1,1,-0.67,-0.33,19,001,2024-12-03_13h52.55.303,Attention_exp_legacy,2023.1.0,Win32,60.24096386,,,,,,,,,,,,,,,,,,,,,,,,,,,,,,,,,,,,,,,,,,,,,
,,,,,,,-0.31875,0.690740741,1,0,0,0,15,15,8,1,-0.33,0.67,19,001,2024-12-03_13h52.55.303,Attention_exp_legacy,2023.1.0,Win32,60.24096386,,,,,,,,,,,,,,,,,,,,,,,,,,,,,,,,,,,,,,,,,,,,,
,,,,,,,0.011458333,0.005555556,1,0,0,0,16,16,11,1,0,0,19,001,2024-12-03_13h52.55.303,Attention_exp_legacy,2023.1.0,Win32,60.24096386,,,,,,,,,,,,,,,,,,,,,,,,,,,,,,,,,,,,,,,,,,,,,
,,,,,,,-0.320833333,0.298148148,1,0,0,0,17,17,7,1,-0.33,0.33,19,001,2024-12-03_13h52.55.303,Attention_exp_legacy,2023.1.0,Win32,60.24096386,,,,,,,,,,,,,,,,,,,,,,,,,,,,,,,,,,,,,,,,,,,,,
,,,,,,,0.319791667,-0.314814815,1,0,0,0,18,18,15,1,0.33,-0.33,19,001,2024-12-03_13h52.55.303,Attention_exp_legacy,2023.1.0,Win32,60.24096386,,,,,,,,,,,,,,,,,,,,,,,,,,,,,,,,,,,,,,,,,,,,,
,,,,,,,-0.667708333,-0.664814815,1,0,0,0,19,19,0,1,-0.67,-0.67,19,001,2024-12-03_13h52.55.303,Attention_exp_legacy,2023.1.0,Win32,60.24096386,calibration_square,,,,,,,,,,,,,,,,,,,,,,,,,,,,,,,,,,,,,,,,,,,,
,,,,,,,0.678125,0.672222222,1,0,0,0,20,20,19,1,0.67,0.67,19,001,2024-12-03_13h52.55.303,Attention_exp_legacy,2023.1.0,Win32,60.24096386,calibration_square,,,,,,,,,,,,,,,,,,,,,,,,,,,,,,,,,,,,,,,,,,,,
,,,,,,,,,,,,,,,,,,,19,001,2024-12-03_13h52.55.303,Attention_exp_legacy,2023.1.0,Win32,60.24096386,,"[1920,1080]",[0.08854166666666667],[-0.5111111111111111],[1],[0],[0],[0.9957000000029694],"[""StartButton""]","[640,480]","[0.5822916666666667,0.5895833333333333]","[0.7092592592592593,0.5611111111111111]","[1,1]","[0,0]","[0,0]","[3.621099999994044,4.155599999994038]","[""Option2_label""]",Option2_label,1,5.1787,"[[0.040625,-0.4111111111111111],[0.040625,-0.4111111111111111],[0.040625,-0.4111111111111111],[0.040625,-0.4111111111111111],[0.040625,-0.4111111111111111],[0.040625,-0.4111111111111111],[0.040625,-0.4111111111111111],[0.040625,-0.4111111111111111],[0.040625,-0.4111111111111111],[0.040625,-0.4111111111111111],[0.040625,-0.4111111111111111],[0.040625,-0.4111111111111111],[0.040625,-0.4111111111111111],[0.040625,-0.4111111111111111],[0.040625,-0.4111111111111111],[0.040625,-0.4111111111111111],[0.040625,-0.4111111111111111],[0.040625,-0.4111111111111111],[0.040625,-0.4111111111111111],[0.040625,-0.4111111111111111],[0.040625,-0.4111111111111111],[0.040625,-0.4111111111111111],[0.040625,-0.4111111111111111],[0.040625,-0.4111111111111111],[0.040625,-0.4111111111111111],[0.040625,-0.4111111111111111],[0.040625,-0.4111111111111111],[0.040625,-0.4111111111111111],[0.040625,-0.4111111111111111],[0.040625,-0.4111111111111111],[0.040625,-0.4111111111111111],[0.040625,-0.4111111111111111],[0.040625,-0.4111111111111111],[0.040625,-0.4111111111111111],[0.040625,-0.4111111111111111],[0.040625,-0.412962962962963],[0.040625,-0.4148148148148148],[0.040625,-0.4148148148148148],[0.040625,-0.4166666666666667],[0.041666666666666664,-0.4166666666666667],[0.042708333333333334,-0.4185185185185185],[0.042708333333333334,-0.4185185185185185],[0.042708333333333334,-0.4185185185185185],[0.042708333333333334,-0.4185185185185185],[0.042708333333333334,-0.4203703703703704],[0.042708333333333334,-0.4203703703703704],[0.042708333333333334,-0.4203703703703704],[0.042708333333333334,-0.4203703703703704],[0.042708333333333334,-0.4203703703703704],[0.042708333333333334,-0.4203703703703704],[0.042708333333333334,-0.4203703703703704],[0.042708333333333334,-0.4203703703703704],[0.042708333333333334,-0.4203703703703704],[0.042708333333333334,-0.4203703703703704],[0.042708333333333334,-0.4203703703703704],[0.042708333333333334,-0.4203703703703704],[0.042708333333333334,-0.4203703703703704],[0.042708333333333334,-0.4203703703703704],[0.04375,-0.4203703703703704],[0.04375,-0.4203703703703704],[0.04375,-0.4203703703703704],[0.034375,-0.4203703703703704],[0.025,-0.4203703703703704],[0.014583333333333334,-0.4203703703703704],[0.0125,-0.4203703703703704],[0.0125,-0.4203703703703704],[0.0125,-0.4203703703703704],[0.0125,-0.4203703703703704],[0.0125,-0.4203703703703704],[0.0125,-0.4203703703703704],[0.0125,-0.4203703703703704],[0.0125,-0.4203703703703704],[0.0125,-0.4203703703703704],[0.0125,-0.4203703703703704],[0.0125,-0.4203703703703704],[0.0125,-0.4203703703703704],[0.0125,-0.4203703703703704],[0.0125,-0.4203703703703704],[0.0125,-0.4203703703703704],[0.0125,-0.4203703703703704],[0.0125,-0.4203703703703704],[0.0125,-0.4203703703703704],[0.0125,-0.4203703703703704],[0.0125,-0.4203703703703704],[0.0125,-0.4203703703703704],[0.0125,-0.4203703703703704],[0.0125,-0.4203703703703704],[0.0125,-0.4203703703703704],[0.0125,-0.4203703703703704],[0.0125,-0.4203703703703704],[0.0125,-0.4203703703703704],[0.0125,-0.4203703703703704],[0.0125,-0.4203703703703704],[0.0125,-0.4203703703703704],[0.0125,-0.4203703703703704],[0.0125,-0.4203703703703704],[0.0125,-0.4203703703703704],[0.0125,-0.4203703703703704],[0.0125,-0.4203703703703704],[0.0125,-0.4203703703703704],[0.017708333333333333,-0.42962962962962964],[0.026041666666666668,-0.43703703703703706],[0.028125,-0.43703703703703706],[0.029166666666666667,-0.4388888888888889],[0.029166666666666667,-0.4388888888888889],[0.029166666666666667,-0.4388888888888889],[0.029166666666666667,-0.4388888888888889],[0.029166666666666667,-0.4425925925925926],[0.028125,-0.4444444444444444],[0.027083333333333334,-0.45],[0.025,-0.45555555555555555],[0.025,-0.45740740740740743],[0.023958333333333335,-0.46296296296296297],[0.020833333333333332,-0.4703703703703704],[0.020833333333333332,-0.4740740740740741],[0.019791666666666666,-0.48148148148148145],[0.01875,-0.4888888888888889],[0.017708333333333333,-0.4981481481481482],[0.016666666666666666,-0.5092592592592593],[0.016666666666666666,-0.512962962962963],[0.014583333333333334,-0.5222222222222223],[0.014583333333333334,-0.5314814814814814],[0.014583333333333334,-0.5370370370370371],[0.014583333333333334,-0.5462962962962963],[0.014583333333333334,-0.5537037037037037],[0.014583333333333334,-0.5611111111111111],[0.014583333333333334,-0.5703703703703704],[0.014583333333333334,-0.5796296296296296],[0.015625,-0.5851851851851851],[0.015625,-0.5925925925925926],[0.01875,-0.6],[0.01875,-0.6074074074074074],[0.01875,-0.6148148148148148],[0.01875,-0.6259259259259259],[0.01875,-0.6333333333333333],[0.01875,-0.6407407407407407],[0.01875,-0.6462962962962963],[0.01875,-0.6555555555555556],[0.019791666666666666,-0.662962962962963],[0.019791666666666666,-0.6648148148148149],[0.021875,-0.6685185185185185],[0.021875,-0.6722222222222223],[0.021875,-0.6759259259259259],[0.022916666666666665,-0.6759259259259259],[0.022916666666666665,-0.6777777777777778],[0.022916666666666665,-0.6777777777777778],[0.022916666666666665,-0.6777777777777778],[0.022916666666666665,-0.6777777777777778],[0.022916666666666665,-0.6777777777777778],[0.022916666666666665,-0.6777777777777778],[0.022916666666666665,-0.6777777777777778],[0.022916666666666665,-0.6777777777777778],[0.022916666666666665,-0.6777777777777778],[0.022916666666666665,-0.6777777777777778],[0.022916666666666665,-0.6777777777777778],[0.022916666666666665,-0.6777777777777778],[0.022916666666666665,-0.6777777777777778],[0.022916666666666665,-0.6777777777777778],[0.025,-0.6796296296296296],[0.028125,-0.6796296296296296],[0.03229166666666667,-0.6759259259259259],[0.0375,-0.6722222222222223],[0.041666666666666664,-0.6685185185185185],[0.04479166666666667,-0.6666666666666666],[0.04583333333333333,-0.6666666666666666],[0.046875,-0.6666666666666666],[0.046875,-0.6666666666666666],[0.04791666666666667,-0.6666666666666666],[0.04791666666666667,-0.6666666666666666],[0.04791666666666667,-0.6666666666666666],[0.04895833333333333,-0.6666666666666666],[0.04895833333333333,-0.6666666666666666],[0.04895833333333333,-0.6666666666666666],[0.05,-0.6666666666666666],[0.05,-0.6666666666666666],[0.05,-0.6666666666666666],[0.05,-0.6666666666666666],[0.051041666666666666,-0.6666666666666666],[0.053125,-0.6666666666666666],[0.05520833333333333,-0.6666666666666666],[0.057291666666666664,-0.6666666666666666],[0.06666666666666667,-0.6666666666666666],[0.07291666666666667,-0.6666666666666666],[0.084375,-0.6666666666666666],[0.10208333333333333,-0.6722222222222223],[0.12708333333333333,-0.6722222222222223],[0.16354166666666667,-0.6722222222222223],[0.21354166666666666,-0.6648148148148149],[0.28125,-0.6296296296296297],[0.36041666666666666,-0.5722222222222222],[0.446875,-0.47962962962962963],[0.55625,-0.31851851851851853],[0.6010416666666667,-0.22592592592592592],[0.6197916666666666,-0.15555555555555556],[0.6239583333333333,-0.12222222222222222],[0.6260416666666667,-0.09259259259259259],[0.6270833333333333,-0.06481481481481481],[0.6270833333333333,-0.04259259259259259],[0.6270833333333333,-0.022222222222222223],[0.6260416666666667,-0.003703703703703704],[0.625,0.018518518518518517],[0.621875,0.046296296296296294],[0.61875,0.1111111111111111],[0.6135416666666667,0.19444444444444445],[0.6083333333333333,0.24259259259259258],[0.5979166666666667,0.362962962962963],[0.5927083333333333,0.44814814814814813],[0.590625,0.5111111111111111],[0.590625,0.562962962962963],[0.5895833333333333,0.6148148148148148],[0.5864583333333333,0.6537037037037037],[0.584375,0.687037037037037],[0.5822916666666667,0.6981481481481482],[0.5822916666666667,0.7055555555555556],[0.5822916666666667,0.7092592592592593],[0.5822916666666667,0.7092592592592593],[0.5822916666666667,0.7092592592592593],[0.5822916666666667,0.7092592592592593],[0.5822916666666667,0.7092592592592593],[0.5822916666666667,0.7092592592592593],[0.5822916666666667,0.7092592592592593],[0.5822916666666667,0.7092592592592593],[0.5822916666666667,0.7092592592592593],[0.5822916666666667,0.7092592592592593],[0.5822916666666667,0.7092592592592593],[0.5822916666666667,0.7092592592592593],[0.5822916666666667,0.7092592592592593],[0.5822916666666667,0.7092592592592593],[0.5822916666666667,0.7092592592592593],[0.5822916666666667,0.7092592592592593],[0.5822916666666667,0.7092592592592593],[0.5822916666666667,0.7092592592592593],[0.5822916666666667,0.7092592592592593],[0.5822916666666667,0.7092592592592593],[0.5822916666666667,0.7092592592592593],[0.5822916666666667,0.7092592592592593],[0.5822916666666667,0.7092592592592593],[0.5822916666666667,0.7092592592592593],[0.5822916666666667,0.7092592592592593],[0.5822916666666667,0.7092592592592593],[0.5822916666666667,0.7092592592592593],[0.5822916666666667,0.6981481481481482],[0.5822916666666667,0.6685185185185185],[0.5822916666666667,0.6370370370370371],[0.584375,0.6018518518518519],[0.5875,0.5814814814814815],[0.5885416666666666,0.5703703703703704],[0.5885416666666666,0.5648148148148148],[0.5885416666666666,0.5611111111111111],[0.5895833333333333,0.5611111111111111],[0.5895833333333333,0.5611111111111111],[0.5895833333333333,0.5611111111111111],[0.5895833333333333,0.5611111111111111],[0.5895833333333333,0.5611111111111111],[0.5895833333333333,0.5611111111111111],[0.5895833333333333,0.5611111111111111],[0.5895833333333333,0.5611111111111111],[0.5895833333333333,0.5611111111111111],[0.5895833333333333,0.5611111111111111],[0.5895833333333333,0.5611111111111111],[0.5895833333333333,0.5611111111111111],[0.5895833333333333,0.5611111111111111],[0.5895833333333333,0.5611111111111111],[0.5895833333333333,0.5611111111111111],[0.5895833333333333,0.5611111111111111],[0.5895833333333333,0.5611111111111111],[0.5895833333333333,0.5611111111111111],[0.5895833333333333,0.5611111111111111],[0.5895833333333333,0.5611111111111111],[0.5895833333333333,0.5611111111111111],[0.5895833333333333,0.5611111111111111],[0.5895833333333333,0.5611111111111111],[0.5895833333333333,0.5611111111111111],[0.5895833333333333,0.5611111111111111],[0.5895833333333333,0.5611111111111111],[0.5895833333333333,0.5611111111111111],[0.5895833333333333,0.5611111111111111],[0.5895833333333333,0.5611111111111111],[0.5895833333333333,0.5611111111111111],[0.5895833333333333,0.5611111111111111],[0.5895833333333333,0.5611111111111111],[0.5895833333333333,0.5611111111111111],[0.5895833333333333,0.5611111111111111],[0.5895833333333333,0.5611111111111111],[0.5895833333333333,0.5611111111111111],[0.5895833333333333,0.5611111111111111],[0.5895833333333333,0.5611111111111111],[0.5895833333333333,0.5611111111111111],[0.5895833333333333,0.5611111111111111],[0.5895833333333333,0.5611111111111111],[0.5895833333333333,0.5611111111111111],[0.5895833333333333,0.5611111111111111],[0.5895833333333333,0.5611111111111111],[0.5895833333333333,0.5611111111111111],[0.5895833333333333,0.5611111111111111],[0.5895833333333333,0.5611111111111111],[0.5895833333333333,0.5611111111111111],[0.5895833333333333,0.5611111111111111],[0.5895833333333333,0.5611111111111111],[0.5895833333333333,0.5611111111111111],[0.5895833333333333,0.5611111111111111],[0.5895833333333333,0.5611111111111111],[0.5895833333333333,0.5611111111111111],[0.5895833333333333,0.5611111111111111],[0.5895833333333333,0.5611111111111111],[0.5895833333333333,0.5611111111111111],[0.5895833333333333,0.5611111111111111],[0.5895833333333333,0.5611111111111111],[0.5895833333333333,0.5611111111111111],[0.5895833333333333,0.5611111111111111],[0.5895833333333333,0.5611111111111111]]","[[-0.01260416666666669,-0.07574074074074069],[-0.01260416666666669,-0.07574074074074069],[0.025312499999999953,-0.10981481481481484],[0.025312499999999953,-0.10981481481481484],[0.043437500000000046,-0.13759259259259263],[0.04697916666666669,-0.11166666666666669],[0.06614583333333333,-0.1272222222222222],[0.09156250000000009,-0.15870370370370368],[0.14291666666666672,-0.11277777777777774],[0.16593749999999996,-0.10333333333333336],[0.16572916666666657,-0.13296296296296298],[0.18708333333333324,-0.1294444444444444],[0.17854166666666677,-0.13240740740740742],[0.17666666666666658,-0.1366666666666667],[0.16572916666666657,-0.1242592592592593],[0.140625,-0.13925925925925925],[0.1658333333333334,-0.13259259259259262],[0.17802083333333343,-0.09500000000000001],[0.19760416666666672,-0.16074074074074077],[0.2115624999999999,-0.18407407407407403],[0.24645833333333325,-0.19166666666666668],[0.24739583333333334,-0.21222222222222226],[0.2509375000000001,-0.24277777777777781],[0.23468749999999997,-0.29981481481481476],[0.24791666666666667,-0.302962962962963],[0.20572916666666666,-0.24888888888888885],[0.15427083333333325,-0.20611111111111113],[0.10010416666666658,-0.21574074074074073],[0.025625000000000023,-0.16129629629629633],[-0.006979166666666714,-0.13944444444444445],[-0.033958333333333354,-0.10907407407407403],[-0.06354166666666666,-0.10777777777777775],[-0.09572916666666664,-0.09648148148148153],[-0.12552083333333333,-0.031111111111111027],[-0.16062500000000005,-0.006296296296296254],[-0.1640625,-0.03481481481481473],[-0.19083333333333338,-0.0816666666666667],[-0.1710416666666667,-0.07574074074074069],[-0.14552083333333338,-0.07555555555555557],[-0.1688541666666667,-0.04203703703703712],[-0.13250000000000003,-0.05259259259259255],[-0.08802083333333334,-0.04425925925925922],[-0.04750000000000002,-0.0507407407407407],[0.036249999999999956,-0.03351851851851856],[0.13229166666666667,-0.01185185185185181],[0.19854166666666656,-0.001851851851851852],[0.24833333333333343,-0.02907407407407416],[0.2796875,-0.102962962962963],[0.3042708333333332,-0.16925925925925922],[0.33791666666666675,-0.2270370370370371],[0.31187500000000007,-0.24074074074074073],[0.28395833333333326,-0.30703703703703705],[0.2717708333333334,-0.34388888888888886],[0.2540625000000001,-0.4516666666666666],[0.2540625000000001,-0.4516666666666666],[0.2209374999999999,-0.5590740740740741],[0.2125,-0.6709259259259259],[0.2125,-0.6709259259259259],[0.190625,-0.7733333333333334],[0.13083333333333325,-0.6672222222222223],[0.13083333333333325,-0.6672222222222223],[0.09874999999999995,-0.5338888888888889],[0.09874999999999995,-0.5338888888888889],[0.11281249999999995,-0.5048148148148148],[0.11281249999999995,-0.5048148148148148],[0.13541666666666666,-0.4570370370370371],[0.15750000000000006,-0.35777777777777775],[0.16895833333333338,-0.3022222222222222],[0.16239583333333343,-0.2257407407407407],[0.15333333333333338,-0.13333333333333333],[0.18645833333333334,-0.018148148148148063],[0.22999999999999995,0.12666666666666662],[0.2855208333333332,0.102962962962963],[0.275,0.056666666666666705],[0.2796875,0.14740740740740746],[0.2738541666666668,0.18425925925925926],[0.28322916666666675,0.25462962962962965],[0.26708333333333345,0.3533333333333332],[0.27937500000000004,0.5040740740740741],[0.28937499999999994,0.585],[0.29583333333333334,0.6662962962962962],[0.2612499999999999,0.7150000000000001],[0.24145833333333327,0.7837037037037038],[0.2443749999999999,0.7998148148148148],[0.2867708333333333,0.8201851851851851],[0.25802083333333337,0.7972222222222223],[0.2626041666666666,0.7640740740740741],[0.27531249999999996,0.6990740740740741],[0.2604166666666667,0.6018518518518519],[0.234375,0.5525925925925925],[0.1359375,0.46222222222222226],[0.05343749999999995,0.4403703703703703],[-0.04635416666666667,0.3827777777777779],[-0.11031249999999998,0.36074074074074064],[-0.2646875,0.2838888888888888],[-0.30666666666666664,0.2916666666666667],[-0.37947916666666665,0.24444444444444444],[-0.4345833333333334,0.2975925925925927],[-0.49947916666666664,0.3431481481481481],[-0.5239583333333333,0.4111111111111111],[-0.5239583333333333,0.4111111111111111],[-0.46291666666666664,0.4551851851851851],[-0.3615625,0.4903703703703703],[-0.23270833333333332,0.5185185185185185],[-0.17864583333333334,0.5381481481481482],[-0.09187500000000005,0.5237037037037037],[-0.059583333333333384,0.4959259259259258],[-0.024687500000000046,0.5192592592592592],[0.01604166666666664,0.4737037037037036],[0.0818749999999999,0.4281481481481482],[0.115625,0.3712962962962963],[0.14093749999999997,0.3738888888888888],[0.15614583333333343,0.34148148148148144],[0.11802083333333328,0.3494444444444445],[0.17687499999999995,0.31425925925925935],[0.18760416666666657,0.337037037037037],[0.19020833333333323,0.3861111111111111],[0.17604166666666668,0.412962962962963],[0.15906250000000005,0.39574074074074084],[0.12770833333333323,0.3859259259259259],[0.10750000000000005,0.35907407407407405],[0.07156250000000004,0.34037037037037027],[0.042604166666666644,0.3618518518518518],[0.04510416666666662,0.3635185185185184],[0.00625,0.42740740740740735],[0.011041666666666691,0.4353703703703704],[0.017604166666666643,0.42018518518518516],[0.034375,0.4398148148148148],[0.04666666666666662,0.5046296296296297],[0.058124999999999954,0.5387037037037037],[0.05291666666666662,0.5792592592592591],[0.06645833333333329,0.5894444444444443],[0.0696875000000001,0.5735185185185186],[0.07000000000000005,0.5861111111111111],[0.08208333333333329,0.5835185185185185],[0.08468749999999996,0.6048148148148148],[0.10739583333333323,0.6335185185185186],[0.10250000000000009,0.6155555555555555],[0.1046875,0.5562962962962963],[0.08499999999999991,0.5542592592592592],[0.08499999999999991,0.5542592592592592],[0.1087500000000001,0.5638888888888889],[0.09708333333333338,0.5857407407407407],[0.07999999999999995,0.6196296296296296],[0.07489583333333343,0.6081481481481481],[0.033749999999999974,0.5757407407407407],[-0.008749999999999977,0.5424074074074073],[-0.059583333333333384,0.49981481481481477],[-0.09583333333333334,0.45925925925925926],[-0.13343750000000001,0.49370370370370376],[-0.15906250000000005,0.49425925925925923],[-0.21510416666666668,0.46870370370370373],[-0.23875000000000005,0.45314814814814824],[-0.24447916666666672,0.43333333333333335],[-0.2708333333333333,0.4207407407407408],[-0.2497916666666666,0.43425925925925923],[-0.23322916666666665,0.4588888888888888],[-0.18697916666666667,0.49666666666666676],[-0.12708333333333333,0.5475925925925926],[-0.09708333333333338,0.5572222222222222],[-0.028437499999999952,0.5646296296296296],[0.043437500000000046,0.587037037037037],[0.07208333333333337,0.5872222222222223],[0.05593750000000005,0.6535185185185185],[0.04583333333333333,0.7035185185185184],[0.06072916666666662,0.6868518518518518],[0.08145833333333338,0.6599999999999999],[0.09072916666666657,0.544074074074074],[0.06885416666666658,0.5349999999999999],[0.04479166666666667,0.5125925925925925],[-0.0015625,0.4959259259259258],[-0.03843749999999998,0.5081481481481481],[-0.03770833333333338,0.5312962962962963],[0.01604166666666664,0.47074074074074085],[0.06052083333333336,0.4168518518518519],[0.06052083333333336,0.4168518518518519],[0.03302083333333338,0.4507407407407407],[0.03302083333333338,0.4507407407407407],[0.025520833333333333,0.5307407407407407],[0.025520833333333333,0.5307407407407407],[0.016979166666666618,0.6768518518518518],[0.016979166666666618,0.6768518518518518],[-0.003958333333333286,0.6759259259259259],[-0.003958333333333286,0.6759259259259259],[0.0014583333333333095,0.6959259259259258],[0.0014583333333333095,0.6959259259259258],[0.019791666666666666,0.7087037037037038],[0.04635416666666667,0.6638888888888889],[0.0875,0.6777777777777778],[0.09937500000000009,0.6507407407407407],[0.1,0.643888888888889],[0.14895833333333333,0.6138888888888889],[0.14895833333333333,0.6138888888888889],[0.19812500000000005,0.5374074074074074],[0.21375000000000005,0.4705555555555556],[0.25718750000000007,0.4596296296296297],[0.33583333333333343,0.40333333333333327],[0.3758333333333333,0.3640740740740741],[0.39812500000000006,0.35351851851851845],[0.39812500000000006,0.35351851851851845],[0.40510416666666677,0.28481481481481474],[0.40770833333333345,0.2540740740740742],[0.43072916666666666,0.20888888888888882],[0.47374999999999995,0.17240740740740745],[0.4965625000000001,0.13629629629629633],[0.5204166666666665,0.10981481481481473],[0.5463541666666667,0.0544444444444444],[0.5510416666666667,0.013333333333333417],[0.5570833333333333,-0.019999999999999917],[0.5631249999999999,-0.05333333333333336],[0.5542708333333333,0.018333333333333292],[0.5744791666666667,0.013888888888888888],[0.5946875000000001,0.009444444444444486],[0.5385416666666667,0.00592592592592601],[0.48239583333333325,0.002407407407407323],[0.4898958333333333,-0.07444444444444442],[0.5082291666666667,-0.1542592592592593],[0.5145833333333333,-0.18740740740740738],[0.5198958333333332,-0.2485185185185185],[0.5305208333333333,-0.3059259259259259],[0.5623958333333334,-0.45759259259259266],[0.5903125,-0.55],[0.6182291666666667,-0.6424074074074073],[0.6182291666666667,-0.6424074074074073],[0.6384375000000001,-0.6974074074074075],[0.6556250000000001,-0.7974074074074075],[0.6342708333333335,-0.8275925925925925],[0.6408333333333334,-0.8679629629629629],[0.6338541666666667,-0.9314814814814815],[0.6178124999999999,-0.9438888888888889],[0.5783333333333334,-0.8996296296296297],[0.5388541666666666,-0.8553703703703703],[0.5044791666666666,-0.8377777777777777],[0.4701041666666666,-0.8201851851851851],[0.46770833333333334,-0.8109259259259259],[0.4436458333333334,-0.7150000000000001],[0.46145833333333336,-0.6081481481481481],[0.4235416666666666,-0.5183333333333333],[0.39718749999999997,-0.4209259259259259],[0.3959374999999999,-0.367037037037037],[0.41281249999999997,-0.37351851851851847],[0.40656249999999994,-0.4096296296296296],[0.4170833333333334,-0.3992592592592593],[0.4296875,-0.37962962962962965],[0.44989583333333344,-0.3866666666666667],[0.47416666666666674,-0.4016666666666666],[0.4622916666666666,-0.48499999999999993],[0.4595833333333334,-0.4855555555555555],[0.45854166666666674,-0.4892592592592592],[0.48250000000000004,-0.5114814814814814],[0.5064583333333333,-0.5337037037037037],[0.5535416666666667,-0.5355555555555556],[0.5653125,-0.537962962962963],[0.5761458333333332,-0.597037037037037],[0.5869791666666667,-0.6561111111111111],[0.6063541666666665,-0.6855555555555556],[0.6095833333333334,-0.6711111111111111],[0.6151041666666667,-0.6696296296296297],[0.6166666666666667,-0.6796296296296296],[0.5814583333333334,-0.6875925925925926],[0.5814583333333334,-0.6875925925925926],[0.5477083333333332,-0.7298148148148148],[0.5369791666666667,-0.6925925925925925],[0.5271874999999999,-0.6701851851851851],[0.5162499999999999,-0.6003703703703703],[0.47781250000000003,-0.5448148148148148],[0.4400000000000001,-0.5542592592592592],[0.4743750000000001,-0.5301851851851852],[0.51375,-0.5164814814814814],[0.521875,-0.5024074074074074],[0.5282291666666665,-0.46166666666666667],[0.5010416666666667,-0.4212962962962963],[0.4508333333333333,-0.45111111111111113],[0.4427083333333333,-0.462037037037037],[0.4345833333333334,-0.4729629629629629],[0.43739583333333343,-0.4844444444444445],[0.45166666666666655,-0.49425925925925923],[0.39010416666666664,-0.45092592592592595],[0.3290625000000001,-0.4368518518518518],[0.3015625,-0.40851851851851856],[0.26885416666666656,-0.3824074074074074],[0.2830208333333334,-0.3042592592592593],[0.2830208333333334,-0.3042592592592593],[0.2972916666666668,-0.252962962962963],[0.24645833333333325,-0.16166666666666668],[0.1921875,-0.06314814814814819],[0.14802083333333324,0.057777777777777865],[0.12843749999999995,0.19277777777777783],[0.12291666666666666,0.25462962962962965],[0.12385416666666677,0.3138888888888889],[0.12479166666666662,0.3731481481481482],[0.12197916666666657,0.4588888888888888],[0.1131249999999999,0.5105555555555557],[0.10812499999999996,0.6014814814814814],[0.10812499999999996,0.6014814814814814],[0.12177083333333343,0.6298148148148148],[0.12177083333333343,0.6298148148148148],[0.12395833333333334,0.6831481481481481],[0.12395833333333334,0.6831481481481481],[0.13677083333333329,0.7268518518518519],[0.13677083333333329,0.7268518518518519],[0.13322916666666676,0.7424074074074074],[0.13322916666666676,0.7424074074074074],[0.10979166666666676,0.7627777777777778],[0.10979166666666676,0.7627777777777778],[0.06885416666666658,0.7579629629629628],[0.07697916666666677,0.7507407407407407],[0.07458333333333324,0.6444444444444445],[0.07416666666666671,0.5662962962962962],[0.07760416666666667,0.4922222222222221],[0.10083333333333329,0.43037037037037035]]","[[-0.01260416666666669,-0.07574074074074069,0.00020000000297670795],[-0.01260416666666669,-0.07574074074074069,0.04130000001191547],[0.025312499999999953,-0.10981481481481484,0.05060000000894149],[0.025312499999999953,-0.10981481481481484,0.0648000000119282],[0.043437500000000046,-0.13759259259259263,0.078800000011924],[0.04697916666666669,-0.11166666666666669,0.09540000000596649],[0.06614583333333333,-0.1272222222222222,0.11210000000893672],[0.09156250000000009,-0.15870370370370368,0.12880000001192116],[0.14291666666666672,-0.11277777777777774,0.14560000000894036],[0.16593749999999996,-0.10333333333333336,0.16220000000298285],[0.16572916666666657,-0.13296296296296298,0.17950000000000443],[0.18708333333333324,-0.1294444444444444,0.19710000000894468],[0.17854166666666677,-0.13240740740740742,0.21410000000894058],[0.17666666666666658,-0.1366666666666667,0.22890000000596444],[0.16572916666666657,-0.1242592592592593,0.24540000000595796],[0.140625,-0.13925925925925925,0.2621000000089424],[0.1658333333333334,-0.13259259259259262,0.27880000001192684],[0.17802083333333343,-0.09500000000000001,0.2954000000059551],[0.19760416666666672,-0.16074074074074077,0.31449999999999534],[0.2115624999999999,-0.18407407407407403,0.33170000000298216],[0.24645833333333325,-0.19166666666666668,0.3456000000089432],[0.24739583333333334,-0.21222222222222226,0.3621000000089367],[0.2509375000000001,-0.24277777777777781,0.37880000001192116],[0.23468749999999997,-0.29981481481481476,0.3954999999999984],[0.24791666666666667,-0.302962962962963,0.41270000000298523],[0.20572916666666666,-0.24888888888888885,0.4289000000059673],[0.15427083333333325,-0.20611111111111113,0.44549999999999557],[0.10010416666666658,-0.21574074074074073,0.46210000000894524],[0.025625000000000023,-0.16129629629629633,0.47870000000298774],[-0.006979166666666714,-0.13944444444444445,0.49560000000893467],[-0.033958333333333354,-0.10907407407407403,0.5137000000029843],[-0.06354166666666666,-0.10777777777777775,0.5288000000119268],[-0.09572916666666664,-0.09648148148148153,0.5454000000059551],[-0.12552083333333333,-0.031111111111111027,0.5621000000089396],[-0.16062500000000005,-0.006296296296296254,0.5792000000029844],[-0.1640625,-0.03481481481481473,0.5974999999999966],[-0.19083333333333338,-0.0816666666666667,0.6127000000029739],[-0.1710416666666667,-0.07574074074074069,0.6288000000119212],[-0.14552083333333338,-0.07555555555555557,0.6486000000089405],[-0.1688541666666667,-0.04203703703703712,0.6622000000029828],[-0.13250000000000003,-0.05259259259259255,0.679000000000002],[-0.08802083333333334,-0.04425925925925922,0.6954000000059608],[-0.04750000000000002,-0.0507407407407407,0.7126000000089476],[0.036249999999999956,-0.03351851851851856,0.7287000000029877],[0.13229166666666667,-0.01185185185185181,0.7482000000029814],[0.19854166666666656,-0.001851851851851852,0.7621000000089424],[0.24833333333333343,-0.02907407407407416,0.7788000000119268],[0.2796875,-0.102962962962963,0.7954000000059551],[0.3042708333333332,-0.16925925925925922,0.8123000000119163],[0.33791666666666675,-0.2270370370370371,0.828800000011924],[0.31187500000000007,-0.24074074074074073,0.8454000000059665],[0.28395833333333326,-0.30703703703703705,0.8621000000089367],[0.2717708333333334,-0.34388888888888886,0.8788000000119212],[0.2540625000000001,-0.4516666666666666,0.8954999999999984],[0.2540625000000001,-0.4516666666666666,0.9122000000029828],[0.2209374999999999,-0.5590740740740741,0.9288000000119183],[0.2125,-0.6709259259259259,0.9511000000089354],[0.2125,-0.6709259259259259,0.96220000000298],[0.190625,-0.7733333333333334,0.9832000000029808],[0.13083333333333325,-0.6672222222222223,0.9989999999999952],[0.13083333333333325,-0.6672222222222223,1.0121000000089424],[0.09874999999999995,-0.5338888888888889,1.0337000000029803],[0.09874999999999995,-0.5338888888888889,1.045500000000004],[0.11281249999999995,-0.5048148148148148,1.0622000000029743],[0.11281249999999995,-0.5048148148148148,1.083400000005966],[0.13541666666666666,-0.4570370370370371,1.0954000000059665],[0.15750000000000006,-0.35777777777777775,1.115700000002974],[0.16895833333333338,-0.3022222222222222,1.1293000000119235],[0.16239583333333343,-0.2257407407407407,1.1454999999999984],[0.15333333333333338,-0.13333333333333333,1.162100000008948],[0.18645833333333334,-0.018148148148148063,1.1788000000119183],[0.22999999999999995,0.12666666666666662,1.1954000000059608],[0.2855208333333332,0.102962962962963,1.2121000000089452],[0.275,0.056666666666666705,1.2287000000029877],[0.2796875,0.14740740740740746,1.245400000005958],[0.2738541666666668,0.18425925925925926,1.2620000000000005],[0.28322916666666675,0.25462962962962965,1.2788000000119268],[0.26708333333333345,0.3533333333333332,1.2954000000059551],[0.27937500000000004,0.5040740740740741,1.3121000000089396],[0.28937499999999994,0.585,1.3315000000000055],[0.29583333333333334,0.6662962962962962,1.3493000000119224],[0.2612499999999999,0.7150000000000001,1.3622000000029857],[0.24145833333333327,0.7837037037037038,1.3787000000029792],[0.2443749999999999,0.7998148148148148,1.3954999999999984],[0.2867708333333333,0.8201851851851851,1.4123000000119248],[0.25802083333333337,0.7972222222222223,1.4288000000119183],[0.2626041666666666,0.7640740740740741,1.4454000000059608],[0.27531249999999996,0.6990740740740741,1.4620000000000033],[0.2604166666666667,0.6018518518518519,1.4788000000119155],[0.234375,0.5525925925925925,1.4959000000059604],[0.1359375,0.46222222222222226,1.5122000000029772],[0.05343749999999995,0.4403703703703703,1.5289000000059616],[-0.04635416666666667,0.3827777777777779,1.545500000000004],[-0.11031249999999998,0.36074074074074064,1.5619999999999976],[-0.2646875,0.2838888888888888,1.578800000011924],[-0.30666666666666664,0.2916666666666667,1.5954000000059665],[-0.37947916666666665,0.24444444444444444,1.6122000000029857],[-0.4345833333333334,0.2975925925925927,1.6288000000119212],[-0.49947916666666664,0.3431481481481481,1.6454000000059636],[-0.5239583333333333,0.4111111111111111,1.6647000000029806],[-0.5239583333333333,0.4111111111111111,1.688300000011921],[-0.46291666666666664,0.4551851851851851,1.6957000000029865],[-0.3615625,0.4903703703703703,1.7126000000089476],[-0.23270833333333332,0.5185185185185185,1.7289000000059644],[-0.17864583333333334,0.5381481481481482,1.745400000005958],[-0.09187500000000005,0.5237037037037037,1.7621000000089424],[-0.059583333333333384,0.4959259259259258,1.778700000002985],[-0.024687500000000046,0.5192592592592592,1.7977000000029761],[0.01604166666666664,0.4737037037037036,1.8123000000119163],[0.0818749999999999,0.4281481481481482,1.8291000000089355],[0.115625,0.3712962962962963,1.8456000000089432],[0.14093749999999997,0.3738888888888888,1.8645000000000067],[0.15614583333333343,0.34148148148148144,1.8790000000000049],[0.11802083333333328,0.3494444444444445,1.8956000000089404],[0.17687499999999995,0.31425925925925935,1.9154000000059597],[0.18760416666666657,0.337037037037037,1.9289000000059673],[0.19020833333333323,0.3861111111111111,1.9457000000029865],[0.17604166666666668,0.412962962962963,1.9649000000059544],[0.15906250000000005,0.39574074074074084,1.9816000000089389],[0.12770833333333323,0.3859259259259259,1.9956000000089347],[0.10750000000000005,0.35907407407407405,2.012500000000003],[0.07156250000000004,0.34037037037037027,2.031100000008948],[0.042604166666666644,0.3618518518518518,2.045500000000004],[0.04510416666666662,0.3635185185185184,2.0623000000119163],[0.00625,0.42740740740740735,2.0791000000089355],[0.011041666666666691,0.4353703703703704,2.097900000005964],[0.017604166666666643,0.42018518518518516,2.1123000000119276],[0.034375,0.4398148148148148,2.128800000011921],[0.04666666666666662,0.5046296296296297,2.1454999999999984],[0.058124999999999954,0.5387037037037037,2.164500000000004],[0.05291666666666662,0.5792592592592591,2.1789000000059673],[0.06645833333333329,0.5894444444444443,2.1956000000089375],[0.0696875000000001,0.5735185185185186,2.2164000000059616],[0.07000000000000005,0.5861111111111111,2.229300000011918],[0.08208333333333329,0.5835185185185185,2.2456000000089347],[0.08468749999999996,0.6048148148148148,2.262200000002977],[0.10739583333333323,0.6335185185185186,2.281499999999994],[0.10250000000000009,0.6155555555555555,2.295600000008946],[0.1046875,0.5562962962962963,2.3125],[0.08499999999999991,0.5542592592592592,2.333900000005954],[0.08499999999999991,0.5542592592592592,2.34580000001192],[0.1087500000000001,0.5638888888888889,2.3622000000029857],[0.09708333333333338,0.5857407407407407,2.379000000000005],[0.07999999999999995,0.6196296296296296,2.3978000000119266],[0.07489583333333343,0.6081481481481481,2.4124000000059596],[0.033749999999999974,0.5757407407407407,2.4293000000119207],[-0.008749999999999977,0.5424074074074073,2.445400000005961],[-0.059583333333333384,0.49981481481481477,2.46220000000298],[-0.09583333333333334,0.45925925925925926,2.4787000000029877],[-0.13343750000000001,0.49370370370370376,2.495400000005958],[-0.15906250000000005,0.49425925925925923,2.512400000005968],[-0.21510416666666668,0.46870370370370373,2.528700000002985],[-0.23875000000000005,0.45314814814814824,2.545500000000004],[-0.24447916666666672,0.43333333333333335,2.5621000000089396],[-0.2708333333333333,0.4207407407407408,2.578800000011924],[-0.2497916666666666,0.43425925925925923,2.5955000000000013],[-0.23322916666666665,0.4588888888888888,2.6122000000029857],[-0.18697916666666667,0.49666666666666676,2.628800000011921],[-0.12708333333333333,0.5475925925925926,2.6479000000059614],[-0.09708333333333338,0.5572222222222222,2.662200000002983],[-0.028437499999999952,0.5646296296296296,2.6789000000059673],[0.043437500000000046,0.587037037037037,2.6988000000119285],[0.07208333333333337,0.5872222222222223,2.7157000000029825],[0.05593750000000005,0.6535185185185185,2.730700000002983],[0.04583333333333333,0.7035185185185184,2.748500000000007],[0.06072916666666662,0.6868518518518518,2.762200000002977],[0.08145833333333338,0.6599999999999999,2.7794999999999987],[0.09072916666666657,0.544074074074074,2.79940000000596],[0.06885416666666658,0.5349999999999999,2.8155],[0.04479166666666667,0.5125925925925925,2.8322000000029846],[-0.0015625,0.4959259259259258,2.8491000000089457],[-0.03843749999999998,0.5081481481481481,2.8623000000119276],[-0.03770833333333338,0.5312962962962963,2.878900000005956],[0.01604166666666664,0.47074074074074085,2.895700000002975],[0.06052083333333336,0.4168518518518519,2.9178000000119226],[0.06052083333333336,0.4168518518518519,2.9287000000029764],[0.03302083333333338,0.4507407407407407,2.945400000005961],[0.03302083333333338,0.4507407407407407,2.9658000000119245],[0.025520833333333333,0.5307407407407407,2.979100000008941],[0.025520833333333333,0.5307407407407407,2.9958000000119256],[0.016979166666666618,0.6768518518518518,3.0190000000000055],[0.016979166666666618,0.6768518518518518,3.0289999999999964],[-0.003958333333333286,0.6759259259259259,3.045700000002981],[-0.003958333333333286,0.6759259259259259,3.0622000000029743],[0.0014583333333333095,0.6959259259259258,3.08420000000298],[0.0014583333333333095,0.6959259259259258,3.095600000008943],[0.019791666666666666,0.7087037037037038,3.112499999999997],[0.04635416666666667,0.6638888888888889,3.131400000005968],[0.0875,0.6777777777777778,3.1463000000119195],[0.09937500000000009,0.6507407407407407,3.162200000002983],[0.1,0.643888888888889,3.1789000000059673],[0.14895833333333333,0.6138888888888889,3.2039999999999935],[0.14895833333333333,0.6138888888888889,3.2189000000059593],[0.19812500000000005,0.5374074074074074,3.2289000000059644],[0.21375000000000005,0.4705555555555556,3.2456000000089347],[0.25718750000000007,0.4596296296296297,3.2643000000119144],[0.33583333333333343,0.40333333333333327,3.2789000000059616],[0.3758333333333333,0.3640740740740741,3.295600000008946],[0.39812500000000006,0.35351851851851845,3.3123000000119163],[0.39812500000000006,0.35351851851851845,3.3319999999999936],[0.40510416666666677,0.28481481481481474,3.345600000008943],[0.40770833333333345,0.2540740740740742,3.3623000000119276],[0.43072916666666666,0.20888888888888882,3.383400000005963],[0.47374999999999995,0.17240740740740745,3.3970000000000056],[0.4965625000000001,0.13629629629629633,3.4124000000059596],[0.5204166666666665,0.10981481481481473,3.4289000000059673],[0.5463541666666667,0.0544444444444444,3.448300000011926],[0.5510416666666667,0.013333333333333417,3.46220000000298],[0.5570833333333333,-0.019999999999999917,3.4789000000059644],[0.5631249999999999,-0.05333333333333336,3.4956000000089347],[0.5542708333333333,0.018333333333333292,3.516300000011924],[0.5744791666666667,0.013888888888888888,3.531499999999994],[0.5946875000000001,0.009444444444444486,3.545600000008946],[0.5385416666666667,0.00592592592592601,3.5622000000029743],[0.48239583333333325,0.002407407407407323,3.5819999999999936],[0.4898958333333333,-0.07444444444444442,3.5954000000059665],[0.5082291666666667,-0.1542592592592593,3.6121000000089367],[0.5145833333333333,-0.18740740740740738,3.628900000005956],[0.5198958333333332,-0.2485185185185185,3.645900000005966],[0.5305208333333333,-0.3059259259259259,3.662000000000006],[0.5623958333333334,-0.45759259259259266,3.6787000000029764],[0.5903125,-0.55,3.695400000005961],[0.6182291666666667,-0.6424074074074073,3.7121000000089452],[0.6182291666666667,-0.6424074074074073,3.7287000000029877],[0.6384375000000001,-0.6974074074074075,3.745400000005958],[0.6556250000000001,-0.7974074074074075,3.7621000000089424],[0.6342708333333335,-0.8275925925925925,3.778700000002985],[0.6408333333333334,-0.8679629629629629,3.7953000000119204],[0.6338541666666667,-0.9314814814814815,3.8122000000029743],[0.6178124999999999,-0.9438888888888889,3.828700000002982],[0.5783333333333334,-0.8996296296296297,3.8454000000059665],[0.5388541666666666,-0.8553703703703703,3.8619999999999948],[0.5044791666666666,-0.8377777777777777,3.878800000011921],[0.4701041666666666,-0.8201851851851851,3.8954000000059636],[0.46770833333333334,-0.8109259259259259,3.912100000008948],[0.4436458333333334,-0.7150000000000001,3.9287000000029764],[0.46145833333333336,-0.6081481481481481,3.945400000005961],[0.4235416666666666,-0.5183333333333333,3.9621000000089452],[0.39718749999999997,-0.4209259259259259,3.9787000000029877],[0.3959374999999999,-0.367037037037037,3.995500000000007],[0.41281249999999997,-0.37351851851851847,4.012100000008942],[0.40656249999999994,-0.4096296296296296,4.031400000005959],[0.4170833333333334,-0.3992592592592593,4.045500000000004],[0.4296875,-0.37962962962962965,4.062200000002974],[0.44989583333333344,-0.3866666666666667,4.0789999999999935],[0.47416666666666674,-0.4016666666666666,4.097800000011915],[0.4622916666666666,-0.48499999999999993,4.112400000005962],[0.4595833333333334,-0.4855555555555555,4.129700000002984],[0.45854166666666674,-0.4892592592592592,4.14930000001192],[0.48250000000000004,-0.5114814814814814,4.163400000005964],[0.5064583333333333,-0.5337037037037037,4.178700000002976],[0.5535416666666667,-0.5355555555555556,4.195300000011926],[0.5653125,-0.537962962962963,4.21220000000298],[0.5761458333333332,-0.597037037037037,4.2288000000119155],[0.5869791666666667,-0.6561111111111111,4.245400000005958],[0.6063541666666665,-0.6855555555555556,4.262100000008942],[0.6095833333333334,-0.6711111111111111,4.278700000002985],[0.6151041666666667,-0.6696296296296297,4.29530000001192],[0.6166666666666667,-0.6796296296296296,4.312300000011916],[0.5814583333333334,-0.6875925925925926,4.330700000002977],[0.5814583333333334,-0.6875925925925926,4.345500000000001],[0.5477083333333332,-0.7298148148148148,4.361999999999995],[0.5369791666666667,-0.6925925925925925,4.378700000002979],[0.5271874999999999,-0.6701851851851851,4.395400000005964],[0.5162499999999999,-0.6003703703703703,4.412600000008936],[0.47781250000000003,-0.5448148148148148,4.428700000002976],[0.4400000000000001,-0.5542592592592592,4.445499999999996],[0.4743750000000001,-0.5301851851851852,4.462000000000003],[0.51375,-0.5164814814814814,4.478700000002988],[0.521875,-0.5024074074074074,4.495400000005958],[0.5282291666666665,-0.46166666666666667,4.512400000005968],[0.5010416666666667,-0.4212962962962963,4.528800000011927],[0.4508333333333333,-0.45111111111111113,4.545400000005955],[0.4427083333333333,-0.462037037037037,4.561999999999998],[0.4345833333333334,-0.4729629629629629,4.578700000002982],[0.43739583333333343,-0.4844444444444445,4.5954000000059665],[0.45166666666666655,-0.49425925925925923,4.612700000002974],[0.39010416666666664,-0.45092592592592595,4.628700000002979],[0.3290625000000001,-0.4368518518518518,4.645400000005964],[0.3015625,-0.40851851851851856,4.662000000000006],[0.26885416666666656,-0.3824074074074074,4.678900000005967],[0.2830208333333334,-0.3042592592592593,4.695400000005961],[0.2830208333333334,-0.3042592592592593,4.714100000008941],[0.2972916666666668,-0.252962962962963,4.728900000005964],[0.24645833333333325,-0.16166666666666668,4.74590000000596],[0.1921875,-0.06314814814814819,4.7620000000000005],[0.14802083333333324,0.057777777777777865,4.778800000011927],[0.12843749999999995,0.19277777777777783,4.795500000000004],[0.12291666666666666,0.25462962962962965,4.814200000002984],[0.12385416666666677,0.3138888888888889,4.828700000002982],[0.12479166666666662,0.3731481481481482,4.8453000000119175],[0.12197916666666657,0.4588888888888888,4.862100000008937],[0.1131249999999999,0.5105555555555557,4.878700000002979],[0.10812499999999996,0.6014814814814814,4.895499999999998],[0.10812499999999996,0.6014814814814814,4.912200000002983],[0.12177083333333343,0.6298148148148148,4.928700000002976],[0.12177083333333343,0.6298148148148148,4.945499999999996],[0.12395833333333334,0.6831481481481481,4.962000000000003],[0.12395833333333334,0.6831481481481481,4.978700000002988],[0.13677083333333329,0.7268518518518519,4.995400000005958],[0.13677083333333329,0.7268518518518519,5.012100000008942],[0.13322916666666676,0.7424074074074074,5.028800000011927],[0.13322916666666676,0.7424074074074074,5.045400000005955],[0.10979166666666676,0.7627777777777778,5.06210000000894],[0.10979166666666676,0.7627777777777778,5.078800000011924],[0.06885416666666658,0.7579629629629628,5.0954000000059665],[0.07697916666666677,0.7507407407407407,5.114700000002983],[0.07458333333333324,0.6444444444444445,5.128700000002979],[0.07416666666666671,0.5662962962962962,5.145400000005964],[0.07760416666666667,0.4922222222222221,5.162700000002985],[0.10083333333333329,0.43037037037037035,5.178700000002976]]","[0.00020000000297670795,0.04130000001191547,0.05060000000894149,0.0648000000119282,0.078800000011924,0.09540000000596649,0.11210000000893672,0.12880000001192116,0.14560000000894036,0.16220000000298285,0.17950000000000443,0.19710000000894468,0.21410000000894058,0.22890000000596444,0.24540000000595796,0.2621000000089424,0.27880000001192684,0.2954000000059551,0.31449999999999534,0.33170000000298216,0.3456000000089432,0.3621000000089367,0.37880000001192116,0.3954999999999984,0.41270000000298523,0.4289000000059673,0.44549999999999557,0.46210000000894524,0.47870000000298774,0.49560000000893467,0.5137000000029843,0.5288000000119268,0.5454000000059551,0.5621000000089396,0.5792000000029844,0.5974999999999966,0.6127000000029739,0.6288000000119212,0.6486000000089405,0.6622000000029828,0.679000000000002,0.6954000000059608,0.7126000000089476,0.7287000000029877,0.7482000000029814,0.7621000000089424,0.7788000000119268,0.7954000000059551,0.8123000000119163,0.828800000011924,0.8454000000059665,0.8621000000089367,0.8788000000119212,0.8954999999999984,0.9122000000029828,0.9288000000119183,0.9511000000089354,0.96220000000298,0.9832000000029808,0.9989999999999952,1.0121000000089424,1.0337000000029803,1.045500000000004,1.0622000000029743,1.083400000005966,1.0954000000059665,1.115700000002974,1.1293000000119235,1.1454999999999984,1.162100000008948,1.1788000000119183,1.1954000000059608,1.2121000000089452,1.2287000000029877,1.245400000005958,1.2620000000000005,1.2788000000119268,1.2954000000059551,1.3121000000089396,1.3315000000000055,1.3493000000119224,1.3622000000029857,1.3787000000029792,1.3954999999999984,1.4123000000119248,1.4288000000119183,1.4454000000059608,1.4620000000000033,1.4788000000119155,1.4959000000059604,1.5122000000029772,1.5289000000059616,1.545500000000004,1.5619999999999976,1.578800000011924,1.5954000000059665,1.6122000000029857,1.6288000000119212,1.6454000000059636,1.6647000000029806,1.688300000011921,1.6957000000029865,1.7126000000089476,1.7289000000059644,1.745400000005958,1.7621000000089424,1.778700000002985,1.7977000000029761,1.8123000000119163,1.8291000000089355,1.8456000000089432,1.8645000000000067,1.8790000000000049,1.8956000000089404,1.9154000000059597,1.9289000000059673,1.9457000000029865,1.9649000000059544,1.9816000000089389,1.9956000000089347,2.012500000000003,2.031100000008948,2.045500000000004,2.0623000000119163,2.0791000000089355,2.097900000005964,2.1123000000119276,2.128800000011921,2.1454999999999984,2.164500000000004,2.1789000000059673,2.1956000000089375,2.2164000000059616,2.229300000011918,2.2456000000089347,2.262200000002977,2.281499999999994,2.295600000008946,2.3125,2.333900000005954,2.34580000001192,2.3622000000029857,2.379000000000005,2.3978000000119266,2.4124000000059596,2.4293000000119207,2.445400000005961,2.46220000000298,2.4787000000029877,2.495400000005958,2.512400000005968,2.528700000002985,2.545500000000004,2.5621000000089396,2.578800000011924,2.5955000000000013,2.6122000000029857,2.628800000011921,2.6479000000059614,2.662200000002983,2.6789000000059673,2.6988000000119285,2.7157000000029825,2.730700000002983,2.748500000000007,2.762200000002977,2.7794999999999987,2.79940000000596,2.8155,2.8322000000029846,2.8491000000089457,2.8623000000119276,2.878900000005956,2.895700000002975,2.9178000000119226,2.9287000000029764,2.945400000005961,2.9658000000119245,2.979100000008941,2.9958000000119256,3.0190000000000055,3.0289999999999964,3.045700000002981,3.0622000000029743,3.08420000000298,3.095600000008943,3.112499999999997,3.131400000005968,3.1463000000119195,3.162200000002983,3.1789000000059673,3.2039999999999935,3.2189000000059593,3.2289000000059644,3.2456000000089347,3.2643000000119144,3.2789000000059616,3.295600000008946,3.3123000000119163,3.3319999999999936,3.345600000008943,3.3623000000119276,3.383400000005963,3.3970000000000056,3.4124000000059596,3.4289000000059673,3.448300000011926,3.46220000000298,3.4789000000059644,3.4956000000089347,3.516300000011924,3.531499999999994,3.545600000008946,3.5622000000029743,3.5819999999999936,3.5954000000059665,3.6121000000089367,3.628900000005956,3.645900000005966,3.662000000000006,3.6787000000029764,3.695400000005961,3.7121000000089452,3.7287000000029877,3.745400000005958,3.7621000000089424,3.778700000002985,3.7953000000119204,3.8122000000029743,3.828700000002982,3.8454000000059665,3.8619999999999948,3.878800000011921,3.8954000000059636,3.912100000008948,3.9287000000029764,3.945400000005961,3.9621000000089452,3.9787000000029877,3.995500000000007,4.012100000008942,4.031400000005959,4.045500000000004,4.062200000002974,4.0789999999999935,4.097800000011915,4.112400000005962,4.129700000002984,4.14930000001192,4.163400000005964,4.178700000002976,4.195300000011926,4.21220000000298,4.2288000000119155,4.245400000005958,4.262100000008942,4.278700000002985,4.29530000001192,4.312300000011916,4.330700000002977,4.345500000000001,4.361999999999995,4.378700000002979,4.395400000005964,4.412600000008936,4.428700000002976,4.445499999999996,4.462000000000003,4.478700000002988,4.495400000005958,4.512400000005968,4.528800000011927,4.545400000005955,4.561999999999998,4.578700000002982,4.5954000000059665,4.612700000002974,4.628700000002979,4.645400000005964,4.662000000000006,4.678900000005967,4.695400000005961,4.714100000008941,4.728900000005964,4.74590000000596,4.7620000000000005,4.778800000011927,4.795500000000004,4.814200000002984,4.828700000002982,4.8453000000119175,4.862100000008937,4.878700000002979,4.895499999999998,4.912200000002983,4.928700000002976,4.945499999999996,4.962000000000003,4.978700000002988,4.995400000005958,5.012100000008942,5.028800000011927,5.045400000005955,5.06210000000894,5.078800000011924,5.0954000000059665,5.114700000002983,5.128700000002979,5.145400000005964,5.162700000002985,5.178700000002976]","[1733205212931,1733205212964,1733205212973,1733205212987,1733205213001,1733205213018,1733205213035,1733205213051,1733205213068,1733205213085,1733205213102,1733205213120,1733205213137,1733205213152,1733205213168,1733205213185,1733205213201,1733205213218,1733205213237,1733205213254,1733205213268,1733205213285,1733205213301,1733205213318,1733205213335,1733205213352,1733205213368,1733205213385,1733205213401,1733205213418,1733205213436,1733205213451,1733205213468,1733205213485,1733205213502,1733205213520,1733205213535,1733205213551,1733205213571,1733205213585,1733205213602,1733205213618,1733205213635,1733205213651,1733205213671,1733205213685,1733205213701,1733205213718,1733205213735,1733205213751,1733205213768,1733205213785,1733205213801,1733205213818,1733205213835,1733205213851,1733205213874,1733205213885,1733205213906,1733205213922,1733205213935,1733205213956,1733205213968,1733205213985,1733205214006,1733205214018,1733205214038,1733205214052,1733205214068,1733205214085,1733205214101,1733205214118,1733205214135,1733205214151,1733205214168,1733205214185,1733205214201,1733205214218,1733205214235,1733205214254,1733205214272,1733205214285,1733205214301,1733205214318,1733205214335,1733205214351,1733205214368,1733205214385,1733205214401,1733205214418,1733205214435,1733205214451,1733205214468,1733205214485,1733205214501,1733205214518,1733205214535,1733205214551,1733205214568,1733205214587,1733205214611,1733205214618,1733205214635,1733205214652,1733205214668,1733205214685,1733205214701,1733205214720,1733205214735,1733205214752,1733205214768,1733205214787,1733205214802,1733205214818,1733205214838,1733205214852,1733205214868,1733205214887,1733205214904,1733205214918,1733205214935,1733205214954,1733205214968,1733205214985,1733205215002,1733205215021,1733205215035,1733205215051,1733205215068,1733205215087,1733205215101,1733205215118,1733205215139,1733205215152,1733205215168,1733205215185,1733205215204,1733205215218,1733205215235,1733205215257,1733205215268,1733205215285,1733205215302,1733205215320,1733205215335,1733205215352,1733205215368,1733205215385,1733205215401,1733205215418,1733205215435,1733205215451,1733205215468,1733205215485,1733205215501,1733205215518,1733205215535,1733205215551,1733205215571,1733205215585,1733205215602,1733205215621,1733205215638,1733205215653,1733205215671,1733205215685,1733205215702,1733205215722,1733205215738,1733205215755,1733205215772,1733205215785,1733205215802,1733205215818,1733205215841,1733205215851,1733205215868,1733205215888,1733205215902,1733205215918,1733205215942,1733205215952,1733205215968,1733205215985,1733205216007,1733205216018,1733205216035,1733205216054,1733205216069,1733205216085,1733205216102,1733205216127,1733205216142,1733205216152,1733205216168,1733205216187,1733205216202,1733205216218,1733205216235,1733205216255,1733205216268,1733205216285,1733205216306,1733205216320,1733205216335,1733205216352,1733205216371,1733205216385,1733205216402,1733205216418,1733205216439,1733205216454,1733205216468,1733205216485,1733205216505,1733205216518,1733205216535,1733205216552,1733205216569,1733205216585,1733205216601,1733205216618,1733205216635,1733205216651,1733205216668,1733205216685,1733205216701,1733205216718,1733205216735,1733205216751,1733205216768,1733205216785,1733205216801,1733205216818,1733205216835,1733205216851,1733205216868,1733205216885,1733205216901,1733205216918,1733205216935,1733205216954,1733205216968,1733205216985,1733205217002,1733205217020,1733205217035,1733205217052,1733205217072,1733205217086,1733205217101,1733205217118,1733205217135,1733205217151,1733205217168,1733205217185,1733205217201,1733205217218,1733205217235,1733205217253,1733205217268,1733205217285,1733205217301,1733205217318,1733205217335,1733205217351,1733205217368,1733205217385,1733205217401,1733205217418,1733205217435,1733205217451,1733205217468,1733205217485,1733205217501,1733205217518,1733205217535,1733205217551,1733205217568,1733205217585,1733205217602,1733205217618,1733205217637,1733205217652,1733205217668,1733205217685,1733205217701,1733205217718,1733205217737,1733205217751,1733205217768,1733205217785,1733205217801,1733205217818,1733205217835,1733205217851,1733205217868,1733205217885,1733205217901,1733205217918,1733205217935,1733205217951,1733205217968,1733205217985,1733205218001,1733205218018,1733205218037,1733205218051,1733205218071,1733205218088,1733205218104]","[[947.9,499.1],[947.9,499.1],[984.3,480.7],[984.3,480.7],[1001.7,465.7],[1005.1,479.7],[1023.5,471.3],[1047.9,454.3],[1097.2,479.1],[1119.3,484.2],[1119.1,468.2],[1139.6,470.1],[1131.4,468.5],[1129.6,466.2],[1119.1,472.9],[1095,464.8],[1119.2,468.4],[1130.9,488.7],[1149.7,453.2],[1163.1,440.6],[1196.6,436.5],[1197.5,425.4],[1200.9,408.9],[1185.3,378.1],[1198,376.4],[1157.5,405.6],[1108.1,428.7],[1056.1,423.5],[984.6,452.9],[953.3,464.7],[927.4,481.1],[899,481.8],[868.1,487.9],[839.5,523.2],[805.8,536.6],[802.5,521.2],[776.8,495.9],[795.8,499.1],[820.3,499.2],[797.9,517.3],[832.8,511.6],[875.5,516.1],[914.4,512.6],[994.8,521.9],[1087,533.6],[1150.6,539],[1198.4,524.3],[1228.5,484.4],[1252.1,448.6],[1284.4,417.4],[1259.4,410],[1232.6,374.2],[1220.9,354.3],[1203.9,296.1],[1203.9,296.1],[1172.1,238.1],[1164,177.7],[1164,177.7],[1143,122.4],[1085.6,179.7],[1085.6,179.7],[1054.8,251.7],[1054.8,251.7],[1068.3,267.4],[1068.3,267.4],[1090,293.2],[1111.2,346.8],[1122.2,376.8],[1115.9,418.1],[1107.2,468],[1139,530.2],[1180.8,608.4],[1234.1,595.6],[1224,570.6],[1228.5,619.6],[1222.9,639.5],[1231.9,677.5],[1216.4,730.8],[1228.2,812.2],[1237.8,855.9],[1244,899.8],[1210.8,926.1],[1191.8,963.2],[1194.6,971.9],[1235.3,982.9],[1207.7,970.5],[1212.1,952.6],[1224.3,917.5],[1210,865],[1185,838.4],[1090.5,789.6],[1011.3,777.8],[915.5,746.7],[854.1,734.8],[705.9,693.3],[665.6,697.5],[595.7,672],[542.8,700.7],[480.5,725.3],[457,762],[457,762],[515.6,785.8],[612.9,804.8],[736.6,820],[788.5,830.6],[871.8,822.8],[902.8,807.8],[936.3,820.4],[975.4,795.8],[1038.6,771.2],[1071,740.5],[1095.3,741.9],[1109.9,724.4],[1073.3,728.7],[1129.8,709.7],[1140.1,722],[1142.6,748.5],[1129,763],[1112.7,753.7],[1082.6,748.4],[1063.2,733.9],[1028.7,723.8],[1000.9,735.4],[1003.3,736.3],[966,770.8],[970.6,775.1],[976.9,766.9],[993,777.5],[1004.8,812.5],[1015.8,830.9],[1010.8,852.8],[1023.8,858.3],[1026.9,849.7],[1027.2,856.5],[1038.8,855.1],[1041.3,866.6],[1063.1,882.1],[1058.4,872.4],[1060.5,840.4],[1041.6,839.3],[1041.6,839.3],[1064.4,844.5],[1053.2,856.3],[1036.8,874.6],[1031.9,868.4],[992.4,850.9],[951.6,832.9],[902.8,809.9],[868,788],[831.9,806.6],[807.3,806.9],[753.5,793.1],[730.8,784.7],[725.3,774],[700,767.2],[720.2,774.5],[736.1,787.8],[780.5,808.2],[838,835.7],[866.8,840.9],[932.7,844.9],[1001.7,857],[1029.2,857.1],[1013.7,892.9],[1004,919.9],[1018.3,910.9],[1038.2,896.4],[1047.1,833.8],[1026.1,828.9],[1003,816.8],[958.5,807.8],[923.1,814.4],[923.8,826.9],[975.4,794.2],[1018.1,765.1],[1018.1,765.1],[991.7,783.4],[991.7,783.4],[984.5,826.6],[984.5,826.6],[976.3,905.5],[976.3,905.5],[956.2,905],[956.2,905],[961.4,915.8],[961.4,915.8],[979,922.7],[1004.5,898.5],[1044,906],[1055.4,891.4],[1056,887.7],[1103,871.5],[1103,871.5],[1150.2,830.2],[1165.2,794.1],[1206.9,788.2],[1282.4,757.8],[1320.8,736.6],[1342.2,730.9],[1342.2,730.9],[1348.9,693.8],[1351.4,677.2],[1373.5,652.8],[1414.8,633.1],[1436.7,613.6],[1459.6,599.3],[1484.5,569.4],[1489,547.2],[1494.8,529.2],[1500.6,511.2],[1492.1,549.9],[1511.5,547.5],[1530.9,545.1],[1477,543.2],[1423.1,541.3],[1430.3,499.8],[1447.9,456.7],[1454,438.8],[1459.1,405.8],[1469.3,374.8],[1499.9,292.9],[1526.7,243],[1553.5,193.1],[1553.5,193.1],[1572.9,163.4],[1589.4,109.4],[1568.9,93.1],[1575.2,71.3],[1568.5,37],[1553.1,30.3],[1515.2,54.2],[1477.3,78.1],[1444.3,87.6],[1411.3,97.1],[1409,102.1],[1385.9,153.9],[1403,211.6],[1366.6,260.1],[1341.3,312.7],[1340.1,341.8],[1356.3,338.3],[1350.3,318.8],[1360.4,324.4],[1372.5,335],[1391.9,331.2],[1415.2,323.1],[1403.8,278.1],[1401.2,277.8],[1400.2,275.8],[1423.2,263.8],[1446.2,251.8],[1491.4,250.8],[1502.7,249.5],[1513.1,217.6],[1523.5,185.7],[1542.1,169.8],[1545.2,177.6],[1550.5,178.4],[1552,173],[1518.2,168.7],[1518.2,168.7],[1485.8,145.9],[1475.5,166],[1466.1,178.1],[1455.6,215.8],[1418.7,245.8],[1382.4,240.7],[1415.4,253.7],[1453.2,261.1],[1461,268.7],[1467.1,290.7],[1441,312.5],[1392.8,296.4],[1385,290.5],[1377.2,284.6],[1379.9,278.4],[1393.6,273.1],[1334.5,296.5],[1275.9,304.1],[1249.5,319.4],[1218.1,333.5],[1231.7,375.7],[1231.7,375.7],[1245.4,403.4],[1196.6,452.7],[1144.5,505.9],[1102.1,571.2],[1083.3,644.1],[1078,677.5],[1078.9,709.5],[1079.8,741.5],[1077.1,787.8],[1068.6,815.7],[1063.8,864.8],[1063.8,864.8],[1076.9,880.1],[1076.9,880.1],[1079,908.9],[1079,908.9],[1091.3,932.5],[1091.3,932.5],[1087.9,940.9],[1087.9,940.9],[1065.4,951.9],[1065.4,951.9],[1026.1,949.3],[1033.9,945.4],[1031.6,888],[1031.2,845.8],[1034.5,805.8],[1056.8,772.4]]","[0,0.5333]","[0.5333,0.5333]","[-0.5333,-0.5333]","[-0.5333,0]","[0,-0.5333]","[0.5333,-0.5333]","[0,0]","[0.5333,0]",0,0,0,0,1,4,Monitor,11,5,13,9
