inst1_resp.keys,inst1_resp.rt,calibrationMouse.x,calibrationMouse.y,calibrationMouse.leftButton,calibrationMouse.midButton,calibrationMouse.rightButton,calibrationClick.x,calibrationClick.y,calibrationClick.leftButton,calibrationClick.midButton,calibrationClick.rightButton,calibrationClick.clicked_name,trialsc.thisRepN,trialsc.thisTrialN,trialsc.thisN,trialsc.thisIndex,trialsc.ran,calibration_x,calibration_y,participant,session,date,expName,psychopyVersion,OS,frameRate,ScreenRes_pixels,Camera_pixels,mouse_2.x,mouse_2.y,mouse_2.leftButton,mouse_2.midButton,mouse_2.rightButton,mouse_2.time,mouse_2.clicked_name,mouse.x,mouse.y,mouse.leftButton,mouse.midButton,mouse.rightButton,mouse.time,mouse.clicked_name,Choice,Trial,TrialDuration,MOUSE_GAZE,ET_GAZE,ET_GAZE_x_T,time,unixTime,ET_GAZE_NF,Loc_Option1_label,Loc_Option2_label,Loc_Cost_label,Loc_Qual_label,Loc_Option1_cost,Loc_Option2_cost,Loc_Option1_quality,Loc_Option2_quality,trials.thisRepN,trials.thisTrialN,trials.thisN,trials.thisIndex,trials.ran,Block,Device,cost1,qual1,cost2,qual2
space,1.198,-0.030208333,-0.233333333,1,0,0,-0.327083333,0.001851852,1,0,0,calibration_square,0,0,0,6,1,-0.33,0,10,001,2024-12-03_15h36.02.735,Attention_exp_legacy,2023.1.0,Win32,59.88023952,,,,,,,,,,,,,,,,,,,,,,,,,,,,,,,,,,,,,,,,,,,,
,,,,,,,0,-0.662962963,1,0,0,calibration_square,0,1,1,9,1,0,-0.67,10,001,2024-12-03_15h36.02.735,Attention_exp_legacy,2023.1.0,Win32,59.88023952,,,,,,,,,,,,,,,,,,,,,,,,,,,,,,,,,,,,,,,,,,,,
,,,,,,,-0.677083333,-0.677777778,1,0,0,calibration_square,0,2,2,0,1,-0.67,-0.67,10,001,2024-12-03_15h36.02.735,Attention_exp_legacy,2023.1.0,Win32,59.88023952,,,,,,,,,,,,,,,,,,,,,,,,,,,,,,,,,,,,,,,,,,,,
,,,,,,,0.328125,0.672222222,1,0,0,calibration_square,0,3,3,18,1,0.33,0.67,10,001,2024-12-03_15h36.02.735,Attention_exp_legacy,2023.1.0,Win32,59.88023952,,,,,,,,,,,,,,,,,,,,,,,,,,,,,,,,,,,,,,,,,,,,
,,,,,,,0.677083333,0.675925926,1,0,0,calibration_square,0,4,4,19,1,0.67,0.67,10,001,2024-12-03_15h36.02.735,Attention_exp_legacy,2023.1.0,Win32,59.88023952,,,,,,,,,,,,,,,,,,,,,,,,,,,,,,,,,,,,,,,,,,,,
,,,,,,,-0.661458333,-0.335185185,1,0,0,calibration_square,0,5,5,1,1,-0.67,-0.33,10,001,2024-12-03_15h36.02.735,Attention_exp_legacy,2023.1.0,Win32,59.88023952,,,,,,,,,,,,,,,,,,,,,,,,,,,,,,,,,,,,,,,,,,,,
,,,,,,,0.335416667,0.322222222,1,0,0,calibration_square,0,6,6,17,1,0.33,0.33,10,001,2024-12-03_15h36.02.735,Attention_exp_legacy,2023.1.0,Win32,59.88023952,,,,,,,,,,,,,,,,,,,,,,,,,,,,,,,,,,,,,,,,,,,,
,,,,,,,-0.34375,0.668518519,1,0,0,,0,7,7,8,1,-0.33,0.67,10,001,2024-12-03_15h36.02.735,Attention_exp_legacy,2023.1.0,Win32,59.88023952,,,,,,,,,,,,,,,,,,,,,,,,,,,,,,,,,,,,,,,,,,,,
,,,,,,,0.007291667,0.32962963,1,0,0,calibration_square,0,8,8,12,1,0,0.33,10,001,2024-12-03_15h36.02.735,Attention_exp_legacy,2023.1.0,Win32,59.88023952,,,,,,,,,,,,,,,,,,,,,,,,,,,,,,,,,,,,,,,,,,,,
,,,,,,,-0.676041667,0.009259259,1,0,0,calibration_square,0,9,9,2,1,-0.67,0,10,001,2024-12-03_15h36.02.735,Attention_exp_legacy,2023.1.0,Win32,59.88023952,,,,,,,,,,,,,,,,,,,,,,,,,,,,,,,,,,,,,,,,,,,,
,,,,,,,0.00625,0.677777778,1,0,0,calibration_square,0,10,10,13,1,0,0.67,10,001,2024-12-03_15h36.02.735,Attention_exp_legacy,2023.1.0,Win32,59.88023952,,,,,,,,,,,,,,,,,,,,,,,,,,,,,,,,,,,,,,,,,,,,
,,,,,,,0.004166667,-0.32962963,1,0,0,calibration_square,0,11,11,10,1,0,-0.33,10,001,2024-12-03_15h36.02.735,Attention_exp_legacy,2023.1.0,Win32,59.88023952,,,,,,,,,,,,,,,,,,,,,,,,,,,,,,,,,,,,,,,,,,,,
,,,,,,,0.336458333,0.001851852,1,0,0,calibration_square,0,12,12,16,1,0.33,0,10,001,2024-12-03_15h36.02.735,Attention_exp_legacy,2023.1.0,Win32,59.88023952,,,,,,,,,,,,,,,,,,,,,,,,,,,,,,,,,,,,,,,,,,,,
,,,,,,,-0.31875,-0.67037037,1,0,0,,0,13,13,4,1,-0.33,-0.67,10,001,2024-12-03_15h36.02.735,Attention_exp_legacy,2023.1.0,Win32,59.88023952,,,,,,,,,,,,,,,,,,,,,,,,,,,,,,,,,,,,,,,,,,,,
,,,,,,,-0.660416667,0.322222222,1,0,0,calibration_square,0,14,14,3,1,-0.67,0.33,10,001,2024-12-03_15h36.02.735,Attention_exp_legacy,2023.1.0,Win32,59.88023952,,,,,,,,,,,,,,,,,,,,,,,,,,,,,,,,,,,,,,,,,,,,
,,,,,,,0.675,-0.675925926,1,0,0,calibration_square,0,15,15,20,1,0.67,-0.67,10,001,2024-12-03_15h36.02.735,Attention_exp_legacy,2023.1.0,Win32,59.88023952,,,,,,,,,,,,,,,,,,,,,,,,,,,,,,,,,,,,,,,,,,,,
,,,,,,,0.332291667,-0.32962963,1,0,0,calibration_square,0,16,16,15,1,0.33,-0.33,10,001,2024-12-03_15h36.02.735,Attention_exp_legacy,2023.1.0,Win32,59.88023952,,,,,,,,,,,,,,,,,,,,,,,,,,,,,,,,,,,,,,,,,,,,
,,,,,,,-0.332291667,-0.335185185,1,0,0,calibration_square,0,17,17,5,1,-0.33,-0.33,10,001,2024-12-03_15h36.02.735,Attention_exp_legacy,2023.1.0,Win32,59.88023952,,,,,,,,,,,,,,,,,,,,,,,,,,,,,,,,,,,,,,,,,,,,
,,,,,,,0.004166667,0.018518519,1,0,0,,0,18,18,11,1,0,0,10,001,2024-12-03_15h36.02.735,Attention_exp_legacy,2023.1.0,Win32,59.88023952,,,,,,,,,,,,,,,,,,,,,,,,,,,,,,,,,,,,,,,,,,,,
,,,,,,,0.342708333,-0.683333333,1,0,0,,0,19,19,14,1,0.33,-0.67,10,001,2024-12-03_15h36.02.735,Attention_exp_legacy,2023.1.0,Win32,59.88023952,,,,,,,,,,,,,,,,,,,,,,,,,,,,,,,,,,,,,,,,,,,,
,,,,,,,-0.329166667,0.327777778,1,0,0,calibration_square,0,20,20,7,1,-0.33,0.33,10,001,2024-12-03_15h36.02.735,Attention_exp_legacy,2023.1.0,Win32,59.88023952,,,,,,,,,,,,,,,,,,,,,,,,,,,,,,,,,,,,,,,,,,,,
,,,,,,,,,,,,,,,,,,,,10,001,2024-12-03_15h36.02.735,Attention_exp_legacy,2023.1.0,Win32,59.88023952,"[1920,1080]","[640,480]",[0.020833333333333332],[-0.5074074074074074],[1],[0],[0],[1.4802000000001811],"[""StartButton""]",[0.0125],[0.13148148148148148],[1],[0],[0],[6.105399999999435],"[""Option1_label""]",Option1_label,1,7.1288,"[[-0.011458333333333333,-0.4722222222222222],[-0.011458333333333333,-0.4722222222222222],[-0.011458333333333333,-0.4722222222222222],[-0.011458333333333333,-0.4722222222222222],[-0.011458333333333333,-0.4722222222222222],[-0.011458333333333333,-0.4722222222222222],[-0.011458333333333333,-0.4722222222222222],[-0.011458333333333333,-0.4722222222222222],[-0.011458333333333333,-0.4722222222222222],[-0.011458333333333333,-0.4722222222222222],[-0.011458333333333333,-0.4722222222222222],[-0.011458333333333333,-0.4722222222222222],[-0.011458333333333333,-0.4722222222222222],[-0.011458333333333333,-0.4722222222222222],[-0.011458333333333333,-0.4722222222222222],[-0.011458333333333333,-0.4722222222222222],[-0.011458333333333333,-0.4722222222222222],[-0.011458333333333333,-0.4685185185185185],[-0.011458333333333333,-0.4685185185185185],[-0.011458333333333333,-0.4685185185185185],[-0.011458333333333333,-0.4685185185185185],[-0.011458333333333333,-0.4685185185185185],[-0.011458333333333333,-0.4685185185185185],[-0.011458333333333333,-0.4685185185185185],[-0.011458333333333333,-0.4685185185185185],[-0.011458333333333333,-0.4685185185185185],[-0.011458333333333333,-0.4685185185185185],[-0.011458333333333333,-0.4685185185185185],[-0.011458333333333333,-0.4685185185185185],[-0.011458333333333333,-0.4685185185185185],[-0.011458333333333333,-0.4685185185185185],[-0.011458333333333333,-0.4685185185185185],[-0.011458333333333333,-0.4685185185185185],[-0.011458333333333333,-0.4685185185185185],[-0.011458333333333333,-0.4685185185185185],[-0.011458333333333333,-0.4685185185185185],[-0.011458333333333333,-0.4685185185185185],[-0.011458333333333333,-0.4685185185185185],[-0.0125,-0.4666666666666667],[-0.0125,-0.4666666666666667],[-0.013541666666666667,-0.4666666666666667],[-0.013541666666666667,-0.4666666666666667],[-0.013541666666666667,-0.46111111111111114],[-0.015625,-0.4537037037037037],[-0.017708333333333333,-0.43703703703703706],[-0.021875,-0.40925925925925927],[-0.029166666666666667,-0.37037037037037035],[-0.034375,-0.3351851851851852],[-0.03958333333333333,-0.30185185185185187],[-0.042708333333333334,-0.2759259259259259],[-0.04375,-0.25],[-0.04375,-0.23333333333333334],[-0.04375,-0.21481481481481482],[-0.04375,-0.2037037037037037],[-0.04375,-0.1925925925925926],[-0.04375,-0.18518518518518517],[-0.04375,-0.17407407407407408],[-0.03958333333333333,-0.1574074074074074],[-0.036458333333333336,-0.1425925925925926],[-0.03229166666666667,-0.13518518518518519],[-0.028125,-0.12407407407407407],[-0.026041666666666668,-0.12037037037037036],[-0.021875,-0.11666666666666667],[-0.0125,-0.11481481481481481],[-0.004166666666666667,-0.11481481481481481],[0.022916666666666665,-0.11666666666666667],[0.042708333333333334,-0.12037037037037036],[0.058333333333333334,-0.1259259259259259],[0.07395833333333333,-0.12777777777777777],[0.08333333333333333,-0.12962962962962962],[0.08854166666666667,-0.13333333333333333],[0.08958333333333333,-0.13333333333333333],[0.090625,-0.13333333333333333],[0.090625,-0.13333333333333333],[0.090625,-0.13333333333333333],[0.090625,-0.13333333333333333],[0.09270833333333334,-0.13518518518518519],[0.1,-0.14074074074074075],[0.109375,-0.14814814814814814],[0.12083333333333333,-0.1537037037037037],[0.13333333333333333,-0.15925925925925927],[0.14791666666666667,-0.16111111111111112],[0.16041666666666668,-0.16666666666666666],[0.171875,-0.1685185185185185],[0.175,-0.1685185185185185],[0.175,-0.1685185185185185],[0.175,-0.1685185185185185],[0.175,-0.1685185185185185],[0.175,-0.1685185185185185],[0.175,-0.1685185185185185],[0.175,-0.1685185185185185],[0.175,-0.1685185185185185],[0.175,-0.1685185185185185],[0.175,-0.1685185185185185],[0.175,-0.1685185185185185],[0.175,-0.1685185185185185],[0.175,-0.1685185185185185],[0.175,-0.1685185185185185],[0.175,-0.1685185185185185],[0.175,-0.1685185185185185],[0.175,-0.1685185185185185],[0.175,-0.1685185185185185],[0.175,-0.1685185185185185],[0.175,-0.1685185185185185],[0.175,-0.1685185185185185],[0.17083333333333334,-0.15925925925925927],[0.16666666666666666,-0.15185185185185185],[0.1625,-0.14074074074074075],[0.15729166666666666,-0.12777777777777777],[0.15416666666666667,-0.11481481481481481],[0.15,-0.09814814814814815],[0.14895833333333333,-0.08518518518518518],[0.14583333333333334,-0.06851851851851852],[0.14375,-0.03333333333333333],[0.14166666666666666,-0.007407407407407408],[0.13958333333333334,0.022222222222222223],[0.13645833333333332,0.05185185185185185],[0.134375,0.07962962962962963],[0.13125,0.10740740740740741],[0.13020833333333334,0.12777777777777777],[0.12916666666666668,0.1388888888888889],[0.128125,0.1425925925925926],[0.128125,0.14629629629629629],[0.128125,0.14629629629629629],[0.128125,0.14814814814814814],[0.128125,0.15],[0.128125,0.15],[0.128125,0.15185185185185185],[0.128125,0.15185185185185185],[0.128125,0.1537037037037037],[0.128125,0.15555555555555556],[0.128125,0.15555555555555556],[0.13020833333333334,0.15555555555555556],[0.13645833333333332,0.15555555555555556],[0.13645833333333332,0.15555555555555556],[0.14166666666666666,0.15555555555555556],[0.146875,0.15185185185185185],[0.14791666666666667,0.15185185185185185],[0.14895833333333333,0.15],[0.15,0.15],[0.15,0.15],[0.15,0.15],[0.15,0.15],[0.15,0.15],[0.15,0.15],[0.15,0.15],[0.15,0.15],[0.15,0.15],[0.15,0.15],[0.15,0.15],[0.15,0.15],[0.15,0.15],[0.15,0.15],[0.15,0.15],[0.15,0.15],[0.15,0.15],[0.15,0.15],[0.15,0.15],[0.15,0.15],[0.15,0.15],[0.15,0.15],[0.15,0.15],[0.15,0.15],[0.15,0.15],[0.15,0.15],[0.15,0.15],[0.15,0.15],[0.15,0.15],[0.15,0.15],[0.15,0.15],[0.15,0.15],[0.15,0.15],[0.15,0.15],[0.15,0.15],[0.15,0.15],[0.15,0.15],[0.15,0.15],[0.15,0.15],[0.15,0.15],[0.15,0.15],[0.15,0.15],[0.15,0.15],[0.15,0.15],[0.15,0.15],[0.15,0.15],[0.15,0.15],[0.15,0.15],[0.15,0.15],[0.15,0.15],[0.15,0.15],[0.15,0.15],[0.15,0.15],[0.15,0.15],[0.15,0.15],[0.15,0.15],[0.15,0.15],[0.15,0.15],[0.15,0.15],[0.15,0.15],[0.15,0.15],[0.15,0.15],[0.15,0.15],[0.15,0.15],[0.15,0.15],[0.15,0.15],[0.15,0.15],[0.15,0.15],[0.15,0.15],[0.15,0.15],[0.15,0.15],[0.15,0.15],[0.15,0.15],[0.15,0.15],[0.15,0.15],[0.15,0.15],[0.15,0.15],[0.15,0.15],[0.15,0.15],[0.15,0.15],[0.15,0.15],[0.15,0.15],[0.15,0.15],[0.15,0.15],[0.15,0.15],[0.15,0.15],[0.15,0.15],[0.15,0.15],[0.15,0.15],[0.15,0.15],[0.15,0.15],[0.15,0.15],[0.15,0.15],[0.15,0.15],[0.15,0.15],[0.15,0.15],[0.15,0.15],[0.15,0.15],[0.15,0.15],[0.15,0.15],[0.15,0.15],[0.15,0.15],[0.15,0.15],[0.15,0.15],[0.15,0.15],[0.15,0.15],[0.15,0.15],[0.15,0.15],[0.15,0.15],[0.15,0.15],[0.15,0.15],[0.15,0.15],[0.15,0.15],[0.15,0.15],[0.15,0.15],[0.15,0.15],[0.15,0.15],[0.15,0.15],[0.15,0.15],[0.13541666666666666,0.14814814814814814],[0.11666666666666667,0.14814814814814814],[0.09895833333333333,0.14814814814814814],[0.07916666666666666,0.14814814814814814],[0.06770833333333333,0.14814814814814814],[0.06041666666666667,0.14814814814814814],[0.05416666666666667,0.14629629629629629],[0.04791666666666667,0.14629629629629629],[0.034375,0.1425925925925926],[0.021875,0.14074074074074075],[0.016666666666666666,0.1388888888888889],[0.009375,0.1388888888888889],[0.00625,0.1388888888888889],[0.005208333333333333,0.1388888888888889],[0.004166666666666667,0.1388888888888889],[0.003125,0.1388888888888889],[0.003125,0.1388888888888889],[0.003125,0.1388888888888889],[0.003125,0.1388888888888889],[0.003125,0.1388888888888889],[0.003125,0.1388888888888889],[0.003125,0.1388888888888889],[0.003125,0.1388888888888889],[0.003125,0.1388888888888889],[0.003125,0.1388888888888889],[0.003125,0.1388888888888889],[0.003125,0.1388888888888889],[0.003125,0.1388888888888889],[0.003125,0.1388888888888889],[0.003125,0.1388888888888889],[0.003125,0.1388888888888889],[0.003125,0.1388888888888889],[0.003125,0.1388888888888889],[0.003125,0.1388888888888889],[0.003125,0.1388888888888889],[0.003125,0.1388888888888889],[0.003125,0.1388888888888889],[0.003125,0.1388888888888889],[0.003125,0.1388888888888889],[0.003125,0.1388888888888889],[0.003125,0.1388888888888889],[0.003125,0.1388888888888889],[0.003125,0.1388888888888889],[0.003125,0.1388888888888889],[0.003125,0.1388888888888889],[0.003125,0.1388888888888889],[0.003125,0.1388888888888889],[0.003125,0.1388888888888889],[0.003125,0.1388888888888889],[0.003125,0.1388888888888889],[0.003125,0.1388888888888889],[0.003125,0.1388888888888889],[0.003125,0.1388888888888889],[0.003125,0.1388888888888889],[0.003125,0.1388888888888889],[0.003125,0.1388888888888889],[0.003125,0.1388888888888889],[0.003125,0.1388888888888889],[0.003125,0.1388888888888889],[0.003125,0.1388888888888889],[0.003125,0.1388888888888889],[0.009375,0.1388888888888889],[0.017708333333333333,0.1388888888888889],[0.028125,0.1388888888888889],[0.03854166666666667,0.13518518518518519],[0.046875,0.13518518518518519],[0.05520833333333333,0.13518518518518519],[0.06458333333333334,0.13333333333333333],[0.071875,0.13333333333333333],[0.08020833333333334,0.13333333333333333],[0.08854166666666667,0.13333333333333333],[0.103125,0.13333333333333333],[0.11041666666666666,0.13333333333333333],[0.11458333333333333,0.13333333333333333],[0.11666666666666667,0.13333333333333333],[0.11770833333333333,0.13148148148148148],[0.11979166666666667,0.13148148148148148],[0.12083333333333333,0.13148148148148148],[0.12083333333333333,0.13148148148148148],[0.12083333333333333,0.13148148148148148],[0.12083333333333333,0.13148148148148148],[0.12083333333333333,0.13148148148148148],[0.12083333333333333,0.13148148148148148],[0.12083333333333333,0.13148148148148148],[0.12083333333333333,0.13148148148148148],[0.11145833333333334,0.13148148148148148],[0.090625,0.13148148148148148],[0.06458333333333334,0.13148148148148148],[0.03854166666666667,0.13148148148148148],[0.019791666666666666,0.13148148148148148],[0.013541666666666667,0.13148148148148148],[0.0125,0.13148148148148148],[0.0125,0.13148148148148148],[0.0125,0.13148148148148148],[0.0125,0.13148148148148148],[0.0125,0.13148148148148148],[0.0125,0.13148148148148148],[0.0125,0.13148148148148148],[0.0125,0.13148148148148148],[0.0125,0.13148148148148148],[0.0125,0.13148148148148148],[0.0125,0.13148148148148148],[0.0125,0.13148148148148148],[0.0125,0.13148148148148148],[0.0125,0.13148148148148148],[0.0125,0.13148148148148148],[0.0125,0.13148148148148148],[0.0125,0.13148148148148148],[0.0125,0.13148148148148148],[0.0125,0.13148148148148148],[0.0125,0.13148148148148148],[0.0125,0.13148148148148148],[0.0125,0.13148148148148148],[0.0125,0.13148148148148148],[0.0125,0.13148148148148148],[0.0125,0.13148148148148148],[0.0125,0.13148148148148148],[0.0125,0.13148148148148148],[0.0125,0.13148148148148148],[0.0125,0.13148148148148148],[0.0125,0.13148148148148148],[0.0125,0.13148148148148148],[0.0125,0.13148148148148148],[0.0125,0.13148148148148148],[0.0125,0.13148148148148148],[0.0125,0.13148148148148148],[0.0125,0.13148148148148148],[0.010416666666666666,0.12962962962962962],[0.007291666666666667,0.12777777777777777],[0.0010416666666666667,0.12777777777777777],[0.0010416666666666667,0.12777777777777777],[0.0010416666666666667,0.12777777777777777],[0.0010416666666666667,0.12777777777777777],[0.0010416666666666667,0.12777777777777777],[0.0010416666666666667,0.12777777777777777],[0.0010416666666666667,0.12777777777777777],[0.0010416666666666667,0.12777777777777777],[0.0010416666666666667,0.12777777777777777],[0.0010416666666666667,0.12777777777777777],[0.0010416666666666667,0.12777777777777777],[0.0010416666666666667,0.12777777777777777],[0.0010416666666666667,0.12777777777777777],[0.0010416666666666667,0.12777777777777777],[0.0010416666666666667,0.12777777777777777],[0.0010416666666666667,0.12777777777777777],[0.0010416666666666667,0.12777777777777777],[0.0010416666666666667,0.12777777777777777],[0.0010416666666666667,0.12777777777777777],[0.0010416666666666667,0.12777777777777777],[0.0010416666666666667,0.12777777777777777],[0.0010416666666666667,0.12777777777777777],[0.0010416666666666667,0.12777777777777777],[0.0010416666666666667,0.12777777777777777],[0.0010416666666666667,0.12777777777777777],[0.0010416666666666667,0.12777777777777777],[0.0010416666666666667,0.12777777777777777],[0.0010416666666666667,0.12777777777777777],[0.0010416666666666667,0.12777777777777777],[-0.0020833333333333333,0.12222222222222222],[-0.0020833333333333333,0.12037037037037036],[-0.003125,0.11851851851851852],[-0.003125,0.11851851851851852],[-0.003125,0.11851851851851852],[-0.003125,0.11851851851851852],[-0.003125,0.11851851851851852],[-0.003125,0.11851851851851852],[-0.003125,0.11851851851851852],[-0.004166666666666667,0.11851851851851852],[-0.004166666666666667,0.11851851851851852],[-0.004166666666666667,0.11851851851851852]]","[[-0.0578125,-0.20611111111111113],[-0.0578125,-0.20611111111111113],[-0.06906249999999996,-0.22481481481481477],[-0.05510416666666664,-0.21444444444444447],[-0.042604166666666644,-0.16500000000000004],[-0.058958333333333356,-0.13722222222222227],[-0.03937499999999995,-0.10333333333333336],[-0.0359375,-0.10592592592592591],[-0.03135416666666669,-0.06425925925925924],[-0.03135416666666669,-0.06425925925925924],[-0.03083333333333336,-0.043703703703703745],[-0.03083333333333336,-0.043703703703703745],[-0.00625,0.042407407407407366],[-0.00625,0.042407407407407366],[0.002291666666666714,0.11666666666666667],[0.002291666666666714,0.11666666666666667],[0.008854166666666666,0.13574074074074066],[0.008854166666666666,0.13574074074074066],[0.0018749999999999527,0.15759259259259265],[-0.013750000000000047,0.18574074074074065],[-0.013750000000000047,0.18574074074074065],[-0.0005208333333333333,0.23555555555555563],[-0.01395833333333331,0.2596296296296297],[0.0012500000000000473,0.3111111111111111],[0.015208333333333357,0.32944444444444443],[0.018229166666666668,0.3531481481481482],[0.012187500000000047,0.30462962962962964],[-0.005312500000000024,0.2625925925925925],[-0.00947916666666669,0.29444444444444445],[-0.01875,0.2933333333333333],[-0.027187500000000024,0.2814814814814815],[-0.035625000000000046,0.26962962962962966],[-0.03927083333333338,0.26944444444444443],[-0.05479166666666669,0.2838888888888888],[-0.0703125,0.2983333333333334],[-0.09593750000000002,0.33000000000000007],[-0.12156250000000005,0.3616666666666666],[-0.12541666666666665,0.33833333333333343],[-0.12927083333333336,0.31500000000000006],[-0.12760416666666666,0.3435185185185185],[-0.11812499999999998,0.3764814814814814],[-0.08885416666666662,0.4166666666666667],[-0.06739583333333338,0.4396296296296296],[-0.06114583333333338,0.4703703703703704],[-0.05489583333333338,0.5011111111111112],[-0.029166666666666667,0.5140740740740741],[0,0.5231481481481481],[0.0140625,0.5590740740740741],[0.028125,0.5949999999999999],[0.024270833333333287,0.5792592592592591],[0.02041666666666669,0.5635185185185184],[-0.0007291666666667141,0.5568518518518519],[-0.010520833333333358,0.49537037037037035],[0.00625,0.4262962962962964],[0.013645833333333357,0.33833333333333343],[0.014999999999999977,0.31259259259259253],[-0.0013541666666666192,0.2912962962962962],[-0.007291666666666667,0.2874074074074075],[-0.013229166666666714,0.28351851851851856],[-0.011770833333333286,0.2449999999999999],[-0.00635416666666669,0.2301851851851851],[-0.030208333333333334,0.1581481481481481],[-0.05697916666666671,0.15166666666666662],[-0.08052083333333329,0.16351851851851842],[-0.09468749999999998,0.19425925925925921],[-0.08177083333333333,0.26351851851851843],[-0.05458333333333331,0.3322222222222222],[-0.06635416666666671,0.2757407407407407],[-0.07104166666666671,0.19148148148148145],[-0.07302083333333335,0.23129629629629625],[-0.05239583333333329,0.23648148148148157],[-0.027499999999999976,0.3],[0.0034374999999999527,0.34981481481481475],[0.05479166666666669,0.39592592592592585],[0.0728125000000001,0.39203703703703713],[0.06208333333333336,0.3111111111111111],[0.05135416666666662,0.2301851851851851],[0.06572916666666669,0.3322222222222222],[0.09989583333333343,0.45259259259259255],[0.12979166666666658,0.4844444444444445],[0.11322916666666671,0.4764814814814814],[0.11916666666666677,0.45111111111111113],[0.11906249999999995,0.43944444444444436],[0.10187499999999995,0.4177777777777778],[0.11072916666666661,0.3983333333333334],[0.12145833333333324,0.37185185185185177],[0.1321875000000001,0.3453703703703704],[0.15125000000000005,0.20759259259259263],[0.14010416666666667,0.07259259259259268],[0.12229166666666676,-0.053148148148148125],[0.12041666666666657,-0.15907407407407403],[0.11687500000000005,-0.23722222222222225],[0.11333333333333329,-0.3153703703703704],[0.08791666666666677,-0.39222222222222225],[0.06979166666666667,-0.4212962962962963],[0.07541666666666676,-0.39444444444444443],[0.08104166666666662,-0.3675925925925926],[0.07625000000000005,-0.3320370370370371],[0.06729166666666657,-0.3109259259259259],[0.06062500000000005,-0.26129629629629636],[0.05791666666666669,-0.18074074074074079],[0.06625000000000002,-0.11685185185185189],[0.051145833333333356,-0.09388888888888887],[0.03937499999999995,-0.08259259259259263],[0.05395833333333329,-0.03037037037037033],[0.035104166666666714,-0.03462962962962971],[0.03791666666666664,-0.026666666666666623],[0.025729166666666713,-0.03629629629629634],[0.021041666666666715,-0.024814814814814772],[0.027083333333333334,-0.03722222222222227],[0.026145833333333358,-0.06703703703703702],[0.030729166666666665,-0.07833333333333335],[0.05770833333333331,-0.04592592592592584],[0.08395833333333323,-0.01907407407407399],[0.08385416666666666,-0.03314814814814811],[0.09697916666666657,-0.03296296296296288],[0.09947916666666666,-0.03481481481481473],[0.10520833333333333,0.014814814814814815],[0.11687500000000005,0.027407407407407325],[0.11760416666666676,0.01055555555555564],[0.13927083333333337,0.03796296296296296],[0.1382291666666667,0.022037037037036994],[0.13760416666666658,0.006851851851851936],[0.13770833333333338,-0.002777777777777778],[0.13781249999999995,-0.012407407407407492],[0.14406249999999995,-0.0338888888888888],[0.1382291666666667,-0.06740740740740736],[0.14447916666666671,-0.1161111111111111],[0.14447916666666671,-0.1161111111111111],[0.14375,-0.13037037037037033],[0.14375,-0.13037037037037033],[0.1478125000000001,-0.12240740740740745],[0.14364583333333342,-0.14222222222222225],[0.14979166666666663,-0.11444444444444446],[0.14979166666666663,-0.11444444444444446],[0.1502083333333334,-0.13407407407407404],[0.1502083333333334,-0.13407407407407404],[0.15875000000000009,-0.11518518518518517],[0.15875000000000009,-0.11518518518518517],[0.16729166666666656,-0.0962962962962963],[0.1599999999999999,-0.0727777777777778],[0.15989583333333332,-0.034074074074074034],[0.15979166666666675,0.004629629629629629],[0.15968749999999995,0.06500000000000004],[0.17614583333333325,0.1337037037037038],[0.15958333333333338,0.13499999999999995],[0.14052083333333343,0.10240740740740732],[0.1875,0.1346296296296297],[0.19083333333333338,0.2111111111111111],[0.2179166666666667,0.32685185185185184],[0.26104166666666656,0.43407407407407406],[0.25125000000000003,0.4933333333333333],[0.2234375,0.5266666666666666],[0.19666666666666663,0.5409259259259259],[0.153125,0.5401851851851853],[0.14802083333333324,0.6209259259259259],[0.15499999999999994,0.6588888888888889],[0.13770833333333338,0.6579629629629629],[0.11229166666666662,0.5583333333333333],[0.10187499999999995,0.45129629629629636],[0.07906250000000009,0.3587037037037038],[0.08791666666666677,0.2935185185185185],[0.11479166666666671,0.2542592592592592],[0.1396874999999999,0.2162962962962962],[0.1396874999999999,0.2162962962962962],[0.16458333333333333,0.17833333333333326],[0.17468750000000005,0.1449999999999999],[0.17635416666666662,0.14314814814814805],[0.14260416666666675,0.15925925925925927],[0.1478125000000001,0.1624074074074075],[0.11427083333333338,0.1337037037037038],[0.08947916666666676,0.11203703703703703],[0.07822916666666657,0.08851851851851844],[0.0743750000000001,0.07018518518518514],[0.07249999999999991,0.05055555555555547],[0.06791666666666671,0.04000000000000004],[0.0696875000000001,-0.003333333333333249],[0.0678124999999999,-0.03537037037037041],[0.043333333333333356,-0.0824074074074074],[0.024479166666666666,-0.08907407407407411],[-0.001145833333333357,-0.10351851851851848],[-0.003125,-0.09425925925925922],[-0.0034374999999999527,-0.08518518518518518],[-0.033749999999999974,-0.1264814814814815],[-0.0640625,-0.16777777777777783],[-0.07906249999999998,-0.20111111111111116],[-0.0967708333333333,-0.21944444444444444],[-0.10833333333333334,-0.2183333333333333],[-0.09729166666666664,-0.2022222222222222],[-0.0907291666666667,-0.21814814814814817],[-0.07708333333333334,-0.22592592592592592],[-0.07427083333333329,-0.25203703703703706],[-0.07156250000000004,-0.26888888888888884],[-0.04864583333333338,-0.2588888888888889],[-0.04916666666666671,-0.2631481481481482],[-0.0484375,-0.27314814814814814],[-0.051041666666666666,-0.26351851851851854],[-0.04052083333333331,-0.2692592592592592],[-0.04458333333333329,-0.25333333333333335],[-0.04510416666666662,-0.2168518518518519],[-0.04708333333333338,-0.21185185185185182],[-0.06760416666666665,-0.2116666666666667],[-0.08812500000000002,-0.21148148148148146],[-0.09802083333333336,-0.21444444444444447],[-0.08447916666666669,-0.20314814814814813],[-0.08531249999999997,-0.1787037037037037],[-0.0828125,-0.17388888888888884],[-0.09052083333333331,-0.1868518518518518],[-0.08364583333333328,-0.22148148148148153],[-0.08312499999999995,-0.2712962962962963],[-0.08145833333333338,-0.29000000000000004],[-0.06677083333333336,-0.3162962962962963],[-0.052083333333333336,-0.3425925925925926],[-0.03447916666666669,-0.34203703703703703],[-0.016875000000000046,-0.34148148148148144],[-0.021979166666666692,-0.3531481481481481],[-0.027083333333333334,-0.3648148148148148],[-0.02312500000000005,-0.3677777777777778],[-0.019166666666666644,-0.3707407407407407],[-0.0068750000000000235,-0.3798148148148149],[0.005416666666666714,-0.3888888888888889],[0.010625000000000048,-0.37648148148148153],[0.014687500000000023,-0.37888888888888894],[0.0046875,-0.3685185185185185],[0.016458333333333287,-0.2346296296296296],[0.05520833333333333,-0.10870370370370368],[0.09791666666666667,0.00722222222222218],[0.11354166666666667,0.07537037037037045],[0.10364583333333334,0.16277777777777774],[0.10645833333333338,0.31129629629629635],[0.10927083333333343,0.45981481481481473],[0.09979166666666663,0.5585185185185185],[0.14177083333333323,0.6624074074074074],[0.21104166666666657,0.7857407407407406],[0.2585416666666667,0.7855555555555557],[0.2897916666666667,0.7490740740740741],[0.2805208333333333,0.7620370370370371],[0.2930208333333333,0.7322222222222222],[0.30968749999999995,0.695],[0.31791666666666674,0.6211111111111111],[0.32614583333333325,0.5472222222222223],[0.3382291666666667,0.44722222222222224],[0.3,0.3568518518518519],[0.24187500000000003,0.24444444444444444],[0.1837500000000001,0.13203703703703695],[0.13468749999999996,0.046481481481481526],[0.12781250000000005,-0.08111111111111113],[0.10812499999999996,-0.11314814814814819],[0.11197916666666667,-0.14240740740740737],[0.11197916666666667,-0.14240740740740737],[0.10958333333333338,-0.17481481481481478],[0.10958333333333338,-0.17481481481481478],[0.11833333333333323,-0.1766666666666666],[0.11833333333333323,-0.1766666666666666],[0.12937500000000005,-0.11037037037037041],[0.12937500000000005,-0.11037037037037041],[0.14833333333333343,-0.02296296296296292],[0.14833333333333343,-0.02296296296296292],[0.17447916666666666,0.059999999999999956],[0.16281249999999994,0.10722222222222218],[0.15458333333333343,0.1596296296296297],[0.15104166666666666,0.16740740740740737],[0.14656250000000004,0.17777777777777778],[0.11614583333333334,0.23851851851851844],[0.08583333333333343,0.2657407407407407],[0.041666666666666664,0.2868518518518518],[0.03229166666666667,0.2657407407407407],[0.014999999999999977,0.22351851851851862],[-0.006458333333333381,0.17777777777777778],[0.01906249999999995,0.15166666666666662],[0.03250000000000005,0.10388888888888893],[0.035625000000000046,0.10333333333333325],[0.035625000000000046,0.10333333333333325],[0.0390625,0.09370370370370375],[0.05666666666666664,0.015555555555555513],[0.07322916666666662,0.004814814814814857],[0.09249999999999996,-0.03037037037037033],[0.1109375,0.027222222222222307],[0.13531250000000009,0.06500000000000004],[0.11677083333333324,0.09018518518518527],[0.08427083333333343,0.11500000000000005],[0.06645833333333329,0.1838888888888888],[0.04864583333333338,0.25277777777777777],[0.0515625,0.29444444444444445],[0.0743750000000001,0.34018518518518526],[0.096875,0.4246296296296295],[0.11937499999999991,0.509074074074074],[0.09708333333333338,0.48333333333333334],[0.06791666666666671,0.487962962962963],[0.08781249999999995,0.46518518518518526],[0.1267708333333334,0.4383333333333334],[0.13937499999999994,0.38981481481481484],[0.17072916666666677,0.3848148148148147],[0.13333333333333333,0.31203703703703706],[0.08562500000000005,0.23870370370370367],[0.05166666666666669,0.09962962962962954],[0.042708333333333334,0.01592592592592597],[0.05354166666666664,-0.021481481481481525],[0.06531250000000005,-0.06944444444444445],[0.035312499999999976,-0.1111111111111111],[-0.00625,-0.14981481481481476],[-0.024583333333333356,-0.18351851851851855],[-0.06166666666666672,-0.2607407407407408],[-0.058958333333333356,-0.22240740740740744],[-0.060000000000000026,-0.18777777777777774],[-0.059791666666666646,-0.17222222222222222],[-0.08458333333333339,-0.21203703703703702],[-0.11677083333333335,-0.252962962962963],[-0.14895833333333333,-0.29388888888888887],[-0.13708333333333336,-0.305],[-0.12791666666666662,-0.2985185185185185],[-0.13187500000000002,-0.317037037037037],[-0.1358333333333333,-0.33555555555555555],[-0.13083333333333336,-0.3496296296296296],[-0.12208333333333338,-0.35999999999999993],[-0.12239583333333333,-0.3646296296296296],[-0.12270833333333328,-0.36925925925925923],[-0.1125,-0.37111111111111106],[-0.11593749999999996,-0.35555555555555557],[-0.13489583333333333,-0.3461111111111111],[-0.12614583333333335,-0.33129629629629626],[-0.10375000000000002,-0.2972222222222222],[-0.07999999999999995,-0.262037037037037],[-0.04041666666666662,-0.26240740740740737],[-0.0203125,-0.24462962962962967],[-0.008645833333333287,-0.23277777777777775],[-0.0002083333333333807,-0.22018518518518515],[0.009375,-0.20388888888888893],[0.03260416666666662,-0.205],[0.06239583333333331,-0.2183333333333333],[0.06572916666666669,-0.21592592592592597],[0.0709374999999999,-0.20018518518518522],[0.07479166666666662,-0.18555555555555553],[0.06541666666666662,-0.16648148148148145],[0.07520833333333338,-0.19166666666666668],[0.08635416666666676,-0.1764814814814815],[0.10072916666666672,-0.16203703703703703],[0.10885416666666667,-0.15999999999999995],[0.11510416666666666,-0.1588888888888889],[0.1053124999999999,-0.17777777777777778],[0.10229166666666671,-0.2064814814814815],[0.10031249999999996,-0.24407407407407408],[0.09833333333333343,-0.28166666666666673],[0.09145833333333328,-0.30629629629629623],[0.08270833333333343,-0.3066666666666667],[0.07635416666666663,-0.33499999999999996],[0.07000000000000005,-0.3633333333333333],[0.05572916666666667,-0.39962962962962967],[0.049374999999999974,-0.3940740740740741],[0.04656250000000005,-0.3581481481481481],[0.03572916666666662,-0.33351851851851855],[0.028854166666666715,-0.3383333333333333],[0.021979166666666692,-0.34314814814814815],[0.012083333333333357,-0.33111111111111113],[0.012083333333333357,-0.33111111111111113],[0.004375000000000047,-0.31722222222222224],[0.012812499999999952,-0.2603703703703704],[0.026041666666666668,-0.20833333333333334],[0.04916666666666671,-0.1412962962962963],[0.057291666666666664,-0.10462962962962963],[0.05687500000000002,-0.10888888888888891],[0.05625,-0.07074074074074072],[0.04874999999999995,-0.007592592592592635],[0.08114583333333343,0.10851851851851856],[0.10083333333333329,0.18944444444444436],[0.1287499999999999,0.2722222222222222],[0.1382291666666667,0.2962962962962963],[0.1382291666666667,0.2962962962962963],[0.13208333333333327,0.3085185185185186],[0.13208333333333327,0.3085185185185186],[0.15166666666666656,0.3544444444444444],[0.15166666666666656,0.3544444444444444],[0.12833333333333338,0.3531481481481482],[0.12833333333333338,0.3531481481481482],[0.13541666666666666,0.3774074074074073],[0.13541666666666666,0.3774074074074073],[0.15895833333333323,0.3764814814814814],[0.15895833333333323,0.3764814814814814],[0.1712500000000001,0.33796296296296297],[0.1712500000000001,0.33796296296296297],[0.11156249999999991,0.24722222222222223],[0.11156249999999991,0.24722222222222223],[0.08718750000000004,0.17240740740740745],[0.06427083333333337,0.09962962962962954],[0.03854166666666667,0.052037037037037076],[0.03854166666666667,0.052037037037037076],[0.00947916666666669,0.012592592592592508],[-0.04010416666666667,-0.08074074074074078],[-0.027708333333333356,-0.1111111111111111],[-0.027708333333333356,-0.1111111111111111],[-0.009583333333333381,-0.10166666666666663],[-0.033958333333333354,-0.11444444444444446],[-0.024479166666666666,-0.060555555555555536],[0.0006250000000000236,-0.04796296296296292],[0.022083333333333382,-0.04277777777777782],[0.01604166666666664,-0.04462962962962967],[0.01427083333333338,-0.06796296296296295],[0.030104166666666644,-0.10777777777777775],[0.036562500000000026,-0.11259259259259262],[0.06166666666666672,-0.08759259259259261],[0.05458333333333331,-0.08370370370370368],[0.06114583333333338,-0.09944444444444442],[0.04510416666666662,-0.14425925925925923],[0.04510416666666662,-0.14425925925925923],[0.026145833333333358,-0.14537037037037037],[0.007187499999999976,-0.1648148148148148],[0.012395833333333309,-0.1624074074074074],[0.010312499999999976,-0.15796296296296297],[0.004062499999999977,-0.12370370370370372],[-0.003333333333333381,-0.1161111111111111],[-0.03947916666666664,-0.1646296296296296],[-0.05479166666666669,-0.11185185185185181],[-0.057500000000000044,-0.034444444444444486],[-0.06312500000000003,0.07166666666666675],[-0.041979166666666616,0.1742592592592593],[-0.060000000000000026,0.25259259259259254],[-0.02177083333333331,0.3374074074074075],[-0.03677083333333329,0.38499999999999995],[-0.051041666666666666,0.42777777777777776],[-0.018229166666666668,0.543888888888889],[0.008229166666666643,0.6598148148148147],[0.016979166666666618,0.6714814814814816],[0.025729166666666713,0.6831481481481481],[0.03177083333333333,0.6364814814814815],[0.04916666666666671,0.5524074074074073],[0.0696875000000001,0.4994444444444445],[0.028750000000000022,0.41759259259259257],[0.04041666666666662,0.36999999999999994]]","[[-0.0578125,-0.20611111111111113,0.00020000000019138042],[-0.0578125,-0.20611111111111113,0.03610000000055891],[-0.06906249999999996,-0.22481481481481477,0.04690000000037742],[-0.05510416666666664,-0.21444444444444447,0.06220000000018899],[-0.042604166666666644,-0.16500000000000004,0.0789000000003739],[-0.058958333333333356,-0.13722222222222227,0.0956000000005588],[-0.03937499999999995,-0.10333333333333336,0.11220000000018615],[-0.0359375,-0.10592592592592591,0.12890000000037816],[-0.03135416666666669,-0.06425925925925924,0.15150000000000574],[-0.03135416666666669,-0.06425925925925924,0.16220000000019041],[-0.03083333333333336,-0.043703703703703745,0.17879999999981777],[-0.03083333333333336,-0.043703703703703745,0.19550000000000267],[-0.00625,0.042407407407407366,0.21220000000018757],[-0.00625,0.042407407407407366,0.22890000000037247],[0.002291666666666714,0.11666666666666667,0.24560000000056448],[0.002291666666666714,0.11666666666666667,0.26220000000019184],[0.008854166666666666,0.13574074074074066,0.27890000000037674],[0.008854166666666666,0.13574074074074066,0.2989999999999995],[0.0018749999999999527,0.15759259259259265,0.312200000000189],[-0.013750000000000047,0.18574074074074065,0.3302000000001897],[-0.013750000000000047,0.18574074074074065,0.34550000000000125],[-0.0005208333333333333,0.23555555555555563,0.3622999999998129],[-0.01395833333333331,0.2596296296296297,0.37890000000037816],[0.0012500000000000473,0.3111111111111111,0.3955000000000055],[0.015208333333333357,0.32944444444444443,0.4122000000001904],[0.018229166666666668,0.3531481481481482,0.4292000000001863],[0.012187500000000047,0.30462962962962964,0.44550000000000267],[-0.005312500000000024,0.2625925925925925,0.4622999999998143],[-0.00947916666666669,0.29444444444444445,0.4792000000001906],[-0.01875,0.2933333333333333,0.4960000000000022],[-0.027187500000000024,0.2814814814814815,0.5122999999998186],[-0.035625000000000046,0.26962962962962966,0.5309000000003721],[-0.03927083333333338,0.26944444444444443,0.5474999999999994],[-0.05479166666666669,0.2838888888888888,0.562200000000189],[-0.0703125,0.2983333333333334,0.5820000000000007],[-0.09593750000000002,0.33000000000000007,0.5955000000000013],[-0.12156250000000005,0.3616666666666666,0.6122000000001862],[-0.12541666666666665,0.33833333333333343,0.6290000000000049],[-0.12927083333333336,0.31500000000000006,0.6475000000000009],[-0.12760416666666666,0.3435185185185185,0.6622000000001904],[-0.11812499999999998,0.3764814814814814,0.679000000000002],[-0.08885416666666662,0.4166666666666667,0.6979000000003737],[-0.06739583333333338,0.4396296296296296,0.7142999999998167],[-0.06114583333333338,0.4703703703703704,0.7309000000003749],[-0.05489583333333338,0.5011111111111112,0.7460000000000022],[-0.029166666666666667,0.5140740740740741,0.7645000000000053],[0,0.5231481481481481,0.7796000000005634],[0.0140625,0.5590740740740741,0.7957999999998151],[0.028125,0.5949999999999999,0.8142999999998182],[0.024270833333333287,0.5792592592592591,0.829500000000003],[0.02041666666666669,0.5635185185185184,0.8457999999998194],[-0.0007291666666667141,0.5568518518518519,0.8659000000003729],[-0.010520833333333358,0.49537037037037035,0.8822000000001893],[0.00625,0.4262962962962964,0.8984000000003718],[0.013645833333333357,0.33833333333333343,0.9157000000001858],[0.014999999999999977,0.31259259259259253,0.9316000000005644],[-0.0013541666666666192,0.2912962962962962,0.9480000000000004],[-0.007291666666666667,0.2874074074074075,0.96270000000019],[-0.013229166666666714,0.28351851851851856,0.9812999999998127],[-0.011770833333333286,0.2449999999999999,0.9961000000005598],[-0.00635416666666669,0.2301851851851851,1.0125000000000028],[-0.030208333333333334,0.1581481481481481,1.029100000000561],[-0.05697916666666671,0.15166666666666662,1.047900000000375],[-0.08052083333333329,0.16351851851851842,1.0635000000000048],[-0.09468749999999998,0.19425925925925921,1.0790000000000006],[-0.08177083333333333,0.26351851851851843,1.0957000000001855],[-0.05458333333333331,0.3322222222222222,1.1142000000001886],[-0.06635416666666671,0.2757407407407407,1.1296000000005577],[-0.07104166666666671,0.19148148148148145,1.1465000000000032],[-0.07302083333333335,0.23129629629629625,1.165600000000559],[-0.05239583333333329,0.23648148148148157,1.179000000000002],[-0.027499999999999976,0.3,1.195700000000187],[0.0034374999999999527,0.34981481481481475,1.2147000000001853],[0.05479166666666669,0.39592592592592585,1.2296000000005591],[0.0728125000000001,0.39203703703703713,1.2454999999999998],[0.06208333333333336,0.3111111111111111,1.262400000000376],[0.05135416666666662,0.2301851851851851,1.2809999999999988],[0.06572916666666669,0.3322222222222222,1.2956000000005616],[0.09989583333333343,0.45259259259259255,1.3127000000001914],[0.12979166666666658,0.4844444444444445,1.3332000000001898],[0.11322916666666671,0.4764814814814814,1.3477999999998147],[0.11916666666666677,0.45111111111111113,1.3622999999998129],[0.11906249999999995,0.43944444444444436,1.3789000000003782],[0.10187499999999995,0.4177777777777778,1.399000000000001],[0.11072916666666661,0.3983333333333334,1.4134000000003724],[0.12145833333333324,0.37185185185185177,1.4289000000003753],[0.1321875000000001,0.3453703703703704,1.445700000000187],[0.15125000000000005,0.20759259259259263,1.4621000000005608],[0.14010416666666667,0.07259259259259268,1.478799999999815],[0.12229166666666676,-0.053148148148148125,1.4954999999999998],[0.12041666666666657,-0.15907407407407403,1.5122000000001918],[0.11687500000000005,-0.23722222222222225,1.5302999999998192],[0.11333333333333329,-0.3153703703703704,1.5459000000003726],[0.08791666666666677,-0.39222222222222225,1.5625],[0.06979166666666667,-0.4212962962962963,1.5787999999998164],[0.07541666666666676,-0.39444444444444443,1.5955000000000013],[0.08104166666666662,-0.3675925925925926,1.6122000000001862],[0.07625000000000005,-0.3320370370370371,1.6317999999998136],[0.06729166666666657,-0.3109259259259259,1.6457999999998165],[0.06062500000000005,-0.26129629629629636,1.6622000000001904],[0.05791666666666669,-0.18074074074074079,1.6787999999998178],[0.06625000000000002,-0.11685185185185189,1.6955000000000027],[0.051145833333333356,-0.09388888888888887,1.7122999999998143],[0.03937499999999995,-0.08259259259259263,1.730299999999815],[0.05395833333333329,-0.03037037037037033,1.7466000000005621],[0.035104166666666714,-0.03462962962962971,1.764299999999814],[0.03791666666666664,-0.026666666666666623,1.7796000000005634],[0.025729166666666713,-0.03629629629629634,1.7970000000000041],[0.021041666666666715,-0.024814814814814772,1.8159000000003758],[0.027083333333333334,-0.03722222222222227,1.8314000000003716],[0.026145833333333358,-0.06703703703703702,1.8457000000001855],[0.030729166666666665,-0.07833333333333335,1.8644000000003729],[0.05770833333333331,-0.04592592592592584,1.879299999999816],[0.08395833333333323,-0.01907407407407399,1.895900000000374],[0.08385416666666666,-0.03314814814814811,1.915600000000559],[0.09697916666666657,-0.03296296296296288,1.932600000000562],[0.09947916666666666,-0.03481481481481473,1.9489000000003713],[0.10520833333333333,0.014814814814814815,1.9662999999998192],[0.11687500000000005,0.027407407407407325,1.9817000000001883],[0.11760416666666676,0.01055555555555564,1.9967000000001889],[0.13927083333333337,0.03796296296296296,2.0122999999998186],[0.1382291666666667,0.022037037037036994,2.0335000000000036],[0.13760416666666658,0.006851851851851936,2.049100000000564],[0.13770833333333338,-0.002777777777777778,2.0635000000000048],[0.13781249999999995,-0.012407407407407492,2.078900000000374],[0.14406249999999995,-0.0338888888888888,2.0979000000003722],[0.1382291666666667,-0.06740740740740736,2.1125000000000043],[0.14447916666666671,-0.1161111111111111,2.1296000000005577],[0.14447916666666671,-0.1161111111111111,2.1455000000000055],[0.14375,-0.13037037037037033,2.1652000000001905],[0.14375,-0.13037037037037033,2.1789000000003753],[0.1478125000000001,-0.12240740740740745,2.1955000000000027],[0.14364583333333342,-0.14222222222222225,2.2162000000001854],[0.14979166666666663,-0.11444444444444446,2.2337000000001908],[0.14979166666666663,-0.11444444444444446,2.245799999999818],[0.1502083333333334,-0.13407407407407404,2.2790000000000035],[0.1502083333333334,-0.13407407407407404,2.2892999999998125],[0.15875000000000009,-0.11518518518518517,2.300700000000191],[0.15875000000000009,-0.11518518518518517,2.3122999999998157],[0.16729166666666656,-0.0962962962962963,2.3321000000005583],[0.1599999999999999,-0.0727777777777778,2.3467000000001903],[0.15989583333333332,-0.034074074074074034,2.362200000000186],[0.15979166666666675,0.004629629629629629,2.3787999999998135],[0.15968749999999995,0.06500000000000004,2.3955000000000055],[0.17614583333333325,0.1337037037037038,2.4122000000001904],[0.15958333333333338,0.13499999999999995,2.4289000000003753],[0.14052083333333343,0.10240740740740732,2.44560000000056],[0.1875,0.1346296296296297,2.4622000000001876],[0.19083333333333338,0.2111111111111111,2.478799999999815],[0.2179166666666667,0.32685185185185184,2.4955],[0.26104166666666656,0.43407407407407406,2.512100000000558],[0.25125000000000003,0.4933333333333333,2.5290000000000035],[0.2234375,0.5266666666666666,2.545799999999815],[0.19666666666666663,0.5409259259259259,2.562200000000189],[0.153125,0.5401851851851853,2.5787999999998164],[0.14802083333333324,0.6209259259259259,2.5955000000000013],[0.15499999999999994,0.6588888888888889,2.612200000000186],[0.13770833333333338,0.6579629629629629,2.628900000000378],[0.11229166666666662,0.5583333333333333,2.6455000000000055],[0.10187499999999995,0.45129629629629636,2.6621000000005637],[0.07906250000000009,0.3587037037037038,2.6789000000003753],[0.08791666666666677,0.2935185185185185,2.695400000000376],[0.11479166666666671,0.2542592592592592,2.7122999999998143],[0.1396874999999999,0.2162962962962962,2.7295000000000016],[0.1396874999999999,0.2162962962962962,2.7455],[0.16458333333333333,0.17833333333333326,2.762200000000192],[0.17468750000000005,0.1449999999999999,2.7789000000003767],[0.17635416666666662,0.14314814814814805,2.7954000000003774],[0.14260416666666675,0.15925925925925927,2.8121000000005623],[0.1478125000000001,0.1624074074074075,2.828900000000374],[0.11427083333333338,0.1337037037037038,2.8455000000000013],[0.08947916666666676,0.11203703703703703,2.8621000000005594],[0.07822916666666657,0.08851851851851844,2.8787999999998135],[0.0743750000000001,0.07018518518518514,2.895600000000563],[0.07249999999999991,0.05055555555555547,2.9122000000001904],[0.06791666666666671,0.04000000000000004,2.9289000000003753],[0.0696875000000001,-0.003333333333333249,2.945400000000376],[0.0678124999999999,-0.03537037037037041,2.962100000000561],[0.043333333333333356,-0.0824074074074074,2.9789000000003725],[0.024479166666666666,-0.08907407407407411,2.9955],[-0.001145833333333357,-0.10351851851851848,3.012100000000558],[-0.003125,-0.09425925925925922,3.0289000000003767],[-0.0034374999999999527,-0.08518518518518518,3.0454000000003774],[-0.033749999999999974,-0.1264814814814815,3.062200000000189],[-0.0640625,-0.16777777777777783,3.0787999999998164],[-0.07906249999999998,-0.20111111111111116,3.0955000000000013],[-0.0967708333333333,-0.21944444444444444,3.112200000000186],[-0.10833333333333334,-0.2183333333333333,3.1287999999998135],[-0.09729166666666664,-0.2022222222222222,3.1455000000000055],[-0.0907291666666667,-0.21814814814814817,3.1621000000005637],[-0.07708333333333334,-0.22592592592592592,3.1787999999998178],[-0.07427083333333329,-0.25203703703703706,3.19560000000056],[-0.07156250000000004,-0.26888888888888884,3.2122000000001876],[-0.04864583333333338,-0.2588888888888889,3.2289000000003725],[-0.04916666666666671,-0.2631481481481482,3.245400000000373],[-0.0484375,-0.27314814814814814,3.262100000000558],[-0.051041666666666666,-0.26351851851851854,3.278799999999819],[-0.04052083333333331,-0.2692592592592592,3.295500000000004],[-0.04458333333333329,-0.25333333333333335,3.3121000000005623],[-0.04510416666666662,-0.2168518518518519,3.3287999999998164],[-0.04708333333333338,-0.21185185185185182,3.3455000000000013],[-0.06760416666666665,-0.2116666666666667,3.362200000000186],[-0.08812500000000002,-0.21148148148148146,3.3787999999998135],[-0.09802083333333336,-0.21444444444444447,3.3955000000000055],[-0.08447916666666669,-0.20314814814814813,3.4122000000001904],[-0.08531249999999997,-0.1787037037037037,3.429000000000002],[-0.0828125,-0.17388888888888884,3.4455000000000027],[-0.09052083333333331,-0.1868518518518518,3.4622000000001876],[-0.08364583333333328,-0.22148148148148153,3.478799999999815],[-0.08312499999999995,-0.2712962962962963,3.4955],[-0.08145833333333338,-0.29000000000000004,3.512200000000192],[-0.06677083333333336,-0.3162962962962963,3.5289000000003767],[-0.052083333333333336,-0.3425925925925926,3.5456000000005616],[-0.03447916666666669,-0.34203703703703703,3.562200000000189],[-0.016875000000000046,-0.34148148148148144,3.5787999999998164],[-0.021979166666666692,-0.3531481481481481,3.5955000000000013],[-0.027083333333333334,-0.3648148148148148,3.612200000000186],[-0.02312500000000005,-0.3677777777777778,3.6287999999998135],[-0.019166666666666644,-0.3707407407407407,3.6455000000000055],[-0.0068750000000000235,-0.3798148148148149,3.6621000000005637],[0.005416666666666714,-0.3888888888888889,3.6787999999998178],[0.010625000000000048,-0.37648148148148153,3.6955000000000027],[0.014687500000000023,-0.37888888888888894,3.7122000000001876],[0.0046875,-0.3685185185185185,3.7289000000003725],[0.016458333333333287,-0.2346296296296296,3.7455],[0.05520833333333333,-0.10870370370370368,3.762200000000192],[0.09791666666666667,0.00722222222222218,3.778799999999819],[0.11354166666666667,0.07537037037037045,3.795500000000004],[0.10364583333333334,0.16277777777777774,3.812200000000189],[0.10645833333333338,0.31129629629629635,3.8292999999998187],[0.10927083333333343,0.45981481481481473,3.8454000000003745],[0.09979166666666663,0.5585185185185185,3.862200000000186],[0.14177083333333323,0.6624074074074074,3.8787000000001868],[0.21104166666666657,0.7857407407407406,3.8955000000000055],[0.2585416666666667,0.7855555555555557,3.9121000000005637],[0.2897916666666667,0.7490740740740741,3.929000000000002],[0.2805208333333333,0.7620370370370371,3.9455000000000027],[0.2930208333333333,0.7322222222222222,3.9622999999998143],[0.30968749999999995,0.695,3.9789000000003725],[0.31791666666666674,0.6211111111111111,3.9955],[0.32614583333333325,0.5472222222222223,4.012200000000192],[0.3382291666666667,0.44722222222222224,4.029100000000561],[0.3,0.3568518518518519,4.045400000000377],[0.24187500000000003,0.24444444444444444,4.062200000000189],[0.1837500000000001,0.13203703703703695,4.078799999999816],[0.13468749999999996,0.046481481481481526,4.095500000000001],[0.12781250000000005,-0.08111111111111113,4.112200000000186],[0.10812499999999996,-0.11314814814814819,4.1287999999998135],[0.11197916666666667,-0.14240740740740737,4.150000000000006],[0.11197916666666667,-0.14240740740740737,4.162100000000564],[0.10958333333333338,-0.17481481481481478,4.178799999999818],[0.10958333333333338,-0.17481481481481478,4.195400000000376],[0.11833333333333323,-0.1766666666666666,4.212200000000188],[0.11833333333333323,-0.1766666666666666,4.2289000000003725],[0.12937500000000005,-0.11037037037037041,4.2455],[0.12937500000000005,-0.11037037037037041,4.262200000000192],[0.14833333333333343,-0.02296296296296292,4.278900000000377],[0.14833333333333343,-0.02296296296296292,4.295500000000004],[0.17447916666666666,0.059999999999999956,4.316900000000373],[0.16281249999999994,0.10722222222222218,4.332400000000376],[0.15458333333333343,0.1596296296296297,4.347999999999999],[0.15104166666666666,0.16740740740740737,4.365200000000186],[0.14656250000000004,0.17777777777777778,4.3809000000003735],[0.11614583333333334,0.23851851851851844,4.397600000000558],[0.08583333333333343,0.2657407407407407,4.41220000000019],[0.041666666666666664,0.2868518518518518,4.432900000000373],[0.03229166666666667,0.2657407407407407,4.449299999999816],[0.014999999999999977,0.22351851851851862,4.463799999999814],[-0.006458333333333381,0.17777777777777778,4.478999999999999],[0.01906249999999995,0.15166666666666662,4.498000000000005],[0.03250000000000005,0.10388888888888893,4.512200000000192],[0.035625000000000046,0.10333333333333325,4.530900000000372],[0.035625000000000046,0.10333333333333325,4.5487000000001885],[0.0390625,0.09370370370370375,4.562299999999816],[0.05666666666666664,0.015555555555555513,4.578799999999816],[0.07322916666666662,0.004814814814814857,4.5954000000003745],[0.09249999999999996,-0.03037037037037033,4.612200000000186],[0.1109375,0.027222222222222307,4.630000000000003],[0.13531250000000009,0.06500000000000004,4.6455000000000055],[0.11677083333333324,0.09018518518518527,4.66220000000019],[0.08427083333333343,0.11500000000000005,4.678799999999818],[0.06645833333333329,0.1838888888888888,4.695400000000376],[0.04864583333333338,0.25277777777777777,4.712100000000561],[0.0515625,0.29444444444444445,4.728799999999815],[0.0743750000000001,0.34018518518518526,4.746900000000373],[0.096875,0.4246296296296295,4.762200000000192],[0.11937499999999991,0.509074074074074,4.778799999999819],[0.09708333333333338,0.48333333333333334,4.795500000000004],[0.06791666666666671,0.487962962962963,4.812299999999816],[0.08781249999999995,0.46518518518518526,4.828900000000374],[0.1267708333333334,0.4383333333333334,4.845500000000001],[0.13937499999999994,0.38981481481481484,4.862100000000559],[0.17072916666666677,0.3848148148148147,4.8787999999998135],[0.13333333333333333,0.31203703703703706,4.895400000000372],[0.08562500000000005,0.23870370370370367,4.912100000000564],[0.05166666666666669,0.09962962962962954,4.928799999999818],[0.042708333333333334,0.01592592592592597,4.945500000000003],[0.05354166666666664,-0.021481481481481525,4.962100000000561],[0.06531250000000005,-0.06944444444444445,4.978799999999815],[0.035312499999999976,-0.1111111111111111,4.9955],[-0.00625,-0.14981481481481476,5.012100000000558],[-0.024583333333333356,-0.18351851851851855,5.032200000000188],[-0.06166666666666672,-0.2607407407407408,5.047600000000564],[-0.058958333333333356,-0.22240740740740744,5.062100000000562],[-0.060000000000000026,-0.18777777777777774,5.07870000000019],[-0.059791666666666646,-0.17222222222222222,5.0954000000003745],[-0.08458333333333339,-0.21203703703703702,5.112200000000186],[-0.11677083333333335,-0.252962962962963,5.1295],[-0.14895833333333333,-0.29388888888888887,5.145400000000372],[-0.13708333333333336,-0.305,5.162100000000564],[-0.12791666666666662,-0.2985185185185185,5.178900000000375],[-0.13187500000000002,-0.317037037037037,5.195500000000003],[-0.1358333333333333,-0.33555555555555555,5.212200000000188],[-0.13083333333333336,-0.3496296296296296,5.228799999999815],[-0.12208333333333338,-0.35999999999999993,5.245700000000191],[-0.12239583333333333,-0.3646296296296296,5.262100000000558],[-0.12270833333333328,-0.36925925925925923,5.278799999999819],[-0.1125,-0.37111111111111106,5.295500000000004],[-0.11593749999999996,-0.35555555555555557,5.312100000000562],[-0.13489583333333333,-0.3461111111111111,5.332799999999814],[-0.12614583333333335,-0.33129629629629626,5.348299999999817],[-0.10375000000000002,-0.2972222222222222,5.362299999999813],[-0.07999999999999995,-0.262037037037037,5.378900000000378],[-0.04041666666666662,-0.26240740740740737,5.397600000000558],[-0.0203125,-0.24462962962962967,5.41220000000019],[-0.008645833333333287,-0.23277777777777775,5.429200000000186],[-0.0002083333333333807,-0.22018518518518515,5.448799999999814],[0.009375,-0.20388888888888893,5.463400000000377],[0.03260416666666662,-0.205,5.478999999999999],[0.06239583333333331,-0.2183333333333333,5.49760000000056],[0.06572916666666669,-0.21592592592592597,5.512200000000192],[0.0709374999999999,-0.20018518518518522,5.530900000000372],[0.07479166666666662,-0.18555555555555553,5.549200000000191],[0.06541666666666662,-0.16648148148148145,5.563600000000562],[0.07520833333333338,-0.19166666666666668,5.578900000000374],[0.08635416666666676,-0.1764814814814815,5.595600000000559],[0.10072916666666672,-0.16203703703703703,5.612200000000186],[0.10885416666666667,-0.15999999999999995,5.6287999999998135],[0.11510416666666666,-0.1588888888888889,5.645400000000372],[0.1053124999999999,-0.17777777777777778,5.662100000000564],[0.10229166666666671,-0.2064814814814815,5.678700000000191],[0.10031249999999996,-0.24407407407407408,5.695500000000003],[0.09833333333333343,-0.28166666666666673,5.712100000000561],[0.09145833333333328,-0.30629629629629623,5.732500000000002],[0.08270833333333343,-0.3066666666666667,5.74910000000056],[0.07635416666666663,-0.33499999999999996,5.763400000000374],[0.07000000000000005,-0.3633333333333333,5.778900000000377],[0.05572916666666667,-0.39962962962962967,5.7984000000003775],[0.049374999999999974,-0.3940740740740741,5.8126000000005575],[0.04656250000000005,-0.3581481481481481,5.8296000000005606],[0.03572916666666662,-0.33351851851851855,5.845500000000001],[0.028854166666666715,-0.3383333333333333,5.862100000000559],[0.021979166666666692,-0.34314814814814815,5.8787999999998135],[0.012083333333333357,-0.33111111111111113,5.89870000000019],[0.012083333333333357,-0.33111111111111113,5.917200000000186],[0.004375000000000047,-0.31722222222222224,5.934299999999816],[0.012812499999999952,-0.2603703703703704,5.948400000000376],[0.026041666666666668,-0.20833333333333334,5.962100000000561],[0.04916666666666671,-0.1412962962962963,5.978799999999815],[0.057291666666666664,-0.10462962962962963,5.9955],[0.05687500000000002,-0.10888888888888891,6.015500000000003],[0.05625,-0.07074074074074072,6.030400000000377],[0.04874999999999995,-0.007592592592592635,6.045500000000004],[0.08114583333333343,0.10851851851851856,6.062100000000562],[0.10083333333333329,0.18944444444444436,6.078799999999816],[0.1287499999999999,0.2722222222222222,6.095500000000001],[0.1382291666666667,0.2962962962962963,6.112100000000559],[0.1382291666666667,0.2962962962962963,6.128900000000378],[0.13208333333333327,0.3085185185185186,6.1455000000000055],[0.13208333333333327,0.3085185185185186,6.162100000000564],[0.15166666666666656,0.3544444444444444,6.178799999999818],[0.15166666666666656,0.3544444444444444,6.195400000000376],[0.12833333333333338,0.3531481481481482,6.212200000000188],[0.12833333333333338,0.3531481481481482,6.228799999999815],[0.13541666666666666,0.3774074074074073,6.245400000000373],[0.13541666666666666,0.3774074074074073,6.262100000000558],[0.15895833333333323,0.3764814814814814,6.278799999999819],[0.15895833333333323,0.3764814814814814,6.295500000000004],[0.1712500000000001,0.33796296296296297,6.312100000000562],[0.1712500000000001,0.33796296296296297,6.328799999999816],[0.11156249999999991,0.24722222222222223,6.3454000000003745],[0.11156249999999991,0.24722222222222223,6.362100000000559],[0.08718750000000004,0.17240740740740745,6.3787999999998135],[0.06427083333333337,0.09962962962962954,6.39870000000019],[0.03854166666666667,0.052037037037037076,6.412799999999812],[0.03854166666666667,0.052037037037037076,6.433900000000378],[0.00947916666666669,0.012592592592592508,6.44560000000056],[-0.04010416666666667,-0.08074074074074078,6.464000000000006],[-0.027708333333333356,-0.1111111111111111,6.483200000000188],[-0.027708333333333356,-0.1111111111111111,6.495400000000373],[-0.009583333333333381,-0.10166666666666663,6.512200000000192],[-0.033958333333333354,-0.11444444444444446,6.531600000000559],[-0.024479166666666666,-0.060555555555555536,6.547600000000564],[0.0006250000000000236,-0.04796296296296292,6.562000000000005],[0.022083333333333382,-0.04277777777777782,6.578799999999816],[0.01604166666666664,-0.04462962962962967,6.5954000000003745],[0.01427083333333338,-0.06796296296296295,6.612100000000559],[0.030104166666666644,-0.10777777777777775,6.6287999999998135],[0.036562500000000026,-0.11259259259259262,6.645400000000372],[0.06166666666666672,-0.08759259259259261,6.662100000000564],[0.05458333333333331,-0.08370370370370368,6.678799999999818],[0.06114583333333338,-0.09944444444444442,6.695400000000376],[0.04510416666666662,-0.14425925925925923,6.712100000000561],[0.04510416666666662,-0.14425925925925923,6.728999999999999],[0.026145833333333358,-0.14537037037037037,6.7456000000005645],[0.007187499999999976,-0.1648148148148148,6.762100000000558],[0.012395833333333309,-0.1624074074074074,6.778900000000377],[0.010312499999999976,-0.15796296296296297,6.795400000000377],[0.004062499999999977,-0.12370370370370372,6.812100000000562],[-0.003333333333333381,-0.1161111111111111,6.828900000000374],[-0.03947916666666664,-0.1646296296296296,6.8454000000003745],[-0.05479166666666669,-0.11185185185185181,6.862100000000559],[-0.057500000000000044,-0.034444444444444486,6.8787999999998135],[-0.06312500000000003,0.07166666666666675,6.8955000000000055],[-0.041979166666666616,0.1742592592592593,6.912100000000564],[-0.060000000000000026,0.25259259259259254,6.928900000000375],[-0.02177083333333331,0.3374074074074075,6.947400000000371],[-0.03677083333333329,0.38499999999999995,6.962500000000006],[-0.051041666666666666,0.42777777777777776,6.978999999999999],[-0.018229166666666668,0.543888888888889,6.9955],[0.008229166666666643,0.6598148148148147,7.012100000000558],[0.016979166666666618,0.6714814814814816,7.028900000000377],[0.025729166666666713,0.6831481481481481,7.045500000000004],[0.03177083333333333,0.6364814814814815,7.062100000000562],[0.04916666666666671,0.5524074074074073,7.078799999999816],[0.0696875000000001,0.4994444444444445,7.098400000000375],[0.028750000000000022,0.41759259259259257,7.112100000000559],[0.04041666666666662,0.36999999999999994,7.1287999999998135]]","[0.00020000000019138042,0.03610000000055891,0.04690000000037742,0.06220000000018899,0.0789000000003739,0.0956000000005588,0.11220000000018615,0.12890000000037816,0.15150000000000574,0.16220000000019041,0.17879999999981777,0.19550000000000267,0.21220000000018757,0.22890000000037247,0.24560000000056448,0.26220000000019184,0.27890000000037674,0.2989999999999995,0.312200000000189,0.3302000000001897,0.34550000000000125,0.3622999999998129,0.37890000000037816,0.3955000000000055,0.4122000000001904,0.4292000000001863,0.44550000000000267,0.4622999999998143,0.4792000000001906,0.4960000000000022,0.5122999999998186,0.5309000000003721,0.5474999999999994,0.562200000000189,0.5820000000000007,0.5955000000000013,0.6122000000001862,0.6290000000000049,0.6475000000000009,0.6622000000001904,0.679000000000002,0.6979000000003737,0.7142999999998167,0.7309000000003749,0.7460000000000022,0.7645000000000053,0.7796000000005634,0.7957999999998151,0.8142999999998182,0.829500000000003,0.8457999999998194,0.8659000000003729,0.8822000000001893,0.8984000000003718,0.9157000000001858,0.9316000000005644,0.9480000000000004,0.96270000000019,0.9812999999998127,0.9961000000005598,1.0125000000000028,1.029100000000561,1.047900000000375,1.0635000000000048,1.0790000000000006,1.0957000000001855,1.1142000000001886,1.1296000000005577,1.1465000000000032,1.165600000000559,1.179000000000002,1.195700000000187,1.2147000000001853,1.2296000000005591,1.2454999999999998,1.262400000000376,1.2809999999999988,1.2956000000005616,1.3127000000001914,1.3332000000001898,1.3477999999998147,1.3622999999998129,1.3789000000003782,1.399000000000001,1.4134000000003724,1.4289000000003753,1.445700000000187,1.4621000000005608,1.478799999999815,1.4954999999999998,1.5122000000001918,1.5302999999998192,1.5459000000003726,1.5625,1.5787999999998164,1.5955000000000013,1.6122000000001862,1.6317999999998136,1.6457999999998165,1.6622000000001904,1.6787999999998178,1.6955000000000027,1.7122999999998143,1.730299999999815,1.7466000000005621,1.764299999999814,1.7796000000005634,1.7970000000000041,1.8159000000003758,1.8314000000003716,1.8457000000001855,1.8644000000003729,1.879299999999816,1.895900000000374,1.915600000000559,1.932600000000562,1.9489000000003713,1.9662999999998192,1.9817000000001883,1.9967000000001889,2.0122999999998186,2.0335000000000036,2.049100000000564,2.0635000000000048,2.078900000000374,2.0979000000003722,2.1125000000000043,2.1296000000005577,2.1455000000000055,2.1652000000001905,2.1789000000003753,2.1955000000000027,2.2162000000001854,2.2337000000001908,2.245799999999818,2.2790000000000035,2.2892999999998125,2.300700000000191,2.3122999999998157,2.3321000000005583,2.3467000000001903,2.362200000000186,2.3787999999998135,2.3955000000000055,2.4122000000001904,2.4289000000003753,2.44560000000056,2.4622000000001876,2.478799999999815,2.4955,2.512100000000558,2.5290000000000035,2.545799999999815,2.562200000000189,2.5787999999998164,2.5955000000000013,2.612200000000186,2.628900000000378,2.6455000000000055,2.6621000000005637,2.6789000000003753,2.695400000000376,2.7122999999998143,2.7295000000000016,2.7455,2.762200000000192,2.7789000000003767,2.7954000000003774,2.8121000000005623,2.828900000000374,2.8455000000000013,2.8621000000005594,2.8787999999998135,2.895600000000563,2.9122000000001904,2.9289000000003753,2.945400000000376,2.962100000000561,2.9789000000003725,2.9955,3.012100000000558,3.0289000000003767,3.0454000000003774,3.062200000000189,3.0787999999998164,3.0955000000000013,3.112200000000186,3.1287999999998135,3.1455000000000055,3.1621000000005637,3.1787999999998178,3.19560000000056,3.2122000000001876,3.2289000000003725,3.245400000000373,3.262100000000558,3.278799999999819,3.295500000000004,3.3121000000005623,3.3287999999998164,3.3455000000000013,3.362200000000186,3.3787999999998135,3.3955000000000055,3.4122000000001904,3.429000000000002,3.4455000000000027,3.4622000000001876,3.478799999999815,3.4955,3.512200000000192,3.5289000000003767,3.5456000000005616,3.562200000000189,3.5787999999998164,3.5955000000000013,3.612200000000186,3.6287999999998135,3.6455000000000055,3.6621000000005637,3.6787999999998178,3.6955000000000027,3.7122000000001876,3.7289000000003725,3.7455,3.762200000000192,3.778799999999819,3.795500000000004,3.812200000000189,3.8292999999998187,3.8454000000003745,3.862200000000186,3.8787000000001868,3.8955000000000055,3.9121000000005637,3.929000000000002,3.9455000000000027,3.9622999999998143,3.9789000000003725,3.9955,4.012200000000192,4.029100000000561,4.045400000000377,4.062200000000189,4.078799999999816,4.095500000000001,4.112200000000186,4.1287999999998135,4.150000000000006,4.162100000000564,4.178799999999818,4.195400000000376,4.212200000000188,4.2289000000003725,4.2455,4.262200000000192,4.278900000000377,4.295500000000004,4.316900000000373,4.332400000000376,4.347999999999999,4.365200000000186,4.3809000000003735,4.397600000000558,4.41220000000019,4.432900000000373,4.449299999999816,4.463799999999814,4.478999999999999,4.498000000000005,4.512200000000192,4.530900000000372,4.5487000000001885,4.562299999999816,4.578799999999816,4.5954000000003745,4.612200000000186,4.630000000000003,4.6455000000000055,4.66220000000019,4.678799999999818,4.695400000000376,4.712100000000561,4.728799999999815,4.746900000000373,4.762200000000192,4.778799999999819,4.795500000000004,4.812299999999816,4.828900000000374,4.845500000000001,4.862100000000559,4.8787999999998135,4.895400000000372,4.912100000000564,4.928799999999818,4.945500000000003,4.962100000000561,4.978799999999815,4.9955,5.012100000000558,5.032200000000188,5.047600000000564,5.062100000000562,5.07870000000019,5.0954000000003745,5.112200000000186,5.1295,5.145400000000372,5.162100000000564,5.178900000000375,5.195500000000003,5.212200000000188,5.228799999999815,5.245700000000191,5.262100000000558,5.278799999999819,5.295500000000004,5.312100000000562,5.332799999999814,5.348299999999817,5.362299999999813,5.378900000000378,5.397600000000558,5.41220000000019,5.429200000000186,5.448799999999814,5.463400000000377,5.478999999999999,5.49760000000056,5.512200000000192,5.530900000000372,5.549200000000191,5.563600000000562,5.578900000000374,5.595600000000559,5.612200000000186,5.6287999999998135,5.645400000000372,5.662100000000564,5.678700000000191,5.695500000000003,5.712100000000561,5.732500000000002,5.74910000000056,5.763400000000374,5.778900000000377,5.7984000000003775,5.8126000000005575,5.8296000000005606,5.845500000000001,5.862100000000559,5.8787999999998135,5.89870000000019,5.917200000000186,5.934299999999816,5.948400000000376,5.962100000000561,5.978799999999815,5.9955,6.015500000000003,6.030400000000377,6.045500000000004,6.062100000000562,6.078799999999816,6.095500000000001,6.112100000000559,6.128900000000378,6.1455000000000055,6.162100000000564,6.178799999999818,6.195400000000376,6.212200000000188,6.228799999999815,6.245400000000373,6.262100000000558,6.278799999999819,6.295500000000004,6.312100000000562,6.328799999999816,6.3454000000003745,6.362100000000559,6.3787999999998135,6.39870000000019,6.412799999999812,6.433900000000378,6.44560000000056,6.464000000000006,6.483200000000188,6.495400000000373,6.512200000000192,6.531600000000559,6.547600000000564,6.562000000000005,6.578799999999816,6.5954000000003745,6.612100000000559,6.6287999999998135,6.645400000000372,6.662100000000564,6.678799999999818,6.695400000000376,6.712100000000561,6.728999999999999,6.7456000000005645,6.762100000000558,6.778900000000377,6.795400000000377,6.812100000000562,6.828900000000374,6.8454000000003745,6.862100000000559,6.8787999999998135,6.8955000000000055,6.912100000000564,6.928900000000375,6.947400000000371,6.962500000000006,6.978999999999999,6.9955,7.012100000000558,7.028900000000377,7.045500000000004,7.062100000000562,7.078799999999816,7.098400000000375,7.112100000000559,7.1287999999998135]","[1733211406062,1733211406091,1733211406102,1733211406117,1733211406134,1733211406150,1733211406167,1733211406184,1733211406206,1733211406217,1733211406234,1733211406250,1733211406267,1733211406284,1733211406300,1733211406317,1733211406334,1733211406354,1733211406367,1733211406385,1733211406400,1733211406417,1733211406434,1733211406450,1733211406467,1733211406484,1733211406500,1733211406517,1733211406534,1733211406551,1733211406567,1733211406586,1733211406602,1733211406617,1733211406637,1733211406650,1733211406667,1733211406684,1733211406702,1733211406717,1733211406734,1733211406753,1733211406769,1733211406786,1733211406801,1733211406819,1733211406834,1733211406850,1733211406869,1733211406884,1733211406900,1733211406921,1733211406937,1733211406953,1733211406970,1733211406986,1733211407003,1733211407017,1733211407036,1733211407051,1733211407067,1733211407084,1733211407103,1733211407118,1733211407134,1733211407150,1733211407169,1733211407184,1733211407201,1733211407220,1733211407234,1733211407251,1733211407269,1733211407284,1733211407300,1733211407317,1733211407336,1733211407350,1733211407367,1733211407388,1733211407403,1733211407417,1733211407434,1733211407454,1733211407468,1733211407484,1733211407501,1733211407517,1733211407534,1733211407550,1733211407567,1733211407585,1733211407601,1733211407617,1733211407634,1733211407650,1733211407667,1733211407687,1733211407701,1733211407717,1733211407734,1733211407750,1733211407767,1733211407785,1733211407801,1733211407819,1733211407834,1733211407852,1733211407871,1733211407886,1733211407900,1733211407919,1733211407934,1733211407951,1733211407970,1733211407987,1733211408004,1733211408021,1733211408036,1733211408051,1733211408067,1733211408088,1733211408104,1733211408118,1733211408134,1733211408153,1733211408167,1733211408184,1733211408200,1733211408220,1733211408234,1733211408250,1733211408271,1733211408289,1733211408301,1733211408334,1733211408344,1733211408355,1733211408367,1733211408387,1733211408401,1733211408417,1733211408434,1733211408450,1733211408467,1733211408484,1733211408500,1733211408517,1733211408534,1733211408550,1733211408567,1733211408584,1733211408601,1733211408617,1733211408634,1733211408650,1733211408667,1733211408684,1733211408700,1733211408717,1733211408734,1733211408750,1733211408767,1733211408784,1733211408800,1733211408817,1733211408834,1733211408850,1733211408867,1733211408884,1733211408900,1733211408917,1733211408934,1733211408950,1733211408967,1733211408984,1733211409000,1733211409017,1733211409034,1733211409050,1733211409067,1733211409084,1733211409100,1733211409117,1733211409134,1733211409150,1733211409167,1733211409184,1733211409200,1733211409217,1733211409234,1733211409250,1733211409267,1733211409284,1733211409300,1733211409317,1733211409334,1733211409350,1733211409367,1733211409384,1733211409400,1733211409417,1733211409434,1733211409450,1733211409467,1733211409484,1733211409500,1733211409517,1733211409534,1733211409550,1733211409567,1733211409584,1733211409600,1733211409617,1733211409634,1733211409650,1733211409667,1733211409684,1733211409700,1733211409717,1733211409734,1733211409750,1733211409767,1733211409784,1733211409800,1733211409817,1733211409834,1733211409850,1733211409867,1733211409884,1733211409900,1733211409917,1733211409934,1733211409950,1733211409967,1733211409984,1733211410000,1733211410017,1733211410034,1733211410050,1733211410067,1733211410084,1733211410100,1733211410117,1733211410134,1733211410150,1733211410167,1733211410184,1733211410205,1733211410217,1733211410234,1733211410250,1733211410267,1733211410284,1733211410300,1733211410317,1733211410334,1733211410350,1733211410372,1733211410387,1733211410403,1733211410420,1733211410436,1733211410452,1733211410467,1733211410488,1733211410504,1733211410518,1733211410534,1733211410553,1733211410567,1733211410586,1733211410603,1733211410617,1733211410634,1733211410650,1733211410667,1733211410685,1733211410700,1733211410717,1733211410734,1733211410750,1733211410767,1733211410784,1733211410802,1733211410817,1733211410834,1733211410850,1733211410867,1733211410884,1733211410900,1733211410917,1733211410934,1733211410950,1733211410967,1733211410984,1733211411000,1733211411017,1733211411034,1733211411050,1733211411067,1733211411087,1733211411102,1733211411117,1733211411134,1733211411150,1733211411167,1733211411184,1733211411200,1733211411217,1733211411234,1733211411250,1733211411267,1733211411284,1733211411300,1733211411317,1733211411334,1733211411350,1733211411367,1733211411388,1733211411403,1733211411417,1733211411434,1733211411452,1733211411467,1733211411484,1733211411503,1733211411518,1733211411534,1733211411552,1733211411567,1733211411586,1733211411604,1733211411618,1733211411634,1733211411650,1733211411667,1733211411684,1733211411700,1733211411717,1733211411733,1733211411750,1733211411767,1733211411787,1733211411804,1733211411818,1733211411834,1733211411853,1733211411867,1733211411884,1733211411900,1733211411917,1733211411934,1733211411954,1733211411972,1733211411989,1733211412003,1733211412017,1733211412033,1733211412050,1733211412070,1733211412085,1733211412100,1733211412117,1733211412133,1733211412150,1733211412167,1733211412184,1733211412200,1733211412217,1733211412234,1733211412250,1733211412267,1733211412284,1733211412300,1733211412317,1733211412334,1733211412350,1733211412367,1733211412384,1733211412400,1733211412417,1733211412433,1733211412453,1733211412467,1733211412489,1733211412500,1733211412519,1733211412538,1733211412550,1733211412567,1733211412586,1733211412602,1733211412617,1733211412633,1733211412650,1733211412667,1733211412684,1733211412700,1733211412717,1733211412734,1733211412750,1733211412767,1733211412784,1733211412800,1733211412817,1733211412834,1733211412850,1733211412867,1733211412884,1733211412900,1733211412917,1733211412934,1733211412950,1733211412967,1733211412984,1733211413002,1733211413017,1733211413034,1733211413050,1733211413067,1733211413084,1733211413100,1733211413117,1733211413133,1733211413153,1733211413167,1733211413184]","[[904.5,428.7],[904.5,428.7],[893.7,418.6],[907.1,424.2],[919.1,450.9],[903.4,465.9],[922.2,484.2],[925.5,482.8],[929.9,505.3],[929.9,505.3],[930.4,516.4],[930.4,516.4],[954,562.9],[954,562.9],[962.2,603],[962.2,603],[968.5,613.3],[968.5,613.3],[961.8,625.1],[946.8,640.3],[946.8,640.3],[959.5,667.2],[946.6,680.2],[961.2,708],[974.6,717.9],[977.5,730.7],[971.7,704.5],[954.9,681.8],[950.9,699],[942,698.4],[933.9,692],[925.8,685.6],[922.3,685.5],[907.4,693.3],[892.5,701.1],[867.9,718.2],[843.3,735.3],[839.6,722.7],[835.9,710.1],[837.5,725.5],[846.6,743.3],[874.7,765],[895.3,777.4],[901.3,794],[907.3,810.6],[932,817.6],[960,822.5],[973.5,841.9],[987,861.3],[983.3,852.8],[979.6,844.3],[959.3,840.7],[949.9,807.5],[966,770.2],[973.1,722.7],[974.4,708.8],[958.7,697.3],[953,695.2],[947.3,693.1],[948.7,672.3],[953.9,664.3],[931,625.4],[905.3,621.9],[882.7,628.3],[869.1,644.9],[881.5,682.3],[907.6,719.4],[896.3,688.9],[891.8,643.4],[889.9,664.9],[909.7,667.7],[933.6,702],[963.3,728.9],[1012.6,753.8],[1029.9,751.7],[1019.6,708],[1009.3,664.3],[1023.1,719.4],[1055.9,784.4],[1084.6,801.6],[1068.7,797.3],[1074.4,783.6],[1074.3,777.3],[1057.8,765.6],[1066.3,755.1],[1076.6,740.8],[1086.9,726.5],[1105.2,652.1],[1094.5,579.2],[1077.4,511.3],[1075.6,454.1],[1072.2,411.9],[1068.8,369.7],[1044.4,328.2],[1027,312.5],[1032.4,327],[1037.8,341.5],[1033.2,360.7],[1024.6,372.1],[1018.2,398.9],[1015.6,442.4],[1023.6,476.9],[1009.1,489.3],[997.8,495.4],[1011.8,523.6],[993.7,521.3],[996.4,525.6],[984.7,520.4],[980.2,526.6],[986,519.9],[985.1,503.8],[989.5,497.7],[1015.4,515.2],[1040.6,529.7],[1040.5,522.1],[1053.1,522.2],[1055.5,521.2],[1061,548],[1072.2,554.8],[1072.9,545.7],[1093.7,560.5],[1092.7,551.9],[1092.1,543.7],[1092.2,538.5],[1092.3,533.3],[1098.3,521.7],[1092.7,503.6],[1098.7,477.3],[1098.7,477.3],[1098,469.6],[1098,469.6],[1101.9,473.9],[1097.9,463.2],[1103.8,478.2],[1103.8,478.2],[1104.2,467.6],[1104.2,467.6],[1112.4,477.8],[1112.4,477.8],[1120.6,488],[1113.6,500.7],[1113.5,521.6],[1113.4,542.5],[1113.3,575.1],[1129.1,612.2],[1113.2,612.9],[1094.9,595.3],[1140,612.7],[1143.2,654],[1169.2,716.5],[1210.6,774.4],[1201.2,806.4],[1174.5,824.4],[1148.8,832.1],[1107,831.7],[1102.1,875.3],[1108.8,895.8],[1092.2,895.3],[1067.8,841.5],[1057.8,783.7],[1035.9,733.7],[1044.4,698.5],[1070.2,677.3],[1094.1,656.8],[1094.1,656.8],[1118,636.3],[1127.7,618.3],[1129.3,617.3],[1096.9,626],[1101.9,627.7],[1069.7,612.2],[1045.9,600.5],[1035.1,587.8],[1031.4,577.9],[1029.6,567.3],[1025.2,561.6],[1026.9,538.2],[1025.1,520.9],[1001.6,495.5],[983.5,491.9],[958.9,484.1],[957,489.1],[956.7,494],[927.6,471.7],[898.5,449.4],[884.1,431.4],[867.1,421.5],[856,422.1],[866.6,430.8],[872.9,422.2],[886,418],[888.7,403.9],[891.3,394.8],[913.3,400.2],[912.8,397.9],[913.5,392.5],[911,397.7],[921.1,394.6],[917.2,403.2],[916.7,422.9],[914.8,425.6],[895.1,425.7],[875.4,425.8],[865.9,424.2],[878.9,430.3],[878.1,443.5],[880.5,446.1],[873.1,439.1],[879.7,420.4],[880.2,393.5],[881.8,383.4],[895.9,369.2],[910,355],[926.9,355.3],[943.8,355.6],[938.9,349.3],[934,343],[937.8,341.4],[941.6,339.8],[953.4,334.9],[965.2,330],[970.2,336.7],[974.1,335.4],[964.5,341],[975.8,413.3],[1013,481.3],[1054,543.9],[1069,580.7],[1059.5,627.9],[1062.2,708.1],[1064.9,788.3],[1055.8,841.6],[1096.1,897.7],[1162.6,964.3],[1208.2,964.2],[1238.2,944.5],[1229.3,951.5],[1241.3,935.4],[1257.3,915.3],[1265.2,875.4],[1273.1,835.5],[1284.7,781.5],[1248,732.7],[1192.2,672],[1136.4,611.3],[1089.3,565.1],[1082.7,496.2],[1063.8,478.9],[1067.5,463.1],[1067.5,463.1],[1065.2,445.6],[1065.2,445.6],[1073.6,444.6],[1073.6,444.6],[1084.2,480.4],[1084.2,480.4],[1102.4,527.6],[1102.4,527.6],[1127.5,572.4],[1116.3,597.9],[1108.4,626.2],[1105,630.4],[1100.7,636],[1071.5,668.8],[1042.4,683.5],[1000,694.9],[991,683.5],[974.4,660.7],[953.8,636],[978.3,621.9],[991.2,596.1],[994.2,595.8],[994.2,595.8],[997.5,590.6],[1014.4,548.4],[1030.3,542.6],[1048.8,523.6],[1066.5,554.7],[1089.9,575.1],[1072.1,588.7],[1040.9,602.1],[1023.8,639.3],[1006.7,676.5],[1009.5,699],[1031.4,723.7],[1053,769.3],[1074.6,814.9],[1053.2,801],[1025.2,803.5],[1044.3,791.2],[1081.7,776.7],[1093.8,750.5],[1123.9,747.8],[1088,708.5],[1042.2,668.9],[1009.6,593.8],[1001,548.6],[1011.4,528.4],[1022.7,502.5],[993.9,480],[954,459.1],[936.4,440.9],[900.8,399.2],[903.4,419.9],[902.4,438.6],[902.6,447],[878.8,425.5],[847.9,403.4],[817,381.3],[828.4,375.3],[837.2,378.8],[833.4,368.8],[829.6,358.8],[834.4,351.2],[842.8,345.6],[842.5,343.1],[842.2,340.6],[852,339.6],[848.7,348],[830.5,353.1],[838.9,361.1],[860.4,379.5],[883.2,398.5],[921.2,398.3],[940.5,407.9],[951.7,414.3],[959.8,421.1],[969,429.9],[991.3,429.3],[1019.9,422.1],[1023.1,423.4],[1028.1,431.9],[1031.8,439.8],[1022.8,450.1],[1032.2,436.5],[1042.9,444.7],[1056.7,452.5],[1064.5,453.6],[1070.5,454.2],[1061.1,444],[1058.2,428.5],[1056.3,408.2],[1054.4,387.9],[1047.8,374.6],[1039.4,374.4],[1033.3,359.1],[1027.2,343.8],[1013.5,324.2],[1007.4,327.2],[1004.7,346.6],[994.3,359.9],[987.7,357.3],[981.1,354.7],[971.6,361.2],[971.6,361.2],[964.2,368.7],[972.3,399.4],[985,427.5],[1007.2,463.7],[1015,483.5],[1014.6,481.2],[1014,501.8],[1006.8,535.9],[1037.9,598.6],[1056.8,642.3],[1083.6,687],[1092.7,700],[1092.7,700],[1086.8,706.6],[1086.8,706.6],[1105.6,731.4],[1105.6,731.4],[1083.2,730.7],[1083.2,730.7],[1090,743.8],[1090,743.8],[1112.6,743.3],[1112.6,743.3],[1124.4,722.5],[1124.4,722.5],[1067.1,673.5],[1067.1,673.5],[1043.7,633.1],[1021.7,593.8],[997,568.1],[997,568.1],[969.1,546.8],[921.5,496.4],[933.4,480],[933.4,480],[950.8,485.1],[927.4,478.2],[936.5,507.3],[960.6,514.1],[981.2,516.9],[975.4,515.9],[973.7,503.3],[988.9,481.8],[995.1,479.2],[1019.2,492.7],[1012.4,494.8],[1018.7,486.3],[1003.3,462.1],[1003.3,462.1],[985.1,461.5],[966.9,451],[971.9,452.3],[969.9,454.7],[963.9,473.2],[956.8,477.3],[922.1,451.1],[907.4,479.6],[904.8,521.4],[899.4,578.7],[919.7,634.1],[902.4,676.4],[939.1,722.2],[924.7,747.9],[911,771],[942.5,833.7],[967.9,896.3],[976.3,902.6],[984.7,908.9],[990.5,883.7],[1007.2,838.3],[1026.9,809.7],[987.6,765.5],[998.8,739.8]]","[0,0.151169218]","[0.151169218,0.151169218]","[-0.151169218,-0.151169218]","[-0.151169218,0]","[0,-0.151169218]","[0.151169218,-0.151169218]","[0,0]","[0.151169218,0]",0,0,0,0,1,1,Smartphone,7,7,15,9
