inst1_resp.keys,inst1_resp.rt,calibrationMouse.x,calibrationMouse.y,calibrationMouse.leftButton,calibrationMouse.midButton,calibrationMouse.rightButton,calibrationClick.x,calibrationClick.y,calibrationClick.leftButton,calibrationClick.midButton,calibrationClick.rightButton,calibrationClick.clicked_name,trialsc.thisRepN,trialsc.thisTrialN,trialsc.thisN,trialsc.thisIndex,trialsc.ran,calibration_x,calibration_y,participant,session,date,expName,psychopyVersion,OS,frameRate,ScreenRes_pixels,Camera_pixels,mouse_2.x,mouse_2.y,mouse_2.leftButton,mouse_2.midButton,mouse_2.rightButton,mouse_2.time,mouse_2.clicked_name,mouse.x,mouse.y,mouse.leftButton,mouse.midButton,mouse.rightButton,mouse.time,mouse.clicked_name,Choice,Trial,TrialDuration,MOUSE_GAZE,ET_GAZE,ET_GAZE_x_T,time,unixTime,ET_GAZE_NF,Loc_Option1_label,Loc_Option2_label,Loc_Cost_label,Loc_Qual_label,Loc_Option1_cost,Loc_Option2_cost,Loc_Option1_quality,Loc_Option2_quality,trials.thisRepN,trials.thisTrialN,trials.thisN,trials.thisIndex,trials.ran,Block,Device,cost1,qual1,cost2,qual2
space,0.5609,-0.629166667,0.462962963,1,0,0,-0.670833333,0.335185185,1,0,0,calibration_square,0,0,0,3,1,-0.67,0.33,45,001,2024-12-02_19h01.16.549,Attention_exp_legacy,2023.1.0,Win32,60.24096386,,,,,,,,,,,,,,,,,,,,,,,,,,,,,,,,,,,,,,,,,,,,
,,,,,,,0.351041667,-0.348148148,1,0,0,,0,1,1,15,1,0.33,-0.33,45,001,2024-12-02_19h01.16.549,Attention_exp_legacy,2023.1.0,Win32,60.24096386,,,,,,,,,,,,,,,,,,,,,,,,,,,,,,,,,,,,,,,,,,,,
,,,,,,,-0.342708333,-0.675925926,1,0,0,,0,2,2,4,1,-0.33,-0.67,45,001,2024-12-02_19h01.16.549,Attention_exp_legacy,2023.1.0,Win32,60.24096386,,,,,,,,,,,,,,,,,,,,,,,,,,,,,,,,,,,,,,,,,,,,
,,,,,,,0.322916667,-0.668518519,1,0,0,calibration_square,0,3,3,14,1,0.33,-0.67,45,001,2024-12-02_19h01.16.549,Attention_exp_legacy,2023.1.0,Win32,60.24096386,,,,,,,,,,,,,,,,,,,,,,,,,,,,,,,,,,,,,,,,,,,,
,,,,,,,-0.319791667,0.022222222,1,0,0,,0,4,4,6,1,-0.33,0,45,001,2024-12-02_19h01.16.549,Attention_exp_legacy,2023.1.0,Win32,60.24096386,,,,,,,,,,,,,,,,,,,,,,,,,,,,,,,,,,,,,,,,,,,,
,,,,,,,-0.704166667,-0.311111111,1,0,0,,0,5,5,1,1,-0.67,-0.33,45,001,2024-12-02_19h01.16.549,Attention_exp_legacy,2023.1.0,Win32,60.24096386,,,,,,,,,,,,,,,,,,,,,,,,,,,,,,,,,,,,,,,,,,,,
,,,,,,,0,0.307407407,1,0,0,,0,6,6,12,1,0,0.33,45,001,2024-12-02_19h01.16.549,Attention_exp_legacy,2023.1.0,Win32,60.24096386,,,,,,,,,,,,,,,,,,,,,,,,,,,,,,,,,,,,,,,,,,,,
,,,,,,,-0.007291667,-0.668518519,1,0,0,calibration_square,0,7,7,9,1,0,-0.67,45,001,2024-12-02_19h01.16.549,Attention_exp_legacy,2023.1.0,Win32,60.24096386,,,,,,,,,,,,,,,,,,,,,,,,,,,,,,,,,,,,,,,,,,,,
,,,,,,,-0.35,0.333333333,1,0,0,,0,8,8,7,1,-0.33,0.33,45,001,2024-12-02_19h01.16.549,Attention_exp_legacy,2023.1.0,Win32,60.24096386,,,,,,,,,,,,,,,,,,,,,,,,,,,,,,,,,,,,,,,,,,,,
,,,,,,,0.010416667,-0.340740741,1,0,0,,0,9,9,10,1,0,-0.33,45,001,2024-12-02_19h01.16.549,Attention_exp_legacy,2023.1.0,Win32,60.24096386,,,,,,,,,,,,,,,,,,,,,,,,,,,,,,,,,,,,,,,,,,,,
,,,,,,,-0.352083333,0.690740741,1,0,0,,0,10,10,8,1,-0.33,0.67,45,001,2024-12-02_19h01.16.549,Attention_exp_legacy,2023.1.0,Win32,60.24096386,,,,,,,,,,,,,,,,,,,,,,,,,,,,,,,,,,,,,,,,,,,,
,,,,,,,0.665625,0.638888889,1,0,0,,0,11,11,19,1,0.67,0.67,45,001,2024-12-02_19h01.16.549,Attention_exp_legacy,2023.1.0,Win32,60.24096386,,,,,,,,,,,,,,,,,,,,,,,,,,,,,,,,,,,,,,,,,,,,
,,,,,,,0.679166667,-0.637037037,1,0,0,,0,12,12,20,1,0.67,-0.67,45,001,2024-12-02_19h01.16.549,Attention_exp_legacy,2023.1.0,Win32,60.24096386,,,,,,,,,,,,,,,,,,,,,,,,,,,,,,,,,,,,,,,,,,,,
,,,,,,,0.369791667,0.659259259,1,0,0,,0,13,13,18,1,0.33,0.67,45,001,2024-12-02_19h01.16.549,Attention_exp_legacy,2023.1.0,Win32,60.24096386,,,,,,,,,,,,,,,,,,,,,,,,,,,,,,,,,,,,,,,,,,,,
,,,,,,,-0.667708333,-0.674074074,1,0,0,calibration_square,0,14,14,0,1,-0.67,-0.67,45,001,2024-12-02_19h01.16.549,Attention_exp_legacy,2023.1.0,Win32,60.24096386,,,,,,,,,,,,,,,,,,,,,,,,,,,,,,,,,,,,,,,,,,,,
,,,,,,,0.354166667,0.340740741,1,0,0,,0,15,15,17,1,0.33,0.33,45,001,2024-12-02_19h01.16.549,Attention_exp_legacy,2023.1.0,Win32,60.24096386,,,,,,,,,,,,,,,,,,,,,,,,,,,,,,,,,,,,,,,,,,,,
,,,,,,,-0.338541667,-0.331481481,1,0,0,calibration_square,0,16,16,5,1,-0.33,-0.33,45,001,2024-12-02_19h01.16.549,Attention_exp_legacy,2023.1.0,Win32,60.24096386,,,,,,,,,,,,,,,,,,,,,,,,,,,,,,,,,,,,,,,,,,,,
,,,,,,,0,0.698148148,1,0,0,,0,17,17,13,1,0,0.67,45,001,2024-12-02_19h01.16.549,Attention_exp_legacy,2023.1.0,Win32,60.24096386,,,,,,,,,,,,,,,,,,,,,,,,,,,,,,,,,,,,,,,,,,,,
,,,,,,,0.327083333,0.003703704,1,0,0,calibration_square,0,18,18,16,1,0.33,0,45,001,2024-12-02_19h01.16.549,Attention_exp_legacy,2023.1.0,Win32,60.24096386,,,,,,,,,,,,,,,,,,,,,,,,,,,,,,,,,,,,,,,,,,,,
,,,,,,,0.011458333,-0.001851852,1,0,0,,0,19,19,11,1,0,0,45,001,2024-12-02_19h01.16.549,Attention_exp_legacy,2023.1.0,Win32,60.24096386,,,,,,,,,,,,,,,,,,,,,,,,,,,,,,,,,,,,,,,,,,,,
,,,,,,,-0.673958333,0.012962963,1,0,0,,0,20,20,2,1,-0.67,0,45,001,2024-12-02_19h01.16.549,Attention_exp_legacy,2023.1.0,Win32,60.24096386,,,,,,,,,,,,,,,,,,,,,,,,,,,,,,,,,,,,,,,,,,,,
,,,,,,,,,,,,,,,,,,,,45,001,2024-12-02_19h01.16.549,Attention_exp_legacy,2023.1.0,Win32,60.24096386,"[1920,1080]","[640,480]",[-0.07291666666666667],[-0.48148148148148145],[1],[0],[0],[2.611399999998504],"[""StartButton""]",[0.029166666666666667],[0.3333333333333333],[1],[0],[0],[8.038300000000746],"[""Option1_label""]",Option1_label,1,9.0597,"[[-0.04583333333333333,-0.4703703703703704],[-0.03125,-0.45],[-0.029166666666666667,-0.45],[-0.022916666666666665,-0.4425925925925926],[-0.016666666666666666,-0.4351851851851852],[-0.0125,-0.42962962962962964],[-0.009375,-0.42407407407407405],[-0.008333333333333333,-0.4222222222222222],[-0.007291666666666667,-0.4203703703703704],[-0.007291666666666667,-0.4185185185185185],[-0.00625,-0.4166666666666667],[-0.00625,-0.4148148148148148],[-0.00625,-0.40370370370370373],[-0.00625,-0.39814814814814814],[-0.00625,-0.3962962962962963],[-0.00625,-0.3925925925925926],[-0.00625,-0.3925925925925926],[-0.00625,-0.3888888888888889],[-0.00625,-0.387037037037037],[-0.00625,-0.3851851851851852],[-0.00625,-0.38333333333333336],[-0.00625,-0.37962962962962965],[-0.00625,-0.37777777777777777],[-0.00625,-0.37592592592592594],[-0.00625,-0.37407407407407406],[-0.00625,-0.37222222222222223],[-0.00625,-0.37222222222222223],[-0.00625,-0.37222222222222223],[-0.00625,-0.37222222222222223],[-0.00625,-0.37037037037037035],[-0.00625,-0.3685185185185185],[-0.00625,-0.36666666666666664],[-0.00625,-0.36666666666666664],[-0.00625,-0.3648148148148148],[-0.00625,-0.362962962962963],[-0.00625,-0.362962962962963],[-0.00625,-0.3611111111111111],[-0.00625,-0.3611111111111111],[-0.00625,-0.3611111111111111],[-0.00625,-0.3611111111111111],[-0.00625,-0.3611111111111111],[-0.00625,-0.3611111111111111],[-0.00625,-0.3611111111111111],[-0.00625,-0.3611111111111111],[-0.00625,-0.3611111111111111],[-0.00625,-0.3611111111111111],[-0.00625,-0.3611111111111111],[-0.00625,-0.3611111111111111],[-0.00625,-0.3611111111111111],[-0.00625,-0.3611111111111111],[-0.00625,-0.3611111111111111],[-0.00625,-0.3611111111111111],[-0.00625,-0.3611111111111111],[-0.00625,-0.3611111111111111],[-0.00625,-0.3611111111111111],[-0.00625,-0.3611111111111111],[-0.00625,-0.3611111111111111],[-0.00625,-0.3611111111111111],[-0.00625,-0.3611111111111111],[-0.00625,-0.3611111111111111],[-0.00625,-0.3611111111111111],[-0.00625,-0.3611111111111111],[-0.00625,-0.3611111111111111],[-0.00625,-0.3611111111111111],[-0.00625,-0.3611111111111111],[-0.00625,-0.3611111111111111],[-0.00625,-0.3611111111111111],[-0.00625,-0.3611111111111111],[-0.00625,-0.3611111111111111],[-0.00625,-0.3611111111111111],[-0.00625,-0.3611111111111111],[-0.00625,-0.3611111111111111],[-0.00625,-0.3611111111111111],[-0.00625,-0.3611111111111111],[-0.00625,-0.3611111111111111],[-0.007291666666666667,-0.3611111111111111],[-0.007291666666666667,-0.3611111111111111],[-0.008333333333333333,-0.3611111111111111],[-0.008333333333333333,-0.3611111111111111],[-0.008333333333333333,-0.3611111111111111],[-0.008333333333333333,-0.3611111111111111],[-0.008333333333333333,-0.3611111111111111],[-0.008333333333333333,-0.3611111111111111],[-0.008333333333333333,-0.3611111111111111],[-0.008333333333333333,-0.3611111111111111],[-0.008333333333333333,-0.3611111111111111],[-0.009375,-0.3592592592592593],[-0.009375,-0.35555555555555557],[-0.009375,-0.34814814814814815],[-0.009375,-0.3351851851851852],[-0.008333333333333333,-0.31851851851851853],[-0.007291666666666667,-0.3],[-0.00625,-0.2777777777777778],[-0.004166666666666667,-0.2351851851851852],[-0.004166666666666667,-0.2037037037037037],[-0.004166666666666667,-0.17407407407407408],[-0.004166666666666667,-0.14074074074074075],[-0.004166666666666667,-0.08518518518518518],[-0.004166666666666667,-0.05],[-0.004166666666666667,-0.011111111111111112],[-0.004166666666666667,0.027777777777777776],[-0.004166666666666667,0.06481481481481481],[-0.004166666666666667,0.09814814814814815],[-0.004166666666666667,0.12777777777777777],[-0.004166666666666667,0.1537037037037037],[-0.004166666666666667,0.17407407407407408],[-0.004166666666666667,0.19074074074074074],[-0.004166666666666667,0.2037037037037037],[-0.004166666666666667,0.21481481481481482],[-0.004166666666666667,0.2222222222222222],[-0.004166666666666667,0.22777777777777777],[-0.004166666666666667,0.22962962962962963],[-0.004166666666666667,0.23333333333333334],[-0.004166666666666667,0.23333333333333334],[-0.004166666666666667,0.2351851851851852],[-0.004166666666666667,0.2351851851851852],[-0.005208333333333333,0.23703703703703705],[-0.005208333333333333,0.2388888888888889],[-0.005208333333333333,0.2388888888888889],[-0.005208333333333333,0.2388888888888889],[-0.00625,0.24074074074074073],[-0.00625,0.24259259259259258],[-0.00625,0.24259259259259258],[-0.00625,0.24259259259259258],[-0.00625,0.24259259259259258],[-0.00625,0.24259259259259258],[-0.00625,0.24259259259259258],[-0.00625,0.24259259259259258],[-0.00625,0.24259259259259258],[-0.00625,0.24259259259259258],[-0.00625,0.24259259259259258],[-0.00625,0.24259259259259258],[-0.00625,0.24814814814814815],[-0.00625,0.25555555555555554],[-0.00625,0.2574074074074074],[-0.00625,0.2611111111111111],[-0.00625,0.26296296296296295],[-0.00625,0.26666666666666666],[-0.00625,0.26851851851851855],[-0.00625,0.26851851851851855],[-0.00625,0.2722222222222222],[-0.00625,0.2722222222222222],[-0.00625,0.2740740740740741],[-0.00625,0.2740740740740741],[-0.00625,0.2777777777777778],[-0.005208333333333333,0.2777777777777778],[-0.005208333333333333,0.2796296296296296],[-0.004166666666666667,0.2814814814814815],[-0.004166666666666667,0.2851851851851852],[-0.003125,0.2851851851851852],[-0.0020833333333333333,0.28888888888888886],[-0.0010416666666666667,0.29259259259259257],[0.0010416666666666667,0.2962962962962963],[0.0010416666666666667,0.2962962962962963],[0.0020833333333333333,0.3],[0.004166666666666667,0.30185185185185187],[0.00625,0.30925925925925923],[0.007291666666666667,0.31296296296296294],[0.009375,0.3148148148148148],[0.009375,0.31851851851851853],[0.010416666666666666,0.32037037037037036],[0.010416666666666666,0.32222222222222224],[0.010416666666666666,0.32222222222222224],[0.010416666666666666,0.32222222222222224],[0.010416666666666666,0.32222222222222224],[0.010416666666666666,0.32222222222222224],[0.010416666666666666,0.32222222222222224],[0.010416666666666666,0.32222222222222224],[0.010416666666666666,0.32222222222222224],[0.010416666666666666,0.32222222222222224],[0.010416666666666666,0.32222222222222224],[0.010416666666666666,0.32222222222222224],[0.010416666666666666,0.32222222222222224],[0.010416666666666666,0.32222222222222224],[0.010416666666666666,0.32222222222222224],[0.010416666666666666,0.32222222222222224],[0.010416666666666666,0.32222222222222224],[0.010416666666666666,0.32222222222222224],[0.010416666666666666,0.32222222222222224],[0.010416666666666666,0.32222222222222224],[0.010416666666666666,0.32222222222222224],[0.010416666666666666,0.32222222222222224],[0.010416666666666666,0.32222222222222224],[0.010416666666666666,0.32222222222222224],[0.010416666666666666,0.32222222222222224],[0.010416666666666666,0.32222222222222224],[0.010416666666666666,0.32222222222222224],[0.010416666666666666,0.32222222222222224],[0.010416666666666666,0.32222222222222224],[0.010416666666666666,0.32222222222222224],[0.010416666666666666,0.32222222222222224],[0.010416666666666666,0.32222222222222224],[0.010416666666666666,0.32222222222222224],[0.010416666666666666,0.32222222222222224],[0.010416666666666666,0.32222222222222224],[0.010416666666666666,0.32222222222222224],[0.010416666666666666,0.32222222222222224],[0.010416666666666666,0.32222222222222224],[0.010416666666666666,0.32222222222222224],[0.010416666666666666,0.32222222222222224],[0.010416666666666666,0.32222222222222224],[0.010416666666666666,0.32222222222222224],[0.010416666666666666,0.32222222222222224],[0.010416666666666666,0.32222222222222224],[0.010416666666666666,0.32222222222222224],[0.010416666666666666,0.32222222222222224],[0.010416666666666666,0.32222222222222224],[0.010416666666666666,0.32222222222222224],[0.010416666666666666,0.32222222222222224],[0.010416666666666666,0.32222222222222224],[0.010416666666666666,0.32222222222222224],[0.010416666666666666,0.32222222222222224],[0.010416666666666666,0.32222222222222224],[0.010416666666666666,0.32222222222222224],[0.010416666666666666,0.32222222222222224],[0.013541666666666667,0.32592592592592595],[0.021875,0.3277777777777778],[0.029166666666666667,0.3277777777777778],[0.041666666666666664,0.3277777777777778],[0.053125,0.3277777777777778],[0.06666666666666667,0.3277777777777778],[0.07708333333333334,0.3277777777777778],[0.0875,0.3277777777777778],[0.1,0.3277777777777778],[0.109375,0.3277777777777778],[0.12395833333333334,0.3277777777777778],[0.13854166666666667,0.3277777777777778],[0.15729166666666666,0.3277777777777778],[0.178125,0.3277777777777778],[0.209375,0.3277777777777778],[0.234375,0.3277777777777778],[0.265625,0.3277777777777778],[0.29375,0.3277777777777778],[0.31875,0.3277777777777778],[0.334375,0.3277777777777778],[0.3458333333333333,0.3277777777777778],[0.353125,0.32592592592592595],[0.359375,0.32592592592592595],[0.365625,0.32407407407407407],[0.36875,0.32407407407407407],[0.37395833333333334,0.32407407407407407],[0.375,0.32407407407407407],[0.37604166666666666,0.32407407407407407],[0.37604166666666666,0.32407407407407407],[0.37604166666666666,0.32407407407407407],[0.37604166666666666,0.32407407407407407],[0.37604166666666666,0.32407407407407407],[0.37604166666666666,0.32407407407407407],[0.37604166666666666,0.32407407407407407],[0.37604166666666666,0.32407407407407407],[0.37604166666666666,0.32407407407407407],[0.37604166666666666,0.32407407407407407],[0.37604166666666666,0.32222222222222224],[0.37604166666666666,0.32222222222222224],[0.37604166666666666,0.32222222222222224],[0.37604166666666666,0.32222222222222224],[0.37604166666666666,0.32222222222222224],[0.37604166666666666,0.32222222222222224],[0.37604166666666666,0.32222222222222224],[0.37604166666666666,0.32222222222222224],[0.37604166666666666,0.32222222222222224],[0.37604166666666666,0.32222222222222224],[0.37604166666666666,0.32222222222222224],[0.37604166666666666,0.32222222222222224],[0.37604166666666666,0.32222222222222224],[0.37604166666666666,0.32222222222222224],[0.37604166666666666,0.32222222222222224],[0.37604166666666666,0.32222222222222224],[0.37604166666666666,0.32222222222222224],[0.37604166666666666,0.32222222222222224],[0.37604166666666666,0.32222222222222224],[0.37604166666666666,0.32222222222222224],[0.37604166666666666,0.32222222222222224],[0.37604166666666666,0.32222222222222224],[0.37604166666666666,0.32222222222222224],[0.37604166666666666,0.32222222222222224],[0.37604166666666666,0.32222222222222224],[0.37604166666666666,0.32222222222222224],[0.37604166666666666,0.32222222222222224],[0.37604166666666666,0.32222222222222224],[0.37604166666666666,0.32222222222222224],[0.37604166666666666,0.32222222222222224],[0.37604166666666666,0.32222222222222224],[0.37604166666666666,0.32222222222222224],[0.37604166666666666,0.32222222222222224],[0.37604166666666666,0.32222222222222224],[0.37604166666666666,0.32222222222222224],[0.37604166666666666,0.32222222222222224],[0.37604166666666666,0.32037037037037036],[0.37604166666666666,0.32037037037037036],[0.37604166666666666,0.32037037037037036],[0.37604166666666666,0.32037037037037036],[0.37604166666666666,0.32037037037037036],[0.37604166666666666,0.32037037037037036],[0.37604166666666666,0.32037037037037036],[0.37604166666666666,0.32037037037037036],[0.37604166666666666,0.32037037037037036],[0.37604166666666666,0.32037037037037036],[0.37604166666666666,0.32037037037037036],[0.37604166666666666,0.32037037037037036],[0.37604166666666666,0.32037037037037036],[0.37604166666666666,0.32037037037037036],[0.375,0.31851851851851853],[0.375,0.31851851851851853],[0.375,0.31851851851851853],[0.375,0.31851851851851853],[0.375,0.31851851851851853],[0.375,0.31851851851851853],[0.375,0.31851851851851853],[0.375,0.31851851851851853],[0.375,0.31851851851851853],[0.375,0.31666666666666665],[0.375,0.31666666666666665],[0.375,0.31666666666666665],[0.375,0.31666666666666665],[0.375,0.31666666666666665],[0.375,0.31666666666666665],[0.375,0.31666666666666665],[0.375,0.31666666666666665],[0.375,0.31666666666666665],[0.375,0.31666666666666665],[0.375,0.31666666666666665],[0.375,0.31666666666666665],[0.375,0.31666666666666665],[0.375,0.31666666666666665],[0.375,0.31666666666666665],[0.375,0.31666666666666665],[0.375,0.31666666666666665],[0.375,0.31666666666666665],[0.375,0.31666666666666665],[0.37395833333333334,0.31666666666666665],[0.3729166666666667,0.31666666666666665],[0.371875,0.3148148148148148],[0.371875,0.3148148148148148],[0.36875,0.31296296296296294],[0.36041666666666666,0.3074074074074074],[0.346875,0.30185185185185187],[0.321875,0.28888888888888886],[0.303125,0.2796296296296296],[0.284375,0.2759259259259259],[0.25729166666666664,0.26666666666666666],[0.215625,0.26666666666666666],[0.16145833333333334,0.26666666666666666],[0.11041666666666666,0.26666666666666666],[0.075,0.26666666666666666],[0.05416666666666667,0.26851851851851855],[0.04479166666666667,0.2722222222222222],[0.041666666666666664,0.2740740740740741],[0.041666666666666664,0.2740740740740741],[0.041666666666666664,0.2777777777777778],[0.040625,0.2814814814814815],[0.03854166666666667,0.2833333333333333],[0.0375,0.28703703703703703],[0.036458333333333336,0.28888888888888886],[0.036458333333333336,0.28888888888888886],[0.035416666666666666,0.28888888888888886],[0.035416666666666666,0.28888888888888886],[0.035416666666666666,0.29074074074074074],[0.034375,0.29444444444444445],[0.034375,0.29814814814814816],[0.03333333333333333,0.3037037037037037],[0.03125,0.31296296296296294],[0.03125,0.31666666666666665],[0.03125,0.31851851851851853],[0.030208333333333334,0.32222222222222224],[0.030208333333333334,0.32222222222222224],[0.030208333333333334,0.32407407407407407],[0.029166666666666667,0.32407407407407407],[0.029166666666666667,0.3277777777777778],[0.029166666666666667,0.3277777777777778],[0.029166666666666667,0.3314814814814815],[0.029166666666666667,0.3314814814814815],[0.029166666666666667,0.3333333333333333],[0.029166666666666667,0.3333333333333333],[0.029166666666666667,0.3333333333333333],[0.029166666666666667,0.3333333333333333],[0.029166666666666667,0.3333333333333333],[0.029166666666666667,0.3333333333333333],[0.029166666666666667,0.3333333333333333],[0.029166666666666667,0.3333333333333333],[0.029166666666666667,0.3333333333333333],[0.029166666666666667,0.3333333333333333],[0.029166666666666667,0.3333333333333333],[0.029166666666666667,0.3333333333333333],[0.029166666666666667,0.3333333333333333],[0.029166666666666667,0.3333333333333333],[0.029166666666666667,0.3333333333333333],[0.029166666666666667,0.3333333333333333],[0.029166666666666667,0.3333333333333333],[0.029166666666666667,0.3333333333333333],[0.029166666666666667,0.3333333333333333],[0.029166666666666667,0.3333333333333333],[0.029166666666666667,0.3333333333333333],[0.029166666666666667,0.3333333333333333],[0.029166666666666667,0.3333333333333333],[0.029166666666666667,0.3333333333333333],[0.029166666666666667,0.3333333333333333],[0.029166666666666667,0.3333333333333333],[0.029166666666666667,0.3333333333333333],[0.029166666666666667,0.3333333333333333],[0.029166666666666667,0.3333333333333333],[0.029166666666666667,0.3333333333333333],[0.029166666666666667,0.3333333333333333],[0.029166666666666667,0.3333333333333333],[0.029166666666666667,0.3333333333333333],[0.029166666666666667,0.3333333333333333],[0.029166666666666667,0.3333333333333333],[0.029166666666666667,0.3333333333333333],[0.029166666666666667,0.3333333333333333],[0.029166666666666667,0.3333333333333333],[0.029166666666666667,0.3333333333333333],[0.029166666666666667,0.3333333333333333],[0.029166666666666667,0.3333333333333333],[0.029166666666666667,0.3333333333333333],[0.029166666666666667,0.3333333333333333],[0.029166666666666667,0.3333333333333333],[0.029166666666666667,0.3333333333333333],[0.029166666666666667,0.3333333333333333],[0.029166666666666667,0.3333333333333333],[0.029166666666666667,0.3333333333333333],[0.029166666666666667,0.3333333333333333],[0.029166666666666667,0.3333333333333333],[0.029166666666666667,0.3333333333333333],[0.029166666666666667,0.3333333333333333],[0.029166666666666667,0.3333333333333333],[0.029166666666666667,0.3333333333333333],[0.029166666666666667,0.3333333333333333],[0.029166666666666667,0.3333333333333333],[0.029166666666666667,0.3333333333333333],[0.029166666666666667,0.3333333333333333],[0.029166666666666667,0.3333333333333333],[0.029166666666666667,0.3333333333333333],[0.029166666666666667,0.3333333333333333],[0.029166666666666667,0.3333333333333333],[0.029166666666666667,0.3333333333333333],[0.029166666666666667,0.3333333333333333],[0.029166666666666667,0.3333333333333333],[0.029166666666666667,0.3333333333333333],[0.029166666666666667,0.3333333333333333],[0.029166666666666667,0.3333333333333333],[0.029166666666666667,0.3333333333333333],[0.029166666666666667,0.3333333333333333],[0.029166666666666667,0.3333333333333333],[0.029166666666666667,0.3333333333333333],[0.029166666666666667,0.3333333333333333],[0.029166666666666667,0.3333333333333333],[0.029166666666666667,0.3333333333333333],[0.029166666666666667,0.3333333333333333],[0.029166666666666667,0.3333333333333333],[0.029166666666666667,0.3333333333333333],[0.029166666666666667,0.3333333333333333],[0.029166666666666667,0.3333333333333333],[0.029166666666666667,0.3333333333333333],[0.029166666666666667,0.3333333333333333],[0.029166666666666667,0.3333333333333333],[0.029166666666666667,0.3333333333333333],[0.029166666666666667,0.3333333333333333],[0.029166666666666667,0.3333333333333333],[0.029166666666666667,0.3333333333333333],[0.029166666666666667,0.3333333333333333],[0.029166666666666667,0.3333333333333333],[0.029166666666666667,0.3333333333333333],[0.029166666666666667,0.3333333333333333],[0.029166666666666667,0.3333333333333333],[0.029166666666666667,0.3333333333333333],[0.029166666666666667,0.3333333333333333],[0.029166666666666667,0.3333333333333333],[0.029166666666666667,0.3333333333333333],[0.029166666666666667,0.3333333333333333],[0.029166666666666667,0.3333333333333333],[0.029166666666666667,0.3333333333333333],[0.029166666666666667,0.3333333333333333],[0.029166666666666667,0.3333333333333333],[0.029166666666666667,0.3333333333333333],[0.029166666666666667,0.3333333333333333],[0.029166666666666667,0.3333333333333333],[0.029166666666666667,0.3333333333333333],[0.029166666666666667,0.3333333333333333],[0.029166666666666667,0.3333333333333333],[0.029166666666666667,0.3333333333333333],[0.029166666666666667,0.3333333333333333],[0.029166666666666667,0.3333333333333333],[0.029166666666666667,0.3333333333333333],[0.029166666666666667,0.3333333333333333],[0.029166666666666667,0.3333333333333333],[0.029166666666666667,0.3333333333333333],[0.029166666666666667,0.3333333333333333],[0.029166666666666667,0.3333333333333333],[0.029166666666666667,0.3333333333333333],[0.029166666666666667,0.3333333333333333],[0.029166666666666667,0.3333333333333333],[0.029166666666666667,0.3333333333333333],[0.029166666666666667,0.3333333333333333],[0.029166666666666667,0.3333333333333333],[0.029166666666666667,0.3333333333333333],[0.029166666666666667,0.3333333333333333],[0.029166666666666667,0.3333333333333333],[0.029166666666666667,0.3333333333333333],[0.029166666666666667,0.3333333333333333],[0.029166666666666667,0.3333333333333333],[0.029166666666666667,0.3333333333333333],[0.029166666666666667,0.3333333333333333],[0.029166666666666667,0.3333333333333333],[0.029166666666666667,0.3333333333333333],[0.029166666666666667,0.3333333333333333],[0.029166666666666667,0.3333333333333333],[0.029166666666666667,0.3333333333333333],[0.029166666666666667,0.3333333333333333],[0.029166666666666667,0.3333333333333333],[0.029166666666666667,0.3333333333333333],[0.029166666666666667,0.3333333333333333],[0.029166666666666667,0.3333333333333333],[0.029166666666666667,0.3333333333333333],[0.029166666666666667,0.3333333333333333],[0.029166666666666667,0.3333333333333333],[0.029166666666666667,0.3333333333333333],[0.029166666666666667,0.3333333333333333],[0.029166666666666667,0.3333333333333333],[0.029166666666666667,0.3333333333333333],[0.029166666666666667,0.3333333333333333],[0.029166666666666667,0.3333333333333333],[0.029166666666666667,0.3333333333333333],[0.029166666666666667,0.3333333333333333],[0.029166666666666667,0.3333333333333333],[0.029166666666666667,0.3333333333333333],[0.029166666666666667,0.3333333333333333],[0.029166666666666667,0.3333333333333333],[0.029166666666666667,0.3333333333333333],[0.029166666666666667,0.3333333333333333],[0.029166666666666667,0.3333333333333333],[0.029166666666666667,0.3333333333333333],[0.029166666666666667,0.3333333333333333],[0.029166666666666667,0.3333333333333333],[0.029166666666666667,0.3333333333333333],[0.029166666666666667,0.3333333333333333],[0.029166666666666667,0.3333333333333333],[0.029166666666666667,0.3333333333333333],[0.029166666666666667,0.3333333333333333],[0.029166666666666667,0.3333333333333333],[0.029166666666666667,0.3333333333333333],[0.029166666666666667,0.3333333333333333],[0.029166666666666667,0.3333333333333333],[0.029166666666666667,0.3333333333333333],[0.029166666666666667,0.3333333333333333]]","[[0.014687500000000023,0.5037037037037037],[0.014687500000000023,0.5037037037037037],[0.029895833333333382,0.4992592592592593],[0.044375000000000026,0.5035185185185185],[0.05354166666666664,0.5170370370370371],[0.03250000000000005,0.4883333333333334],[-0.0006250000000000236,0.48259259259259263],[0.0016666666666666904,0.3925925925925926],[-0.002395833333333286,0.3199999999999999],[-0.012187500000000047,0.2588888888888888],[-0.013229166666666714,0.2625925925925925],[-0.004375000000000047,0.24888888888888885],[-0.033854166666666664,0.28407407407407403],[-0.05020833333333338,0.2712962962962963],[-0.07302083333333335,0.26444444444444437],[-0.08510416666666672,0.2611111111111111],[-0.08510416666666672,0.2611111111111111],[-0.10864583333333329,0.2490740740740741],[-0.10864583333333329,0.2490740740740741],[-0.07312500000000005,0.28055555555555556],[-0.058333333333333334,0.3501851851851852],[-0.058333333333333334,0.3501851851851852],[-0.06833333333333336,0.4153703703703703],[-0.06833333333333336,0.4153703703703703],[-0.05656249999999995,0.43703703703703706],[-0.05656249999999995,0.43703703703703706],[-0.05395833333333329,0.4527777777777778],[-0.023958333333333335,0.45018518518518524],[-0.023958333333333335,0.45018518518518524],[0.00458333333333331,0.43407407407407406],[0.00458333333333331,0.43407407407407406],[0.028437499999999952,0.4081481481481481],[0.028437499999999952,0.4081481481481481],[0.044166666666666646,0.34092592592592597],[0.044166666666666646,0.34092592592592597],[0.10677083333333333,0.30111111111111116],[0.10677083333333333,0.30111111111111116],[0.07510416666666657,0.33907407407407414],[0.029999999999999954,0.26185185185185184],[0.027499999999999976,0.18518518518518517],[0.027499999999999976,0.18518518518518517],[-0.0005208333333333333,0.09222222222222214],[0.019270833333333334,0.052407407407407326],[0.011666666666666714,0.03092592592592601],[0.004062499999999977,0.009444444444444486],[-0.06427083333333337,0.01444444444444436],[-0.10270833333333336,0.04592592592592584],[-0.12749999999999997,0.029259259259259176],[-0.14614583333333328,-0.0418518518518519],[-0.14958333333333335,0.0003703703703704546],[-0.17385416666666664,0.044444444444444446],[-0.2211458333333333,0.10166666666666663],[-0.2389583333333333,0.12851851851851848],[-0.2905208333333333,0.13796296296296295],[-0.2905208333333333,0.13796296296296295],[-0.3420833333333333,0.14740740740740746],[-0.321875,0.15407407407407417],[-0.26916666666666667,0.15407407407407417],[-0.25718749999999996,0.18370370370370379],[-0.25031249999999994,0.16314814814814818],[-0.2257291666666667,0.10962962962962972],[-0.19906250000000003,0.08351851851851856],[-0.12760416666666666,0.020370370370370372],[-0.14593750000000003,0.001851851851851852],[-0.13052083333333328,0.0007407407407406986],[-0.09927083333333328,-0.046481481481481526],[-0.06510416666666667,-0.08814814814814818],[-0.06531250000000005,-0.12888888888888894],[-0.0655208333333333,-0.16962962962962966],[-0.0655208333333333,-0.16962962962962966],[-0.08041666666666672,-0.1542592592592593],[-0.060000000000000026,-0.16740740740740737],[-0.041666666666666664,-0.207962962962963],[-0.02947916666666662,-0.1911111111111111],[0.013750000000000047,-0.22037037037037038],[0.03177083333333333,-0.19518518518518516],[0.03895833333333331,-0.12370370370370372],[0.027187500000000024,-0.1022222222222222],[0.0453125,-0.08981481481481482],[0.016250000000000025,-0.06129629629629634],[0.016250000000000025,-0.06129629629629634],[0.006979166666666714,-0.038703703703703664],[-0.00927083333333331,0.0338888888888888],[-0.019583333333333286,0.10500000000000008],[-0.035625000000000046,0.1537037037037037],[-0.035625000000000046,0.1537037037037037],[-0.04822916666666662,0.15759259259259265],[-0.04677083333333331,0.15611111111111103],[-0.04041666666666662,0.15111111111111114],[-0.024374999999999977,0.1766666666666666],[-0.026250000000000048,0.2242592592592593],[0.0026041666666666665,0.24944444444444452],[0.03145833333333338,0.27462962962962956],[0.04041666666666662,0.22851851851851848],[0.029895833333333382,0.230925925925926],[0.009687499999999953,0.19407407407407398],[-0.01395833333333331,0.20203703703703707],[-0.016354166666666715,0.14166666666666666],[-0.016354166666666715,0.14166666666666666],[-0.022395833333333334,0.11907407407407399],[-0.022395833333333334,0.11907407407407399],[-0.03572916666666662,0.11148148148148157],[-0.03572916666666662,0.11148148148148157],[-0.10083333333333329,0.12037037037037036],[-0.09718749999999995,0.06925925925925921],[-0.10427083333333335,0.09055555555555551],[-0.08677083333333328,0.08555555555555563],[-0.059583333333333384,0.06055555555555564],[-0.0390625,0.07814814814814823],[0.05166666666666669,0.07111111111111107],[0.13229166666666667,0.08333333333333333],[0.17697916666666677,0.11333333333333341],[0.15635416666666657,0.14240740740740737],[0.18395833333333325,0.11796296296296305],[0.14885416666666676,0.12388888888888884],[0.15625,0.04722222222222222],[0.125,0.04203703703703712],[0.1430208333333333,0.002962962962963005],[0.17468750000000005,-0.019999999999999917],[0.09229166666666658,0.020740740740740823],[0.009895833333333333,0.06148148148148157],[-0.049583333333333354,0.0338888888888888],[-0.036458333333333336,-0.007777777777777862],[-0.07572916666666671,0.028703703703703703],[-0.1045833333333333,0.10111111111111115],[-0.15885416666666666,0.19462962962962968],[-0.20625,0.28944444444444434],[-0.2586458333333333,0.3337037037037038],[-0.2586458333333333,0.3337037037037038],[-0.30833333333333335,0.35851851851851857],[-0.30489583333333337,0.3562962962962963],[-0.34572916666666664,0.3487037037037036],[-0.3797916666666667,0.35722222222222216],[-0.3767708333333334,0.3985185185185186],[-0.32791666666666663,0.39148148148148143],[-0.2607291666666666,0.33537037037037043],[-0.2101041666666667,0.24462962962962967],[-0.15593750000000003,0.14814814814814814],[-0.12562500000000001,0.15222222222222231],[-0.0953125,0.15629629629629627],[-0.0953125,0.15629629629629627],[-0.09083333333333338,0.10444444444444441],[-0.005208333333333333,0.0824074074074074],[0.07052083333333338,0.08462962962962971],[0.09145833333333328,0.04814814814814815],[0.10489583333333338,-0.009999999999999959],[0.11958333333333329,-0.004444444444444402],[0.10979166666666676,-0.028518518518518478],[0.10979166666666676,-0.028518518518518478],[0.10989583333333333,-0.030740740740740784],[0.10989583333333333,-0.030740740740740784],[0.03937499999999995,-0.03462962962962971],[0.03937499999999995,-0.03462962962962971],[0.021145833333333287,-0.15203703703703708],[0.021145833333333287,-0.15203703703703708],[0.03822916666666672,-0.11981481481481479],[0.03822916666666672,-0.11981481481481479],[-0.00302083333333331,-0.13555555555555554],[-0.00302083333333331,-0.13555555555555554],[-0.016354166666666715,-0.16296296296296298],[-0.016354166666666715,-0.16296296296296298],[-0.021458333333333357,-0.1985185185185185],[-0.021458333333333357,-0.1985185185185185],[-0.044270833333333336,-0.17462962962962966],[-0.044270833333333336,-0.17462962962962966],[-0.08666666666666671,-0.1653703703703704],[-0.07531249999999995,-0.09833333333333337],[-0.07531249999999995,-0.09833333333333337],[-0.09718749999999995,-0.10333333333333336],[-0.03718750000000005,-0.11296296296296296],[-0.03718750000000005,-0.11296296296296296],[-0.02947916666666662,-0.009074074074074031],[-0.030729166666666665,-0.03777777777777774],[-0.008541666666666715,-0.01185185185185181],[-0.004375000000000047,0.0014814814814813973],[-0.017812500000000023,-0.02555555555555547],[-0.00604166666666662,-0.09037037037037039],[0.011041666666666691,-0.1698148148148148],[0.009062500000000048,-0.2537037037037037],[0.02666666666666669,-0.22166666666666665],[0.016458333333333287,-0.2264814814814815],[-0.014374999999999952,-0.1925925925925926],[-0.02677083333333338,-0.18185185185185182],[-0.046875,-0.17037037037037037],[-0.06697916666666662,-0.1588888888888889],[-0.06437499999999995,-0.06444444444444447],[-0.08260416666666662,-0.0005555555555554713],[-0.10614583333333331,0.07796296296296301],[-0.1171875,0.15203703703703708],[-0.11854166666666661,0.1527777777777778],[-0.11989583333333335,0.15351851851851847],[-0.12010416666666662,0.10796296296296289],[-0.14854166666666668,0.1124074074074075],[-0.1502083333333334,0.08796296296296297],[-0.15187499999999995,0.06351851851851843],[-0.134375,0.05055555555555547],[-0.09604166666666672,0.06814814814814807],[-0.06302083333333333,0.07888888888888893],[-0.042499999999999954,0.09407407407407399],[-0.03104166666666662,0.06055555555555564],[-0.019583333333333286,0.027037037037037078],[-0.005937500000000048,-0.006481481481481481],[0.04385416666666669,-0.06222222222222226],[0.051874999999999956,-0.02240740740740745],[0.059895833333333336,0.017407407407407365],[0.059895833333333336,0.017407407407407365],[0.09427083333333333,-0.10481481481481486],[0.09427083333333333,-0.10481481481481486],[0.11624999999999991,-0.13703703703703704],[0.12645833333333342,-0.17629629629629628],[0.18312499999999995,-0.2351851851851852],[0.18135416666666657,-0.18222222222222217],[0.1828125,-0.13777777777777775],[0.20010416666666658,-0.07388888888888885],[0.18125,0.012222222222222264],[0.20697916666666671,-0.004814814814814857],[0.2048958333333334,-0.07166666666666664],[0.1853125000000001,-0.016111111111111194],[0.17802083333333343,-0.05055555555555547],[0.1944791666666667,-0.09259259259259259],[0.17354166666666657,-0.102962962962963],[0.17583333333333329,-0.1455555555555556],[0.17479166666666662,-0.17962962962962964],[0.15572916666666667,-0.25166666666666665],[0.13666666666666671,-0.3237037037037037],[0.15104166666666666,-0.4020370370370371],[0.16208333333333325,-0.40240740740740744],[0.12760416666666666,-0.42962962962962964],[0.09322916666666667,-0.45685185185185184],[0.03083333333333336,-0.4448148148148148],[-0.040625,-0.4448148148148148],[-0.049583333333333354,-0.43555555555555553],[-0.058437500000000024,-0.4262962962962963],[-0.035104166666666714,-0.4137037037037037],[-0.011354166666666643,-0.4072222222222222],[-0.04489583333333336,-0.38981481481481484],[-0.04729166666666664,-0.40055555555555555],[-0.03583333333333331,-0.37777777777777777],[-0.0005208333333333333,-0.3616666666666667],[0.03302083333333338,-0.3374074074074074],[0.10062499999999991,-0.32814814814814813],[0.1414583333333333,-0.3538888888888889],[0.18229166666666666,-0.37962962962962965],[0.18645833333333334,-0.3696296296296297],[0.19020833333333323,-0.35351851851851845],[0.18708333333333324,-0.31722222222222224],[0.1990624999999999,-0.30166666666666664],[0.23145833333333338,-0.3181481481481482],[0.23145833333333338,-0.3181481481481482],[0.23302083333333337,-0.337037037037037],[0.24343750000000006,-0.3316666666666667],[0.2267708333333334,-0.33925925925925926],[0.2091666666666666,-0.3387037037037037],[0.19760416666666672,-0.29500000000000004],[0.2099999999999999,-0.26425925925925925],[0.22697916666666676,-0.24759259259259256],[0.24427083333333333,-0.23037037037037034],[0.24645833333333325,-0.19240740740740736],[0.22218749999999995,-0.13907407407407413],[0.2048958333333334,-0.07666666666666662],[0.2048958333333334,-0.07666666666666662],[0.20187499999999994,-0.06444444444444447],[0.19833333333333342,0.0003703703703704546],[0.20750000000000005,0.03944444444444436],[0.2150000000000001,0.057962962962962876],[0.19760416666666672,0.06277777777777774],[0.19760416666666672,0.06277777777777774],[0.1756249999999999,0.0816666666666667],[0.1616666666666667,0.07222222222222222],[0.16656250000000009,0.04259259259259259],[0.18552083333333325,0.022592592592592678],[0.19489583333333324,0.0294444444444444],[0.22218749999999995,0.031111111111111027],[0.23666666666666672,0.01592592592592597],[0.2384375000000001,0.026481481481481398],[0.23156249999999995,-0.006111111111111027],[0.24958333333333324,-0.026111111111111154],[0.27625000000000005,0.01592592592592597],[0.2907291666666666,0.0507407407407407],[0.2934375000000001,0.069074074074074],[0.2934375000000001,0.069074074074074],[0.3162499999999999,0.07407407407407407],[0.3162499999999999,0.07407407407407407],[0.3294791666666666,0.09518518518518514],[0.3294791666666666,0.09518518518518514],[0.31666666666666665,0.0955555555555556],[0.34614583333333326,0.0764814814814814],[0.34614583333333326,0.0764814814814814],[0.3337500000000001,0.1270370370370371],[0.3337500000000001,0.1270370370370371],[0.3337500000000001,0.15351851851851847],[0.3337500000000001,0.15351851851851847],[0.3388541666666666,0.19611111111111107],[0.3388541666666666,0.19611111111111107],[0.3585416666666667,0.1264814814814814],[0.3585416666666667,0.1264814814814814],[0.34406249999999994,0.09666666666666675],[0.34406249999999994,0.09666666666666675],[0.32156250000000003,0.10555555555555556],[0.3142708333333334,0.05537037037037033],[0.3234375,0.012222222222222264],[0.3234375,0.012222222222222264],[0.3407291666666666,-0.005000000000000084],[0.2959374999999999,-0.042407407407407366],[0.2959374999999999,-0.042407407407407366],[0.29177083333333326,-0.12092592592592595],[0.29177083333333326,-0.12092592592592595],[0.278125,-0.14500000000000002],[0.278125,-0.14500000000000002],[0.26239583333333344,-0.17],[0.26239583333333344,-0.17],[0.2627083333333334,-0.13148148148148148],[0.2627083333333334,-0.13148148148148148],[0.2795833333333334,-0.16722222222222224],[0.2795833333333334,-0.16722222222222224],[0.2777083333333332,-0.2044444444444444],[0.2686458333333334,-0.12888888888888894],[0.27395833333333336,-0.13555555555555554],[0.27395833333333336,-0.13555555555555554],[0.27927083333333325,-0.14222222222222225],[0.27927083333333325,-0.14222222222222225],[0.30614583333333345,-0.13185185185185183],[0.3329166666666666,-0.16833333333333328],[0.3929166666666667,-0.24092592592592596],[0.4478125000000001,-0.3227777777777778],[0.45625,-0.442037037037037],[0.45625,-0.442037037037037],[0.4930208333333333,-0.5120370370370371],[0.5585416666666667,-0.5511111111111111],[0.5816666666666668,-0.6431481481481481],[0.5767708333333333,-0.6968518518518518],[0.5892708333333334,-0.7561111111111112],[0.6063541666666665,-0.8005555555555556],[0.6297916666666665,-0.8099999999999999],[0.6376041666666665,-0.7316666666666667],[0.614375,-0.7150000000000001],[0.5983333333333334,-0.6742592592592593],[0.5657291666666666,-0.6411111111111111],[0.5248958333333335,-0.6012962962962963],[0.4982291666666666,-0.582037037037037],[0.4879166666666668,-0.5688888888888889],[0.4476041666666667,-0.5853703703703704],[0.4476041666666667,-0.5853703703703704],[0.40729166666666666,-0.6018518518518519],[0.40729166666666666,-0.6018518518518519],[0.34614583333333326,-0.5859259259259259],[0.2660416666666668,-0.6331481481481481],[0.22260416666666671,-0.6396296296296295],[0.17916666666666667,-0.6461111111111111],[0.1553124999999999,-0.6083333333333333],[0.1306250000000001,-0.6087037037037036],[0.09989583333333343,-0.525],[0.06916666666666677,-0.4412962962962963],[0.07374999999999995,-0.4035185185185185],[0.041666666666666664,-0.362962962962963],[0.025416666666666643,-0.3714814814814815],[0.02802083333333331,-0.35055555555555556],[0.0140625,-0.290925925925926],[-0.006458333333333381,-0.24370370370370376],[-0.015416666666666618,-0.22092592592592594],[-0.019479166666666714,-0.2212962962962963],[-0.0010416666666666667,-0.28111111111111114],[0.01739583333333338,-0.34092592592592597],[0.000416666666666643,-0.3277777777777778],[0.026145833333333358,-0.3001851851851852],[0.05260416666666667,-0.2675925925925926],[0.06291666666666665,-0.2627777777777777],[0.0775000000000001,-0.29018518518518516],[0.11541666666666663,-0.3164814814814814],[0.12770833333333323,-0.30888888888888894],[0.13541666666666666,-0.3061111111111111],[0.14854166666666657,-0.25018518518518523],[0.1616666666666667,-0.19425925925925921],[0.16979166666666667,-0.13777777777777775],[0.1742708333333333,-0.1022222222222222],[0.18302083333333338,-0.03833333333333342],[0.203125,-0.024629629629629547],[0.2319791666666667,-0.0012962962962963806],[0.24166666666666667,0.07370370370370362],[0.24364583333333342,0.11925925925925922],[0.2453125,0.19277777777777783],[0.24614583333333329,0.2103703703703704],[0.24697916666666658,0.227962962962963],[0.2772916666666667,0.23074074074074077],[0.29833333333333345,0.23796296296296296],[0.3,0.2514814814814814],[0.3,0.2514814814814814],[0.30406250000000007,0.2625925925925925],[0.30447916666666663,0.29296296296296304],[0.3051041666666668,0.3044444444444444],[0.31916666666666677,0.3257407407407407],[0.34562499999999996,0.322037037037037],[0.3397916666666667,0.331111111111111],[0.3576041666666666,0.31814814814814807],[0.3636458333333332,0.32759259259259255],[0.37395833333333334,0.3322222222222222],[0.39864583333333337,0.2972222222222222],[0.36729166666666657,0.3274074074074073],[0.3408333333333334,0.34685185185185174],[0.36062500000000003,0.32166666666666677],[0.35968749999999994,0.3077777777777779],[0.34739583333333335,0.3253703703703705],[0.3265625,0.28462962962962973],[0.2820833333333333,0.26592592592592595],[0.2397916666666667,0.24388888888888896],[0.1834374999999999,0.25925925925925924],[0.12708333333333333,0.27462962962962956],[0.1125,0.2764814814814814],[0.09666666666666662,0.2698148148148149],[0.03312499999999995,0.29259259259259257],[-0.004375000000000047,0.27759259259259256],[-0.02520833333333338,0.2579629629629629],[-0.026145833333333358,0.29518518518518516],[-0.03239583333333336,0.33259259259259266],[-0.04083333333333338,0.37333333333333335],[0.0006250000000000236,0.39574074074074084],[0.03156249999999995,0.4148148148148148],[0.071875,0.41870370370370374],[0.11218750000000005,0.4225925925925927],[0.11937499999999991,0.43148148148148147],[0.11906249999999995,0.4396296296296296],[0.13114583333333343,0.45759259259259266],[0.14322916666666666,0.47555555555555545],[0.17302083333333323,0.4788888888888889],[0.17302083333333323,0.4788888888888889],[0.18562500000000004,0.47314814814814815],[0.18562500000000004,0.47314814814814815],[0.17999999999999997,0.4457407407407408],[0.18489583333333334,0.42166666666666675],[0.18489583333333334,0.42166666666666675],[0.1584374999999999,0.42537037037037045],[0.1584374999999999,0.42537037037037045],[0.14249999999999996,0.4246296296296295],[0.15916666666666662,0.4168518518518519],[0.15916666666666662,0.4168518518518519],[0.18333333333333332,0.40981481481481474],[0.18333333333333332,0.40981481481481474],[0.1787499999999999,0.39592592592592585],[0.1787499999999999,0.39592592592592585],[0.14291666666666672,0.3464814814814815],[0.14291666666666672,0.3464814814814815],[0.12625000000000006,0.3492592592592593],[0.12625000000000006,0.3492592592592593],[0.11541666666666663,0.33851851851851844],[0.11541666666666663,0.33851851851851844],[0.08864583333333324,0.3227777777777777],[0.08864583333333324,0.3227777777777777],[0.04697916666666669,0.30277777777777776],[0.029166666666666667,0.2814814814814815],[0.029166666666666667,0.2814814814814815],[0.000833333333333286,0.2646296296296296],[-0.00947916666666669,0.2572222222222222],[-0.00947916666666669,0.2572222222222222],[-0.014999999999999977,0.22592592592592592],[-0.014999999999999977,0.22592592592592592],[-0.004375000000000047,0.2124074074074075],[-0.004375000000000047,0.2124074074074075],[0.03125,0.1787037037037037],[0.03125,0.1787037037037037],[0.04833333333333331,0.1227777777777777],[0.025625000000000023,0.07148148148148152],[0.010104166666666714,0.03555555555555564],[0.00947916666666669,0.003888888888888931],[-0.0002083333333333807,-0.013888888888888888],[-0.009895833333333333,-0.03166666666666671],[-0.016250000000000025,-0.08555555555555554],[-0.027395833333333286,-0.11555555555555551],[-0.046875,-0.10777777777777775],[-0.060104166666666715,-0.04425925925925922],[-0.08031250000000002,-0.05],[-0.049374999999999974,-0.03777777777777774],[-0.05,-0.025185185185185227],[-0.050625000000000024,-0.012592592592592508],[-0.049583333333333354,-0.014629629629629588],[-0.013854166666666619,-0.04259259259259259],[0.0046875,-0.04814814814814815],[0.02322916666666662,-0.053703703703703705],[-0.024166666666666715,-0.10314814814814813],[-0.07729166666666672,-0.12333333333333338],[-0.10604166666666662,-0.10666666666666672],[-0.13479166666666664,-0.09000000000000004],[-0.13322916666666665,-0.0809259259259259],[-0.13166666666666665,-0.07185185185185188],[-0.10541666666666671,-0.05537037037037033],[-0.11385416666666662,-0.012962962962962963],[-0.13072916666666667,0.016666666666666666],[-0.1476041666666667,0.046296296296296294],[-0.1094791666666667,0.05],[-0.07250000000000002,0.037037037037037035],[-0.06302083333333333,0.029814814814814856],[-0.04895833333333333,0.043703703703703745],[-0.05593750000000005,0.04259259259259259],[-0.06291666666666665,0.04148148148148144],[-0.06656249999999998,0.00592592592592601],[-0.07479166666666662,-0.072037037037037],[-0.06458333333333334,-0.06740740740740736],[-0.06843750000000005,-0.14574074074074073],[-0.07052083333333338,-0.2146296296296296],[-0.06541666666666662,-0.22722222222222221],[-0.06322916666666671,-0.22870370370370371],[-0.065625,-0.2512962962962963],[-0.04104166666666664,-0.25925925925925924],[-0.016458333333333287,-0.26722222222222225],[-0.04708333333333338,-0.2564814814814815],[-0.08104166666666662,-0.18518518518518517],[-0.11000000000000003,-0.18185185185185182],[-0.11000000000000003,-0.18185185185185182],[-0.10229166666666671,-0.07925925925925928],[-0.12302083333333336,-0.00592592592592601],[-0.10302083333333331,-0.013888888888888888],[-0.08302083333333338,-0.021851851851851768],[-0.04802083333333336,-0.023148148148148147],[-0.023958333333333335,-0.020555555555555598],[-0.025416666666666643,-0.010925925925925884],[0.00635416666666669,-0.0025925925925925505],[0.04375,-0.06388888888888888],[0.06614583333333333,-0.1270370370370371],[0.06833333333333323,-0.17907407407407405],[0.12864583333333332,-0.18314814814814812],[0.11770833333333333,-0.16425925925925924],[0.09656250000000005,-0.17981481481481484],[0.04572916666666664,-0.1853703703703704],[0.002916666666666619,-0.20259259259259255],[-0.014374999999999952,-0.22685185185185186],[-0.03166666666666664,-0.2511111111111112],[-0.06031249999999998,-0.19500000000000003],[-0.0889583333333333,-0.1388888888888889],[-0.11229166666666662,-0.15037037037037035],[-0.15239583333333329,-0.20703703703703705],[-0.15593750000000003,-0.21129629629629634],[-0.13781249999999995,-0.152962962962963],[-0.11124999999999995,-0.13555555555555554],[-0.09572916666666664,-0.11481481481481481],[-0.06572916666666669,-0.15203703703703708],[-0.04520833333333331,-0.1764814814814815],[-0.01427083333333338,-0.2309259259259259],[-0.01427083333333338,-0.2309259259259259],[0.025937499999999978,-0.2651851851851852],[0.027187500000000024,-0.259074074074074],[0.05552083333333328,-0.20129629629629628],[0.0775000000000001,-0.2064814814814815],[0.11927083333333334,-0.2662962962962963],[0.16729166666666656,-0.30185185185185187],[0.1959374999999999,-0.31851851851851853]]","[[0.014687500000000023,0.5037037037037037,0.000300000000741818],[0.014687500000000023,0.5037037037037037,0.04099999999999682],[0.029895833333333382,0.4992592592592593,0.04830000000074364],[0.044375000000000026,0.5035185185185185,0.06450000000000244],[0.05354166666666664,0.5170370370370371,0.07810000000149131],[0.03250000000000005,0.4883333333333334,0.0934000000022337],[-0.0006250000000000236,0.48259259259259263,0.1123000000007437],[0.0016666666666666904,0.3925925925925926,0.12680000000074187],[-0.002395833333333286,0.3199999999999999,0.14490000000223802],[-0.012187500000000047,0.2588888888888888,0.16310000000149216],[-0.013229166666666714,0.2625925925925925,0.17790000000223216],[-0.004375000000000047,0.24888888888888885,0.19330000000074676],[-0.033854166666666664,0.28407407407407403,0.21340000000223824],[-0.05020833333333338,0.2712962962962963,0.22670000000297819],[-0.07302083333333335,0.26444444444444437,0.24499999999999744],[-0.08510416666666672,0.2611111111111111,0.259999999999998],[-0.08510416666666672,0.2611111111111111,0.27649999999999864],[-0.10864583333333329,0.2490740740740741,0.2974000000022343],[-0.10864583333333329,0.2490740740740741,0.3100000000000023],[-0.07312500000000005,0.28055555555555556,0.3267000000029796],[-0.058333333333333334,0.3501851851851852,0.34810000000148733],[-0.058333333333333334,0.3501851851851852,0.35999999999999943],[-0.06833333333333336,0.4153703703703703,0.37670000000297676],[-0.06833333333333336,0.4153703703703703,0.3933000000007425],[-0.05656249999999995,0.43703703703703706,0.4154000000022364],[-0.05656249999999995,0.43703703703703706,0.42680000000074614],[-0.05395833333333329,0.4527777777777778,0.44320000000298165],[-0.023958333333333335,0.45018518518518524,0.4632000000029777],[-0.023958333333333335,0.45018518518518524,0.47660000000148983],[0.00458333333333331,0.43407407407407406,0.4964000000022324],[0.00458333333333331,0.43407407407407406,0.509999999999998],[0.028437499999999952,0.4081481481481481,0.5267000000029824],[0.028437499999999952,0.4081481481481481,0.5434000000022365],[0.044166666666666646,0.34092592592592597,0.5630000000000024],[0.044166666666666646,0.34092592592592597,0.5766000000014913],[0.10677083333333333,0.30111111111111116,0.5932000000029802],[0.10677083333333333,0.30111111111111116,0.6099999999999994],[0.07510416666666657,0.33907407407407414,0.6265000000000001],[0.029999999999999954,0.26185185185185184,0.6479000000022381],[0.027499999999999976,0.18518518518518517,0.6661000000014923],[0.027499999999999976,0.18518518518518517,0.6766000000014927],[-0.0005208333333333333,0.09222222222222214,0.6932000000029817],[0.019270833333333334,0.052407407407407326,0.7123000000007451],[0.011666666666666714,0.03092592592592601,0.7269000000022316],[0.004062499999999977,0.009444444444444486,0.7434000000022323],[-0.06427083333333337,0.01444444444444436,0.7598000000007445],[-0.10270833333333336,0.04592592592592584,0.7764999999999986],[-0.12749999999999997,0.029259259259259176,0.7932000000029831],[-0.14614583333333328,-0.0418518518518519,0.8098000000007417],[-0.14958333333333335,0.0003703703703704546,0.8266000000014913],[-0.17385416666666664,0.044444444444444446,0.8456000000014896],[-0.2211458333333333,0.10166666666666663,0.859800000000746],[-0.2389583333333333,0.12851851851851848,0.8765000000000001],[-0.2905208333333333,0.13796296296296295,0.8932000000029774],[-0.2905208333333333,0.13796296296296295,0.9099000000022315],[-0.3420833333333333,0.14740740740740746,0.9266000000014927],[-0.321875,0.15407407407407417,0.945200000002977],[-0.26916666666666667,0.15407407407407417,0.9598000000007474],[-0.25718749999999996,0.18370370370370379,0.9765000000000015],[-0.25031249999999994,0.16314814814814818,0.9932000000029788],[-0.2257291666666667,0.10962962962962972,1.0098000000007445],[-0.19906250000000003,0.08351851851851856,1.0264999999999986],[-0.12760416666666666,0.020370370370370372,1.0452000000029784],[-0.14593750000000003,0.001851851851851852,1.0599000000022372],[-0.13052083333333328,0.0007407407407406986,1.076500000000003],[-0.09927083333333328,-0.046481481481481526,1.0931000000014919],[-0.06510416666666667,-0.08814814814814818,1.112800000000746],[-0.06531250000000005,-0.12888888888888894,1.1265],[-0.0655208333333333,-0.16962962962962966,1.1495000000000033],[-0.0655208333333333,-0.16962962962962966,1.1669000000022365],[-0.08041666666666672,-0.1542592592592593,1.1816000000014881],[-0.060000000000000026,-0.16740740740740737,1.1964000000022352],[-0.041666666666666664,-0.207962962962963,1.2099000000022357],[-0.02947916666666662,-0.1911111111111111,1.2265000000000015],[0.013750000000000047,-0.22037037037037038,1.2432000000029788],[0.03177083333333333,-0.19518518518518516,1.261800000000747],[0.03895833333333331,-0.12370370370370372,1.2764999999999986],[0.027187500000000024,-0.1022222222222222,1.2933000000007482],[0.0453125,-0.08981481481481482,1.3099000000022372],[0.016250000000000025,-0.06129629629629634,1.3266000000014913],[0.016250000000000025,-0.06129629629629634,1.3433000000007453],[0.006979166666666714,-0.038703703703703664,1.3599000000022343],[-0.00927083333333331,0.0338888888888888,1.3765],[-0.019583333333333286,0.10500000000000008,1.3932000000029774],[-0.035625000000000046,0.1537037037037037,1.4099000000022315],[-0.035625000000000046,0.1537037037037037,1.4266000000014927],[-0.04822916666666662,0.15759259259259265,1.4455000000000027],[-0.04677083333333331,0.15611111111111103,1.4600000000000009],[-0.04041666666666662,0.15111111111111114,1.4766000000014898],[-0.024374999999999977,0.1766666666666666,1.493300000000744],[-0.026250000000000048,0.2242592592592593,1.5119000000022353],[0.0026041666666666665,0.24944444444444452,1.5267000000029824],[0.03145833333333338,0.27462962962962956,1.54510000000149],[0.04041666666666662,0.22851851851851848,1.5600000000000023],[0.029895833333333382,0.230925925925926,1.578700000002982],[0.009687499999999953,0.19407407407407398,1.5933000000007453],[-0.01395833333333331,0.20203703703703707,1.6099999999999994],[-0.016354166666666715,0.14166666666666666,1.6306000000014933],[-0.016354166666666715,0.14166666666666666,1.6433000000007425],[-0.022395833333333334,0.11907407407407399,1.6599999999999966],[-0.022395833333333334,0.11907407407407399,1.6787000000029835],[-0.03572916666666662,0.11148148148148157,1.6934000000022351],[-0.03572916666666662,0.11148148148148157,1.7100000000000009],[-0.10083333333333329,0.12037037037037036,1.7293000000007481],[-0.09718749999999995,0.06925925925925921,1.7454999999999998],[-0.10427083333333335,0.09055555555555551,1.759999999999998],[-0.08677083333333328,0.08555555555555563,1.7787000000029778],[-0.059583333333333384,0.06055555555555564,1.7933000000007482],[-0.0390625,0.07814814814814823,1.8100000000000023],[0.05166666666666669,0.07111111111111107,1.8266000000014913],[0.13229166666666667,0.08333333333333333,1.8452000000029827],[0.17697916666666677,0.11333333333333341,1.8599999999999994],[0.15635416666666657,0.14240740740740737,1.8767000000029768],[0.18395833333333325,0.11796296296296305,1.893100000001489],[0.14885416666666676,0.12388888888888884,1.911900000002234],[0.15625,0.04722222222222222,1.9264999999999972],[0.125,0.04203703703703712,1.9433000000007468],[0.1430208333333333,0.002962962962963005,1.9599000000022357],[0.17468750000000005,-0.019999999999999917,1.9765000000000015],[0.09229166666666658,0.020740740740740823,1.9932000000029788],[0.009895833333333333,0.06148148148148157,2.012100000001489],[-0.049583333333333354,0.0338888888888888,2.0268000000007476],[-0.036458333333333336,-0.007777777777777862,2.0463000000007483],[-0.07572916666666671,0.028703703703703703,2.0598000000007417],[-0.1045833333333333,0.10111111111111115,2.076500000000003],[-0.15885416666666666,0.19462962962962968,2.093100000001492],[-0.20625,0.28944444444444434,2.109800000000746],[-0.2586458333333333,0.3337037037037038,2.1265],[-0.2586458333333333,0.3337037037037038,2.1433000000007425],[-0.30833333333333335,0.35851851851851857,2.159800000000743],[-0.30489583333333337,0.3562962962962963,2.176499999999997],[-0.34572916666666664,0.3487037037037036,2.1931000000014933],[-0.3797916666666667,0.35722222222222216,2.2116000000014893],[-0.3767708333333334,0.3985185185185186,2.226700000002978],[-0.32791666666666663,0.39148148148148143,2.243300000000744],[-0.2607291666666666,0.33537037037037043,2.259999999999998],[-0.2101041666666667,0.24462962962962967,2.278500000000001],[-0.15593750000000003,0.14814814814814814,2.2935000000000016],[-0.12562500000000001,0.15222222222222231,2.3115000000000023],[-0.0953125,0.15629629629629627,2.3266000000014913],[-0.0953125,0.15629629629629627,2.3455000000000013],[-0.09083333333333338,0.10444444444444441,2.3599000000022343],[-0.005208333333333333,0.0824074074074074,2.3767000000029768],[0.07052083333333338,0.08462962962962971,2.3932000000029774],[0.09145833333333328,0.04814814814814815,2.4121000000014874],[0.10489583333333338,-0.009999999999999959,2.4272000000029834],[0.11958333333333329,-0.004444444444444402,2.4447000000029817],[0.10979166666666676,-0.028518518518518478,2.460000000000001],[0.10979166666666676,-0.028518518518518478,2.4794000000022365],[0.10989583333333333,-0.030740740740740784,2.4934000000022323],[0.10989583333333333,-0.030740740740740784,2.509900000002233],[0.03937499999999995,-0.03462962962962971,2.5309000000022337],[0.03937499999999995,-0.03462962962962971,2.543300000000748],[0.021145833333333287,-0.15203703703703708,2.559900000002237],[0.021145833333333287,-0.15203703703703708,2.579400000002238],[0.03822916666666672,-0.11981481481481479,2.5933000000007453],[0.03822916666666672,-0.11981481481481479,2.6099999999999994],[-0.00302083333333331,-0.13555555555555554,2.631999999999998],[-0.00302083333333331,-0.13555555555555554,2.643400000002238],[-0.016354166666666715,-0.16296296296296298,2.6599999999999966],[-0.016354166666666715,-0.16296296296296298,2.6766000000014927],[-0.021458333333333357,-0.1985185185185185,2.6987000000029795],[-0.021458333333333357,-0.1985185185185185,2.7099000000022357],[-0.044270833333333336,-0.17462962962962966,2.7265000000000015],[-0.044270833333333336,-0.17462962962962966,2.743200000002979],[-0.08666666666666671,-0.1653703703703704,2.7598000000007445],[-0.07531249999999995,-0.09833333333333337,2.780600000001492],[-0.07531249999999995,-0.09833333333333337,2.793200000002983],[-0.09718749999999995,-0.10333333333333336,2.8098000000007417],[-0.03718750000000005,-0.11296296296296296,2.8316000000014867],[-0.03718750000000005,-0.11296296296296296,2.8432000000029802],[-0.02947916666666662,-0.009074074074074031,2.859800000000746],[-0.030729166666666665,-0.03777777777777774,2.8769000000022373],[-0.008541666666666715,-0.01185185185185181,2.8932000000029774],[-0.004375000000000047,0.0014814814814813973,2.9129999999999967],[-0.017812500000000023,-0.02555555555555547,2.927400000002237],[-0.00604166666666662,-0.09037037037037039,2.9454000000022376],[0.011041666666666691,-0.1698148148148148,2.960000000000001],[0.009062500000000048,-0.2537037037037037,2.9764000000022364],[0.02666666666666669,-0.22166666666666665,2.9931000000014905],[0.016458333333333287,-0.2264814814814815,3.009900000002233],[-0.014374999999999952,-0.1925925925925926,3.0264999999999986],[-0.02677083333333338,-0.18185185185185182,3.045700000002981],[-0.046875,-0.17037037037037037,3.0598000000007417],[-0.06697916666666662,-0.1588888888888889,3.076400000002238],[-0.06437499999999995,-0.06444444444444447,3.0932000000029802],[-0.08260416666666662,-0.0005555555555554713,3.1119000000022368],[-0.10614583333333331,0.07796296296296301,3.1265],[-0.1171875,0.15203703703703708,3.1456000000014868],[-0.11854166666666661,0.1527777777777778,3.159800000000743],[-0.11989583333333335,0.15351851851851847,3.176499999999997],[-0.12010416666666662,0.10796296296296289,3.1933000000007468],[-0.14854166666666668,0.1124074074074075,3.2098000000007474],[-0.1502083333333334,0.08796296296296297,3.2264000000022364],[-0.15187499999999995,0.06351851851851843,3.2439999999999998],[-0.134375,0.05055555555555547,3.259900000002233],[-0.09604166666666672,0.06814814814814807,3.2764999999999986],[-0.06302083333333333,0.07888888888888893,3.293200000002983],[-0.042499999999999954,0.09407407407407399,3.309900000002237],[-0.03104166666666662,0.06055555555555564,3.326500000000003],[-0.019583333333333286,0.027037037037037078,3.3459000000022314],[-0.005937500000000048,-0.006481481481481481,3.359800000000746],[0.04385416666666669,-0.06222222222222226,3.3765],[0.051874999999999956,-0.02240740740740745,3.393100000001489],[0.059895833333333336,0.017407407407407365,3.409800000000743],[0.059895833333333336,0.017407407407407365,3.4266000000014927],[0.09427083333333333,-0.10481481481481486,3.443400000002235],[0.09427083333333333,-0.10481481481481486,3.4598000000007474],[0.11624999999999991,-0.13703703703703704,3.47660000000149],[0.12645833333333342,-0.17629629629629628,3.493200000002979],[0.18312499999999995,-0.2351851851851852,3.5135000000000005],[0.18135416666666657,-0.18222222222222217,3.5286000000014894],[0.1828125,-0.13777777777777775,3.5464000000022367],[0.20010416666666658,-0.07388888888888885,3.561800000000744],[0.18125,0.012222222222222264,3.576500000000003],[0.20697916666666671,-0.004814814814814857,3.595400000002236],[0.2048958333333334,-0.07166666666666664,3.6108000000007436],[0.1853125000000001,-0.016111111111111194,3.6266000000014884],[0.17802083333333343,-0.05055555555555547,3.6459000000022357],[0.1944791666666667,-0.09259259259259259,3.6617000000029805],[0.17354166666666657,-0.102962962962963,3.676700000002981],[0.17583333333333329,-0.1455555555555556,3.6933000000007468],[0.17479166666666662,-0.17962962962962964,3.7139999999999986],[0.15572916666666667,-0.25166666666666665,3.727800000000748],[0.13666666666666671,-0.3237037037037037,3.7434000000022323],[0.15104166666666666,-0.4020370370370371,3.762100000001489],[0.16208333333333325,-0.40240740740740744,3.7768000000007476],[0.12760416666666666,-0.42962962962962964,3.793300000000748],[0.09322916666666667,-0.45685185185185184,3.813200000002979],[0.03083333333333336,-0.4448148148148148,3.8268000000007447],[-0.040625,-0.4448148148148148,3.8433000000007453],[-0.049583333333333354,-0.43555555555555553,3.8599000000022343],[-0.058437500000000024,-0.4262962962962963,3.8796000000014885],[-0.035104166666666714,-0.4137037037037037,3.8933000000007425],[-0.011354166666666643,-0.4072222222222222,3.910100000001492],[-0.04489583333333336,-0.38981481481481484,3.9266000000014927],[-0.04729166666666664,-0.40055555555555555,3.946300000000747],[-0.03583333333333331,-0.37777777777777777,3.960000000000001],[-0.0005208333333333333,-0.3616666666666667,3.976700000002978],[0.03302083333333338,-0.3374074074074074,3.9955],[0.10062499999999991,-0.32814814814814813,4.012300000000742],[0.1414583333333333,-0.3538888888888889,4.026800000000748],[0.18229166666666666,-0.37962962962962965,4.046900000002232],[0.18645833333333334,-0.3696296296296297,4.060100000001491],[0.19020833333333323,-0.35351851851851845,4.078800000000747],[0.18708333333333324,-0.31722222222222224,4.093100000001492],[0.1990624999999999,-0.30166666666666664,4.109800000000746],[0.23145833333333338,-0.3181481481481482,4.1265],[0.23145833333333338,-0.3181481481481482,4.1433000000007425],[0.23302083333333337,-0.337037037037037,4.159800000000743],[0.24343750000000006,-0.3316666666666667,4.176700000002981],[0.2267708333333334,-0.33925925925925926,4.193100000001493],[0.2091666666666666,-0.3387037037037037,4.212300000000745],[0.19760416666666672,-0.29500000000000004,4.2265000000000015],[0.2099999999999999,-0.26425925925925925,4.2457000000029765],[0.22697916666666676,-0.24759259259259256,4.259900000002233],[0.24427083333333333,-0.23037037037037034,4.276900000002236],[0.24645833333333325,-0.19240740740740736,4.293200000002983],[0.22218749999999995,-0.13907407407407413,4.309800000000742],[0.2048958333333334,-0.07666666666666662,4.326400000002238],[0.2048958333333334,-0.07666666666666662,4.34320000000298],[0.20187499999999994,-0.06444444444444447,4.359700000002981],[0.19833333333333342,0.0003703703703704546,4.3765],[0.20750000000000005,0.03944444444444436,4.393100000001489],[0.2150000000000001,0.057962962962962876,4.409800000000743],[0.19760416666666672,0.06277777777777774,4.431800000000742],[0.19760416666666672,0.06277777777777774,4.443700000002977],[0.1756249999999999,0.0816666666666667,4.459800000000747],[0.1616666666666667,0.07222222222222222,4.476400000002236],[0.16656250000000009,0.04259259259259259,4.4931000000014905],[0.18552083333333325,0.022592592592592678,4.510300000000747],[0.19489583333333324,0.0294444444444444,4.526499999999999],[0.22218749999999995,0.031111111111111027,4.543200000002983],[0.23666666666666672,0.01592592592592597,4.560100000001491],[0.2384375000000001,0.026481481481481398,4.576400000002238],[0.23156249999999995,-0.006111111111111027,4.593300000000745],[0.24958333333333324,-0.026111111111111154,4.609800000000746],[0.27625000000000005,0.01592592592592597,4.626400000002235],[0.2907291666666666,0.0507407407407407,4.643600000001491],[0.2934375000000001,0.069074074074074,4.659800000000743],[0.2934375000000001,0.069074074074074,4.676499999999997],[0.3162499999999999,0.07407407407407407,4.693200000002982],[0.3162499999999999,0.07407407407407407,4.709800000000747],[0.3294791666666666,0.09518518518518514,4.7265000000000015],[0.3294791666666666,0.09518518518518514,4.743200000002979],[0.31666666666666665,0.0955555555555556,4.7598000000007445],[0.34614583333333326,0.0764814814814814,4.781100000001487],[0.34614583333333326,0.0764814814814814,4.793200000002983],[0.3337500000000001,0.1270370370370371,4.814200000002977],[0.3337500000000001,0.1270370370370371,4.826500000000003],[0.3337500000000001,0.15351851851851847,4.843100000001492],[0.3337500000000001,0.15351851851851847,4.859800000000746],[0.3388541666666666,0.19611111111111107,4.8765],[0.3388541666666666,0.19611111111111107,4.893100000001489],[0.3585416666666667,0.1264814814814814,4.909800000000743],[0.3585416666666667,0.1264814814814814,4.926499999999997],[0.34406249999999994,0.09666666666666675,4.943200000002982],[0.34406249999999994,0.09666666666666675,4.959800000000747],[0.32156250000000003,0.10555555555555556,4.9765000000000015],[0.3142708333333334,0.05537037037037033,4.997600000001491],[0.3234375,0.012222222222222264,5.014400000002233],[0.3234375,0.012222222222222264,5.026499999999999],[0.3407291666666666,-0.005000000000000084,5.046400000002237],[0.2959374999999999,-0.042407407407407366,5.066700000002982],[0.2959374999999999,-0.042407407407407366,5.084300000000745],[0.29177083333333326,-0.12092592592592595,5.101800000000743],[0.29177083333333326,-0.12092592592592595,5.109900000002234],[0.278125,-0.14500000000000002,5.1265],[0.278125,-0.14500000000000002,5.143200000002977],[0.26239583333333344,-0.17,5.159700000002978],[0.26239583333333344,-0.17,5.176499999999997],[0.2627083333333334,-0.13148148148148148,5.1958000000007445],[0.2627083333333334,-0.13148148148148148,5.209800000000747],[0.2795833333333334,-0.16722222222222224,5.226400000002236],[0.2795833333333334,-0.16722222222222224,5.2431000000014905],[0.2777083333333332,-0.2044444444444444,5.2598000000007445],[0.2686458333333334,-0.12888888888888894,5.27770000000298],[0.27395833333333336,-0.13555555555555554,5.293100000001488],[0.27395833333333336,-0.13555555555555554,5.309800000000742],[0.27927083333333325,-0.14222222222222225,5.326600000001491],[0.27927083333333325,-0.14222222222222225,5.34320000000298],[0.30614583333333345,-0.13185185185185183,5.359800000000746],[0.3329166666666666,-0.16833333333333328,5.3765],[0.3929166666666667,-0.24092592592592596,5.395900000002236],[0.4478125000000001,-0.3227777777777778,5.412300000000748],[0.45625,-0.442037037037037,5.426499999999997],[0.45625,-0.442037037037037,5.4435],[0.4930208333333333,-0.5120370370370371,5.459900000002236],[0.5585416666666667,-0.5511111111111111,5.4765000000000015],[0.5816666666666668,-0.6431481481481481,5.4931000000014905],[0.5767708333333333,-0.6968518518518518,5.513400000002235],[0.5892708333333334,-0.7561111111111112,5.526600000001487],[0.6063541666666665,-0.8005555555555556,5.543700000002978],[0.6297916666666665,-0.8099999999999999,5.559900000002237],[0.6376041666666665,-0.7316666666666667,5.578499999999998],[0.614375,-0.7150000000000001,5.593300000000745],[0.5983333333333334,-0.6742592592592593,5.609900000002234],[0.5657291666666666,-0.6411111111111111,5.629200000002982],[0.5248958333333335,-0.6012962962962963,5.64520000000298],[0.4982291666666666,-0.582037037037037,5.6599000000022315],[0.4879166666666668,-0.5688888888888889,5.6788000000007415],[0.4476041666666667,-0.5853703703703704,5.693400000002235],[0.4476041666666667,-0.5853703703703704,5.709900000002236],[0.40729166666666666,-0.6018518518518519,5.729500000000002],[0.40729166666666666,-0.6018518518518519,5.743300000000744],[0.34614583333333326,-0.5859259259259259,5.759999999999998],[0.2660416666666668,-0.6331481481481481,5.778400000002236],[0.22260416666666671,-0.6396296296296295,5.793200000002983],[0.17916666666666667,-0.6461111111111111,5.810300000000744],[0.1553124999999999,-0.6083333333333333,5.826500000000003],[0.1306250000000001,-0.6087037037037036,5.84620000000298],[0.09989583333333343,-0.525,5.859900000002234],[0.06916666666666677,-0.4412962962962963,5.876600000001488],[0.07374999999999995,-0.4035185185185185,5.893200000002977],[0.041666666666666664,-0.362962962962963,5.909800000000743],[0.025416666666666643,-0.3714814814814815,5.929200000002979],[0.02802083333333331,-0.35055555555555556,5.945400000002238],[0.0140625,-0.290925925925926,5.960300000000743],[-0.006458333333333381,-0.24370370370370376,5.97660000000149],[-0.015416666666666618,-0.22092592592592594,5.995200000002981],[-0.019479166666666714,-0.2212962962962963,6.009999999999998],[-0.0010416666666666667,-0.28111111111111114,6.026600000001487],[0.01739583333333338,-0.34092592592592597,6.045999999999999],[0.000416666666666643,-0.3277777777777778,6.060000000000002],[0.026145833333333358,-0.3001851851851852,6.07670000000298],[0.05260416666666667,-0.2675925925925926,6.093100000001492],[0.06291666666666665,-0.2627777777777777,6.111800000000741],[0.0775000000000001,-0.29018518518518516,6.129800000000742],[0.11541666666666663,-0.3164814814814814,6.145800000000747],[0.12770833333333323,-0.30888888888888894,6.159700000002978],[0.13541666666666666,-0.3061111111111111,6.17910000000149],[0.14854166666666657,-0.25018518518518523,6.193100000001493],[0.1616666666666667,-0.19425925925925921,6.209900000002236],[0.16979166666666667,-0.13777777777777775,6.2265000000000015],[0.1742708333333333,-0.1022222222222222,6.246400000002232],[0.18302083333333338,-0.03833333333333342,6.259700000002979],[0.203125,-0.024629629629629547,6.277800000000745],[0.2319791666666667,-0.0012962962962963806,6.293100000001488],[0.24166666666666667,0.07370370370370362,6.309700000002977],[0.24364583333333342,0.11925925925925922,6.326400000002238],[0.2453125,0.19277777777777783,6.345800000000743],[0.24614583333333329,0.2103703703703704,6.359800000000746],[0.24697916666666658,0.227962962962963,6.3765],[0.2772916666666667,0.23074074074074077,6.393100000001489],[0.29833333333333345,0.23796296296296296,6.409800000000743],[0.3,0.2514814814814814,6.426400000002232],[0.3,0.2514814814814814,6.443300000000747],[0.30406250000000007,0.2625925925925925,6.459900000002236],[0.30447916666666663,0.29296296296296304,6.476400000002236],[0.3051041666666668,0.3044444444444444,6.4931000000014905],[0.31916666666666677,0.3257407407407407,6.5098000000007445],[0.34562499999999996,0.322037037037037,6.526499999999999],[0.3397916666666667,0.331111111111111,6.545999999999999],[0.3576041666666666,0.31814814814814807,6.559800000000742],[0.3636458333333332,0.32759259259259255,6.576400000002238],[0.37395833333333334,0.3322222222222222,6.593100000001492],[0.39864583333333337,0.2972222222222222,6.609700000002981],[0.36729166666666657,0.3274074074074073,6.6265],[0.3408333333333334,0.34685185185185174,6.644300000000747],[0.36062500000000003,0.32166666666666677,6.659800000000743],[0.35968749999999994,0.3077777777777779,6.676400000002232],[0.34739583333333335,0.3253703703703705,6.693100000001493],[0.3265625,0.28462962962962973,6.709800000000747],[0.2820833333333333,0.26592592592592595,6.726400000002236],[0.2397916666666667,0.24388888888888896,6.745800000000742],[0.1834374999999999,0.25925925925925924,6.7598000000007445],[0.12708333333333333,0.27462962962962956,6.7764000000022335],[0.1125,0.2764814814814814,6.792999999999999],[0.09666666666666662,0.2698148148148149,6.809800000000742],[0.03312499999999995,0.29259259259259257,6.826400000002238],[-0.004375000000000047,0.27759259259259256,6.843100000001492],[-0.02520833333333338,0.2579629629629629,6.859700000002981],[-0.026145833333333358,0.29518518518518516,6.876400000002235],[-0.03239583333333336,0.33259259259259266,6.893200000002977],[-0.04083333333333338,0.37333333333333335,6.909700000002978],[0.0006250000000000236,0.39574074074074084,6.926400000002232],[0.03156249999999995,0.4148148148148148,6.945200000002977],[0.071875,0.41870370370370374,6.962700000002982],[0.11218750000000005,0.4225925925925927,6.976400000002236],[0.11937499999999991,0.43148148148148147,6.9931000000014905],[0.11906249999999995,0.4396296296296296,7.009700000002979],[0.13114583333333343,0.45759259259259266,7.0264000000022335],[0.14322916666666666,0.47555555555555545,7.043200000002983],[0.17302083333333323,0.4788888888888889,7.059800000000742],[0.17302083333333323,0.4788888888888889,7.076500000000003],[0.18562500000000004,0.47314814814814815,7.093100000001492],[0.18562500000000004,0.47314814814814815,7.109800000000746],[0.17999999999999997,0.4457407407407408,7.126600000001488],[0.18489583333333334,0.42166666666666675,7.147800000000743],[0.18489583333333334,0.42166666666666675,7.159700000002978],[0.1584374999999999,0.42537037037037045,7.176400000002232],[0.1584374999999999,0.42537037037037045,7.193200000002982],[0.14249999999999996,0.4246296296296295,7.209800000000747],[0.15916666666666662,0.4168518518518519,7.232100000001488],[0.15916666666666662,0.4168518518518519,7.2431000000014905],[0.18333333333333332,0.40981481481481474,7.2598000000007445],[0.18333333333333332,0.40981481481481474,7.2764000000022335],[0.1787499999999999,0.39592592592592585,7.293100000001488],[0.1787499999999999,0.39592592592592585,7.309700000002977],[0.14291666666666672,0.3464814814814815,7.326400000002238],[0.14291666666666672,0.3464814814814815,7.34320000000298],[0.12625000000000006,0.3492592592592593,7.359800000000746],[0.12625000000000006,0.3492592592592593,7.3765],[0.11541666666666663,0.33851851851851844,7.393100000001489],[0.11541666666666663,0.33851851851851844,7.409800000000743],[0.08864583333333324,0.3227777777777777,7.426400000002232],[0.08864583333333324,0.3227777777777777,7.443300000000747],[0.04697916666666669,0.30277777777777776,7.459800000000747],[0.029166666666666667,0.2814814814814815,7.482300000000748],[0.029166666666666667,0.2814814814814815,7.493200000002979],[0.000833333333333286,0.2646296296296296,7.5098000000007445],[-0.00947916666666669,0.2572222222222222,7.5264000000022335],[-0.00947916666666669,0.2572222222222222,7.543100000001488],[-0.014999999999999977,0.22592592592592592,7.559800000000742],[-0.014999999999999977,0.22592592592592592,7.576400000002238],[-0.004375000000000047,0.2124074074074075,7.593100000001492],[-0.004375000000000047,0.2124074074074075,7.609800000000746],[0.03125,0.1787037037037037,7.626400000002235],[0.03125,0.1787037037037037,7.643100000001489],[0.04833333333333331,0.1227777777777777,7.659700000002978],[0.025625000000000023,0.07148148148148152,7.676499999999997],[0.010104166666666714,0.03555555555555564,7.693100000001493],[0.00947916666666669,0.003888888888888931,7.709700000002982],[-0.0002083333333333807,-0.013888888888888888,7.726400000002236],[-0.009895833333333333,-0.03166666666666671,7.7455],[-0.016250000000000025,-0.08555555555555554,7.7598000000007445],[-0.027395833333333286,-0.11555555555555551,7.776499999999999],[-0.046875,-0.10777777777777775,7.793100000001488],[-0.060104166666666715,-0.04425925925925922,7.810000000000002],[-0.08031250000000002,-0.05,7.826500000000003],[-0.049374999999999974,-0.03777777777777774,7.845200000002983],[-0.05,-0.025185185185185227,7.859700000002981],[-0.050625000000000024,-0.012592592592592508,7.878400000002237],[-0.049583333333333354,-0.014629629629629588,7.893000000000001],[-0.013854166666666619,-0.04259259259259259,7.909700000002978],[0.0046875,-0.04814814814814815,7.926499999999997],[0.02322916666666662,-0.053703703703703705,7.943100000001493],[-0.024166666666666715,-0.10314814814814813,7.959700000002982],[-0.07729166666666672,-0.12333333333333338,7.976400000002236],[-0.10604166666666662,-0.10666666666666672,7.993000000000002],[-0.13479166666666664,-0.09000000000000004,8.009800000000745],[-0.13322916666666665,-0.0809259259259259,8.026400000002234],[-0.13166666666666665,-0.07185185185185188,8.046],[-0.10541666666666671,-0.05537037037037033,8.061800000000744],[-0.11385416666666662,-0.012962962962962963,8.076800000000745],[-0.13072916666666667,0.016666666666666666,8.093100000001492],[-0.1476041666666667,0.046296296296296294,8.10970000000298],[-0.1094791666666667,0.05,8.126400000002235],[-0.07250000000000002,0.037037037037037035,8.143100000001489],[-0.06302083333333333,0.029814814814814856,8.159700000002978],[-0.04895833333333333,0.043703703703703745,8.176700000002981],[-0.05593750000000005,0.04259259259259259,8.192999999999998],[-0.06291666666666665,0.04148148148148144,8.210300000000743],[-0.06656249999999998,0.00592592592592601,8.226400000002236],[-0.07479166666666662,-0.072037037037037,8.245100000001493],[-0.06458333333333334,-0.06740740740740736,8.259800000000745],[-0.06843750000000005,-0.14574074074074073,8.278500000000001],[-0.07052083333333338,-0.2146296296296296,8.293],[-0.06541666666666662,-0.22722222222222221,8.310000000000002],[-0.06322916666666671,-0.22870370370370371,8.326400000002238],[-0.065625,-0.2512962962962963,8.343100000001492],[-0.04104166666666664,-0.25925925925925924,8.35970000000298],[-0.016458333333333287,-0.26722222222222225,8.376400000002235],[-0.04708333333333338,-0.2564814814814815,8.393100000001489],[-0.08104166666666662,-0.18518518518518517,8.409700000002978],[-0.11000000000000003,-0.18185185185185182,8.426400000002232],[-0.11000000000000003,-0.18185185185185182,8.443200000002982],[-0.10229166666666671,-0.07925925925925928,8.459900000002236],[-0.12302083333333336,-0.00592592592592601,8.476500000000001],[-0.10302083333333331,-0.013888888888888888,8.49310000000149],[-0.08302083333333338,-0.021851851851851768,8.50970000000298],[-0.04802083333333336,-0.023148148148148147,8.526400000002234],[-0.023958333333333335,-0.020555555555555598,8.543100000001488],[-0.025416666666666643,-0.010925925925925884,8.559700000002977],[0.00635416666666669,-0.0025925925925925505,8.576400000002238],[0.04375,-0.06388888888888888,8.592999999999996],[0.06614583333333333,-0.1270370370370371,8.61],[0.06833333333333323,-0.17907407407407405,8.626400000002235],[0.12864583333333332,-0.18314814814814812,8.646400000002238],[0.11770833333333333,-0.16425925925925924,8.659800000000743],[0.09656250000000005,-0.17981481481481484,8.676400000002232],[0.04572916666666664,-0.1853703703703704,8.693100000001493],[0.002916666666666619,-0.20259259259259255,8.713000000000001],[-0.014374999999999952,-0.22685185185185186,8.726300000000748],[-0.03166666666666664,-0.2511111111111112,8.7455],[-0.06031249999999998,-0.19500000000000003,8.759800000000745],[-0.0889583333333333,-0.1388888888888889,8.776400000002234],[-0.11229166666666662,-0.15037037037037035,8.793100000001488],[-0.15239583333333329,-0.20703703703703705,8.809700000002977],[-0.15593750000000003,-0.21129629629629634,8.826500000000003],[-0.13781249999999995,-0.152962962962963,8.843300000000745],[-0.11124999999999995,-0.13555555555555554,8.85970000000298],[-0.09572916666666664,-0.11481481481481481,8.876400000002235],[-0.06572916666666669,-0.15203703703703708,8.893100000001489],[-0.04520833333333331,-0.1764814814814815,8.909700000002978],[-0.01427083333333338,-0.2309259259259259,8.926300000000744],[-0.01427083333333338,-0.2309259259259259,8.943100000001493],[0.025937499999999978,-0.2651851851851852,8.959800000000747],[0.027187500000000024,-0.259074074074074,8.976400000002236],[0.05552083333333328,-0.20129629629629628,8.993200000002979],[0.0775000000000001,-0.2064814814814815,9.009800000000745],[0.11927083333333334,-0.2662962962962963,9.026400000002234],[0.16729166666666656,-0.30185185185185187,9.04510000000149],[0.1959374999999999,-0.31851851851851853,9.059700000002977]]","[0.000300000000741818,0.04099999999999682,0.04830000000074364,0.06450000000000244,0.07810000000149131,0.0934000000022337,0.1123000000007437,0.12680000000074187,0.14490000000223802,0.16310000000149216,0.17790000000223216,0.19330000000074676,0.21340000000223824,0.22670000000297819,0.24499999999999744,0.259999999999998,0.27649999999999864,0.2974000000022343,0.3100000000000023,0.3267000000029796,0.34810000000148733,0.35999999999999943,0.37670000000297676,0.3933000000007425,0.4154000000022364,0.42680000000074614,0.44320000000298165,0.4632000000029777,0.47660000000148983,0.4964000000022324,0.509999999999998,0.5267000000029824,0.5434000000022365,0.5630000000000024,0.5766000000014913,0.5932000000029802,0.6099999999999994,0.6265000000000001,0.6479000000022381,0.6661000000014923,0.6766000000014927,0.6932000000029817,0.7123000000007451,0.7269000000022316,0.7434000000022323,0.7598000000007445,0.7764999999999986,0.7932000000029831,0.8098000000007417,0.8266000000014913,0.8456000000014896,0.859800000000746,0.8765000000000001,0.8932000000029774,0.9099000000022315,0.9266000000014927,0.945200000002977,0.9598000000007474,0.9765000000000015,0.9932000000029788,1.0098000000007445,1.0264999999999986,1.0452000000029784,1.0599000000022372,1.076500000000003,1.0931000000014919,1.112800000000746,1.1265,1.1495000000000033,1.1669000000022365,1.1816000000014881,1.1964000000022352,1.2099000000022357,1.2265000000000015,1.2432000000029788,1.261800000000747,1.2764999999999986,1.2933000000007482,1.3099000000022372,1.3266000000014913,1.3433000000007453,1.3599000000022343,1.3765,1.3932000000029774,1.4099000000022315,1.4266000000014927,1.4455000000000027,1.4600000000000009,1.4766000000014898,1.493300000000744,1.5119000000022353,1.5267000000029824,1.54510000000149,1.5600000000000023,1.578700000002982,1.5933000000007453,1.6099999999999994,1.6306000000014933,1.6433000000007425,1.6599999999999966,1.6787000000029835,1.6934000000022351,1.7100000000000009,1.7293000000007481,1.7454999999999998,1.759999999999998,1.7787000000029778,1.7933000000007482,1.8100000000000023,1.8266000000014913,1.8452000000029827,1.8599999999999994,1.8767000000029768,1.893100000001489,1.911900000002234,1.9264999999999972,1.9433000000007468,1.9599000000022357,1.9765000000000015,1.9932000000029788,2.012100000001489,2.0268000000007476,2.0463000000007483,2.0598000000007417,2.076500000000003,2.093100000001492,2.109800000000746,2.1265,2.1433000000007425,2.159800000000743,2.176499999999997,2.1931000000014933,2.2116000000014893,2.226700000002978,2.243300000000744,2.259999999999998,2.278500000000001,2.2935000000000016,2.3115000000000023,2.3266000000014913,2.3455000000000013,2.3599000000022343,2.3767000000029768,2.3932000000029774,2.4121000000014874,2.4272000000029834,2.4447000000029817,2.460000000000001,2.4794000000022365,2.4934000000022323,2.509900000002233,2.5309000000022337,2.543300000000748,2.559900000002237,2.579400000002238,2.5933000000007453,2.6099999999999994,2.631999999999998,2.643400000002238,2.6599999999999966,2.6766000000014927,2.6987000000029795,2.7099000000022357,2.7265000000000015,2.743200000002979,2.7598000000007445,2.780600000001492,2.793200000002983,2.8098000000007417,2.8316000000014867,2.8432000000029802,2.859800000000746,2.8769000000022373,2.8932000000029774,2.9129999999999967,2.927400000002237,2.9454000000022376,2.960000000000001,2.9764000000022364,2.9931000000014905,3.009900000002233,3.0264999999999986,3.045700000002981,3.0598000000007417,3.076400000002238,3.0932000000029802,3.1119000000022368,3.1265,3.1456000000014868,3.159800000000743,3.176499999999997,3.1933000000007468,3.2098000000007474,3.2264000000022364,3.2439999999999998,3.259900000002233,3.2764999999999986,3.293200000002983,3.309900000002237,3.326500000000003,3.3459000000022314,3.359800000000746,3.3765,3.393100000001489,3.409800000000743,3.4266000000014927,3.443400000002235,3.4598000000007474,3.47660000000149,3.493200000002979,3.5135000000000005,3.5286000000014894,3.5464000000022367,3.561800000000744,3.576500000000003,3.595400000002236,3.6108000000007436,3.6266000000014884,3.6459000000022357,3.6617000000029805,3.676700000002981,3.6933000000007468,3.7139999999999986,3.727800000000748,3.7434000000022323,3.762100000001489,3.7768000000007476,3.793300000000748,3.813200000002979,3.8268000000007447,3.8433000000007453,3.8599000000022343,3.8796000000014885,3.8933000000007425,3.910100000001492,3.9266000000014927,3.946300000000747,3.960000000000001,3.976700000002978,3.9955,4.012300000000742,4.026800000000748,4.046900000002232,4.060100000001491,4.078800000000747,4.093100000001492,4.109800000000746,4.1265,4.1433000000007425,4.159800000000743,4.176700000002981,4.193100000001493,4.212300000000745,4.2265000000000015,4.2457000000029765,4.259900000002233,4.276900000002236,4.293200000002983,4.309800000000742,4.326400000002238,4.34320000000298,4.359700000002981,4.3765,4.393100000001489,4.409800000000743,4.431800000000742,4.443700000002977,4.459800000000747,4.476400000002236,4.4931000000014905,4.510300000000747,4.526499999999999,4.543200000002983,4.560100000001491,4.576400000002238,4.593300000000745,4.609800000000746,4.626400000002235,4.643600000001491,4.659800000000743,4.676499999999997,4.693200000002982,4.709800000000747,4.7265000000000015,4.743200000002979,4.7598000000007445,4.781100000001487,4.793200000002983,4.814200000002977,4.826500000000003,4.843100000001492,4.859800000000746,4.8765,4.893100000001489,4.909800000000743,4.926499999999997,4.943200000002982,4.959800000000747,4.9765000000000015,4.997600000001491,5.014400000002233,5.026499999999999,5.046400000002237,5.066700000002982,5.084300000000745,5.101800000000743,5.109900000002234,5.1265,5.143200000002977,5.159700000002978,5.176499999999997,5.1958000000007445,5.209800000000747,5.226400000002236,5.2431000000014905,5.2598000000007445,5.27770000000298,5.293100000001488,5.309800000000742,5.326600000001491,5.34320000000298,5.359800000000746,5.3765,5.395900000002236,5.412300000000748,5.426499999999997,5.4435,5.459900000002236,5.4765000000000015,5.4931000000014905,5.513400000002235,5.526600000001487,5.543700000002978,5.559900000002237,5.578499999999998,5.593300000000745,5.609900000002234,5.629200000002982,5.64520000000298,5.6599000000022315,5.6788000000007415,5.693400000002235,5.709900000002236,5.729500000000002,5.743300000000744,5.759999999999998,5.778400000002236,5.793200000002983,5.810300000000744,5.826500000000003,5.84620000000298,5.859900000002234,5.876600000001488,5.893200000002977,5.909800000000743,5.929200000002979,5.945400000002238,5.960300000000743,5.97660000000149,5.995200000002981,6.009999999999998,6.026600000001487,6.045999999999999,6.060000000000002,6.07670000000298,6.093100000001492,6.111800000000741,6.129800000000742,6.145800000000747,6.159700000002978,6.17910000000149,6.193100000001493,6.209900000002236,6.2265000000000015,6.246400000002232,6.259700000002979,6.277800000000745,6.293100000001488,6.309700000002977,6.326400000002238,6.345800000000743,6.359800000000746,6.3765,6.393100000001489,6.409800000000743,6.426400000002232,6.443300000000747,6.459900000002236,6.476400000002236,6.4931000000014905,6.5098000000007445,6.526499999999999,6.545999999999999,6.559800000000742,6.576400000002238,6.593100000001492,6.609700000002981,6.6265,6.644300000000747,6.659800000000743,6.676400000002232,6.693100000001493,6.709800000000747,6.726400000002236,6.745800000000742,6.7598000000007445,6.7764000000022335,6.792999999999999,6.809800000000742,6.826400000002238,6.843100000001492,6.859700000002981,6.876400000002235,6.893200000002977,6.909700000002978,6.926400000002232,6.945200000002977,6.962700000002982,6.976400000002236,6.9931000000014905,7.009700000002979,7.0264000000022335,7.043200000002983,7.059800000000742,7.076500000000003,7.093100000001492,7.109800000000746,7.126600000001488,7.147800000000743,7.159700000002978,7.176400000002232,7.193200000002982,7.209800000000747,7.232100000001488,7.2431000000014905,7.2598000000007445,7.2764000000022335,7.293100000001488,7.309700000002977,7.326400000002238,7.34320000000298,7.359800000000746,7.3765,7.393100000001489,7.409800000000743,7.426400000002232,7.443300000000747,7.459800000000747,7.482300000000748,7.493200000002979,7.5098000000007445,7.5264000000022335,7.543100000001488,7.559800000000742,7.576400000002238,7.593100000001492,7.609800000000746,7.626400000002235,7.643100000001489,7.659700000002978,7.676499999999997,7.693100000001493,7.709700000002982,7.726400000002236,7.7455,7.7598000000007445,7.776499999999999,7.793100000001488,7.810000000000002,7.826500000000003,7.845200000002983,7.859700000002981,7.878400000002237,7.893000000000001,7.909700000002978,7.926499999999997,7.943100000001493,7.959700000002982,7.976400000002236,7.993000000000002,8.009800000000745,8.026400000002234,8.046,8.061800000000744,8.076800000000745,8.093100000001492,8.10970000000298,8.126400000002235,8.143100000001489,8.159700000002978,8.176700000002981,8.192999999999998,8.210300000000743,8.226400000002236,8.245100000001493,8.259800000000745,8.278500000000001,8.293,8.310000000000002,8.326400000002238,8.343100000001492,8.35970000000298,8.376400000002235,8.393100000001489,8.409700000002978,8.426400000002232,8.443200000002982,8.459900000002236,8.476500000000001,8.49310000000149,8.50970000000298,8.526400000002234,8.543100000001488,8.559700000002977,8.576400000002238,8.592999999999996,8.61,8.626400000002235,8.646400000002238,8.659800000000743,8.676400000002232,8.693100000001493,8.713000000000001,8.726300000000748,8.7455,8.759800000000745,8.776400000002234,8.793100000001488,8.809700000002977,8.826500000000003,8.843300000000745,8.85970000000298,8.876400000002235,8.893100000001489,8.909700000002978,8.926300000000744,8.943100000001493,8.959800000000747,8.976400000002236,8.993200000002979,9.009800000000745,9.026400000002234,9.04510000000149,9.059700000002977]","[1733137320532,1733137320565,1733137320573,1733137320589,1733137320603,1733137320618,1733137320637,1733137320651,1733137320669,1733137320687,1733137320702,1733137320718,1733137320738,1733137320751,1733137320769,1733137320784,1733137320801,1733137320822,1733137320834,1733137320851,1733137320873,1733137320884,1733137320901,1733137320918,1733137320940,1733137320951,1733137320968,1733137320988,1733137321001,1733137321021,1733137321034,1733137321051,1733137321068,1733137321087,1733137321101,1733137321118,1733137321134,1733137321151,1733137321172,1733137321191,1733137321201,1733137321218,1733137321237,1733137321251,1733137321268,1733137321284,1733137321301,1733137321318,1733137321334,1733137321351,1733137321370,1733137321384,1733137321401,1733137321418,1733137321434,1733137321451,1733137321470,1733137321484,1733137321501,1733137321518,1733137321534,1733137321551,1733137321570,1733137321584,1733137321601,1733137321618,1733137321637,1733137321651,1733137321674,1733137321691,1733137321706,1733137321721,1733137321734,1733137321751,1733137321768,1733137321786,1733137321801,1733137321818,1733137321834,1733137321851,1733137321868,1733137321884,1733137321901,1733137321918,1733137321934,1733137321951,1733137321970,1733137321984,1733137322001,1733137322018,1733137322036,1733137322051,1733137322069,1733137322084,1733137322103,1733137322118,1733137322134,1733137322155,1733137322168,1733137322184,1733137322203,1733137322218,1733137322234,1733137322254,1733137322270,1733137322284,1733137322303,1733137322318,1733137322334,1733137322351,1733137322370,1733137322384,1733137322401,1733137322418,1733137322436,1733137322451,1733137322468,1733137322484,1733137322501,1733137322518,1733137322536,1733137322551,1733137322571,1733137322584,1733137322601,1733137322618,1733137322634,1733137322651,1733137322668,1733137322684,1733137322701,1733137322718,1733137322736,1733137322751,1733137322768,1733137322784,1733137322803,1733137322818,1733137322836,1733137322851,1733137322870,1733137322884,1733137322901,1733137322918,1733137322936,1733137322952,1733137322969,1733137322984,1733137323004,1733137323018,1733137323034,1733137323055,1733137323068,1733137323084,1733137323104,1733137323118,1733137323134,1733137323156,1733137323168,1733137323184,1733137323201,1733137323223,1733137323234,1733137323251,1733137323268,1733137323284,1733137323305,1733137323318,1733137323334,1733137323356,1733137323368,1733137323384,1733137323401,1733137323418,1733137323437,1733137323452,1733137323470,1733137323484,1733137323501,1733137323518,1733137323534,1733137323551,1733137323570,1733137323584,1733137323601,1733137323618,1733137323636,1733137323651,1733137323670,1733137323684,1733137323701,1733137323718,1733137323734,1733137323751,1733137323768,1733137323784,1733137323801,1733137323818,1733137323834,1733137323851,1733137323870,1733137323884,1733137323901,1733137323918,1733137323934,1733137323951,1733137323968,1733137323984,1733137324001,1733137324018,1733137324038,1733137324053,1733137324071,1733137324086,1733137324101,1733137324120,1733137324135,1733137324151,1733137324170,1733137324186,1733137324201,1733137324218,1733137324238,1733137324252,1733137324268,1733137324286,1733137324301,1733137324318,1733137324338,1733137324351,1733137324368,1733137324384,1733137324404,1733137324418,1733137324434,1733137324451,1733137324471,1733137324484,1733137324501,1733137324520,1733137324537,1733137324551,1733137324571,1733137324585,1733137324603,1733137324618,1733137324634,1733137324651,1733137324668,1733137324684,1733137324701,1733137324718,1733137324737,1733137324751,1733137324770,1733137324784,1733137324801,1733137324818,1733137324834,1733137324851,1733137324868,1733137324884,1733137324901,1733137324918,1733137324934,1733137324956,1733137324968,1733137324984,1733137325001,1733137325018,1733137325035,1733137325051,1733137325068,1733137325085,1733137325101,1733137325118,1733137325134,1733137325151,1733137325168,1733137325184,1733137325201,1733137325218,1733137325234,1733137325251,1733137325268,1733137325284,1733137325305,1733137325318,1733137325339,1733137325351,1733137325368,1733137325384,1733137325401,1733137325418,1733137325434,1733137325451,1733137325468,1733137325484,1733137325501,1733137325522,1733137325539,1733137325551,1733137325571,1733137325591,1733137325609,1733137325626,1733137325634,1733137325651,1733137325668,1733137325684,1733137325701,1733137325720,1733137325734,1733137325751,1733137325768,1733137325784,1733137325802,1733137325817,1733137325834,1733137325851,1733137325868,1733137325884,1733137325901,1733137325920,1733137325937,1733137325951,1733137325968,1733137325984,1733137326001,1733137326018,1733137326038,1733137326051,1733137326068,1733137326084,1733137326103,1733137326118,1733137326134,1733137326154,1733137326170,1733137326184,1733137326203,1733137326218,1733137326234,1733137326254,1733137326268,1733137326284,1733137326303,1733137326318,1733137326335,1733137326351,1733137326371,1733137326384,1733137326401,1733137326418,1733137326434,1733137326454,1733137326470,1733137326485,1733137326501,1733137326520,1733137326534,1733137326551,1733137326570,1733137326584,1733137326601,1733137326618,1733137326636,1733137326654,1733137326670,1733137326684,1733137326703,1733137326718,1733137326734,1733137326751,1733137326771,1733137326784,1733137326802,1733137326817,1733137326834,1733137326851,1733137326870,1733137326884,1733137326901,1733137326918,1733137326934,1733137326951,1733137326968,1733137326984,1733137327001,1733137327017,1733137327034,1733137327051,1733137327070,1733137327084,1733137327101,1733137327117,1733137327134,1733137327151,1733137327169,1733137327184,1733137327201,1733137327217,1733137327234,1733137327251,1733137327270,1733137327284,1733137327301,1733137327317,1733137327334,1733137327351,1733137327368,1733137327384,1733137327401,1733137327418,1733137327434,1733137327451,1733137327470,1733137327487,1733137327501,1733137327517,1733137327534,1733137327551,1733137327568,1733137327584,1733137327601,1733137327617,1733137327634,1733137327651,1733137327672,1733137327684,1733137327701,1733137327718,1733137327734,1733137327756,1733137327768,1733137327784,1733137327801,1733137327817,1733137327834,1733137327851,1733137327868,1733137327884,1733137327901,1733137327917,1733137327934,1733137327951,1733137327968,1733137327984,1733137328007,1733137328018,1733137328034,1733137328051,1733137328068,1733137328084,1733137328101,1733137328118,1733137328134,1733137328151,1733137328167,1733137328184,1733137328201,1733137328217,1733137328234,1733137328251,1733137328270,1733137328284,1733137328301,1733137328317,1733137328334,1733137328351,1733137328370,1733137328384,1733137328403,1733137328417,1733137328434,1733137328451,1733137328467,1733137328484,1733137328501,1733137328517,1733137328534,1733137328551,1733137328571,1733137328586,1733137328601,1733137328617,1733137328634,1733137328651,1733137328668,1733137328684,1733137328701,1733137328717,1733137328735,1733137328751,1733137328769,1733137328784,1733137328803,1733137328817,1733137328834,1733137328851,1733137328867,1733137328884,1733137328901,1733137328918,1733137328934,1733137328951,1733137328968,1733137328984,1733137329001,1733137329018,1733137329034,1733137329051,1733137329067,1733137329084,1733137329101,1733137329117,1733137329134,1733137329151,1733137329171,1733137329184,1733137329201,1733137329217,1733137329237,1733137329251,1733137329270,1733137329284,1733137329301,1733137329317,1733137329334,1733137329351,1733137329368,1733137329384,1733137329401,1733137329417,1733137329434,1733137329451,1733137329467,1733137329484,1733137329501,1733137329518,1733137329534,1733137329551,1733137329569,1733137329584]","[[974.1,812],[974.1,812],[988.7,809.6],[1002.6,811.9],[1011.4,819.2],[991.2,803.7],[959.4,800.6],[961.6,752],[957.7,712.8],[948.3,679.8],[947.3,681.8],[955.8,674.4],[927.5,693.4],[911.8,686.5],[889.9,682.8],[878.3,681],[878.3,681],[855.7,674.5],[855.7,674.5],[889.8,691.5],[904,729.1],[904,729.1],[894.4,764.3],[894.4,764.3],[905.7,776],[905.7,776],[908.2,784.5],[937,783.1],[937,783.1],[964.4,774.4],[964.4,774.4],[987.3,760.4],[987.3,760.4],[1002.4,724.1],[1002.4,724.1],[1062.5,702.6],[1062.5,702.6],[1032.1,723.1],[988.8,681.4],[986.4,640],[986.4,640],[959.5,589.8],[978.5,568.3],[971.2,556.7],[963.9,545.1],[898.3,547.8],[861.4,564.8],[837.6,555.8],[819.7,517.4],[816.4,540.2],[793.1,564],[747.7,594.9],[730.6,609.4],[681.1,614.5],[681.1,614.5],[631.6,619.6],[651,623.2],[701.6,623.2],[713.1,639.2],[719.7,628.1],[743.3,599.2],[768.9,585.1],[837.5,551],[819.9,541],[834.7,540.4],[864.7,514.9],[897.5,492.4],[897.3,470.4],[897.1,448.4]