inst1_resp.keys,inst1_resp.rt,calibrationMouse.x,calibrationMouse.y,calibrationMouse.leftButton,calibrationMouse.midButton,calibrationMouse.rightButton,calibrationClick.x,calibrationClick.y,calibrationClick.leftButton,calibrationClick.midButton,calibrationClick.rightButton,calibrationClick.clicked_name,trialsc.thisRepN,trialsc.thisTrialN,trialsc.thisN,trialsc.thisIndex,trialsc.ran,calibration_x,calibration_y,participant,session,date,expName,psychopyVersion,OS,frameRate,ScreenRes_pixels,Camera_pixels,mouse_2.x,mouse_2.y,mouse_2.leftButton,mouse_2.midButton,mouse_2.rightButton,mouse_2.time,mouse_2.clicked_name,mouse.x,mouse.y,mouse.leftButton,mouse.midButton,mouse.rightButton,mouse.time,mouse.clicked_name,Choice,Trial,TrialDuration,MOUSE_GAZE,ET_GAZE,ET_GAZE_x_T,time,unixTime,ET_GAZE_NF,Loc_Option1_label,Loc_Option2_label,Loc_Cost_label,Loc_Qual_label,Loc_Option1_cost,Loc_Option2_cost,Loc_Option1_quality,Loc_Option2_quality,trials.thisRepN,trials.thisTrialN,trials.thisN,trials.thisIndex,trials.ran,Block,Device,cost1,qual1,cost2,qual2
space,2.0147,-0.041666667,0.046296296,1,0,0,-0.336458333,0.337037037,1,0,0,calibration_square,0,0,0,7,1,-0.33,0.33,12,001,2024-12-03_13h49.19.363,Attention_exp_legacy,2023.1.0,Win32,60.24096386,,,,,,,,,,,,,,,,,,,,,,,,,,,,,,,,,,,,,,,,,,,,
,,,,,,,-0.655208333,-0.685185185,1,0,0,,0,1,1,0,1,-0.67,-0.67,12,001,2024-12-03_13h49.19.363,Attention_exp_legacy,2023.1.0,Win32,60.24096386,,,,,,,,,,,,,,,,,,,,,,,,,,,,,,,,,,,,,,,,,,,,
,,,,,,,0.005208333,-0.677777778,1,0,0,calibration_square,0,2,2,9,1,0,-0.67,12,001,2024-12-03_13h49.19.363,Attention_exp_legacy,2023.1.0,Win32,60.24096386,,,,,,,,,,,,,,,,,,,,,,,,,,,,,,,,,,,,,,,,,,,,
,,,,,,,0.340625,0.333333333,1,0,0,,0,3,3,17,1,0.33,0.33,12,001,2024-12-03_13h49.19.363,Attention_exp_legacy,2023.1.0,Win32,60.24096386,,,,,,,,,,,,,,,,,,,,,,,,,,,,,,,,,,,,,,,,,,,,
,,,,,,,-0.326041667,-0.672222222,1,0,0,calibration_square,0,4,4,4,1,-0.33,-0.67,12,001,2024-12-03_13h49.19.363,Attention_exp_legacy,2023.1.0,Win32,60.24096386,,,,,,,,,,,,,,,,,,,,,,,,,,,,,,,,,,,,,,,,,,,,
,,,,,,,-0.327083333,-0.333333333,1,0,0,calibration_square,0,5,5,5,1,-0.33,-0.33,12,001,2024-12-03_13h49.19.363,Attention_exp_legacy,2023.1.0,Win32,60.24096386,,,,,,,,,,,,,,,,,,,,,,,,,,,,,,,,,,,,,,,,,,,,
,,,,,,,0.680208333,-0.685185185,1,0,0,,0,6,6,20,1,0.67,-0.67,12,001,2024-12-03_13h49.19.363,Attention_exp_legacy,2023.1.0,Win32,60.24096386,,,,,,,,,,,,,,,,,,,,,,,,,,,,,,,,,,,,,,,,,,,,
,,,,,,,0.321875,-0.322222222,1,0,0,calibration_square,0,7,7,15,1,0.33,-0.33,12,001,2024-12-03_13h49.19.363,Attention_exp_legacy,2023.1.0,Win32,60.24096386,,,,,,,,,,,,,,,,,,,,,,,,,,,,,,,,,,,,,,,,,,,,
,,,,,,,0.341666667,-0.690740741,1,0,0,,0,8,8,14,1,0.33,-0.67,12,001,2024-12-03_13h49.19.363,Attention_exp_legacy,2023.1.0,Win32,60.24096386,,,,,,,,,,,,,,,,,,,,,,,,,,,,,,,,,,,,,,,,,,,,
,,,,,,,0.326041667,0.637037037,1,0,0,,0,9,9,18,1,0.33,0.67,12,001,2024-12-03_13h49.19.363,Attention_exp_legacy,2023.1.0,Win32,60.24096386,,,,,,,,,,,,,,,,,,,,,,,,,,,,,,,,,,,,,,,,,,,,
,,,,,,,-0.672916667,-0.007407407,1,0,0,calibration_square,0,10,10,2,1,-0.67,0,12,001,2024-12-03_13h49.19.363,Attention_exp_legacy,2023.1.0,Win32,60.24096386,,,,,,,,,,,,,,,,,,,,,,,,,,,,,,,,,,,,,,,,,,,,
,,,,,,,-0.0125,0.662962963,1,0,0,,0,11,11,13,1,0,0.67,12,001,2024-12-03_13h49.19.363,Attention_exp_legacy,2023.1.0,Win32,60.24096386,,,,,,,,,,,,,,,,,,,,,,,,,,,,,,,,,,,,,,,,,,,,
,,,,,,,-0.028125,0.333333333,1,0,0,,0,12,12,12,1,0,0.33,12,001,2024-12-03_13h49.19.363,Attention_exp_legacy,2023.1.0,Win32,60.24096386,,,,,,,,,,,,,,,,,,,,,,,,,,,,,,,,,,,,,,,,,,,,
,,,,,,,-0.673958333,-0.353703704,1,0,0,,0,13,13,1,1,-0.67,-0.33,12,001,2024-12-03_13h49.19.363,Attention_exp_legacy,2023.1.0,Win32,60.24096386,,,,,,,,,,,,,,,,,,,,,,,,,,,,,,,,,,,,,,,,,,,,
,,,,,,,-0.008333333,0.012962963,1,0,0,,0,14,14,11,1,0,0,12,001,2024-12-03_13h49.19.363,Attention_exp_legacy,2023.1.0,Win32,60.24096386,,,,,,,,,,,,,,,,,,,,,,,,,,,,,,,,,,,,,,,,,,,,
,,,,,,,0.010416667,-0.32037037,1,0,0,,0,15,15,10,1,0,-0.33,12,001,2024-12-03_13h49.19.363,Attention_exp_legacy,2023.1.0,Win32,60.24096386,,,,,,,,,,,,,,,,,,,,,,,,,,,,,,,,,,,,,,,,,,,,
,,,,,,,0.688541667,0.672222222,1,0,0,,0,16,16,19,1,0.67,0.67,12,001,2024-12-03_13h49.19.363,Attention_exp_legacy,2023.1.0,Win32,60.24096386,,,,,,,,,,,,,,,,,,,,,,,,,,,,,,,,,,,,,,,,,,,,
,,,,,,,-0.325,0.659259259,1,0,0,,0,17,17,8,1,-0.33,0.67,12,001,2024-12-03_13h49.19.363,Attention_exp_legacy,2023.1.0,Win32,60.24096386,,,,,,,,,,,,,,,,,,,,,,,,,,,,,,,,,,,,,,,,,,,,
,,,,,,,0.327083333,0,1,0,0,calibration_square,0,18,18,16,1,0.33,0,12,001,2024-12-03_13h49.19.363,Attention_exp_legacy,2023.1.0,Win32,60.24096386,,,,,,,,,,,,,,,,,,,,,,,,,,,,,,,,,,,,,,,,,,,,
,,,,,,,-0.341666667,-0.016666667,1,0,0,,0,19,19,6,1,-0.33,0,12,001,2024-12-03_13h49.19.363,Attention_exp_legacy,2023.1.0,Win32,60.24096386,,,,,,,,,,,,,,,,,,,,,,,,,,,,,,,,,,,,,,,,,,,,
,,,,,,,-0.642708333,0.316666667,1,0,0,,0,20,20,3,1,-0.67,0.33,12,001,2024-12-03_13h49.19.363,Attention_exp_legacy,2023.1.0,Win32,60.24096386,,,,,,,,,,,,,,,,,,,,,,,,,,,,,,,,,,,,,,,,,,,,
,,,,,,,,,,,,,,,,,,,,12,001,2024-12-03_13h49.19.363,Attention_exp_legacy,2023.1.0,Win32,60.24096386,"[1920,1080]","[640,480]",[0.036458333333333336],[-0.5],[1],[0],[0],[1.8632999999970181],"[""StartButton""]",[0.01875],[0.15925925925925927],[1],[0],[0],[3.3553000000119226],"[""Option1_label""]",Option1_label,1,4.3619,"[[0.0010416666666666667,0.09074074074074075],[0.0010416666666666667,0.09074074074074075],[0.0010416666666666667,0.09074074074074075],[0.0010416666666666667,0.09074074074074075],[0.0010416666666666667,0.09074074074074075],[0.0010416666666666667,0.09074074074074075],[0.0010416666666666667,0.09074074074074075],[0.0010416666666666667,0.09074074074074075],[0.0010416666666666667,0.09074074074074075],[0.0010416666666666667,0.09074074074074075],[0.0010416666666666667,0.09074074074074075],[0.0010416666666666667,0.09074074074074075],[0.0010416666666666667,0.09074074074074075],[0.0010416666666666667,0.09074074074074075],[0.0010416666666666667,0.09074074074074075],[0.0010416666666666667,0.09074074074074075],[0.0010416666666666667,0.09074074074074075],[0.0010416666666666667,0.09074074074074075],[0.0010416666666666667,0.09074074074074075],[0.0010416666666666667,0.09074074074074075],[0.0010416666666666667,0.09074074074074075],[0.0010416666666666667,0.09074074074074075],[0.0010416666666666667,0.09074074074074075],[0.0010416666666666667,0.09074074074074075],[0.0010416666666666667,0.09074074074074075],[0.005208333333333333,0.09074074074074075],[0.011458333333333333,0.09074074074074075],[0.013541666666666667,0.09074074074074075],[0.021875,0.09074074074074075],[0.027083333333333334,0.09074074074074075],[0.03125,0.09074074074074075],[0.03229166666666667,0.09074074074074075],[0.03333333333333333,0.09074074074074075],[0.034375,0.09074074074074075],[0.034375,0.09074074074074075],[0.034375,0.09074074074074075],[0.035416666666666666,0.08888888888888889],[0.036458333333333336,0.08888888888888889],[0.036458333333333336,0.08888888888888889],[0.036458333333333336,0.08888888888888889],[0.0375,0.08888888888888889],[0.03854166666666667,0.08888888888888889],[0.03958333333333333,0.08888888888888889],[0.040625,0.08703703703703704],[0.040625,0.08703703703703704],[0.040625,0.08703703703703704],[0.040625,0.08703703703703704],[0.041666666666666664,0.08703703703703704],[0.04375,0.08703703703703704],[0.04375,0.08703703703703704],[0.04375,0.08703703703703704],[0.04479166666666667,0.08703703703703704],[0.046875,0.08703703703703704],[0.04791666666666667,0.08333333333333333],[0.04791666666666667,0.08333333333333333],[0.04895833333333333,0.08333333333333333],[0.05,0.08333333333333333],[0.05,0.08333333333333333],[0.05,0.08333333333333333],[0.05,0.08333333333333333],[0.05,0.08333333333333333],[0.05,0.08333333333333333],[0.05,0.08333333333333333],[0.05,0.08333333333333333],[0.05,0.08333333333333333],[0.05,0.08333333333333333],[0.05,0.07592592592592592],[0.04583333333333333,0.06296296296296296],[0.040625,0.05],[0.03229166666666667,0.03518518518518519],[0.022916666666666665,0.016666666666666666],[0.013541666666666667,0],[-0.003125,-0.020370370370370372],[-0.009375,-0.02962962962962963],[-0.011458333333333333,-0.03518518518518519],[-0.013541666666666667,-0.037037037037037035],[-0.014583333333333334,-0.040740740740740744],[-0.015625,-0.040740740740740744],[-0.016666666666666666,-0.044444444444444446],[-0.016666666666666666,-0.044444444444444446],[-0.016666666666666666,-0.044444444444444446],[-0.016666666666666666,-0.04814814814814815],[-0.016666666666666666,-0.04814814814814815],[-0.017708333333333333,-0.05185185185185185],[-0.017708333333333333,-0.05185185185185185],[-0.017708333333333333,-0.053703703703703705],[-0.017708333333333333,-0.05555555555555555],[-0.017708333333333333,-0.05555555555555555],[-0.01875,-0.05740740740740741],[-0.01875,-0.05740740740740741],[-0.01875,-0.05925925925925926],[-0.01875,-0.05925925925925926],[-0.019791666666666666,-0.06111111111111111],[-0.019791666666666666,-0.06111111111111111],[-0.019791666666666666,-0.06111111111111111],[-0.019791666666666666,-0.06111111111111111],[-0.019791666666666666,-0.06111111111111111],[-0.019791666666666666,-0.06111111111111111],[-0.019791666666666666,-0.06111111111111111],[-0.019791666666666666,-0.06111111111111111],[-0.019791666666666666,-0.06111111111111111],[-0.019791666666666666,-0.06111111111111111],[-0.019791666666666666,-0.06111111111111111],[-0.019791666666666666,-0.06111111111111111],[-0.019791666666666666,-0.06111111111111111],[-0.019791666666666666,-0.06111111111111111],[-0.019791666666666666,-0.06111111111111111],[-0.019791666666666666,-0.06111111111111111],[-0.019791666666666666,-0.06111111111111111],[-0.019791666666666666,-0.06111111111111111],[-0.019791666666666666,-0.06111111111111111],[-0.019791666666666666,-0.06111111111111111],[-0.019791666666666666,-0.06111111111111111],[-0.019791666666666666,-0.06111111111111111],[-0.019791666666666666,-0.06111111111111111],[-0.019791666666666666,-0.06111111111111111],[-0.019791666666666666,-0.06111111111111111],[-0.019791666666666666,-0.06111111111111111],[-0.019791666666666666,-0.06111111111111111],[-0.019791666666666666,-0.06111111111111111],[-0.019791666666666666,-0.06296296296296296],[-0.019791666666666666,-0.06296296296296296],[-0.017708333333333333,-0.06296296296296296],[-0.015625,-0.06296296296296296],[-0.007291666666666667,-0.06111111111111111],[-0.004166666666666667,-0.05925925925925926],[0.004166666666666667,-0.05],[0.014583333333333334,-0.040740740740740744],[0.021875,-0.037037037037037035],[0.028125,-0.03333333333333333],[0.035416666666666666,-0.025925925925925925],[0.042708333333333334,-0.020370370370370372],[0.05,-0.012962962962962963],[0.05416666666666667,-0.011111111111111112],[0.06041666666666667,-0.007407407407407408],[0.065625,-0.001851851851851852],[0.07395833333333333,0.001851851851851852],[0.07916666666666666,0.003703703703703704],[0.08229166666666667,0.005555555555555556],[0.08541666666666667,0.007407407407407408],[0.08854166666666667,0.007407407407407408],[0.08958333333333333,0.009259259259259259],[0.08958333333333333,0.009259259259259259],[0.08958333333333333,0.009259259259259259],[0.08958333333333333,0.009259259259259259],[0.08958333333333333,0.009259259259259259],[0.090625,0.009259259259259259],[0.090625,0.009259259259259259],[0.08958333333333333,0.009259259259259259],[0.08229166666666667,0.009259259259259259],[0.06666666666666667,0.009259259259259259],[0.04791666666666667,0.009259259259259259],[0.029166666666666667,0.009259259259259259],[0.011458333333333333,0.009259259259259259],[0,0.009259259259259259],[-0.00625,0.009259259259259259],[-0.010416666666666666,0.009259259259259259],[-0.011458333333333333,0.009259259259259259],[-0.011458333333333333,0.009259259259259259],[-0.011458333333333333,0.009259259259259259],[-0.011458333333333333,0.009259259259259259],[-0.011458333333333333,0.009259259259259259],[-0.011458333333333333,0.009259259259259259],[-0.011458333333333333,0.009259259259259259],[-0.011458333333333333,0.009259259259259259],[-0.011458333333333333,0.009259259259259259],[-0.011458333333333333,0.009259259259259259],[-0.011458333333333333,0.009259259259259259],[-0.011458333333333333,0.009259259259259259],[-0.0125,0.009259259259259259],[-0.005208333333333333,0.009259259259259259],[0.009375,0.016666666666666666],[0.029166666666666667,0.024074074074074074],[0.0375,0.025925925925925925],[0.041666666666666664,0.027777777777777776],[0.04375,0.027777777777777776],[0.04375,0.027777777777777776],[0.04375,0.027777777777777776],[0.04375,0.027777777777777776],[0.04479166666666667,0.02962962962962963],[0.03958333333333333,0.03888888888888889],[0.030208333333333334,0.05555555555555555],[0.023958333333333335,0.07407407407407407],[0.015625,0.10185185185185185],[0.0125,0.11481481481481481],[0.011458333333333333,0.12407407407407407],[0.011458333333333333,0.12962962962962962],[0.011458333333333333,0.13518518518518519],[0.011458333333333333,0.13703703703703704],[0.0125,0.14074074074074075],[0.0125,0.14074074074074075],[0.014583333333333334,0.14629629629629629],[0.016666666666666666,0.15],[0.017708333333333333,0.1537037037037037],[0.01875,0.1574074074074074],[0.01875,0.1574074074074074],[0.01875,0.1574074074074074],[0.01875,0.15925925925925927],[0.01875,0.15925925925925927],[0.01875,0.15925925925925927],[0.01875,0.15925925925925927],[0.01875,0.15925925925925927],[0.01875,0.15925925925925927],[0.01875,0.15925925925925927],[0.01875,0.15925925925925927],[0.01875,0.15925925925925927],[0.01875,0.15925925925925927],[0.01875,0.15925925925925927],[0.01875,0.15925925925925927],[0.01875,0.15925925925925927],[0.01875,0.15925925925925927],[0.01875,0.15925925925925927],[0.01875,0.15925925925925927],[0.01875,0.15925925925925927],[0.01875,0.15925925925925927],[0.01875,0.15925925925925927],[0.01875,0.15925925925925927],[0.01875,0.15925925925925927],[0.01875,0.15925925925925927],[0.01875,0.15925925925925927],[0.01875,0.15925925925925927],[0.01875,0.15925925925925927],[0.01875,0.15925925925925927],[0.01875,0.15925925925925927],[0.01875,0.15925925925925927],[0.01875,0.15925925925925927],[0.01875,0.15925925925925927],[0.01875,0.15925925925925927],[0.01875,0.15925925925925927],[0.01875,0.15925925925925927],[0.01875,0.15925925925925927],[0.01875,0.15925925925925927],[0.01875,0.15925925925925927],[0.01875,0.15925925925925927],[0.01875,0.15925925925925927],[0.01875,0.15925925925925927],[0.01875,0.15925925925925927],[0.01875,0.15925925925925927],[0.01875,0.15925925925925927],[0.01875,0.15925925925925927],[0.01875,0.15925925925925927],[0.01875,0.15925925925925927],[0.01875,0.15925925925925927],[0.01875,0.15925925925925927],[0.01875,0.15925925925925927],[0.01875,0.15925925925925927],[0.01875,0.15925925925925927],[0.01875,0.15925925925925927],[0.01875,0.15925925925925927],[0.01875,0.15925925925925927],[0.01875,0.15925925925925927],[0.01875,0.15925925925925927],[0.01875,0.15925925925925927],[0.01875,0.15925925925925927],[0.01875,0.15925925925925927],[0.01875,0.15925925925925927],[0.01875,0.15925925925925927],[0.01875,0.15925925925925927],[0.01875,0.15925925925925927],[0.01875,0.15925925925925927],[0.01875,0.15925925925925927],[0.01875,0.15925925925925927]]","[[-0.43562500000000004,0.46166666666666656],[-0.43562500000000004,0.46166666666666656],[-0.5103125,0.5588888888888888],[-0.5410416666666666,0.6550000000000001],[-0.5892708333333334,0.7614814814814815],[-0.646875,0.887962962962963],[-0.646875,0.887962962962963],[-0.7178125000000001,1.007037037037037],[-0.7178125000000001,1.007037037037037],[-0.7784375,1.1292592592592592],[-0.7784375,1.1292592592592592],[-0.8580208333333333,1.2285185185185188],[-0.9179166666666667,1.307037037037037],[-0.9179166666666667,1.307037037037037],[-0.9758333333333333,1.3898148148148148],[-0.9758333333333333,1.3898148148148148],[-0.9517708333333333,1.3318518518518518],[-0.9517708333333333,1.3318518518518518],[-0.9354166666666667,1.3096296296296297],[-0.9189583333333334,1.2600000000000002],[-0.9189583333333334,1.2600000000000002],[-0.8707291666666667,1.2346296296296297],[-0.8524999999999999,1.2329629629629628],[-0.8359375,1.2505555555555554],[-0.83,1.2196296296296294],[-0.801875,1.1770370370370369],[-0.6989583333333333,1.0466666666666669],[-0.5960416666666667,0.9162962962962962],[-0.48302083333333334,0.8144444444444444],[-0.4022916666666667,0.6853703703703704],[-0.3288541666666667,0.5933333333333333],[-0.27791666666666665,0.4735185185185186],[-0.1866666666666667,0.3374074074074075],[-0.10031249999999996,0.17907407407407416],[-0.02354166666666669,0.06962962962962967],[0.05416666666666667,-0.022222222222222223],[0.033958333333333354,-0.010185185185185186],[0.0203125,-0.01444444444444436],[0.002708333333333357,-0.025370370370370456],[0.005312500000000024,-0.032407407407407406],[0.013437499999999976,-0.06074074074074076],[0.02385416666666664,-0.06703703703703702],[0.010000000000000024,-0.08481481481481483],[0.0010416666666666667,-0.08037037037037033],[0.0109375,-0.09055555555555551],[0.0109375,-0.09055555555555551],[0.019895833333333356,-0.11833333333333329],[0.024166666666666715,-0.1381481481481482],[0.03895833333333331,-0.13851851851851854],[0.05239583333333329,-0.1316666666666667],[0.06124999999999995,-0.12129629629629629],[0.07177083333333342,-0.0992592592592593],[0.07145833333333323,-0.12666666666666662],[0.08510416666666672,-0.15],[0.1040625000000001,-0.16203703703703703],[0.10520833333333333,-0.16814814814814816],[0.10510416666666676,-0.1581481481481481],[0.1131249999999999,-0.1514814814814815],[0.10739583333333323,-0.16592592592592598],[0.09979166666666663,-0.17833333333333334],[0.09854166666666657,-0.18499999999999997],[0.10125000000000005,-0.19425925925925921],[0.09947916666666666,-0.17074074074074072],[0.09770833333333329,-0.14722222222222223],[0.0756249999999999,-0.09444444444444444],[0.05354166666666664,-0.041666666666666664],[0.018229166666666668,-0.03425925925925926],[0.003125,-0.025370370370370456],[-0.004479166666666619,-0.007592592592592635],[-0.01427083333333338,0.03740740740740749],[-0.019375000000000024,0.03740740740740749],[-0.028437499999999952,0.04000000000000004],[-0.010000000000000024,0.028888888888888933],[-0.04593750000000003,0.06055555555555564],[-0.043124999999999976,0.04203703703703712],[-0.04031250000000005,0.0235185185185186],[0.006666666666666643,0.01055555555555564],[0.01114583333333338,0.011296296296296339],[-0.002499999999999976,0.010740740740740657],[-0.012083333333333357,-0.01907407407407399],[-0.027708333333333356,-0.004629629629629629],[-0.043333333333333356,0.009814814814814731],[-0.06145833333333333,0.02092592592592584],[-0.02520833333333338,-0.010740740740740657],[-0.026041666666666668,-0.02296296296296292],[-0.02687499999999995,-0.03518518518518519],[-0.022083333333333382,-0.05611111111111113],[-0.0005208333333333333,-0.06870370370370374],[-0.007291666666666667,-0.0448148148148149],[-0.004062499999999977,-0.03759259259259251],[0.01260416666666669,-0.04740740740740745],[0.029270833333333357,-0.05722222222222218],[0.025833333333333285,-0.05592592592592591],[0.02020833333333331,-0.040370370370370286],[0.029270833333333357,-0.031111111111111027],[0.03833333333333329,-0.021851851851851768],[0.06593749999999995,-0.03611111111111111],[0.05458333333333331,-0.038703703703703664],[0.07322916666666662,-0.0705555555555556],[0.10843749999999991,-0.13129629629629624],[0.1788541666666667,-0.14500000000000002],[0.25812499999999994,-0.16925925925925922],[0.2738541666666668,-0.08925925925925923],[0.30364583333333334,-0.0514814814814814],[0.3311458333333334,-0.02814814814814823],[0.3273958333333333,0.034999999999999955],[0.28885416666666663,0.11185185185185181],[0.28875000000000006,0.15481481481481485],[0.3107291666666666,0.1866666666666666],[0.3055208333333333,0.2101851851851852],[0.2717708333333334,0.2103703703703704],[0.20385416666666673,0.2212962962962963],[0.21062500000000003,0.12370370370370362],[0.1993750000000001,0.06296296296296296],[0.19395833333333337,0.001851851851851852],[0.22302083333333325,-0.10407407407407405],[0.20354166666666676,-0.1557407407407408],[0.18499999999999991,-0.19148148148148145],[0.17302083333333323,-0.2322222222222222],[0.14979166666666663,-0.2116666666666667],[0.0821875000000001,-0.1814814814814815],[0.06041666666666667,-0.15407407407407406],[0.06041666666666667,-0.15407407407407406],[0.051041666666666666,-0.13796296296296295],[0.05385416666666672,-0.13370370370370369],[0.04041666666666662,-0.10611111111111113],[0.02374999999999995,-0.0735185185185185],[0.02374999999999995,-0.0735185185185185],[0.01739583333333338,-0.05185185185185185],[0.01739583333333338,-0.05185185185185185],[0.04708333333333338,-0.05425925925925928],[0.04708333333333338,-0.05425925925925928],[0.03864583333333336,-0.026851851851851852],[0.03864583333333336,-0.026851851851851852],[0.033645833333333285,0.010185185185185186],[0.033645833333333285,0.010185185185185186],[0.02781250000000005,-0.0022222222222223064],[0.02781250000000005,-0.0022222222222223064],[0.009791666666666643,0.003333333333333249],[0.010104166666666714,0.03166666666666671],[0.005624999999999976,0.03629629629629634],[-0.006979166666666714,0.05055555555555547],[0.013125000000000024,0.034444444444444486],[0.05239583333333329,0.01722222222222214],[0.0655208333333333,-0.0005555555555554713],[0.09375,-0.028888888888888933],[0.09375,-0.028888888888888933],[0.09739583333333333,-0.031111111111111027],[0.1146874999999999,0.003888888888888931],[0.12374999999999996,0.02092592592592584],[0.12864583333333332,0.018333333333333292],[0.11229166666666662,0.018148148148148063],[0.11229166666666662,0.018148148148148063],[0.1564583333333334,-0.009814814814814731],[0.1421875,0.052037037037037076],[0.12791666666666662,0.11388888888888889],[0.11072916666666661,0.16370370370370366],[0.11072916666666661,0.16370370370370366],[0.09645833333333324,0.23703703703703705],[0.1015625,0.21277777777777773],[0.12947916666666662,0.17111111111111107],[0.15729166666666666,0.13203703703703695],[0.1609375,0.12185185185185177],[0.18458333333333338,0.1359259259259259],[0.1586458333333333,0.17462962962962955],[0.1540625000000001,0.1587037037037038],[0.1423958333333334,0.11574074074074074],[0.14447916666666671,0.08944444444444435],[0.12927083333333325,0.06425925925925935],[0.12770833333333323,0.09351851851851851],[0.1087500000000001,0.09944444444444453],[0.08979166666666671,0.10537037037037032],[0.07104166666666671,0.1051851851851851],[0.051770833333333384,0.09703703703703699],[0.022708333333333285,0.06388888888888888],[0.005208333333333333,0.0005555555555554713],[0.0034374999999999527,-0.007777777777777862],[-0.01395833333333331,-0.013333333333333417],[-0.016979166666666618,-0.023148148148148147],[-0.02000000000000005,-0.03296296296296288],[0.0015625,-0.005370370370370328],[0.02312500000000005,0.022222222222222223],[0.02822916666666669,0.027962962962963005],[0.027708333333333356,0.02296296296296292],[0.020624999999999952,0.0235185185185186],[0.00635416666666669,0.04944444444444453],[-0.00614583333333331,0.05944444444444449],[-0.011249999999999953,0.053703703703703705],[-0.03218749999999997,-0.004629629629629629],[-0.053125,-0.06296296296296296],[-0.08343750000000003,-0.09592592592592594],[-0.11375000000000005,-0.12888888888888894],[-0.14968750000000006,-0.15981481481481483],[-0.1794791666666666,-0.172037037037037],[-0.12124999999999998,-0.1933333333333333],[-0.09343750000000005,-0.20481481481481487],[-0.0704166666666667,-0.2553703703703703],[-0.05479166666666669,-0.29018518518518516],[-0.014583333333333334,-0.2390740740740741],[0.005729166666666666,-0.2375925925925926],[0.005729166666666666,-0.2375925925925926],[0.03093750000000005,-0.3014814814814815],[0.07760416666666667,-0.38481481481481483],[0.1259375000000001,-0.43925925925925924],[0.19208333333333344,-0.5227777777777778],[0.19791666666666666,-0.5346296296296296],[0.2150000000000001,-0.5251851851851852],[0.22645833333333343,-0.48870370370370364],[0.22354166666666658,-0.49722222222222223],[0.2118750000000001,-0.5594444444444445],[0.21520833333333325,-0.5181481481481481],[0.2040625000000001,-0.44611111111111107],[0.1642708333333334,-0.40018518518518525],[0.15614583333333343,-0.35240740740740745],[0.11416666666666657,-0.28722222222222227],[0.07041666666666657,-0.2707407407407407],[0.0728125000000001,-0.2727777777777778],[0.07520833333333338,-0.2748148148148148],[0.09697916666666657,-0.24222222222222226],[0.09333333333333324,-0.2088888888888889],[0.09458333333333328,-0.2294444444444444],[0.09583333333333334,-0.25],[0.10427083333333324,-0.225],[0.11937499999999991,-0.2390740740740741],[0.13958333333333334,-0.2324074074074074],[0.15364583333333334,-0.2609259259259259],[0.13677083333333329,-0.2505555555555556],[0.10802083333333339,-0.2957407407407407],[0.0578125,-0.3218518518518519],[0.03302083333333338,-0.34870370370370374],[0.015312500000000047,-0.36666666666666664],[0.00916666666666662,-0.3933333333333333],[0.03114583333333331,-0.4081481481481481],[-0.0125,-0.4020370370370371],[-0.052291666666666715,-0.38481481481481483],[-0.04104166666666664,-0.3718518518518519],[-0.02374999999999995,-0.38259259259259265],[0.005416666666666714,-0.33777777777777773],[0.05520833333333333,-0.32092592592592595],[0.10499999999999995,-0.30407407407407405],[0.1412499999999999,-0.2942592592592592],[0.16593749999999996,-0.2757407407407407],[0.16552083333333342,-0.2692592592592592],[0.20510416666666675,-0.2614814814814815],[0.24958333333333324,-0.2322222222222222],[0.21770833333333334,-0.17703703703703708],[0.21770833333333334,-0.17703703703703708],[0.19916666666666671,-0.1881481481481482],[0.16697916666666662,-0.23203703703703707],[0.13114583333333343,-0.2609259259259259],[0.09937500000000009,-0.2561111111111111],[0.0740624999999999,-0.2531481481481481],[0.07104166666666671,-0.22925925925925927],[0.06499999999999997,-0.2051851851851852],[0.06499999999999997,-0.2051851851851852],[0.02177083333333331,-0.19740740740740745],[0.02177083333333331,-0.19740740740740745],[-0.021041666666666715,-0.24981481481481477],[-0.021041666666666715,-0.24981481481481477],[-0.04104166666666664,-0.31555555555555553],[-0.04104166666666664,-0.31555555555555553],[-0.050937499999999976,-0.31870370370370377]]","[[-0.43562500000000004,0.46166666666666656,0.00019999998807662678],[-0.43562500000000004,0.46166666666666656,0.0370999999940409],[-0.5103125,0.5588888888888888,0.04749999999999943],[-0.5410416666666666,0.6550000000000001,0.061899999991055665],[-0.5892708333333334,0.7614814814814815,0.07849999999999824],[-0.646875,0.887962962962963,0.09529999999701744],[-0.646875,0.887962962962963,0.11189999999105993],[-0.7178125000000001,1.007037037037037,0.12859999999403726],[-0.7178125000000001,1.007037037037037,0.14539999999105646],[-0.7784375,1.1292592592592592,0.1618999999910571],[-0.7784375,1.1292592592592592,0.17859999999404153],[-0.8580208333333333,1.2285185185185188,0.1951999999880769],[-0.9179166666666667,1.307037037037037,0.21600000000000108],[-0.9179166666666667,1.307037037037037,0.22849999999999682],[-0.9758333333333333,1.3898148148148148,0.24539999999105788],[-0.9758333333333333,1.3898148148148148,0.2618999999910585],[-0.9517708333333333,1.3318518518518518,0.2785000000000011],[-0.9517708333333333,1.3318518518518518,0.29519999998807833],[-0.9354166666666667,1.3096296296296297,0.3119999999999976],[-0.9189583333333334,1.2600000000000002,0.33219999998807737],[-0.9189583333333334,1.2600000000000002,0.34529999999701744],[-0.8707291666666667,1.2346296296296297,0.36189999999105993],[-0.8524999999999999,1.2329629629629628,0.37859999999403726],[-0.8359375,1.2505555555555554,0.39519999998807975],[-0.83,1.2196296296296294,0.4120999999940409],[-0.801875,1.1770370370370369,0.4326999999880812],[-0.6989583333333333,1.0466666666666669,0.44789999999105845],[-0.5960416666666667,0.9162962962962962,0.4619999999999962],[-0.48302083333333334,0.8144444444444444,0.48259999999403647],[-0.4022916666666667,0.6853703703703704,0.49689999999105794],[-0.3288541666666667,0.5933333333333333,0.5120999999940423],[-0.27791666666666665,0.4735185185185186,0.5313999999910592],[-0.1866666666666667,0.3374074074074075,0.545499999999997],[-0.10031249999999996,0.17907407407407416,0.5619999999999976],[-0.02354166666666669,0.06962962962962967,0.5785999999940401],[0.05416666666666667,-0.022222222222222223,0.5951999999880755],[0.033958333333333354,-0.010185185185185186,0.6150999999940368],[0.0203125,-0.01444444444444436,0.6311999999880769],[0.002708333333333357,-0.025370370370370456,0.648099999994038],[0.005312500000000024,-0.032407407407407406,0.6618999999910571],[0.013437499999999976,-0.06074074074074076,0.6810999999940393],[0.02385416666666664,-0.06703703703703702,0.6956999999880793],[0.010000000000000024,-0.08481481481481483,0.7120999999940381],[0.0010416666666666667,-0.08037037037037033,0.7322999999970179],[0.0109375,-0.09055555555555551,0.7503999999910604],[0.0109375,-0.09055555555555551,0.7647999999970168],[0.019895833333333356,-0.11833333333333329,0.7785999999940358],[0.024166666666666715,-0.1381481481481482,0.7975999999940413],[0.03895833333333331,-0.13851851851851854,0.8119999999999976],[0.05239583333333329,-0.1316666666666667,0.8285999999940401],[0.06124999999999995,-0.12129629629629629,0.8452999999970174],[0.07177083333333342,-0.0992592592592593,0.86489999999106],[0.07145833333333323,-0.12666666666666662,0.8787999999970211],[0.08510416666666672,-0.15,0.8953999999910565],[0.1040625000000001,-0.16203703703703703,0.9118999999910571],[0.10520833333333333,-0.16814814814814816,0.9320999999940369],[0.10510416666666676,-0.1581481481481481,0.947499999999998],[0.1131249999999999,-0.1514814814814815,0.9619999999999962],[0.10739583333333323,-0.16592592592592598,0.9785999999940387],[0.09979166666666663,-0.17833333333333334,0.995299999997016],[0.09854166666666657,-0.18499999999999997,1.0118999999910585],[0.10125000000000005,-0.19425925925925921,1.0285999999940358],[0.09947916666666666,-0.17074074074074072,1.0453999999910621],[0.09770833333333329,-0.14722222222222223,1.0618999999910557],[0.0756249999999999,-0.09444444444444444,1.0784999999999982],[0.05354166666666664,-0.041666666666666664,1.0951999999880755],[0.018229166666666668,-0.03425925925925926,1.114099999994039],[0.003125,-0.025370370370370456,1.1286999999880791],[-0.004479166666666619,-0.007592592592592635,1.1458999999910588],[-0.01427083333333338,0.03740740740740749,1.1653999999910596],[-0.019375000000000024,0.03740740740740749,1.1786999999880763],[-0.028437499999999952,0.04000000000000004,1.1953999999910607],[-0.010000000000000024,0.028888888888888933,1.2162999999970197],[-0.04593750000000003,0.06055555555555564,1.2301999999880806],[-0.043124999999999976,0.04203703703703712,1.2460000000000022],[-0.04031250000000005,0.0235185185185186,1.2620999999940423],[0.006666666666666643,0.01055555555555564,1.280799999997022],[0.01114583333333338,0.011296296296296339,1.2953999999910621],[-0.002499999999999976,0.010740740740740657,1.3119999999999976],[-0.012083333333333357,-0.01907407407407399,1.3284999999999982],[-0.027708333333333356,-0.004629629629629629,1.3453999999910593],[-0.043333333333333356,0.009814814814814731,1.3657999999970158],[-0.06145833333333333,0.02092592592592584,1.378799999997021],[-0.02520833333333338,-0.010740740740740657,1.395799999997017],[-0.026041666666666668,-0.02296296296296292,1.411899999991057],[-0.02687499999999995,-0.03518518518518519,1.431299999997016],[-0.022083333333333382,-0.05611111111111113,1.4485999999940375],[-0.0005208333333333333,-0.06870370370370374,1.4645999999940358],[-0.007291666666666667,-0.0448148148148149,1.4810999999940364],[-0.004062499999999977,-0.03759259259259251,1.4957999999970184],[0.01260416666666669,-0.04740740740740745,1.5120999999940423],[0.029270833333333357,-0.05722222222222218,1.528500000000001],[0.025833333333333285,-0.05592592592592591,1.5489999999999995],[0.02020833333333331,-0.040370370370370286,1.5636999999880814],[0.029270833333333357,-0.031111111111111027,1.5784999999999982],[0.03833333333333329,-0.021851851851851768,1.5951999999880755],[0.06593749999999995,-0.03611111111111111,1.61189999999106],[0.05458333333333331,-0.038703703703703664,1.6285000000000025],[0.07322916666666662,-0.0705555555555556,1.6452999999970217],[0.10843749999999991,-0.13129629629629624,1.661899999991057],[0.1788541666666667,-0.14500000000000002,1.6784999999999997],[0.25812499999999994,-0.16925925925925922,1.695199999988077],[0.2738541666666668,-0.08925925925925923,1.7117999999970195],[0.30364583333333334,-0.0514814814814814,1.7286999999880805],[0.3311458333333334,-0.02814814814814823,1.7473999999910603],[0.3273958333333333,0.034999999999999955,1.7620000000000005],[0.28885416666666663,0.11185185185185181,1.7785999999940358],[0.28875000000000006,0.15481481481481485,1.7950999999940365],[0.3107291666666666,0.1866666666666666,1.8118999999910557],[0.3055208333333333,0.2101851851851852,1.8284999999999982],[0.2717708333333334,0.2103703703703704,1.8457999999970198],[0.20385416666666673,0.2212962962962963,1.861799999997018],[0.21062500000000003,0.12370370370370362,1.8786999999880791],[0.1993750000000001,0.06296296296296296,1.8951999999880798],[0.19395833333333337,0.001851851851851852,1.9117999999970223],[0.22302083333333325,-0.10407407407407405,1.9284999999999997],[0.20354166666666676,-0.1557407407407408,1.9470000000000027],[0.18499999999999991,-0.19148148148148145,1.9618999999910613],[0.17302083333333323,-0.2322222222222222,1.9800999999940387],[0.14979166666666663,-0.2116666666666667,1.9956999999880765],[0.0821875000000001,-0.1814814814814815,2.014499999999998],[0.06041666666666667,-0.15407407407407406,2.028500000000001],[0.06041666666666667,-0.15407407407407406,2.045499999999997],[0.051041666666666666,-0.13796296296296295,2.065399999991058],[0.05385416666666672,-0.13370370370370369,2.080299999997017],[0.04041666666666662,-0.10611111111111113,2.0953999999910593],[0.02374999999999995,-0.0735185185185185,2.1181999999880787],[0.02374999999999995,-0.0735185185185185,2.128899999991056],[0.01739583333333338,-0.05185185185185185,2.1454999999999984],[0.01739583333333338,-0.05185185185185185,2.161999999999999],[0.04708333333333338,-0.05425925925925928,2.182899999991058],[0.04708333333333338,-0.05425925925925928,2.195299999997019],[0.03864583333333336,-0.026851851851851852,2.21219999998808],[0.03864583333333336,-0.026851851851851852,2.234599999994039],[0.033645833333333285,0.010185185185185186,2.2456999999880765],[0.033645833333333285,0.010185185185185186,2.2620000000000005],[0.02781250000000005,-0.0022222222222223064,2.282299999997022],[0.02781250000000005,-0.0022222222222223064,2.2952999999970203],[0.009791666666666643,0.003333333333333249,2.3121999999880813],[0.010104166666666714,0.03166666666666671,2.328799999997017],[0.005624999999999976,0.03629629629629634,2.3482999999970176],[-0.006979166666666714,0.05055555555555547,2.362699999988081],[0.013125000000000024,0.034444444444444486,2.3785000000000025],[0.05239583333333329,0.01722222222222214,2.3970999999940403],[0.0655208333333333,-0.0005555555555554713,2.411999999999999],[0.09375,-0.028888888888888933,2.4284999999999997],[0.09375,-0.028888888888888933,2.4487999999970214],[0.09739583333333333,-0.031111111111111027,2.4617999999970195],[0.1146874999999999,0.003888888888888931,2.4788999999910573],[0.12374999999999996,0.02092592592592584,2.499099999994037],[0.12864583333333332,0.018333333333333292,2.513999999999996],[0.11229166666666662,0.018148148148148063,2.5288999999910615],[0.11229166666666662,0.018148148148148063,2.5489999999999995],[0.1564583333333334,-0.009814814814814731,2.5620999999940395],[0.1421875,0.052037037037037076,2.578699999988075],[0.12791666666666662,0.11388888888888889,2.5990999999940385],[0.11072916666666661,0.16370370370370366,2.61639999999106],[0.11072916666666661,0.16370370370370366,2.6313999999910607],[0.09645833333333324,0.23703703703703705,2.6452999999970217],[0.1015625,0.21277777777777773,2.6617999999970223],[0.12947916666666662,0.17111111111111107,2.6785999999940415],[0.15729166666666666,0.13203703703703695,2.695099999994042],[0.1609375,0.12185185185185177,2.7118999999910613],[0.18458333333333338,0.1359259259259259,2.728499999999997],[0.1586458333333333,0.17462962962962955,2.745199999988081],[0.1540625000000001,0.1587037037037038,2.7617999999970166],[0.1423958333333334,0.11574074074074074,2.778500000000001],[0.14447916666666671,0.08944444444444435,2.7951999999880783],[0.12927083333333325,0.06425925925925935,2.8133999999910557],[0.12770833333333323,0.09351851851851851,2.830999999999996],[0.1087500000000001,0.09944444444444453,2.845599999994036],[0.08979166666666671,0.10537037037037032,2.862000000000002],[0.07104166666666671,0.1051851851851851,2.881799999997021],[0.051770833333333384,0.09703703703703699,2.8975999999940356],[0.022708333333333285,0.06388888888888888,2.911999999999999],[0.005208333333333333,0.0005555555555554713,2.932000000000002],[0.0034374999999999527,-0.007777777777777862,2.9455999999940374],[-0.01395833333333331,-0.013333333333333417,2.9618999999910613],[-0.016979166666666618,-0.023148148148148147,2.978499999999997],[-0.02000000000000005,-0.03296296296296288,2.998299999997016],[0.0015625,-0.005370370370370328,3.0120000000000005],[0.02312500000000005,0.022222222222222223,3.0286999999880777],[0.02822916666666669,0.027962962962963005,3.047799999997018],[0.027708333333333356,0.02296296296296292,3.0634999999999977],[0.020624999999999952,0.0235185185185186,3.078699999988075],[0.00635416666666669,0.04944444444444453,3.0952999999970174],[-0.00614583333333331,0.05944444444444449,3.1150999999940368],[-0.011249999999999953,0.053703703703703705,3.1285999999940373],[-0.03218749999999997,-0.004629629629629629,3.1460999999940356],[-0.053125,-0.06296296296296296,3.164399999991062],[-0.08343750000000003,-0.09592592592592594,3.1785999999940415],[-0.11375000000000005,-0.12888888888888894,3.195299999997019],[-0.14968750000000006,-0.15981481481481483,3.2118999999910613],[-0.1794791666666666,-0.172037037037037,3.2310999999940364],[-0.12124999999999998,-0.1933333333333333,3.2455],[-0.09343750000000005,-0.20481481481481487,3.2617999999970166],[-0.0704166666666667,-0.2553703703703703,3.278599999994036],[-0.05479166666666669,-0.29018518518518516,3.2980999999940366],[-0.014583333333333334,-0.2390740740740741,3.3118999999910557],[0.005729166666666666,-0.2375925925925926,3.3284999999999982],[0.005729166666666666,-0.2375925925925926,3.3452999999970174],[0.03093750000000005,-0.3014814814814815,3.361799999997018],[0.07760416666666667,-0.38481481481481483,3.3785000000000025],[0.1259375000000001,-0.43925925925925924,3.395099999994038],[0.19208333333333344,-0.5227777777777778,3.411899999991057],[0.19791666666666666,-0.5346296296296296,3.4284999999999997],[0.2150000000000001,-0.5251851851851852,3.445199999988077],[0.22645833333333343,-0.48870370370370364,3.4617999999970195],[0.22354166666666658,-0.49722222222222223,3.478499999999997],[0.2118750000000001,-0.5594444444444445,3.495399999991058],[0.21520833333333325,-0.5181481481481481,3.5117999999970166],[0.2040625000000001,-0.44611111111111107,3.528500000000001],[0.1642708333333334,-0.40018518518518525,3.5456999999880807],[0.15614583333333343,-0.35240740740740745,3.561799999997021],[0.11416666666666657,-0.28722222222222227,3.5784999999999982],[0.07041666666666657,-0.2707407407407407,3.5951999999880755],[0.0728125000000001,-0.2727777777777778,3.6120999999940366],[0.07520833333333338,-0.2748148148148148,3.6285999999940373],[0.09697916666666657,-0.24222222222222226,3.6451999999880798],[0.09333333333333324,-0.2088888888888889,3.6652999999970177],[0.09458333333333328,-0.2294444444444444,3.6807999999970207],[0.09583333333333334,-0.25,3.695199999988077],[0.10427083333333324,-0.225,3.7118999999910613],[0.11937499999999991,-0.2390740740740741,3.7285999999940387],[0.13958333333333334,-0.2324074074074074,3.746899999991058],[0.15364583333333334,-0.2609259259259259,3.7617999999970166],[0.13677083333333329,-0.2505555555555556,3.778500000000001],[0.10802083333333339,-0.2957407407407407,3.7951999999880783],[0.0578125,-0.3218518518518519,3.814099999994042],[0.03302083333333338,-0.34870370370370374,3.8311999999880797],[0.015312500000000047,-0.36666666666666664,3.8468999999910594],[0.00916666666666662,-0.3933333333333333,3.86189999999106],[0.03114583333333331,-0.4081481481481481,3.8785999999940373],[-0.0125,-0.4020370370370371,3.8951999999880798],[-0.052291666666666715,-0.38481481481481483,3.9117999999970223],[-0.04104166666666664,-0.3718518518518519,3.9284999999999997],[-0.02374999999999995,-0.38259259259259265,3.9453999999910607],[0.005416666666666714,-0.33777777777777773,3.9618999999910613],[0.05520833333333333,-0.32092592592592595,3.978499999999997],[0.10499999999999995,-0.30407407407407405,3.995199999988081],[0.1412499999999999,-0.2942592592592592,4.014099999994038],[0.16593749999999996,-0.2757407407407407,4.028500000000001],[0.16552083333333342,-0.2692592592592592,4.045199999988078],[0.20510416666666675,-0.2614814814814815,4.061799999997021],[0.24958333333333324,-0.2322222222222222,4.080699999988077],[0.21770833333333334,-0.17703703703703708,4.100000000000001],[0.21770833333333334,-0.17703703703703708,4.114399999991058],[0.19916666666666671,-0.1881481481481482,4.128599999994037],[0.16697916666666662,-0.23203703703703707,4.1469999999999985],[0.13114583333333343,-0.2609259259259259,4.161799999997022],[0.09937500000000009,-0.2561111111111111,4.1785],[0.0740624999999999,-0.2531481481481481,4.195199999988077],[0.07104166666666671,-0.22925925925925927,4.2117999999970195],[0.06499999999999997,-0.2051851851851852,4.228499999999997],[0.06499999999999997,-0.2051851851851852,4.245299999997016],[0.02177083333333331,-0.19740740740740745,4.261799999997017],[0.02177083333333331,-0.19740740740740745,4.278500000000001],[-0.021041666666666715,-0.24981481481481477,4.295199999988078],[-0.021041666666666715,-0.24981481481481477,4.311999999999998],[-0.04104166666666664,-0.31555555555555553,4.32859999999404],[-0.04104166666666664,-0.31555555555555553,4.3451999999880755],[-0.050937499999999976,-0.31870370370370377,4.36189999999106]]","[0.00019999998807662678,0.0370999999940409,0.04749999999999943,0.061899999991055665,0.07849999999999824,0.09529999999701744,0.11189999999105993,0.12859999999403726,0.14539999999105646,0.1618999999910571,0.17859999999404153,0.1951999999880769,0.21600000000000108,0.22849999999999682,0.24539999999105788,0.2618999999910585,0.2785000000000011,0.29519999998807833,0.3119999999999976,0.33219999998807737,0.34529999999701744,0.36189999999105993,0.37859999999403726,0.39519999998807975,0.4120999999940409,0.4326999999880812,0.44789999999105845,0.4619999999999962,0.48259999999403647,0.49689999999105794,0.5120999999940423,0.5313999999910592,0.545499999999997,0.5619999999999976,0.5785999999940401,0.5951999999880755,0.6150999999940368,0.6311999999880769,0.648099999994038,0.6618999999910571,0.6810999999940393,0.6956999999880793,0.7120999999940381,0.7322999999970179,0.7503999999910604,0.7647999999970168,0.7785999999940358,0.7975999999940413,0.8119999999999976,0.8285999999940401,0.8452999999970174,0.86489999999106,0.8787999999970211,0.8953999999910565,0.9118999999910571,0.9320999999940369,0.947499999999998,0.9619999999999962,0.9785999999940387,0.995299999997016,1.0118999999910585,1.0285999999940358,1.0453999999910621,1.0618999999910557,1.0784999999999982,1.0951999999880755,1.114099999994039,1.1286999999880791,1.1458999999910588,1.1653999999910596,1.1786999999880763,1.1953999999910607,1.2162999999970197,1.2301999999880806,1.2460000000000022,1.2620999999940423,1.280799999997022,1.2953999999910621,1.3119999999999976,1.3284999999999982,1.3453999999910593,1.3657999999970158,1.378799999997021,1.395799999997017,1.411899999991057,1.431299999997016,1.4485999999940375,1.4645999999940358,1.4810999999940364,1.4957999999970184,1.5120999999940423,1.528500000000001,1.5489999999999995,1.5636999999880814,1.5784999999999982,1.5951999999880755,1.61189999999106,1.6285000000000025,1.6452999999970217,1.661899999991057,1.6784999999999997,1.695199999988077,1.7117999999970195,1.7286999999880805,1.7473999999910603,1.7620000000000005,1.7785999999940358,1.7950999999940365,1.8118999999910557,1.8284999999999982,1.8457999999970198,1.861799999997018,1.8786999999880791,1.8951999999880798,1.9117999999970223,1.9284999999999997,1.9470000000000027,1.9618999999910613,1.9800999999940387,1.9956999999880765,2.014499999999998,2.028500000000001,2.045499999999997,2.065399999991058,2.080299999997017,2.0953999999910593,2.1181999999880787,2.128899999991056,2.1454999999999984,2.161999999999999,2.182899999991058,2.195299999997019,2.21219999998808,2.234599999994039,2.2456999999880765,2.2620000000000005,2.282299999997022,2.2952999999970203,2.3121999999880813,2.328799999997017,2.3482999999970176,2.362699999988081,2.3785000000000025,2.3970999999940403,2.411999999999999,2.4284999999999997,2.4487999999970214,2.4617999999970195,2.4788999999910573,2.499099999994037,2.513999999999996,2.5288999999910615,2.5489999999999995,2.5620999999940395,2.578699999988075,2.5990999999940385,2.61639999999106,2.6313999999910607,2.6452999999970217,2.6617999999970223,2.6785999999940415,2.695099999994042,2.7118999999910613,2.728499999999997,2.745199999988081,2.7617999999970166,2.778500000000001,2.7951999999880783,2.8133999999910557,2.830999999999996,2.845599999994036,2.862000000000002,2.881799999997021,2.8975999999940356,2.911999999999999,2.932000000000002,2.9455999999940374,2.9618999999910613,2.978499999999997,2.998299999997016,3.0120000000000005,3.0286999999880777,3.047799999997018,3.0634999999999977,3.078699999988075,3.0952999999970174,3.1150999999940368,3.1285999999940373,3.1460999999940356,3.164399999991062,3.1785999999940415,3.195299999997019,3.2118999999910613,3.2310999999940364,3.2455,3.2617999999970166,3.278599999994036,3.2980999999940366,3.3118999999910557,3.3284999999999982,3.3452999999970174,3.361799999997018,3.3785000000000025,3.395099999994038,3.411899999991057,3.4284999999999997,3.445199999988077,3.4617999999970195,3.478499999999997,3.495399999991058,3.5117999999970166,3.528500000000001,3.5456999999880807,3.561799999997021,3.5784999999999982,3.5951999999880755,3.6120999999940366,3.6285999999940373,3.6451999999880798,3.6652999999970177,3.6807999999970207,3.695199999988077,3.7118999999910613,3.7285999999940387,3.746899999991058,3.7617999999970166,3.778500000000001,3.7951999999880783,3.814099999994042,3.8311999999880797,3.8468999999910594,3.86189999999106,3.8785999999940373,3.8951999999880798,3.9117999999970223,3.9284999999999997,3.9453999999910607,3.9618999999910613,3.978499999999997,3.995199999988081,4.014099999994038,4.028500000000001,4.045199999988078,4.061799999997021,4.080699999988077,4.100000000000001,4.114399999991058,4.128599999994037,4.1469999999999985,4.161799999997022,4.1785,4.195199999988077,4.2117999999970195,4.228499999999997,4.245299999997016,4.261799999997017,4.278500000000001,4.295199999988078,4.311999999999998,4.32859999999404,4.3451999999880755,4.36189999999106]","[1733204999190,1733204999220,1733204999231,1733204999245,1733204999262,1733204999278,1733204999295,1733204999312,1733204999329,1733204999345,1733204999362,1733204999378,1733204999399,1733204999412,1733204999428,1733204999445,1733204999462,1733204999478,1733204999495,1733204999515,1733204999528,1733204999545,1733204999562,1733204999578,1733204999595,1733204999616,1733204999631,1733204999645,1733204999666,1733204999680,1733204999695,1733204999714,1733204999729,1733204999745,1733204999762,1733204999778,1733204999798,1733204999814,1733204999831,1733204999845,1733204999864,1733204999879,1733204999895,1733204999915,1733204999933,1733204999948,1733204999962,1733204999981,1733204999995,1733205000012,1733205000028,1733205000048,1733205000062,1733205000078,1733205000095,1733205000115,1733205000131,1733205000145,1733205000162,1733205000178,1733205000195,1733205000212,1733205000228,1733205000245,1733205000262,1733205000278,1733205000297,1733205000312,1733205000329,1733205000348,1733205000362,1733205000378,1733205000399,1733205000413,1733205000429,1733205000445,1733205000464,1733205000478,1733205000495,1733205000512,1733205000528,1733205000549,1733205000562,1733205000579,1733205000595,1733205000614,1733205000632,1733205000648,1733205000664,1733205000679,1733205000695,1733205000712,1733205000732,1733205000747,1733205000762,1733205000778,1733205000795,1733205000812,1733205000828,1733205000845,1733205000862,1733205000878,1733205000895,1733205000912,1733205000930,1733205000945,1733205000962,1733205000978,1733205000995,1733205001012,1733205001029,1733205001045,1733205001062,1733205001078,1733205001095,1733205001112,1733205001130,1733205001145,1733205001163,1733205001179,1733205001197,1733205001212,1733205001229,1733205001248,1733205001263,1733205001279,1733205001301,1733205001312,1733205001329,1733205001345,1733205001366,1733205001378,1733205001395,1733205001418,1733205001429,1733205001445,1733205001465,1733205001478,1733205001495,1733205001512,1733205001531,1733205001546,1733205001562,1733205001580,1733205001595,1733205001612,1733205001632,1733205001645,1733205001662,1733205001682,1733205001697,1733205001712,1733205001732,1733205001745,1733205001762,1733205001782,1733205001799,1733205001815,1733205001828,1733205001845,1733205001862,1733205001878,1733205001895,1733205001912,1733205001928,1733205001945,1733205001962,1733205001978,1733205001996,1733205002014,1733205002029,1733205002045,1733205002065,1733205002081,1733205002095,1733205002115,1733205002129,1733205002145,1733205002164,1733205002184,1733205002198,1733205002215,1733205002234,1733205002249,1733205002265,1733205002281,1733205002301,1733205002315,1733205002332,1733205002350,1733205002364,1733205002381,1733205002398,1733205002417,1733205002431,1733205002448,1733205002464,1733205002484,1733205002498,1733205002514,1733205002531,1733205002548,1733205002564,1733205002581,1733205002598,1733205002614,1733205002631,1733205002648,1733205002664,1733205002681,1733205002698,1733205002714,1733205002732,1733205002748,1733205002764,1733205002781,1733205002798,1733205002814,1733205002831,1733205002851,1733205002867,1733205002881,1733205002898,1733205002914,1733205002933,1733205002948,1733205002964,1733205002981,1733205003000,1733205003017,1733205003033,1733205003048,1733205003064,1733205003081,1733205003098,1733205003114,1733205003131,1733205003148,1733205003164,1733205003181,1733205003200,1733205003214,1733205003231,1733205003248,1733205003267,1733205003286,1733205003300,1733205003314,1733205003333,1733205003348,1733205003364,1733205003381,1733205003398,1733205003414,1733205003431,1733205003448,1733205003464,1733205003481,1733205003498,1733205003514,1733205003531,1733205003548]","[[541.8,789.3],[541.8,789.3],[470.1,841.8],[440.6,893.7],[394.3,951.2],[339,1019.5],[339,1019.5],[270.9,1083.8],[270.9,1083.8],[212.7,1149.8],[212.7,1149.8],[136.3,1203.4],[78.8,1245.8],[78.8,1245.8],[23.2,1290.5],[23.2,1290.5],[46.3,1259.2],[46.3,1259.2],[62,1247.2],[77.8,1220.4],[77.8,1220.4],[124.1,1206.7],[141.6,1205.8],[157.5,1215.3],[163.2,1198.6],[190.2,1175.6],[289,1105.2],[387.8,1034.8],[496.3,979.8],[573.8,910.1],[644.3,860.4],[693.2,795.7],[780.8,722.2],[863.7,636.7],[937.4,577.6],[1012,528],[992.6,534.5],[979.5,532.2],[962.6,526.3],[965.1,522.5],[972.9,507.2],[982.9,503.8],[969.6,494.2],[961,496.6],[970.5,491.1],[970.5,491.1],[979.1,476.1],[983.2,465.4],[997.4,465.2],[1010.3,468.9],[1018.8,474.5],[1028.9,486.4],[1028.6,471.6],[1041.7,459],[1059.9,452.5],[1061,449.2],[1060.9,454.6],[1068.6,458.2],[1063.1,450.4],[1055.8,443.7],[1054.6,440.1],[1057.2,435.1],[1055.5,447.8],[1053.8,460.5],[1032.6,489],[1011.4,517.5],[977.5,521.5],[963,526.3],[955.7,535.9],[946.3,560.2],[941.4,560.2],[932.7,561.6],[950.4,555.6],[915.9,572.7],[918.6,562.7],[921.3,552.7],[966.4,545.7],[970.7,546.1],[957.6,545.8],[948.4,529.7],[933.4,537.5],[918.4,545.3],[901,551.3],[935.8,534.2],[935,527.6],[934.2,521],[938.8,509.7],[959.5,502.9],[953,515.8],[956.1,519.7],[972.1,514.4],[988.1,509.1],[984.8,509.8],[979.4,518.2],[988.1,523.2],[996.8,528.2],[1023.3,520.5],[1012.4,519.1],[1030.3,501.9],[1064.1,469.1],[1131.7,461.7],[1207.8,448.6],[1222.9,491.8],[1251.5,512.2],[1277.9,524.8],[1274.3,558.9],[1237.3,600.4],[1237.2,623.6],[1258.3,640.8],[1253.3,653.5],[1220.9,653.6],[1155.7,659.5],[1162.2,606.8],[1151.4,574],[1146.2,541],[1174.1,483.8],[1155.4,455.9],[1137.6,436.6],[1126.1,414.6],[1103.8,425.7],[1038.9,442],[1018,456.8],[1018,456.8],[1009,465.5],[1011.7,467.8],[998.8,482.7],[982.8,500.3],[982.8,500.3],[976.7,512],[976.7,512],[1005.2,510.7],[1005.2,510.7],[997.1,525.5],[997.1,525.5],[992.3,545.5],[992.3,545.5],[986.7,538.8],[986.7,538.8],[969.4,541.8],[969.7,557.1],[965.4,559.6],[953.3,567.3],[972.6,558.6],[1010.3,549.3],[1022.9,539.7],[1050,524.4],[1050,524.4],[1053.5,523.2],[1070.1,542.1],[1078.8,551.3],[1083.5,549.9],[1067.8,549.8],[1067.8,549.8],[1110.2,534.7],[1096.5,568.1],[1082.8,601.5],[1066.3,628.4],[1066.3,628.4],[1052.6,668],[1057.5,654.9],[1084.3,632.4],[1111,611.3],[1114.5,605.8],[1137.2,613.4],[1112.3,634.3],[1107.9,625.7],[1096.7,602.5],[1098.7,588.3],[1084.1,574.7],[1082.6,590.5],[1064.4,593.7],[1046.2,596.9],[1028.2,596.8],[1009.7,592.4],[981.8,574.5],[965,540.3],[963.3,535.8],[946.6,532.8],[943.7,527.5],[940.8,522.2],[961.5,537.1],[982.2,552],[987.1,555.1],[986.6,552.4],[979.8,552.7],[966.1,566.7],[954.1,572.1],[949.2,569],[929.1,537.5],[909,506],[879.9,488.2],[850.8,470.4],[816.3,453.7],[787.7,447.1],[843.6,435.6],[870.3,429.4],[892.4,402.1],[907.4,383.3],[946,410.9],[965.5,411.7],[965.5,411.7],[989.7,377.2],[1034.5,332.2],[1080.9,302.8],[1144.4,257.7],[1150,251.3],[1166.4,256.4],[1177.4,276.1],[1174.6,271.5],[1163.4,237.9],[1166.6,260.2],[1155.9,299.1],[1117.7,323.9],[1109.9,349.7],[1069.6,384.9],[1027.6,393.8],[1029.9,392.7],[1032.2,391.6],[1053.1,409.2],[1049.6,427.2],[1050.8,416.1],[1052,405],[1060.1,418.5],[1074.6,410.9],[1094,414.5],[1107.5,399.1],[1091.3,404.7],[1063.7,380.3],[1015.5,366.2],[991.7,351.7],[974.7,342],[968.8,327.6],[989.9,319.6],[948,322.9],[909.8,332.2],[920.6,339.2],[937.2,333.4],[965.2,357.6],[1013,366.7],[1060.8,375.8],[1095.6,381.1],[1119.3,391.1],[1118.9,394.6],[1156.9,398.8],[1199.6,414.6],[1169,444.4],[1169,444.4],[1151.2,438.4],[1120.3,414.7],[1085.9,399.1],[1055.4,401.7],[1031.1,403.3],[1028.2,416.2],[1022.4,429.2],[1022.4,429.2],[980.9,433.4],[980.9,433.4],[939.8,405.1],[939.8,405.1],[920.6,369.6],[920.6,369.6],[911.1,367.9]]","[0,0.151169218]","[0.151169218,0.151169218]","[-0.151169218,0]","[-0.151169218,-0.151169218]","[0,0]","[0.151169218,0]","[0,-0.151169218]","[0.151169218,-0.151169218]",0,0,0,0,1,3,Smartphone,11,9,9,1
,,,,,,,,,,,,,,,,,,,,12,001,2024-12-03_13h49.19.363,Attention_exp_legacy,2023.1.0,Win32,60.24096386,,,,,,,,,,[0.01875],[0.15925925925925927],[1],[0],[0],[2.2813999999910592],"[""Option1_label""]",Option1_label,2,3.2998,"[[0.01875,0.15925925925925927],[0.01875,0.15925925925925927],[0.01875,0.15925925925925927],[0.01875,0.15925925925925927],[0.01875,0.15925925925925927],[0.01875,0.15925925925925927],[0.01875,0.15925925925925927],[0.01875,0.15925925925925927],[0.01875,0.15925925925925927],[0.01875,0.15925925925925927],[0.01875,0.15925925925925927],[0.01875,0.15925925925925927],[0.01875,0.15925925925925927],[0.01875,0.15925925925925927],[0.01875,0.15925925925925927],[0.01875,0.15925925925925927],[0.01875,0.15925925925925927],[0.01875,0.15925925925925927],[0.01875,0.15925925925925927],[0.01875,0.15925925925925927],[0.01875,0.15925925925925927],[0.01875,0.15925925925925927],[0.01875,0.15925925925925927],[0.01875,0.15925925925925927],[0.01875,0.15925925925925927],[0.01875,0.15925925925925927],[0.01875,0.15925925925925927],[0.01875,0.15925925925925927],[0.01875,0.15925925925925927],[0.01875,0.15925925925925927],[0.01875,0.15925925925925927],[0.01875,0.15925925925925927],[0.01875,0.15925925925925927],[0.01875,0.15925925925925927],[0.01875,0.15925925925925927],[0.01875,0.15925925925925927],[0.01875,0.15925925925925927],[0.01875,0.15925925925925927],[0.01875,0.15925925925925927],[0.01875,0.15925925925925927],[0.01875,0.15925925925925927],[0.01875,0.15925925925925927],[0.01875,0.15925925925925927],[0.01875,0.15925925925925927],[0.01875,0.15925925925925927],[0.01875,0.15925925925925927],[0.01875,0.15925925925925927],[0.01875,0.15925925925925927],[0.01875,0.15925925925925927],[0.01875,0.15925925925925927],[0.01875,0.15925925925925927],[0.01875,0.15925925925925927],[0.01875,0.15925925925925927],[0.01875,0.15925925925925927],[0.01875,0.15925925925925927],[0.01875,0.15925925925925927],[0.01875,0.15925925925925927],[0.01875,0.15925925925925927],[0.01875,0.15925925925925927],[0.01875,0.15925925925925927],[0.01875,0.15925925925925927],[0.01875,0.15925925925925927],[0.01875,0.15925925925925927],[0.01875,0.15925925925925927],[0.01875,0.15925925925925927],[0.01875,0.15925925925925927],[0.01875,0.15925925925925927],[0.01875,0.15925925925925927],[0.01875,0.15925925925925927],[0.01875,0.15925925925925927],[0.01875,0.15925925925925927],[0.01875,0.15925925925925927],[0.01875,0.15925925925925927],[0.01875,0.15925925925925927],[0.01875,0.15925925925925927],[0.01875,0.15925925925925927],[0.01875,0.15925925925925927],[0.01875,0.15925925925925927],[0.01875,0.15925925925925927],[0.01875,0.15925925925925927],[0.01875,0.15925925925925927],[0.01875,0.15925925925925927],[0.01875,0.15925925925925927],[0.01875,0.15925925925925927],[0.01875,0.15925925925925927],[0.01875,0.15925925925925927],[0.01875,0.15925925925925927],[0.01875,0.15925925925925927],[0.01875,0.15925925925925927],[0.01875,0.15925925925925927],[0.01875,0.15925925925925927],[0.01875,0.15925925925925927],[0.01875,0.15925925925925927],[0.01875,0.15925925925925927],[0.01875,0.15925925925925927],[0.01875,0.15925925925925927],[0.01875,0.15925925925925927],[0.01875,0.15925925925925927],[0.01875,0.15925925925925927],[0.01875,0.15925925925925927],[0.01875,0.15925925925925927],[0.01875,0.15925925925925927],[0.01875,0.15925925925925927],[0.01875,0.15925925925925927],[0.01875,0.15925925925925927],[0.01875,0.15925925925925927],[0.01875,0.15925925925925927],[0.01875,0.15925925925925927],[0.01875,0.15925925925925927],[0.01875,0.15925925925925927],[0.01875,0.15925925925925927],[0.01875,0.15925925925925927],[0.01875,0.15925925925925927],[0.01875,0.15925925925925927],[0.01875,0.15925925925925927],[0.01875,0.15925925925925927],[0.01875,0.15925925925925927],[0.01875,0.15925925925925927],[0.01875,0.15925925925925927],[0.01875,0.15925925925925927],[0.01875,0.15925925925925927],[0.01875,0.15925925925925927],[0.01875,0.15925925925925927],[0.01875,0.15925925925925927],[0.01875,0.15925925925925927],[0.01875,0.15925925925925927],[0.01875,0.15925925925925927],[0.01875,0.15925925925925927],[0.01875,0.15925925925925927],[0.01875,0.15925925925925927],[0.01875,0.15925925925925927],[0.01875,0.15925925925925927],[0.01875,0.15925925925925927],[0.01875,0.15925925925925927],[0.01875,0.15925925925925927],[0.01875,0.15925925925925927],[0.01875,0.15925925925925927],[0.01875,0.15925925925925927],[0.01875,0.15925925925925927],[0.01875,0.15925925925925927],[0.01875,0.15925925925925927],[0.01875,0.15925925925925927],[0.01875,0.15925925925925927],[0.01875,0.15925925925925927],[0.01875,0.15925925925925927],[0.01875,0.15925925925925927],[0.01875,0.15925925925925927],[0.01875,0.15925925925925927],[0.01875,0.15925925925925927],[0.01875,0.15925925925925927],[0.01875,0.15925925925925927],[0.01875,0.15925925925925927],[0.01875,0.15925925925925927],[0.01875,0.15925925925925927],[0.01875,0.15925925925925927],[0.01875,0.15925925925925927],[0.01875,0.15925925925925927],[0.01875,0.15925925925925927],[0.01875,0.15925925925925927],[0.01875,0.15925925925925927],[0.01875,0.15925925925925927],[0.01875,0.15925925925925927],[0.01875,0.15925925925925927],[0.01875,0.15925925925925927],[0.01875,0.15925925925925927],[0.01875,0.15925925925925927],[0.01875,0.15925925925925927],[0.01875,0.15925925925925927],[0.01875,0.15925925925925927],[0.01875,0.15925925925925927],[0.01875,0.15925925925925927],[0.01875,0.15925925925925927],[0.01875,0.15925925925925927],[0.01875,0.15925925925925927],[0.01875,0.15925925925925927],[0.01875,0.15925925925925927],[0.01875,0.15925925925925927],[0.01875,0.15925925925925927],[0.01875,0.15925925925925927],[0.01875,0.15925925925925927],[0.01875,0.15925925925925927],[0.01875,0.15925925925925927],[0.01875,0.15925925925925927],[0.01875,0.15925925925925927],[0.01875,0.15925925925925927],[0.01875,0.15925925925925927],[0.01875,0.15925925925925927],[0.01875,0.15925925925925927],[0.01875,0.15925925925925927],[0.01875,0.15925925925925927],[0.01875,0.15925925925925927],[0.01875,0.15925925925925927],[0.01875,0.15925925925925927],[0.01875,0.15925925925925927],[0.01875,0.15925925925925927],[0.01875,0.15925925925925927],[0.01875,0.15925925925925927],[0.01875,0.15925925925925927],[0.01875,0.15925925925925927]]","[[-0.022812499999999975,0.41333333333333344],[-0.012187500000000047,0.44518518518518513],[-0.03260416666666662,0.4955555555555556],[-0.05302083333333331,0.5459259259259258],[-0.065625,0.5427777777777778],[-0.09562499999999995,0.524074074074074],[-0.09791666666666667,0.5331481481481481],[-0.10104166666666667,0.5977777777777777],[-0.11145833333333334,0.5648148148148148],[-0.11770833333333333,0.5598148148148148],[-0.1516666666666667,0.5305555555555556],[-0.18541666666666667,0.4875925925925925],[-0.19624999999999998,0.4161111111111112],[-0.20708333333333329,0.3446296296296297],[-0.19781249999999997,0.3329629629629629],[-0.18125,0.31740740740740736],[-0.20447916666666663,0.2975925925925927],[-0.22666666666666668,0.24388888888888896],[-0.2515625,0.2675925925925926],[-0.28062499999999996,0.2633333333333334],[-0.2929166666666667,0.2624074074074075],[-0.3054166666666667,0.27518518518518525],[-0.3054166666666667,0.27518518518518525],[-0.2959375,0.28888888888888886],[-0.26364583333333336,0.3446296296296297],[-0.25447916666666665,0.3881481481481482],[-0.2679166666666667,0.3609259259259259],[-0.26927083333333335,0.3101851851851852],[-0.26927083333333335,0.3101851851851852],[-0.25104166666666666,0.2609259259259259],[-0.2485416666666667,0.2390740740740741],[-0.22916666666666666,0.21129629629629634],[-0.21583333333333338,0.26740740740740737],[-0.20249999999999999,0.3235185185185186],[-0.20249999999999999,0.3235185185185186],[-0.21468750000000003,0.3755555555555555],[-0.2585416666666667,0.3277777777777778],[-0.284375,0.2722222222222222],[-0.27218749999999997,0.29222222222222216],[-0.26,0.3122222222222223],[-0.2876041666666667,0.33666666666666656],[-0.2672916666666667,0.31444444444444436],[-0.2638541666666666,0.29814814814814816],[-0.26437499999999997,0.21388888888888888],[-0.2648958333333333,0.12962962962962962],[-0.2585416666666667,0.06740740740740736],[-0.25270833333333337,0.07018518518518514],[-0.25270833333333337,0.07018518518518514],[-0.246875,0.07296296296296292],[-0.23656250000000004,0.06351851851851843],[-0.23406250000000003,0.08611111111111111],[-0.21135416666666665,0.10277777777777777],[-0.18979166666666672,0.1425925925925926],[-0.16822916666666668,0.1824074074074074],[-0.146875,0.21351851851851844],[-0.12552083333333333,0.24462962962962967],[-0.12552083333333333,0.24462962962962967],[-0.1123958333333333,0.24888888888888885],[-0.1123958333333333,0.24888888888888885],[-0.08562500000000005,0.25629629629629624],[-0.07614583333333336,0.247037037037037],[-0.07614583333333336,0.247037037037037],[-0.08854166666666667,0.21296296296296297],[-0.07989583333333337,0.15388888888888894],[-0.07989583333333337,0.15388888888888894],[-0.07593749999999998,0.13703703703703704],[-0.07593749999999998,0.13703703703703704],[-0.08541666666666667,0.11018518518518519],[-0.0938541666666667,0.0801851851851851],[-0.10208333333333333,0.0588888888888888],[-0.10770833333333331,0.03759259259259251],[-0.10854166666666672,0.038703703703703664],[-0.10708333333333328,0.02814814814814823],[-0.08833333333333329,0.03425925925925926],[-0.08802083333333334,0.09944444444444453],[-0.10093749999999997,0.15759259259259265],[-0.11656249999999997,0.17462962962962955],[-0.12270833333333328,0.1905555555555555],[-0.10604166666666662,0.22629629629629638],[-0.08937499999999995,0.262037037037037],[-0.0704166666666667,0.2874074074074075],[-0.0704166666666667,0.2874074074074075],[-0.050729166666666714,0.318888888888889],[-0.04562499999999995,0.3435185185185185],[-0.036458333333333336,0.3714814814814815],[-0.0068750000000000235,0.3725925925925927],[0.019583333333333286,0.368888888888889],[0.05343749999999995,0.3640740740740741],[0.07718749999999991,0.36796296296296305],[0.08406250000000005,0.35259259259259257],[0.07614583333333323,0.34666666666666673],[0.06333333333333328,0.35111111111111115],[0.043958333333333384,0.3424074074074074],[0.03447916666666669,0.34888888888888886],[0.03447916666666669,0.34888888888888886],[0.03187500000000002,0.3698148148148149],[0.033645833333333285,0.38722222222222225],[0.03854166666666667,0.4094444444444445],[0.021041666666666715,0.42481481481481476],[0.009062500000000048,0.45129629629629636],[-0.016250000000000025,0.4305555555555556],[-0.035416666666666666,0.39537037037037037],[-0.043958333333333384,0.3538888888888889],[-0.06302083333333333,0.33851851851851844],[-0.07135416666666666,0.33796296296296297],[-0.090625,0.31962962962962965],[-0.12145833333333336,0.24666666666666676],[-0.15229166666666671,0.1737037037037036],[-0.14906250000000001,0.12814814814814823],[-0.17281249999999998,0.059999999999999956],[-0.20437500000000006,0.05],[-0.18843749999999998,0.03629629629629634],[-0.20093749999999996,0.0294444444444444],[-0.20874999999999996,0.018703703703703747],[-0.2265625,-0.02092592592592584],[-0.2295833333333333,-0.06870370370370374],[-0.23447916666666668,-0.07888888888888893],[-0.22614583333333335,-0.039074074074074115],[-0.22614583333333335,-0.039074074074074115],[-0.2111458333333334,-0.02240740740740745],[-0.20760416666666662,-0.004629629629629629],[-0.18562500000000004,-0.03259259259259263],[-0.21833333333333335,-0.027407407407407325],[-0.2203125,-0.04129629629629621],[-0.20104166666666667,-0.06277777777777774],[-0.1766666666666667,-0.07851851851851847],[-0.17114583333333327,-0.06981481481481479],[-0.15656249999999997,-0.04055555555555551],[-0.1492708333333333,-0.056296296296296254],[-0.16031249999999997,-0.06944444444444445],[-0.14135416666666673,-0.05185185185185185],[-0.12666666666666668,0.0031481481481482323],[-0.11499999999999998,0.07314814814814814],[-0.11625000000000002,0.16166666666666657],[-0.13020833333333334,0.22444444444444453],[-0.15187499999999995,0.28851851851851845],[-0.16635416666666672,0.32944444444444443],[-0.18083333333333335,0.37037037037037035],[-0.2039583333333333,0.4105555555555556],[-0.22708333333333333,0.4507407407407407],[-0.24375,0.4866666666666666],[-0.2604166666666667,0.5225925925925927],[-0.2573958333333334,0.4901851851851853],[-0.2543750000000001,0.45777777777777784],[-0.23343750000000002,0.42370370370370364],[-0.2055208333333333,0.3979629629629629],[-0.20750000000000005,0.39518518518518514],[-0.18614583333333337,0.3562962962962963],[-0.13614583333333338,0.3487037037037036],[-0.12406250000000002,0.2825925925925926],[-0.12156250000000005,0.24814814814814815],[-0.11927083333333334,0.17296296296296293],[-0.09229166666666669,0.1725925925925927],[-0.06802083333333328,0.18499999999999997],[-0.04375,0.20462962962962963],[-0.02645833333333331,0.21592592592592597],[-0.003958333333333286,0.227962962962963],[-0.005937500000000048,0.2807407407407408],[-0.04104166666666664,0.30111111111111116],[-0.03822916666666672,0.38000000000000006],[-0.050833333333333286,0.39092592592592595],[-0.06322916666666671,0.4425925925925926],[-0.09885416666666665,0.4225925925925927],[-0.13177083333333334,0.38981481481481484],[-0.17177083333333332,0.44092592592592594],[-0.2117708333333333,0.4920370370370371],[-0.22625000000000003,0.46944444444444444],[-0.23958333333333334,0.4422222222222221],[-0.2404166666666666,0.3772222222222223],[-0.24437500000000004,0.28425925925925927],[-0.21312500000000004,0.23351851851851857],[-0.18187500000000004,0.18277777777777787],[-0.16302083333333334,0.1737037037037036],[-0.14416666666666664,0.1646296296296296],[-0.12843749999999995,0.0794444444444444],[-0.11270833333333338,-0.005740740740740783],[-0.11572916666666669,-0.032777777777777864],[-0.11875,-0.059814814814814835],[-0.11875,-0.059814814814814835],[-0.14104166666666665,-0.0448148148148149],[-0.1310416666666666,-0.001851851851851852],[-0.13614583333333338,0.01796296296296305],[-0.15625,0.02240740740740745],[-0.16625000000000004,0.010925925925925884],[-0.19968750000000005,0.02444444444444453],[-0.23770833333333338,0.04277777777777782],[-0.27010416666666665,0.046296296296296294],[-0.2877083333333334,0.0485185185185186],[-0.2877083333333334,0.0485185185185186],[-0.30531250000000004,0.0507407407407407],[-0.30531250000000004,0.0507407407407407],[-0.2920833333333333,0.056296296296296254],[-0.30364583333333334,0.06944444444444445],[-0.31520833333333337,0.08259259259259263],[-0.3342708333333333,0.10129629629629638],[-0.3533333333333334,0.11999999999999991],[-0.3533333333333334,0.11999999999999991],[-0.34916666666666674,0.14166666666666666],[-0.32833333333333337,0.1675925925925926]]","[[-0.022812499999999975,0.41333333333333344,0.00020000000297670795],[-0.012187500000000047,0.44518518518518513,0.016900000005961147],[-0.03260416666666662,0.4955555555555556,0.0331000000089432],[-0.05302083333333331,0.5459259259259258,0.051900000005957736],[-0.065625,0.5427777777777778,0.06649999999999778],[-0.09562499999999995,0.524074074074074,0.08310000000894036],[-0.09791666666666667,0.5331481481481481,0.09980000001191769],[-0.10104166666666667,0.5977777777777777,0.11650000000000205],[-0.11145833333333334,0.5648148148148148,0.1331000000089375],[-0.11770833333333333,0.5598148148148148,0.1504000000059591],[-0.1516666666666667,0.5305555555555556,0.17040000000596223],[-0.18541666666666667,0.4875925925925925,0.18520000000297898],[-0.19624999999999998,0.4161111111111112,0.19999999999999574],[-0.20708333333333329,0.3446296296296297,0.2164000000059616],[-0.19781249999999997,0.3329629629629629,0.23310000000893893],[-0.18125,0.31740740740740736,0.24990000000595813],[-0.20447916666666663,0.2975925925925927,0.2666000000089426],[-0.22666666666666668,0.24388888888888896,0.2831000000089432],[-0.2515625,0.2675925925925926,0.29980000001192053],[-0.28062499999999996,0.2633333333333334,0.316400000005963],[-0.2929166666666667,0.2624074074074075,0.33310000000894036],[-0.3054166666666667,0.27518518518518525,0.3498000000119177],[-0.3054166666666667,0.27518518518518525,0.3666000000089369],[-0.2959375,0.28888888888888886,0.3831000000089375],[-0.26364583333333336,0.3446296296296297,0.39980000001192195],[-0.25447916666666665,0.3881481481481482,0.4164999999999992],[-0.2679166666666667,0.3609259259259259,0.4331000000089418],[-0.26927083333333335,0.3101851851851852,0.44970000000297716],[-0.26927083333333335,0.3101851851851852,0.4667000000029802],[-0.25104166666666666,0.2609259259259259,0.4832000000029808],[-0.2485416666666667,0.2390740740740741,0.4998000000119234],[-0.22916666666666666,0.21129629629629634,0.5167000000029773],[-0.21583333333333338,0.26740740740740737,0.5331000000089432],[-0.20249999999999999,0.3235185185185186,0.5498000000119205],[-0.20249999999999999,0.3235185185185186,0.5664999999999978],[-0.21468750000000003,0.3755555555555555,0.5831000000089404],[-0.2585416666666667,0.3277777777777778,0.6000000000000014],[-0.284375,0.2722222222222222,0.616500000000002],[-0.27218749999999997,0.29222222222222216,0.6331000000089375],[-0.26,0.3122222222222223,0.6528000000119221],[-0.2876041666666667,0.33666666666666656,0.6715000000000018],[-0.2672916666666667,0.31444444444444436,0.6873000000119234],[-0.2638541666666666,0.29814814814814816,0.7004000000059563],[-0.26437499999999997,0.21388888888888888,0.7164000000059616],[-0.2648958333333333,0.12962962962962962,0.7332000000029808],[-0.2585416666666667,0.06740740740740736,0.7498000000119234],[-0.25270833333333337,0.07018518518518514,0.7719000000059566],[-0.25270833333333337,0.07018518518518514,0.7873000000119177],[-0.246875,0.07296296296296292,0.7998000000119205],[-0.23656250000000004,0.06351851851851843,0.816400000005963],[-0.23406250000000003,0.08611111111111111,0.8331000000089404],[-0.21135416666666665,0.10277777777777777,0.8499000000059596],[-0.18979166666666672,0.1425925925925926,0.8667000000029788],[-0.16822916666666668,0.1824074074074074,0.8830000000000027],[-0.146875,0.21351851851851844,0.89970000000298],[-0.12552083333333333,0.24462962962962967,0.9164999999999992],[-0.12552083333333333,0.24462962962962967,0.9331000000089418],[-0.1123958333333333,0.24888888888888885,0.9498000000119191],[-0.1123958333333333,0.24888888888888885,0.9664999999999964],[-0.08562500000000005,0.25629629629629624,0.9832000000029808],[-0.07614583333333336,0.247037037037037,1.0009999999999977],[-0.07614583333333336,0.247037037037037,1.0164000000059588],[-0.08854166666666667,0.21296296296296297,1.03330000001192],[-0.07989583333333337,0.15388888888888894,1.0554000000059602],[-0.07989583333333337,0.15388888888888894,1.0666000000089397],[-0.07593749999999998,0.13703703703703704,1.0831000000089404],[-0.07593749999999998,0.13703703703703704,1.0998000000119177],[-0.08541666666666667,0.11018518518518519,1.116500000000002],[-0.0938541666666667,0.0801851851851851,1.1371000000089424],[-0.10208333333333333,0.0588888888888888,1.1503000000119172],[-0.10770833333333331,0.03759259259259251,1.1664999999999992],[-0.10854166666666672,0.038703703703703664,1.1829999999999998],[-0.10708333333333328,0.02814814814814823,1.1997000000029772],[-0.08833333333333329,0.03425925925925926,1.2164999999999964],[-0.08802083333333334,0.09944444444444453,1.232999999999997],[-0.10093749999999997,0.15759259259259265,1.2497000000029814],[-0.11656249999999997,0.17462962962962955,1.2664000000059588],[-0.12270833333333328,0.1905555555555555,1.2831000000089432],[-0.10604166666666662,0.22629629629629638,1.2998000000119205],[-0.08937499999999995,0.262037037037037,1.316400000005963],[-0.0704166666666667,0.2874074074074075,1.3329999999999984],[-0.0704166666666667,0.2874074074074075,1.3498000000119177],[-0.050729166666666714,0.318888888888889,1.3666000000089369],[-0.04562499999999995,0.3435185185185185,1.3831000000089375],[-0.036458333333333336,0.3714814814814815,1.399800000011922],[-0.0068750000000000235,0.3725925925925927,1.4164000000059573],[0.019583333333333286,0.368888888888889,1.4331000000089418],[0.05343749999999995,0.3640740740740741,1.449800000011919],[0.07718749999999991,0.36796296296296305,1.4664000000059616],[0.08406250000000005,0.35259259259259257,1.482999999999997],[0.07614583333333323,0.34666666666666673,1.4998000000119234],[0.06333333333333328,0.35111111111111115,1.5164000000059588],[0.043958333333333384,0.3424074074074074,1.5330000000000013],[0.03447916666666669,0.34888888888888886,1.5498000000119205],[0.03447916666666669,0.34888888888888886,1.566400000005963],[0.03187500000000002,0.3698148148148149,1.5831000000089404],[0.033645833333333285,0.38722222222222225,1.5998000000119177],[0.03854166666666667,0.4094444444444445,1.6164000000059602],[0.021041666666666715,0.42481481481481476,1.6331000000089375],[0.009062500000000048,0.45129629629629636,1.64970000000298],[-0.016250000000000025,0.4305555555555556,1.6666000000089412],[-0.035416666666666666,0.39537037037037037,1.6831000000089418],[-0.043958333333333384,0.3538888888888889,1.699800000011919],[-0.06302083333333333,0.33851851851851844,1.7164000000059616],[-0.07135416666666666,0.33796296296296297,1.7332000000029808],[-0.090625,0.31962962962962965,1.7497000000029814],[-0.12145833333333336,0.24666666666666676,1.7703000000119218],[-0.15229166666666671,0.1737037037037036,1.7834000000059618],[-0.14906250000000001,0.12814814814814823,1.7998000000119205],[-0.17281249999999998,0.059999999999999956,1.816400000005963],[-0.20437500000000006,0.05,1.8331000000089404],[-0.18843749999999998,0.03629629629629634,1.8500000000000014],[-0.20093749999999996,0.0294444444444444,1.8666000000089369],[-0.20874999999999996,0.018703703703703747,1.8831000000089375],[-0.2265625,-0.02092592592592584,1.8999000000059567],[-0.2295833333333333,-0.06870370370370374,1.9164000000059573],[-0.23447916666666668,-0.07888888888888893,1.9331000000089418],[-0.22614583333333335,-0.039074074074074115,1.949800000011919],[-0.22614583333333335,-0.039074074074074115,1.9666000000089383],[-0.2111458333333334,-0.02240740740740745,1.9832000000029808],[-0.20760416666666662,-0.004629629629629629,1.9998000000119234],[-0.18562500000000004,-0.03259259259259263,2.016900000005961],[-0.21833333333333335,-0.027407407407407325,2.0358000000119176],[-0.2203125,-0.04129629629629621,2.0519999999999996],[-0.20104166666666667,-0.06277777777777774,2.0684000000059584],[-0.1766666666666667,-0.07851851851851847,2.0831000000089404],[-0.17114583333333327,-0.06981481481481479,2.0998000000119177],[-0.15656249999999997,-0.04055555555555551,2.11640000000596],[-0.1492708333333333,-0.056296296296296254,2.1331000000089375],[-0.16031249999999997,-0.06944444444444445,2.14970000000298],[-0.14135416666666673,-0.05185185185185185,2.166499999999999],[-0.12666666666666668,0.0031481481481482323,2.1831000000089418],[-0.11499999999999998,0.07314814814814814,2.199700000002977],[-0.11625000000000002,0.16166666666666657,2.2164999999999964],[-0.13020833333333334,0.22444444444444453,2.233100000008939],[-0.15187499999999995,0.28851851851851845,2.2498000000119234],[-0.16635416666666672,0.32944444444444443,2.267900000005959],[-0.18083333333333335,0.37037037037037035,2.283100000008943],[-0.2039583333333333,0.4105555555555556,2.2997000000029786],[-0.22708333333333333,0.4507407407407407,2.316400000005963],[-0.24375,0.4866666666666666,2.3331000000089404],[-0.2604166666666667,0.5225925925925927,2.349700000002983],[-0.2573958333333334,0.4901851851851853,2.368200000002979],[-0.2543750000000001,0.45777777777777784,2.3837000000029818],[-0.23343750000000002,0.42370370370370364,2.399800000011922],[-0.2055208333333333,0.3979629629629629,2.416499999999999],[-0.20750000000000005,0.39518518518518514,2.4331000000089418],[-0.18614583333333337,0.3562962962962963,2.453100000008938],[-0.13614583333333338,0.3487037037037036,2.4694000000059617],[-0.12406250000000002,0.2825925925925926,2.483100000008939],[-0.12156250000000005,0.24814814814814815,2.500100000008942],[-0.11927083333333334,0.17296296296296293,2.5164000000059588],[-0.09229166666666669,0.1725925925925927,2.533100000008943],[-0.06802083333333328,0.18499999999999997,2.551800000011923],[-0.04375,0.20462962962962963,2.5685000000000002],[-0.02645833333333331,0.21592592592592597,2.5831000000089404],[-0.003958333333333286,0.227962962962963,2.5998000000119177],[-0.005937500000000048,0.2807407407407408,2.61640000000596],[-0.04104166666666664,0.30111111111111116,2.6331000000089375],[-0.03822916666666672,0.38000000000000006,2.64970000000298],[-0.050833333333333286,0.39092592592592595,2.6670000000000016],[-0.06322916666666671,0.4425925925925926,2.6831000000089418],[-0.09885416666666665,0.4225925925925927,2.699700000002977],[-0.13177083333333334,0.38981481481481484,2.7164000000059616],[-0.17177083333333332,0.44092592592592594,2.733100000008939],[-0.2117708333333333,0.4920370370370371,2.7497000000029814],[-0.22625000000000003,0.46944444444444444,2.77020000000298],[-0.23958333333333334,0.4422222222222221,2.7853000000119224],[-0.2404166666666666,0.3772222222222223,2.7998000000119205],[-0.24437500000000004,0.28425925925925927,2.816400000005963],[-0.21312500000000004,0.23351851851851857,2.8331000000089404],[-0.18187500000000004,0.18277777777777787,2.849700000002983],[-0.16302083333333334,0.1737037037037036,2.8676000000089417],[-0.14416666666666664,0.1646296296296296,2.8830000000000027],[-0.12843749999999995,0.0794444444444444,2.899800000011922],[-0.11270833333333338,-0.005740740740740783,2.9164000000059573],[-0.11572916666666669,-0.032777777777777864,2.9331000000089418],[-0.11875,-0.059814814814814835,2.949800000011919],[-0.11875,-0.059814814814814835,2.9666000000089383],[-0.14104166666666665,-0.0448148148148149,2.983100000008939],[-0.1310416666666666,-0.001851851851851852,2.9998000000119234],[-0.13614583333333338,0.01796296296296305,3.0166000000089426],[-0.15625,0.02240740740740745,3.033100000008943],[-0.16625000000000004,0.010925925925925884,3.0497000000029786],[-0.19968750000000005,0.02444444444444453,3.06810000000894],[-0.23770833333333338,0.04277777777777782,3.0829999999999984],[-0.27010416666666665,0.046296296296296294,3.0998000000119177],[-0.2877083333333334,0.0485185185185186,3.116500000000002],[-0.2877083333333334,0.0485185185185186,3.1379000000059563],[-0.30531250000000004,0.0507407407407407,3.149800000011922],[-0.30531250000000004,0.0507407407407407,3.1664000000059573],[-0.2920833333333333,0.056296296296296254,3.183],[-0.30364583333333334,0.06944444444444445,3.199700000002977],[-0.31520833333333337,0.08259259259259263,3.2164000000059616],[-0.3342708333333333,0.10129629629629638,3.233100000008939],[-0.3533333333333334,0.11999999999999991,3.2498000000119234],[-0.3533333333333334,0.11999999999999991,3.2665000000000006],[-0.34916666666666674,0.14166666666666666,3.283100000008943],[-0.32833333333333337,0.1675925925925926,3.2998000000119205]]","[0.00020000000297670795,0.016900000005961147,0.0331000000089432,0.051900000005957736,0.06649999999999778,0.08310000000894036,0.09980000001191769,0.11650000000000205,0.1331000000089375,0.1504000000059591,0.17040000000596223,0.18520000000297898,0.19999999999999574,0.2164000000059616,0.23310000000893893,0.24990000000595813,0.2666000000089426,0.2831000000089432,0.29980000001192053,0.316400000005963,0.33310000000894036,0.3498000000119177,0.3666000000089369,0.3831000000089375,0.39980000001192195,0.4164999999999992,0.4331000000089418,0.44970000000297716,0.4667000000029802,0.4832000000029808,0.4998000000119234,0.5167000000029773,0.5331000000089432,0.5498000000119205,0.5664999999999978,0.5831000000089404,0.6000000000000014,0.616500000000002,0.6331000000089375,0.6528000000119221,0.6715000000000018,0.6873000000119234,0.7004000000059563,0.7164000000059616,0.7332000000029808,0.7498000000119234,0.7719000000059566,0.7873000000119177,0.7998000000119205,0.816400000005963,0.8331000000089404,0.8499000000059596,0.8667000000029788,0.8830000000000027,0.89970000000298,0.9164999999999992,0.9331000000089418,0.9498000000119191,0.9664999999999964,0.9832000000029808,1.0009999999999977,1.0164000000059588,1.03330000001192,1.0554000000059602,1.0666000000089397,1.0831000000089404,1.0998000000119177,1.116500000000002,1.1371000000089424,1.1503000000119172,1.1664999999999992,1.1829999999999998,1.1997000000029772,1.2164999999999964,1.232999999999997,1.2497000000029814,1.2664000000059588,1.2831000000089432,1.2998000000119205,1.316400000005963,1.3329999999999984,1.3498000000119177,1.3666000000089369,1.3831000000089375,1.399800000011922,1.4164000000059573,1.4331000000089418,1.449800000011919,1.4664000000059616,1.482999999999997,1.4998000000119234,1.5164000000059588,1.5330000000000013,1.5498000000119205,1.566400000005963,1.5831000000089404,1.5998000000119177,1.6164000000059602,1.6331000000089375,1.64970000000298,1.6666000000089412,1.6831000000089418,1.699800000011919,1.7164000000059616,1.7332000000029808,1.7497000000029814,1.7703000000119218,1.7834000000059618,1.7998000000119205,1.816400000005963,1.8331000000089404,1.8500000000000014,1.8666000000089369,1.8831000000089375,1.8999000000059567,1.9164000000059573,1.9331000000089418,1.949800000011919,1.9666000000089383,1.9832000000029808,1.9998000000119234,2.016900000005961,2.0358000000119176,2.0519999999999996,2.0684000000059584,2.0831000000089404,2.0998000000119177,2.11640000000596,2.1331000000089375,2.14970000000298,2.166499999999999,2.1831000000089418,2.199700000002977,2.2164999999999964,2.233100000008939,2.2498000000119234,2.267900000005959,2.283100000008943,2.2997000000029786,2.316400000005963,2.3331000000089404,2.349700000002983,2.368200000002979,2.3837000000029818,2.399800000011922,2.416499999999999,2.4331000000089418,2.453100000008938,2.4694000000059617,2.483100000008939,2.500100000008942,2.5164000000059588,2.533100000008943,2.551800000011923,2.5685000000000002,2.5831000000089404,2.5998000000119177,2.61640000000596,2.6331000000089375,2.64970000000298,2.6670000000000016,2.6831000000089418,2.699700000002977,2.7164000000059616,2.733100000008939,2.7497000000029814,2.77020000000298,2.7853000000119224,2.7998000000119205,2.816400000005963,2.8331000000089404,2.849700000002983,2.8676000000089417,2.8830000000000027,2.899800000011922,2.9164000000059573,2.9331000000089418,2.949800000011919,2.9666000000089383,2.983100000008939,2.9998000000119234,3.0166000000089426,3.033100000008943,3.0497000000029786,3.06810000000894,3.0829999999999984,3.0998000000119177,3.116500000000002,3.1379000000059563,3.149800000011922,3.1664000000059573,3.183,3.199700000002977,3.2164000000059616,3.233100000008939,3.2498000000119234,3.2665000000000006,3.283100000008943,3.2998000000119205]","[1733205004566,1733205004581,1733205004598,1733205004616,1733205004631,1733205004648,1733205004664,1733205004681,1733205004698,1733205004715,1733205004735,1733205004750,1733205004765,1733205004781,1733205004798,1733205004814,1733205004831,1733205004848,1733205004864,1733205004881,1733205004898,1733205004914,1733205004931,1733205004948,1733205004964,1733205004981,1733205004998,1733205005014,1733205005031,1733205005048,1733205005064,1733205005081,1733205005098,1733205005114,1733205005131,1733205005148,1733205005165,1733205005181,1733205005198,1733205005217,1733205005236,1733205005252,1733205005265,1733205005281,1733205005298,1733205005314,1733205005336,1733205005352,1733205005364,1733205005381,1733205005398,1733205005414,1733205005431,1733205005448,1733205005464,1733205005481,1733205005498,1733205005514,1733205005531,1733205005548,1733205005566,1733205005581,1733205005598,1733205005620,1733205005631,1733205005648,1733205005664,1733205005681,1733205005702,1733205005715,1733205005731,1733205005748,1733205005764,1733205005781,1733205005798,1733205005814,1733205005831,1733205005848,1733205005864,1733205005881,1733205005898,1733205005914,1733205005931,1733205005948,1733205005964,1733205005981,1733205005998,1733205006014,1733205006031,1733205006048,1733205006064,1733205006081,1733205006098,1733205006114,1733205006131,1733205006148,1733205006164,1733205006181,1733205006198,1733205006214,1733205006231,1733205006248,1733205006264,1733205006281,1733205006298,1733205006314,1733205006335,1733205006348,1733205006364,1733205006381,1733205006398,1733205006415,1733205006431,1733205006448,1733205006464,1733205006481,1733205006498,1733205006514,1733205006531,1733205006548,1733205006564,1733205006582,1733205006600,1733205006617,1733205006633,1733205006648,1733205006664,1733205006681,1733205006698,1733205006714,1733205006731,1733205006748,1733205006764,1733205006781,1733205006798,1733205006814,1733205006832,1733205006848,1733205006864,1733205006881,1733205006898,1733205006914,1733205006933,1733205006948,1733205006964,1733205006981,1733205006998,1733205007018,1733205007034,1733205007048,1733205007065,1733205007081,1733205007098,1733205007116,1733205007133,1733205007148,1733205007164,1733205007181,1733205007198,1733205007214,1733205007232,1733205007248,1733205007264,1733205007281,1733205007298,1733205007314,1733205007335,1733205007350,1733205007364,1733205007381,1733205007398,1733205007414,1733205007432,1733205007448,1733205007464,1733205007481,1733205007498,1733205007514,1733205007531,1733205007548,1733205007564,1733205007581,1733205007598,1733205007614,1733205007633,1733205007648,1733205007664,1733205007681,1733205007703,1733205007714,1733205007731,1733205007748,1733205007764,1733205007781,1733205007798,1733205007814,1733205007831,1733205007848,1733205007864]","[[938.1,763.2],[948.3,780.4],[928.7,807.6],[909.1,834.8],[897,833.1],[868.2,823],[866,827.9],[863,862.8],[853,845],[847,842.3],[814.4,826.5],[782,803.3],[771.6,764.7],[761.2,726.1],[770.1,719.8],[786,711.4],[763.7,700.7],[742.4,671.7],[718.5,684.5],[690.6,682.2],[678.8,681.7],[666.8,688.6],[666.8,688.6],[675.9,696],[706.9,726.1],[715.7,749.6],[702.8,734.9],[701.5,707.5],[701.5,707.5],[719,680.9],[721.4,669.1],[740,654.1],[752.8,684.4],[765.6,714.7],[765.6,714.7],[753.9,742.8],[711.8,717],[687,687],[698.7,697.8],[710.4,708.6],[683.9,721.8],[703.4,709.8],[706.7,701],[706.2,655.5],[705.7,610],[711.8,576.4],[717.4,577.9],[717.4,577.9],[723,579.4],[732.9,574.3],[735.3,586.5],[757.1,595.5],[777.8,617],[798.5,638.5],[819,655.3],[839.5,672.1],[839.5,672.1],[852.1,674.4],[852.1,674.4],[877.8,678.4],[886.9,673.4],[886.9,673.4],[875,655],[883.3,623.1],[883.3,623.1],[887.1,614],[887.1,614],[878,599.5],[869.9,583.3],[862,571.8],[856.6,560.3],[855.8,560.9],[857.2,555.2],[875.2,558.5],[875.5,593.7],[863.1,625.1],[848.1,634.3],[842.2,642.9],[858.2,662.2],[874.2,681.5],[892.4,695.2],[892.4,695.2],[911.3,712.2],[916.2,725.5],[925,740.6],[953.4,741.2],[978.8,739.2],[1011.3,736.6],[1034.1,738.7],[1040.7,730.4],[1033.1,727.2],[1020.8,729.6],[1002.2,724.9],[993.1,728.4],[993.1,728.4],[990.6,739.7],[992.3,749.1],[997,761.1],[980.2,769.4],[968.7,783.7],[944.4,772.5],[926,753.5],[917.8,731.1],[899.5,722.8],[891.5,722.5],[873,712.6],[843.4,673.2],[813.8,633.8],[816.9,609.2],[794.1,572.4],[763.8,567],[779.1,559.6],[767.1,555.9],[759.6,550.1],[742.5,528.7],[739.6,502.9],[734.9,497.4],[742.9,518.9],[742.9,518.9],[757.3,527.9],[760.7,537.5],[781.8,522.4],[750.4,525.2],[748.5,517.7],[767,506.1],[790.4,497.6],[795.7,502.3],[809.7,518.1],[816.7,509.6],[806.1,502.5],[824.3,512],[838.4,541.7],[849.6,579.5],[848.4,627.3],[835,661.2],[814.2,695.8],[800.3,717.9],[786.4,740],[764.2,761.7],[742,783.4],[726,802.8],[710,822.2],[712.9,804.7],[715.8,787.2],[735.9,768.8],[762.7,754.9],[760.8,753.4],[781.3,732.4],[829.3,728.3],[840.9,692.6],[843.3,674],[845.5,633.4],[871.4,633.2],[894.7,639.9],[918,650.5],[934.6,656.6],[956.2,663.1],[954.3,691.6],[920.6,702.6],[923.3,745.2],[911.2,751.1],[899.3,779],[865.1,768.2],[833.5,750.5],[795.1,778.1],[756.7,805.7],[742.8,793.5],[730,778.8],[729.2,743.7],[725.4,693.5],[755.4,666.1],[785.4,638.7],[803.5,633.8],[821.6,628.9],[836.7,582.9],[851.8,536.9],[848.9,522.3],[846,507.7],[846,507.7],[824.6,515.8],[834.2,539],[829.3,549.7],[810,552.1],[800.4,545.9],[768.3,553.2],[731.8,563.1],[700.7,565],[683.8,566.2],[683.8,566.2],[666.9,567.4],[666.9,567.4],[679.6,570.4],[668.5,577.5],[657.4,584.6],[639.1,594.7],[620.8,604.8],[620.8,604.8],[624.8,616.5],[644.8,630.5]]","[0,0.151169218]","[0.151169218,0.151169218]","[-0.151169218,-0.151169218]","[-0.151169218,0]","[0,-0.151169218]","[0.151169218,-0.151169218]","[0,0]","[0.151169218,0]",0,1,1,1,1,3,Smartphone,5,5,13,7
