inst1_resp.keys,inst1_resp.rt,calibrationMouse.x,calibrationMouse.y,calibrationMouse.leftButton,calibrationMouse.midButton,calibrationMouse.rightButton,calibrationClick.x,calibrationClick.y,calibrationClick.leftButton,calibrationClick.midButton,calibrationClick.rightButton,calibrationClick.clicked_name,trialsc.thisRepN,trialsc.thisTrialN,trialsc.thisN,trialsc.thisIndex,trialsc.ran,calibration_x,calibration_y,participant,session,date,expName,psychopyVersion,OS,frameRate,ScreenRes_pixels,Camera_pixels,mouse_2.x,mouse_2.y,mouse_2.leftButton,mouse_2.midButton,mouse_2.rightButton,mouse_2.time,mouse_2.clicked_name,mouse.x,mouse.y,mouse.leftButton,mouse.midButton,mouse.rightButton,mouse.time,mouse.clicked_name,Choice,Trial,TrialDuration,MOUSE_GAZE,ET_GAZE,ET_GAZE_x_T,time,unixTime,ET_GAZE_NF,Loc_Option1_label,Loc_Option2_label,Loc_Cost_label,Loc_Qual_label,Loc_Option1_cost,Loc_Option2_cost,Loc_Option1_quality,Loc_Option2_quality,trials.thisRepN,trials.thisTrialN,trials.thisN,trials.thisIndex,trials.ran,Block,Device,cost1,qual1,cost2,qual2
space,1.7003,0.144791667,-0.018518519,1,0,0,0.6625,-0.672222222,1,0,0,calibration_square,0,0,0,20,1,0.67,-0.67,17,001,2024-12-02_17h50.09.088,Attention_exp_legacy,2023.1.0,Win32,60.24096386,,,,,,,,,,,,,,,,,,,,,,,,,,,,,,,,,,,,,,,,,,,,
,,,,,,,-0.671875,0.325925926,1,0,0,calibration_square,0,1,1,3,1,-0.67,0.33,17,001,2024-12-02_17h50.09.088,Attention_exp_legacy,2023.1.0,Win32,60.24096386,,,,,,,,,,,,,,,,,,,,,,,,,,,,,,,,,,,,,,,,,,,,
,,,,,,,0.675,0.67037037,1,0,0,calibration_square,0,2,2,19,1,0.67,0.67,17,001,2024-12-02_17h50.09.088,Attention_exp_legacy,2023.1.0,Win32,60.24096386,,,,,,,,,,,,,,,,,,,,,,,,,,,,,,,,,,,,,,,,,,,,
,,,,,,,0.325,0.340740741,1,0,0,,0,3,3,17,1,0.33,0.33,17,001,2024-12-02_17h50.09.088,Attention_exp_legacy,2023.1.0,Win32,60.24096386,,,,,,,,,,,,,,,,,,,,,,,,,,,,,,,,,,,,,,,,,,,,
,,,,,,,-0.330208333,-0.325925926,1,0,0,calibration_square,0,4,4,5,1,-0.33,-0.33,17,001,2024-12-02_17h50.09.088,Attention_exp_legacy,2023.1.0,Win32,60.24096386,,,,,,,,,,,,,,,,,,,,,,,,,,,,,,,,,,,,,,,,,,,,
,,,,,,,-0.001041667,-0.012962963,1,0,0,,0,5,5,11,1,0,0,17,001,2024-12-02_17h50.09.088,Attention_exp_legacy,2023.1.0,Win32,60.24096386,,,,,,,,,,,,,,,,,,,,,,,,,,,,,,,,,,,,,,,,,,,,
,,,,,,,-0.3375,-0.661111111,1,0,0,calibration_square,0,6,6,4,1,-0.33,-0.67,17,001,2024-12-02_17h50.09.088,Attention_exp_legacy,2023.1.0,Win32,60.24096386,,,,,,,,,,,,,,,,,,,,,,,,,,,,,,,,,,,,,,,,,,,,
,,,,,,,-0.328125,-0.003703704,1,0,0,calibration_square,0,7,7,6,1,-0.33,0,17,001,2024-12-02_17h50.09.088,Attention_exp_legacy,2023.1.0,Win32,60.24096386,,,,,,,,,,,,,,,,,,,,,,,,,,,,,,,,,,,,,,,,,,,,
,,,,,,,0.328125,0.67037037,1,0,0,calibration_square,0,8,8,18,1,0.33,0.67,17,001,2024-12-02_17h50.09.088,Attention_exp_legacy,2023.1.0,Win32,60.24096386,,,,,,,,,,,,,,,,,,,,,,,,,,,,,,,,,,,,,,,,,,,,
,,,,,,,-0.340625,0.32962963,1,0,0,,0,9,9,7,1,-0.33,0.33,17,001,2024-12-02_17h50.09.088,Attention_exp_legacy,2023.1.0,Win32,60.24096386,,,,,,,,,,,,,,,,,,,,,,,,,,,,,,,,,,,,,,,,,,,,
,,,,,,,-0.333333333,0.675925926,1,0,0,calibration_square,0,10,10,8,1,-0.33,0.67,17,001,2024-12-02_17h50.09.088,Attention_exp_legacy,2023.1.0,Win32,60.24096386,,,,,,,,,,,,,,,,,,,,,,,,,,,,,,,,,,,,,,,,,,,,
,,,,,,,-0.003125,-0.674074074,1,0,0,calibration_square,0,11,11,9,1,0,-0.67,17,001,2024-12-02_17h50.09.088,Attention_exp_legacy,2023.1.0,Win32,60.24096386,,,,,,,,,,,,,,,,,,,,,,,,,,,,,,,,,,,,,,,,,,,,
,,,,,,,-0.669791667,-0.677777778,1,0,0,calibration_square,0,12,12,0,1,-0.67,-0.67,17,001,2024-12-02_17h50.09.088,Attention_exp_legacy,2023.1.0,Win32,60.24096386,,,,,,,,,,,,,,,,,,,,,,,,,,,,,,,,,,,,,,,,,,,,
,,,,,,,0.320833333,-0.324074074,1,0,0,calibration_square,0,13,13,15,1,0.33,-0.33,17,001,2024-12-02_17h50.09.088,Attention_exp_legacy,2023.1.0,Win32,60.24096386,,,,,,,,,,,,,,,,,,,,,,,,,,,,,,,,,,,,,,,,,,,,
,,,,,,,-0.66875,-0.001851852,1,0,0,calibration_square,0,14,14,2,1,-0.67,0,17,001,2024-12-02_17h50.09.088,Attention_exp_legacy,2023.1.0,Win32,60.24096386,,,,,,,,,,,,,,,,,,,,,,,,,,,,,,,,,,,,,,,,,,,,
,,,,,,,0.329166667,0,1,0,0,calibration_square,0,15,15,16,1,0.33,0,17,001,2024-12-02_17h50.09.088,Attention_exp_legacy,2023.1.0,Win32,60.24096386,,,,,,,,,,,,,,,,,,,,,,,,,,,,,,,,,,,,,,,,,,,,
,,,,,,,-0.003125,0.337037037,1,0,0,calibration_square,0,16,16,12,1,0,0.33,17,001,2024-12-02_17h50.09.088,Attention_exp_legacy,2023.1.0,Win32,60.24096386,,,,,,,,,,,,,,,,,,,,,,,,,,,,,,,,,,,,,,,,,,,,
,,,,,,,0.333333333,-0.67037037,1,0,0,calibration_square,0,17,17,14,1,0.33,-0.67,17,001,2024-12-02_17h50.09.088,Attention_exp_legacy,2023.1.0,Win32,60.24096386,,,,,,,,,,,,,,,,,,,,,,,,,,,,,,,,,,,,,,,,,,,,
,,,,,,,-0.003125,-0.327777778,1,0,0,calibration_square,0,18,18,10,1,0,-0.33,17,001,2024-12-02_17h50.09.088,Attention_exp_legacy,2023.1.0,Win32,60.24096386,,,,,,,,,,,,,,,,,,,,,,,,,,,,,,,,,,,,,,,,,,,,
,,,,,,,-0.673958333,-0.324074074,1,0,0,calibration_square,0,19,19,1,1,-0.67,-0.33,17,001,2024-12-02_17h50.09.088,Attention_exp_legacy,2023.1.0,Win32,60.24096386,,,,,,,,,,,,,,,,,,,,,,,,,,,,,,,,,,,,,,,,,,,,
,,,,,,,-0.003125,0.67037037,1,0,0,calibration_square,0,20,20,13,1,0,0.67,17,001,2024-12-02_17h50.09.088,Attention_exp_legacy,2023.1.0,Win32,60.24096386,,,,,,,,,,,,,,,,,,,,,,,,,,,,,,,,,,,,,,,,,,,,
,,,,,,,,,,,,,,,,,,,,17,001,2024-12-02_17h50.09.088,Attention_exp_legacy,2023.1.0,Win32,60.24096386,"[1920,1080]","[640,480]",[-0.005208333333333333],[-0.5018518518518519],[1],[0],[0],[4.052],"[""StartButton""]",[0.15520833333333334],[0.14814814814814814],[1],[0],[0],[6.736699999999253],"[""Option2_label""]",Option2_label,1,7.7605,"[[0.3260416666666667,0.48518518518518516],[0.3260416666666667,0.48518518518518516],[0.3260416666666667,0.48518518518518516],[0.3260416666666667,0.48518518518518516],[0.3260416666666667,0.48518518518518516],[0.3260416666666667,0.48518518518518516],[0.3260416666666667,0.48518518518518516],[0.3260416666666667,0.48518518518518516],[0.3260416666666667,0.48518518518518516],[0.3260416666666667,0.48518518518518516],[0.3260416666666667,0.48518518518518516],[0.3260416666666667,0.48518518518518516],[0.3260416666666667,0.48518518518518516],[0.3260416666666667,0.48518518518518516],[0.3260416666666667,0.48518518518518516],[0.3260416666666667,0.48518518518518516],[0.3260416666666667,0.48518518518518516],[0.3260416666666667,0.48518518518518516],[0.3260416666666667,0.48518518518518516],[0.3260416666666667,0.48518518518518516],[0.3260416666666667,0.48518518518518516],[0.3260416666666667,0.48518518518518516],[0.3260416666666667,0.48518518518518516],[0.3260416666666667,0.48518518518518516],[0.3260416666666667,0.48518518518518516],[0.3260416666666667,0.48518518518518516],[0.3260416666666667,0.48518518518518516],[0.3260416666666667,0.48518518518518516],[0.3260416666666667,0.48518518518518516],[0.3260416666666667,0.48518518518518516],[0.3260416666666667,0.48518518518518516],[0.3260416666666667,0.48518518518518516],[0.3260416666666667,0.48518518518518516],[0.3260416666666667,0.48518518518518516],[0.3260416666666667,0.48518518518518516],[0.3260416666666667,0.48518518518518516],[0.3260416666666667,0.48518518518518516],[0.3260416666666667,0.48518518518518516],[0.3260416666666667,0.48518518518518516],[0.3260416666666667,0.48518518518518516],[0.3260416666666667,0.48518518518518516],[0.3260416666666667,0.48518518518518516],[0.3260416666666667,0.48518518518518516],[0.3260416666666667,0.48518518518518516],[0.3260416666666667,0.48518518518518516],[0.3260416666666667,0.48518518518518516],[0.3260416666666667,0.48518518518518516],[0.3260416666666667,0.48518518518518516],[0.3260416666666667,0.48518518518518516],[0.3260416666666667,0.48518518518518516],[0.3260416666666667,0.48518518518518516],[0.3260416666666667,0.48518518518518516],[0.3260416666666667,0.48518518518518516],[0.3260416666666667,0.48518518518518516],[0.3260416666666667,0.48518518518518516],[0.3260416666666667,0.48518518518518516],[0.3260416666666667,0.48518518518518516],[0.3260416666666667,0.48518518518518516],[0.3260416666666667,0.48518518518518516],[0.3260416666666667,0.48518518518518516],[0.3260416666666667,0.48518518518518516],[0.3260416666666667,0.48518518518518516],[0.3260416666666667,0.48518518518518516],[0.3260416666666667,0.48518518518518516],[0.3260416666666667,0.48518518518518516],[0.3260416666666667,0.48518518518518516],[0.3260416666666667,0.48518518518518516],[0.3260416666666667,0.48518518518518516],[0.3260416666666667,0.48518518518518516],[0.3260416666666667,0.48518518518518516],[0.3260416666666667,0.48518518518518516],[0.3260416666666667,0.48518518518518516],[0.3260416666666667,0.48518518518518516],[0.3260416666666667,0.48518518518518516],[0.3260416666666667,0.48518518518518516],[0.3260416666666667,0.48518518518518516],[0.3260416666666667,0.48518518518518516],[0.3260416666666667,0.48518518518518516],[0.3260416666666667,0.48518518518518516],[0.3260416666666667,0.48518518518518516],[0.3260416666666667,0.48518518518518516],[0.3260416666666667,0.48518518518518516],[0.3260416666666667,0.48518518518518516],[0.3260416666666667,0.48518518518518516],[0.3260416666666667,0.48518518518518516],[0.3260416666666667,0.48518518518518516],[0.3260416666666667,0.48518518518518516],[0.3260416666666667,0.48518518518518516],[0.3260416666666667,0.48518518518518516],[0.3260416666666667,0.48518518518518516],[0.3260416666666667,0.48518518518518516],[0.3260416666666667,0.48518518518518516],[0.3260416666666667,0.48518518518518516],[0.3260416666666667,0.48518518518518516],[0.3260416666666667,0.48518518518518516],[0.3260416666666667,0.48518518518518516],[0.3260416666666667,0.48518518518518516],[0.3260416666666667,0.48518518518518516],[0.3260416666666667,0.48518518518518516],[0.3260416666666667,0.48518518518518516],[0.3260416666666667,0.48518518518518516],[0.3260416666666667,0.48518518518518516],[0.3260416666666667,0.48518518518518516],[0.3260416666666667,0.48518518518518516],[0.3260416666666667,0.48518518518518516],[0.3260416666666667,0.48518518518518516],[0.3260416666666667,0.48518518518518516],[0.3260416666666667,0.48518518518518516],[0.3260416666666667,0.48518518518518516],[0.3260416666666667,0.48518518518518516],[0.3260416666666667,0.48518518518518516],[0.3260416666666667,0.48518518518518516],[0.3260416666666667,0.48518518518518516],[0.3260416666666667,0.48518518518518516],[0.3260416666666667,0.48518518518518516],[0.3260416666666667,0.48518518518518516],[0.3260416666666667,0.48518518518518516],[0.3260416666666667,0.48518518518518516],[0.3260416666666667,0.48518518518518516],[0.3260416666666667,0.48518518518518516],[0.3260416666666667,0.48518518518518516],[0.3260416666666667,0.48518518518518516],[0.3260416666666667,0.48518518518518516],[0.3260416666666667,0.48518518518518516],[0.3260416666666667,0.48518518518518516],[0.3260416666666667,0.48518518518518516],[0.3260416666666667,0.48518518518518516],[0.3260416666666667,0.48518518518518516],[0.3260416666666667,0.48518518518518516],[0.3260416666666667,0.48518518518518516],[0.3260416666666667,0.48518518518518516],[0.3260416666666667,0.48518518518518516],[0.3260416666666667,0.48518518518518516],[0.3260416666666667,0.48518518518518516],[0.3260416666666667,0.48518518518518516],[0.3260416666666667,0.48518518518518516],[0.3260416666666667,0.48518518518518516],[0.3260416666666667,0.48518518518518516],[0.3260416666666667,0.48518518518518516],[0.3260416666666667,0.48518518518518516],[0.3260416666666667,0.48518518518518516],[0.3260416666666667,0.48518518518518516],[0.3260416666666667,0.48518518518518516],[0.3260416666666667,0.48518518518518516],[0.3260416666666667,0.48518518518518516],[0.3260416666666667,0.48518518518518516],[0.3260416666666667,0.48518518518518516],[0.3260416666666667,0.48518518518518516],[0.3260416666666667,0.48518518518518516],[0.3260416666666667,0.48518518518518516],[0.3260416666666667,0.48518518518518516],[0.3260416666666667,0.48518518518518516],[0.3260416666666667,0.48518518518518516],[0.325,0.48518518518518516],[0.325,0.48518518518518516],[0.325,0.48518518518518516],[0.325,0.48518518518518516],[0.325,0.48518518518518516],[0.325,0.48518518518518516],[0.325,0.48518518518518516],[0.325,0.48518518518518516],[0.325,0.48518518518518516],[0.325,0.48518518518518516],[0.325,0.48518518518518516],[0.325,0.48518518518518516],[0.325,0.48518518518518516],[0.325,0.48518518518518516],[0.325,0.48518518518518516],[0.325,0.48518518518518516],[0.325,0.48518518518518516],[0.325,0.48518518518518516],[0.325,0.48518518518518516],[0.325,0.48518518518518516],[0.325,0.48518518518518516],[0.325,0.48518518518518516],[0.325,0.48518518518518516],[0.325,0.48518518518518516],[0.325,0.48518518518518516],[0.325,0.48518518518518516],[0.325,0.48518518518518516],[0.325,0.48518518518518516],[0.325,0.48518518518518516],[0.325,0.48518518518518516],[0.325,0.48518518518518516],[0.325,0.48518518518518516],[0.325,0.48518518518518516],[0.325,0.48518518518518516],[0.325,0.48518518518518516],[0.325,0.48518518518518516],[0.325,0.48518518518518516],[0.325,0.48518518518518516],[0.325,0.48518518518518516],[0.325,0.48518518518518516],[0.325,0.48518518518518516],[0.325,0.48518518518518516],[0.325,0.48518518518518516],[0.325,0.48518518518518516],[0.325,0.48518518518518516],[0.325,0.48518518518518516],[0.325,0.48518518518518516],[0.325,0.48518518518518516],[0.325,0.48518518518518516],[0.325,0.48518518518518516],[0.325,0.48518518518518516],[0.325,0.48518518518518516],[0.325,0.48518518518518516],[0.325,0.48518518518518516],[0.325,0.48518518518518516],[0.325,0.48518518518518516],[0.325,0.48518518518518516],[0.325,0.48518518518518516],[0.325,0.48518518518518516],[0.325,0.48518518518518516],[0.325,0.48518518518518516],[0.325,0.48518518518518516],[0.325,0.48518518518518516],[0.325,0.48518518518518516],[0.325,0.48518518518518516],[0.325,0.48518518518518516],[0.325,0.48518518518518516],[0.325,0.48518518518518516],[0.325,0.48518518518518516],[0.325,0.48518518518518516],[0.325,0.48518518518518516],[0.325,0.48518518518518516],[0.325,0.48518518518518516],[0.325,0.48518518518518516],[0.325,0.48518518518518516],[0.325,0.48518518518518516],[0.325,0.48518518518518516],[0.325,0.48518518518518516],[0.325,0.48518518518518516],[0.325,0.48518518518518516],[0.325,0.48518518518518516],[0.325,0.48518518518518516],[0.325,0.48518518518518516],[0.325,0.48518518518518516],[0.325,0.48518518518518516],[0.325,0.48518518518518516],[0.325,0.48518518518518516],[0.325,0.48518518518518516],[0.325,0.48518518518518516],[0.325,0.48518518518518516],[0.325,0.48518518518518516],[0.325,0.48518518518518516],[0.325,0.48518518518518516],[0.325,0.48518518518518516],[0.325,0.48518518518518516],[0.325,0.48518518518518516],[0.325,0.48518518518518516],[0.325,0.48518518518518516],[0.325,0.48518518518518516],[0.325,0.48518518518518516],[0.325,0.48518518518518516],[0.325,0.48518518518518516],[0.325,0.48518518518518516],[0.325,0.48518518518518516],[0.325,0.48518518518518516],[0.325,0.48518518518518516],[0.325,0.48518518518518516],[0.325,0.48518518518518516],[0.325,0.48518518518518516],[0.325,0.48518518518518516],[0.325,0.48518518518518516],[0.325,0.48518518518518516],[0.325,0.48518518518518516],[0.325,0.48518518518518516],[0.325,0.48518518518518516],[0.325,0.48518518518518516],[0.325,0.48518518518518516],[0.325,0.48518518518518516],[0.325,0.48518518518518516],[0.325,0.48518518518518516],[0.325,0.48518518518518516],[0.3229166666666667,0.4740740740740741],[0.3229166666666667,0.46296296296296297],[0.3229166666666667,0.45925925925925926],[0.3229166666666667,0.4537037037037037],[0.3229166666666667,0.45],[0.3229166666666667,0.44814814814814813],[0.3229166666666667,0.4425925925925926],[0.3229166666666667,0.4388888888888889],[0.321875,0.43333333333333335],[0.321875,0.42777777777777776],[0.32083333333333336,0.4222222222222222],[0.31979166666666664,0.4111111111111111],[0.3177083333333333,0.37777777777777777],[0.3145833333333333,0.3574074074074074],[0.31145833333333334,0.34074074074074073],[0.30833333333333335,0.32222222222222224],[0.30520833333333336,0.3074074074074074],[0.3020833333333333,0.29444444444444445],[0.2989583333333333,0.28703703703703703],[0.28854166666666664,0.26666666666666666],[0.28125,0.25555555555555554],[0.27291666666666664,0.24444444444444444],[0.2677083333333333,0.24259259259259258],[0.259375,0.22777777777777777],[0.246875,0.21296296296296297],[0.240625,0.20925925925925926],[0.23333333333333334,0.20185185185185187],[0.225,0.1962962962962963],[0.21979166666666666,0.1925925925925926],[0.21354166666666666,0.18703703703703703],[0.20416666666666666,0.17962962962962964],[0.19583333333333333,0.17592592592592593],[0.18229166666666666,0.1685185185185185],[0.175,0.16296296296296298],[0.17291666666666666,0.16296296296296298],[0.16666666666666666,0.16111111111111112],[0.159375,0.15925925925925927],[0.15729166666666666,0.15925925925925927],[0.15625,0.15925925925925927],[0.15520833333333334,0.15925925925925927],[0.15520833333333334,0.15925925925925927],[0.15520833333333334,0.15925925925925927],[0.15520833333333334,0.15925925925925927],[0.15520833333333334,0.15925925925925927],[0.15520833333333334,0.15925925925925927],[0.15520833333333334,0.15925925925925927],[0.15520833333333334,0.15925925925925927],[0.15520833333333334,0.15925925925925927],[0.15520833333333334,0.16111111111111112],[0.15520833333333334,0.1648148148148148],[0.15520833333333334,0.16666666666666666],[0.15520833333333334,0.1685185185185185],[0.15520833333333334,0.1685185185185185],[0.15520833333333334,0.17037037037037037],[0.15520833333333334,0.17037037037037037],[0.15520833333333334,0.17037037037037037],[0.15520833333333334,0.17037037037037037],[0.15520833333333334,0.17037037037037037],[0.15520833333333334,0.17037037037037037],[0.15520833333333334,0.17037037037037037],[0.15520833333333334,0.17037037037037037],[0.15520833333333334,0.16666666666666666],[0.15520833333333334,0.16296296296296298],[0.15520833333333334,0.16111111111111112],[0.15520833333333334,0.1574074074074074],[0.15520833333333334,0.1537037037037037],[0.15520833333333334,0.15185185185185185],[0.15520833333333334,0.15],[0.15520833333333334,0.15],[0.15520833333333334,0.14814814814814814],[0.15520833333333334,0.14814814814814814],[0.15520833333333334,0.14814814814814814],[0.15520833333333334,0.14814814814814814],[0.15520833333333334,0.14814814814814814],[0.15520833333333334,0.14814814814814814],[0.15520833333333334,0.14814814814814814],[0.15520833333333334,0.14814814814814814],[0.15520833333333334,0.14814814814814814],[0.15520833333333334,0.14814814814814814],[0.15520833333333334,0.14814814814814814],[0.15520833333333334,0.14814814814814814],[0.15520833333333334,0.14814814814814814],[0.15520833333333334,0.14814814814814814],[0.15520833333333334,0.14814814814814814],[0.15520833333333334,0.14814814814814814],[0.15520833333333334,0.14814814814814814],[0.15520833333333334,0.14814814814814814],[0.15520833333333334,0.14814814814814814],[0.15520833333333334,0.14814814814814814],[0.15520833333333334,0.14814814814814814],[0.15520833333333334,0.14814814814814814],[0.15520833333333334,0.14814814814814814],[0.15520833333333334,0.14814814814814814],[0.15520833333333334,0.14814814814814814],[0.15520833333333334,0.14814814814814814],[0.15520833333333334,0.14814814814814814],[0.15520833333333334,0.14814814814814814],[0.15520833333333334,0.14814814814814814],[0.15520833333333334,0.14814814814814814],[0.15520833333333334,0.14814814814814814],[0.15520833333333334,0.14814814814814814],[0.15520833333333334,0.14814814814814814],[0.15520833333333334,0.14814814814814814],[0.15520833333333334,0.14814814814814814],[0.15520833333333334,0.14814814814814814],[0.15520833333333334,0.14814814814814814],[0.15520833333333334,0.14814814814814814],[0.15520833333333334,0.14814814814814814],[0.15520833333333334,0.14814814814814814],[0.15520833333333334,0.14814814814814814],[0.15520833333333334,0.14814814814814814],[0.15520833333333334,0.14814814814814814],[0.15520833333333334,0.14814814814814814],[0.15520833333333334,0.14814814814814814],[0.15520833333333334,0.14814814814814814],[0.15520833333333334,0.14814814814814814],[0.15520833333333334,0.14814814814814814],[0.15520833333333334,0.14814814814814814],[0.15520833333333334,0.14814814814814814],[0.15520833333333334,0.14814814814814814],[0.15520833333333334,0.14814814814814814],[0.15520833333333334,0.14814814814814814],[0.15520833333333334,0.14814814814814814],[0.15520833333333334,0.14814814814814814],[0.15520833333333334,0.14814814814814814],[0.15520833333333334,0.14814814814814814],[0.15520833333333334,0.14814814814814814],[0.15520833333333334,0.14814814814814814],[0.15520833333333334,0.14814814814814814],[0.15520833333333334,0.14814814814814814],[0.15520833333333334,0.14814814814814814],[0.15520833333333334,0.14814814814814814],[0.15520833333333334,0.14814814814814814],[0.15520833333333334,0.14814814814814814],[0.15520833333333334,0.14814814814814814],[0.15520833333333334,0.14814814814814814],[0.15520833333333334,0.14814814814814814],[0.15520833333333334,0.14814814814814814],[0.15520833333333334,0.14814814814814814],[0.15520833333333334,0.14814814814814814],[0.15520833333333334,0.14814814814814814],[0.15520833333333334,0.14814814814814814],[0.15520833333333334,0.14814814814814814],[0.15520833333333334,0.14814814814814814],[0.15520833333333334,0.14814814814814814],[0.15520833333333334,0.14814814814814814],[0.15520833333333334,0.14814814814814814],[0.15520833333333334,0.14814814814814814],[0.15520833333333334,0.14814814814814814],[0.15520833333333334,0.14814814814814814],[0.15520833333333334,0.14814814814814814],[0.15520833333333334,0.14814814814814814],[0.15520833333333334,0.14814814814814814],[0.15520833333333334,0.14814814814814814],[0.15520833333333334,0.14814814814814814],[0.15520833333333334,0.14814814814814814],[0.15520833333333334,0.14814814814814814],[0.15520833333333334,0.14814814814814814],[0.15520833333333334,0.14814814814814814],[0.15520833333333334,0.14814814814814814],[0.15520833333333334,0.14814814814814814],[0.15520833333333334,0.14814814814814814],[0.15520833333333334,0.14814814814814814],[0.15520833333333334,0.14814814814814814],[0.15520833333333334,0.14814814814814814],[0.15520833333333334,0.14814814814814814],[0.15520833333333334,0.14814814814814814],[0.15520833333333334,0.14814814814814814],[0.15520833333333334,0.14814814814814814],[0.15520833333333334,0.14814814814814814],[0.15520833333333334,0.14814814814814814],[0.15520833333333334,0.14814814814814814],[0.15520833333333334,0.14814814814814814],[0.15520833333333334,0.14814814814814814],[0.15520833333333334,0.14814814814814814],[0.15520833333333334,0.14814814814814814],[0.15520833333333334,0.14814814814814814],[0.15520833333333334,0.14814814814814814],[0.15520833333333334,0.14814814814814814],[0.15520833333333334,0.14814814814814814],[0.15520833333333334,0.14814814814814814],[0.15520833333333334,0.14814814814814814],[0.15520833333333334,0.14814814814814814],[0.15520833333333334,0.14814814814814814],[0.15520833333333334,0.14814814814814814],[0.15520833333333334,0.14814814814814814],[0.15520833333333334,0.14814814814814814],[0.15520833333333334,0.14814814814814814],[0.15520833333333334,0.14814814814814814],[0.15520833333333334,0.14814814814814814],[0.15520833333333334,0.14814814814814814],[0.15520833333333334,0.14814814814814814]]","[[0.23572916666666663,0.3987037037037036],[0.23572916666666663,0.3987037037037036],[0.20104166666666667,0.334074074074074],[0.20104166666666667,0.334074074074074],[0.17395833333333333,0.2692592592592592],[0.17395833333333333,0.2692592592592592],[0.190625,0.24592592592592585],[0.190625,0.24592592592592585],[0.18416666666666662,0.2331481481481481],[0.18416666666666662,0.2331481481481481],[0.2415625000000001,0.24351851851851852],[0.2415625000000001,0.24351851851851852],[0.26239583333333344,0.20796296296296288],[0.2751041666666666,0.22351851851851862],[0.2751041666666666,0.22351851851851862],[0.28781249999999997,0.2390740740740741],[0.28781249999999997,0.2390740740740741],[0.2955208333333334,0.27685185185185185],[0.2955208333333334,0.27685185185185185],[0.30583333333333323,0.3122222222222223],[0.35343749999999996,0.36999999999999994],[0.35343749999999996,0.36999999999999994],[0.4013541666666666,0.43203703703703694],[0.4013541666666666,0.43203703703703694],[0.38781249999999995,0.42611111111111116],[0.4010416666666667,0.41814814814814805],[0.36770833333333336,0.3990740740740741],[0.36781249999999993,0.4118518518518518],[0.35093750000000007,0.4014814814814814],[0.33406250000000004,0.3911111111111112],[0.33406250000000004,0.3911111111111112],[0.32572916666666674,0.35425925925925916],[0.31666666666666665,0.3538888888888889],[0.28937499999999994,0.36055555555555563],[0.2759375000000001,0.31259259259259253],[0.29572916666666677,0.28888888888888886],[0.2816666666666668,0.3096296296296297],[0.2856250000000001,0.31796296296296306],[0.28958333333333336,0.32629629629629636],[0.3103125000000001,0.3014814814814814],[0.3219791666666666,0.29148148148148145],[0.32791666666666663,0.30351851851851847],[0.3319791666666667,0.2814814814814815],[0.3572916666666667,0.29314814814814805],[0.36843750000000003,0.3551851851851851],[0.3928124999999999,0.39962962962962956],[0.4222916666666668,0.3794444444444444],[0.4222916666666668,0.3794444444444444],[0.42208333333333337,0.369074074074074],[0.42208333333333337,0.369074074074074],[0.43250000000000005,0.3388888888888889],[0.43250000000000005,0.3388888888888889],[0.42041666666666655,0.3492592592592593],[0.4331249999999999,0.36666666666666664],[0.4509375000000001,0.38629629629629636],[0.46875,0.405925925925926],[0.46979166666666666,0.362962962962963],[0.4617708333333333,0.32407407407407407],[0.4318749999999999,0.2818518518518519],[0.4270833333333333,0.2512962962962964],[0.43166666666666675,0.2522222222222223],[0.41531250000000003,0.2737037037037036],[0.4118750000000001,0.290925925925926],[0.39000000000000007,0.2862962962962963],[0.34916666666666674,0.25685185185185194],[0.31052083333333325,0.2479629629629629],[0.25593750000000004,0.26500000000000007],[0.22364583333333338,0.28592592592592586],[0.2,0.3277777777777778],[0.17458333333333323,0.3588888888888888],[0.1404166666666666,0.3651851851851853],[0.11749999999999995,0.3785185185185185],[0.09281249999999991,0.35851851851851857],[0.07260416666666672,0.37185185185185177],[0.07239583333333334,0.405925925925926],[0.06437499999999995,0.40851851851851856],[0.08229166666666667,0.40407407407407414],[0.07937500000000004,0.38129629629629624],[0.09260416666666677,0.36148148148148157],[0.10447916666666662,0.36740740740740735],[0.11604166666666677,0.3685185185185185],[0.12666666666666657,0.3618518518518518],[0.13479166666666675,0.4007407407407407],[0.14947916666666666,0.39018518518518525],[0.11802083333333328,0.3477777777777777],[0.10635416666666657,0.33129629629629626],[0.10281250000000004,0.325],[0.09583333333333334,0.32981481481481484],[0.03729166666666662,0.3333333333333333],[-0.011770833333333286,0.32166666666666677],[-0.04812500000000005,0.30925925925925923],[-0.08229166666666667,0.2972222222222222],[-0.11218750000000005,0.2729629629629629],[-0.11687500000000005,0.2972222222222222],[-0.08447916666666669,0.34740740740740744],[-0.0751041666666667,0.3798148148148149],[-0.08885416666666662,0.40777777777777785],[-0.08885416666666662,0.40777777777777785],[-0.10427083333333335,0.447037037037037],[-0.08666666666666671,0.47074074074074085],[-0.04854166666666669,0.4725925925925927],[-0.010416666666666666,0.4744444444444445],[0.051145833333333356,0.49296296296296305],[0.090625,0.5161111111111112],[0.10374999999999991,0.4874074074074075],[0.11687500000000005,0.4587037037037038],[0.1203125,0.4124074074074075],[0.12427083333333329,0.37037037037037035],[0.12427083333333329,0.37037037037037035],[0.16979166666666667,0.3333333333333333],[0.1962500000000001,0.3242592592592593],[0.22916666666666666,0.3285185185185185],[0.2620833333333332,0.33277777777777784],[0.2413541666666667,0.3198148148148149],[0.24270833333333333,0.3022222222222223],[0.2595833333333334,0.3066666666666667],[0.2764583333333334,0.3111111111111111],[0.29812500000000003,0.34018518518518526],[0.3330208333333334,0.3648148148148148],[0.3194791666666667,0.3792592592592592],[0.34520833333333345,0.3761111111111112],[0.3376041666666666,0.3816666666666667],[0.3303124999999999,0.3877777777777777],[0.35104166666666664,0.39407407407407397],[0.353125,0.3937037037037037],[0.3325000000000001,0.3907407407407407],[0.2867708333333333,0.39518518518518514],[0.27364583333333337,0.3933333333333333],[0.25197916666666675,0.3987037037037036],[0.24968750000000003,0.4012962962962964],[0.24968750000000003,0.4012962962962964],[0.22197916666666656,0.41222222222222227],[0.22197916666666656,0.41222222222222227],[0.1834374999999999,0.4142592592592593],[0.1482291666666666,0.41648148148148145],[0.1482291666666666,0.41648148148148145],[0.1068749999999999,0.41722222222222216],[0.1068749999999999,0.41722222222222216],[0.10583333333333324,0.4361111111111111],[0.10583333333333324,0.4361111111111111],[0.08166666666666676,0.4316666666666667],[0.08166666666666676,0.4316666666666667],[0.08572916666666662,0.4264814814814814],[0.05520833333333333,0.4170370370370371],[0.05520833333333333,0.4170370370370371],[0.018333333333333358,0.4203703703703704],[0.018333333333333358,0.4203703703703704],[0.012083333333333357,0.4327777777777779],[0.012083333333333357,0.4327777777777779],[-0.004479166666666619,0.4316666666666667],[-0.004479166666666619,0.4316666666666667],[-0.005104166666666643,0.4418518518518519],[-0.005104166666666643,0.4418518518518519],[-0.013750000000000047,0.4398148148148148],[-0.027604166666666666,0.38851851851851843],[-0.03708333333333336,0.31740740740740736],[-0.04885416666666664,0.31555555555555553],[-0.025729166666666713,0.2657407407407407],[0.013125000000000024,0.2222222222222222],[0.02322916666666662,0.17851851851851847],[0.002916666666666619,0.12166666666666676],[0.02958333333333331,0.07351851851851861],[0.051145833333333356,0.02296296296296292],[0.07781250000000005,-0.022037037037036994],[0.1053124999999999,-0.02388888888888885],[0.14052083333333343,-0.03518518518518519],[0.20114583333333325,-0.09240740740740737],[0.16677083333333323,-0.07444444444444442],[0.13416666666666663,-0.06555555555555552],[0.1319791666666667,-0.072037037037037],[0.1165625000000001,-0.03166666666666671],[0.08677083333333328,0.0005555555555554713],[0.07166666666666661,-0.010370370370370412],[0.05583333333333336,-0.015370370370370286],[0.05239583333333329,0.0003703703703704546],[0.015208333333333357,0.0338888888888888],[-0.007291666666666667,0.04888888888888885],[0.027187500000000024,0.030000000000000086],[0.08260416666666662,0.03592592592592588],[0.11124999999999995,0.03851851851851843],[0.14343750000000005,0.03425925925925926],[0.190625,-0.011111111111111112],[0.1898958333333333,-0.00851851851851856],[0.2007291666666667,0.026111111111111154],[0.20968749999999994,0.04759259259259268],[0.1875,0.029259259259259176],[0.15322916666666658,0.027407407407407325],[0.11052083333333323,0.09370370370370375],[0.04510416666666662,0.14425925925925923],[0.04781249999999997,0.1727777777777777],[0.06020833333333329,0.16129629629629633],[0.044166666666666646,0.19722222222222222],[0.06135416666666664,0.22833333333333325],[0.06697916666666662,0.22740740740740734],[0.07166666666666661,0.20092592592592592],[0.07166666666666661,0.20092592592592592],[0.10750000000000005,0.21425925925925934],[0.1382291666666667,0.2735185185185186],[0.15270833333333325,0.25092592592592594],[0.1671875,0.22833333333333325],[0.16843750000000005,0.2192592592592592],[0.1696875000000001,0.2101851851851852],[0.1650000000000001,0.17240740740740745],[0.15041666666666675,0.16074074074074066],[0.13395833333333323,0.13499999999999995],[0.09416666666666676,0.1725925925925927],[0.05437500000000005,0.2101851851851852],[0.04552083333333338,0.18333333333333332],[0.057395833333333354,0.16925925925925922],[0.06395833333333331,0.172037037037037],[0.04718749999999995,0.19314814814814807],[0.04770833333333328,0.17629629629629637],[0.0655208333333333,0.16666666666666666],[0.06291666666666665,0.20314814814814824],[0.042499999999999954,0.2577777777777779],[0.08822916666666672,0.2800000000000001],[0.10187499999999995,0.2911111111111112],[0.08708333333333323,0.3227777777777777],[0.09114583333333333,0.34444444444444444],[0.09552083333333337,0.3772222222222223],[0.0787499999999999,0.36203703703703705],[0.0671875,0.4046296296296296],[0.043958333333333384,0.4737037037037036],[0.051041666666666666,0.4705555555555556],[0.08760416666666657,0.46944444444444444],[0.08229166666666667,0.46296296296296297],[0.0796875,0.46888888888888897],[0.07708333333333334,0.47481481481481475],[0.07927083333333323,0.5029629629629631],[0.12208333333333338,0.4807407407407408],[0.14916666666666673,0.4959259259259258],[0.12833333333333338,0.4918518518518519],[0.10656249999999995,0.4846296296296297],[0.1,0.4787037037037037],[0.07906250000000009,0.45999999999999996],[0.06697916666666662,0.46407407407407414],[0.08541666666666667,0.45999999999999996],[0.11500000000000009,0.4403703703703703],[0.11437499999999995,0.41648148148148145],[0.08145833333333338,0.40777777777777785],[0.1125,0.4170370370370371],[0.1125,0.4170370370370371],[0.1412499999999999,0.4294444444444444],[0.15968749999999995,0.42685185185185187],[0.19239583333333338,0.4381481481481482],[0.2296875,0.456111111111111],[0.2631249999999999,0.4516666666666666],[0.29541666666666655,0.4540740740740742],[0.30583333333333323,0.4661111111111112],[0.3267708333333334,0.4711111111111111],[0.34406249999999994,0.49129629629629623],[0.34406249999999994,0.49129629629629623],[0.3172916666666666,0.4905555555555555],[0.32052083333333337,0.4837037037037038],[0.32052083333333337,0.4837037037037038],[0.3294791666666666,0.5122222222222222],[0.33541666666666664,0.5012962962962964],[0.32000000000000006,0.4920370370370371],[0.29958333333333326,0.4824074074074074],[0.2805208333333333,0.4874074074074075],[0.27218749999999997,0.49833333333333335],[0.2738541666666668,0.5038888888888889],[0.2738541666666668,0.5038888888888889],[0.27583333333333326,0.5014814814814814],[0.27583333333333326,0.5014814814814814],[0.30145833333333344,0.4975925925925927],[0.30145833333333344,0.4975925925925927],[0.3178124999999999,0.5105555555555557],[0.3178124999999999,0.5105555555555557],[0.3223958333333333,0.49499999999999994],[0.3223958333333333,0.49499999999999994],[0.3155208333333334,0.5133333333333334],[0.29177083333333326,0.4981481481481482],[0.29177083333333326,0.4981481481481482],[0.26677083333333323,0.5140740740740741],[0.26677083333333323,0.5140740740740741],[0.2681250000000001,0.5088888888888888],[0.2681250000000001,0.5088888888888888],[0.2686458333333334,0.4744444444444445],[0.2686458333333334,0.4744444444444445],[0.25885416666666666,0.4705555555555556],[0.25885416666666666,0.4705555555555556],[0.23468749999999997,0.42685185185185187],[0.23468749999999997,0.42685185185185187],[0.21385416666666662,0.35037037037037044],[0.21385416666666662,0.35037037037037044],[0.19343750000000004,0.34629629629629627],[0.21687500000000004,0.32981481481481484],[0.21687500000000004,0.32981481481481484],[0.22531249999999994,0.3037037037037037],[0.2526041666666667,0.27833333333333327],[0.2673958333333334,0.25851851851851854],[0.29145833333333326,0.14092592592592595],[0.2898958333333333,0.09407407407407399],[0.29239583333333335,0.03925925925925934],[0.3329166666666666,0.003333333333333249],[0.32447916666666665,-0.011481481481481566],[0.3389583333333334,-0.08499999999999996],[0.33604166666666657,-0.10759259259259263],[0.3318749999999999,-0.13574074074074077],[0.34791666666666665,-0.17999999999999997],[0.3736458333333334,-0.222037037037037],[0.3623958333333334,-0.15981481481481483],[0.3740624999999999,-0.1381481481481482],[0.3823958333333332,-0.17703703703703708],[0.3532291666666666,-0.21703703703703703],[0.3775000000000001,-0.21518518518518517],[0.3837500000000001,-0.24574074074074073],[0.3798958333333334,-0.3066666666666667],[0.36177083333333326,-0.30481481481481487],[0.34885416666666674,-0.30092592592592593],[0.34791666666666665,-0.2953703703703704],[0.3267708333333334,-0.26055555555555554],[0.32937500000000003,-0.2559259259259259],[0.309375,-0.17611111111111116],[0.30322916666666655,-0.0742592592592593],[0.2673958333333334,-0.016666666666666666],[0.24739583333333334,0.039629629629629584],[0.2111458333333334,0.07592592592592592],[0.19041666666666662,0.055000000000000084],[0.16395833333333343,0.12851851851851848],[0.12958333333333344,0.16148148148148156],[0.13635416666666675,0.15018518518518523],[0.11354166666666667,0.13185185185185194],[0.11270833333333338,0.07444444444444454],[0.10114583333333324,0.015000000000000043],[0.11604166666666677,-0.015370370370370286],[0.10854166666666672,-0.05259259259259255],[0.11729166666666657,-0.06981481481481479],[0.14375,-0.07462962962962966],[0.17041666666666658,-0.13555555555555554],[0.17687499999999995,-0.17907407407407405],[0.16239583333333343,-0.20759259259259263],[0.1318749999999999,-0.24000000000000005],[0.1015625,-0.2651851851851852],[0.09041666666666662,-0.22777777777777777],[0.08520833333333329,-0.22555555555555556],[0.08822916666666672,-0.21092592592592588],[0.08458333333333339,-0.1675925925925926],[0.06989583333333324,-0.16444444444444448],[0.03916666666666669,-0.13370370370370369],[0.036145833333333384,-0.11648148148148144],[0.024583333333333356,-0.14296296296296293],[0.03843749999999998,-0.12925925925925927],[0.041562499999999974,-0.07407407407407407],[0.035312499999999976,-0.09888888888888885],[-0.005729166666666666,-0.12111111111111107],[-0.025625000000000023,-0.11240740740740739],[-0.036562500000000026,-0.15185185185185185],[-0.057187499999999974,-0.07833333333333335],[-0.06572916666666669,-0.04796296296296292],[-0.0860416666666667,-0.028888888888888933],[-0.07104166666666671,0.032407407407407406],[-0.06947916666666672,0.07462962962962955],[-0.058333333333333334,0.05814814814814811],[-0.016250000000000025,0.14037037037037028],[0.01427083333333338,0.2007407407407407],[-0.00625,0.24462962962962967],[-0.029062499999999977,0.3079629629629629],[-0.014374999999999952,0.32833333333333325],[-0.01729166666666669,0.3205555555555556],[0.004166666666666667,0.369074074074074],[-0.00010416666666669035,0.31666666666666665],[-0.016979166666666618,0.30388888888888893],[-0.024062500000000025,0.3103703703703704],[-0.04479166666666667,0.2705555555555556],[-0.042499999999999954,0.26888888888888896],[-0.014374999999999952,0.262037037037037],[0.030416666666666713,0.2168518518518519],[0.04072916666666669,0.1294444444444444],[0.06947916666666672,0.12444444444444452],[0.07885416666666671,0.0712962962962963],[0.09541666666666657,0.11833333333333329],[0.13083333333333325,0.11777777777777781],[0.15989583333333332,0.11851851851851852],[0.17520833333333338,0.072037037037037],[0.19187500000000005,0.03537037037037041],[0.22989583333333338,0.03981481481481482],[0.25125000000000003,0.08259259259259263],[0.25843749999999993,0.1007407407407407],[0.2682291666666667,0.08703703703703704],[0.26020833333333326,0.0962962962962963],[0.24447916666666672,0.1175925925925926],[0.2696875000000001,0.15259259259259256],[0.2926041666666668,0.18425925925925926],[0.2926041666666668,0.18425925925925926],[0.3132291666666667,0.23148148148148148],[0.3189583333333334,0.2948148148148149],[0.32916666666666666,0.29314814814814805],[0.32000000000000006,0.30037037037037045],[0.3342708333333334,0.3544444444444444],[0.3485416666666666,0.40851851851851856],[0.36958333333333326,0.4368518518518518],[0.38395833333333323,0.42314814814814816],[0.38395833333333323,0.42314814814814816],[0.37489583333333343,0.44907407407407407],[0.37489583333333343,0.44907407407407407],[0.3558333333333332,0.4142592592592593],[0.3558333333333332,0.4142592592592593],[0.33645833333333336,0.41574074074074074],[0.33645833333333336,0.41574074074074074],[0.33312499999999995,0.3896296296296296],[0.33312499999999995,0.3896296296296296],[0.3173958333333334,0.3844444444444445],[0.3173958333333334,0.3844444444444445],[0.3016666666666666,0.38074074074074077],[0.3016666666666666,0.38074074074074077],[0.30145833333333344,0.372037037037037],[0.30145833333333344,0.372037037037037],[0.3056250000000001,0.3881481481481482],[0.28718750000000004,0.3344444444444445],[0.28718750000000004,0.3344444444444445],[0.2764583333333334,0.30111111111111116],[0.2764583333333334,0.30111111111111116],[0.2726041666666667,0.22537037037037044],[0.27364583333333337,0.24833333333333338],[0.27364583333333337,0.24833333333333338],[0.24343750000000006,0.2183333333333333],[0.22625000000000003,0.18851851851851845],[0.19145833333333329,0.14574074074074084],[0.17864583333333334,0.12240740740740745],[0.14968750000000006,0.07314814814814814],[0.10906250000000005,-0.009814814814814731],[0.10604166666666662,-0.01592592592592597],[0.10145833333333343,-0.010185185185185186],[0.08416666666666663,0.014629629629629588],[0.07197916666666657,0.0014814814814813973],[0.08677083333333328,-0.01185185185185181],[0.08739583333333342,-0.013888888888888888],[0.10833333333333334,0.01703703703703712],[0.12666666666666657,0.018148148148148063],[0.13406250000000006,0.010185185185185186],[0.14874999999999997,0.011111111111111112],[0.15875000000000009,0.007037037037036953],[0.13947916666666677,-0.0035185185185184764],[0.11572916666666658,-0.01703703703703712],[0.09656250000000005,-0.02444444444444453],[0.08166666666666676,-0.01629629629629621],[0.06229166666666662,-0.016666666666666666],[0.03083333333333336,-0.04333333333333329],[0.010208333333333286,-0.053148148148148125],[-0.008124999999999953,-0.04518518518518514],[-0.0078125,-0.03944444444444436],[-0.01583333333333338,-0.03796296296296296],[0.02354166666666669,0],[0.023958333333333335,0.012037037037037037],[0.04750000000000002,0.020370370370370372],[0.05010416666666669,0.0198148148148149],[0.08614583333333338,0.03851851851851843],[0.0974999999999999,0.03814814814814819],[0.09802083333333324,0.02092592592592584],[0.12395833333333334,0.011666666666666582],[0.1446875000000001,0.03888888888888889],[0.17000000000000004,0.06814814814814807],[0.17718749999999991,0.06740740740740736],[0.2146874999999999,0.07444444444444454],[0.22510416666666658,0.08518518518518518],[0.22510416666666658,0.08518518518518518],[0.2564583333333334,0.10481481481481486],[0.26875,0.10759259259259263],[0.31302083333333336,0.15203703703703708],[0.3572916666666667,0.19648148148148153],[0.3481250000000001,0.18777777777777774],[0.3255208333333333,0.1448148148148149],[0.2982291666666666,0.10203703703703708],[0.2709374999999999,0.05925925925925926]]","[[0.23572916666666663,0.3987037037037036,0.00020000000297670795],[0.23572916666666663,0.3987037037037036,0.03810000000148506],[0.20104166666666667,0.334074074074074,0.047900000002229604],[0.20104166666666667,0.334074074074074,0.06060000000148591],[0.17395833333333333,0.2692592592592592,0.07720000000297489],[0.17395833333333333,0.2692592592592592,0.09399999999999409],[0.190625,0.24592592592592585,0.11060000000149017],[0.190625,0.24592592592592585,0.12720000000297915],[0.18416666666666662,0.2331481481481481,0.14390000000223324],[0.18416666666666662,0.2331481481481481,0.16060000000148733],[0.2415625000000001,0.24351851851851852,0.1772000000029763],[0.2415625000000001,0.24351851851851852,0.19380000000074205],[0.26239583333333344,0.20796296296296288,0.21070000000297995],[0.2751041666666666,0.22351851851851862,0.2327000000029784],[0.2751041666666666,0.22351851851851862,0.24390000000223466],[0.28781249999999997,0.2390740740740741,0.2604999999999933],[0.28781249999999997,0.2390740740740741,0.27720000000297773],[0.2955208333333334,0.27685185185185185,0.29399999999999693],[0.2955208333333334,0.27685185185185185,0.3106000000014859],[0.30583333333333323,0.3122222222222223,0.3272000000029749],[0.35343749999999996,0.36999999999999994,0.3517000000029782],[0.35343749999999996,0.36999999999999994,0.3687000000029741],[0.4013541666666666,0.43203703703703694,0.3844999999999956],[0.4013541666666666,0.43203703703703694,0.3938000000007449],[0.38781249999999995,0.42611111111111116,0.41060000000148733],[0.4010416666666667,0.41814814814814805,0.42760000000148324],[0.36770833333333336,0.3990740740740741,0.4439000000022304],[0.36781249999999993,0.4118518518518518,0.46049999999999613],[0.35093750000000007,0.4014814814814814,0.4773000000007386],[0.33406250000000004,0.3911111111111112,0.49980000000073943],[0.33406250000000004,0.3911111111111112,0.5106000000014888],[0.32572916666666674,0.35425925925925916,0.5273000000007428],[0.31666666666666665,0.3538888888888889,0.5438000000007435],[0.28937499999999994,0.36055555555555563,0.5606000000014859],[0.2759375000000001,0.31259259259259253,0.57730000000074],[0.29572916666666677,0.28888888888888886,0.593900000002229],[0.2816666666666668,0.3096296296296297,0.6144000000022345],[0.2856250000000001,0.31796296296296306,0.6283000000007419],[0.28958333333333336,0.32629629629629636,0.6439000000022332],[0.3103125000000001,0.3014814814814814,0.6614999999999966],[0.3219791666666666,0.29148148148148145,0.6772000000029763],[0.32791666666666663,0.30351851851851847,0.6942000000029793],[0.3319791666666667,0.2814814814814815,0.7109000000022334],[0.3572916666666667,0.29314814814814805,0.7272000000029735],[0.36843750000000003,0.3551851851851851,0.7439999999999998],[0.3928124999999999,0.39962962962962956,0.7604999999999933],[0.4222916666666668,0.3794444444444444,0.7772000000029777],[0.4222916666666668,0.3794444444444444,0.7939999999999969],[0.42208333333333337,0.369074074074074,0.8108000000007394],[0.42208333333333337,0.369074074074074,0.8272000000029749],[0.43250000000000005,0.3388888888888889,0.843900000002229],[0.43250000000000005,0.3388888888888889,0.8606000000014902],[0.42041666666666655,0.3492592592592593,0.8773000000007443],[0.4331249999999999,0.36666666666666664,0.8959999999999937],[0.4509375000000001,0.38629629629629636,0.9139000000022293],[0.46875,0.405925925925926,0.9273000000007414],[0.46979166666666666,0.362962962962963,0.943800000000742],[0.4617708333333333,0.32407407407407407,0.96070000000298],[0.4318749999999999,0.2818518518518519,0.9772000000029735],[0.4270833333333333,0.2512962962962964,0.9938000000007392],[0.43166666666666675,0.2522222222222223,1.014400000002233],[0.41531250000000003,0.2737037037037036,1.0298000000007406],[0.4118750000000001,0.290925925925926,1.0439000000022318],[0.39000000000000007,0.2862962962962963,1.0604999999999976],[0.34916666666666674,0.25685185185185194,1.0772000000029749],[0.31052083333333325,0.2479629629629629,1.093900000002229],[0.25593750000000004,0.26500000000000007,1.1133000000007414],[0.22364583333333338,0.28592592592592586,1.1272000000029792],[0.2,0.3277777777777778,1.1438000000007449],[0.17458333333333323,0.3588888888888888,1.160499999999999],[0.1404166666666666,0.3651851851851853,1.1772000000029763],[0.11749999999999995,0.3785185185185185,1.1939000000022304],[0.09281249999999991,0.35851851851851857,1.2104999999999961],[0.07260416666666672,0.37185185185185177,1.2273000000007386],[0.07239583333333334,0.405925925925926,1.2439000000022347],[0.06437499999999995,0.40851851851851856,1.2604999999999933],[0.08229166666666667,0.40407407407407414,1.2773000000007428],[0.07937500000000004,0.38129629629629624,1.2939000000022318],[0.09260416666666677,0.36148148148148157,1.3134999999999977],[0.10447916666666662,0.36740740740740735,1.3272000000029749],[0.11604166666666677,0.3685185185185185,1.3438000000007406],[0.12666666666666657,0.3618518518518518,1.3606000000014902],[0.13479166666666675,0.4007407407407407,1.3772000000029792],[0.14947916666666666,0.39018518518518525,1.3939999999999984],[0.11802083333333328,0.3477777777777777,1.4106000000014873],[0.10635416666666657,0.33129629629629626,1.427100000001488],[0.10281250000000004,0.325,1.4439000000022304],[0.09583333333333334,0.32981481481481484,1.4606000000014845],[0.03729166666666662,0.3333333333333333,1.4772000000029735],[-0.011770833333333286,0.32166666666666677,1.4951000000014858],[-0.04812500000000005,0.30925925925925923,1.5124999999999957],[-0.08229166666666667,0.2972222222222222,1.5272000000029777],[-0.11218750000000005,0.2729629629629629,1.5439000000022318],[-0.11687500000000005,0.2972222222222222,1.5604999999999976],[-0.08447916666666669,0.34740740740740744,1.57730000000074],[-0.0751041666666667,0.3798148148148149,1.593900000002229],[-0.08885416666666662,0.40777777777777785,1.6114999999999995],[-0.08885416666666662,0.40777777777777785,1.6273000000007443],[-0.10427083333333335,0.447037037037037,1.6439000000022332],[-0.08666666666666671,0.47074074074074085,1.660499999999999],[-0.04854166666666669,0.4725925925925927,1.6772000000029763],[-0.010416666666666666,0.4744444444444445,1.6939000000022304],[0.051145833333333356,0.49296296296296305,1.7109999999999985],[0.090625,0.5161111111111112,1.7272000000029735],[0.10374999999999991,0.4874074074074075,1.7439000000022347],[0.11687500000000005,0.4587037037037038,1.7606000000014888],[0.1203125,0.4124074074074075,1.7772000000029777],[0.12427083333333329,0.37037037037037035,1.7959999999999994],[0.12427083333333329,0.37037037037037035,1.810600000001486],[0.16979166666666667,0.3333333333333333,1.82730000000074],[0.1962500000000001,0.3242592592592593,1.8438000000007406],[0.22916666666666666,0.3285185185185185,1.8606000000014902],[0.2620833333333332,0.33277777777777784,1.8773000000007443],[0.2413541666666667,0.3198148148148149,1.8939000000022332],[0.24270833333333333,0.3022222222222223,1.913499999999999],[0.2595833333333334,0.3066666666666667,1.9277000000029787],[0.2764583333333334,0.3111111111111111,1.9439000000022304],[0.29812500000000003,0.34018518518518526,1.9604999999999961],[0.3330208333333334,0.3648148148148148,1.9773000000007386],[0.3194791666666667,0.3792592592592592,1.9961000000014835],[0.34520833333333345,0.3761111111111112,2.0138000000007423],[0.3376041666666666,0.3816666666666667,2.0282000000029754],[0.3303124999999999,0.3877777777777777,2.043900000002232],[0.35104166666666664,0.39407407407407397,2.0604999999999976],[0.353125,0.3937037037037037,2.0771000000014865],[0.3325000000000001,0.3907407407407407,2.093999999999994],[0.2867708333333333,0.39518518518518514,2.1114999999999995],[0.27364583333333337,0.3933333333333333,2.127200000002979],[0.25197916666666675,0.3987037037037036,2.143800000000745],[0.24968750000000003,0.4012962962962964,2.1617000000029734],[0.24968750000000003,0.4012962962962964,2.1772000000029763],[0.22197916666666656,0.41222222222222227,2.1939000000022304],[0.22197916666666656,0.41222222222222227,2.2106000000014845],[0.1834374999999999,0.4142592592592593,2.2272000000029735],[0.1482291666666666,0.41648148148148145,2.2483000000007394],[0.1482291666666666,0.41648148148148145,2.2604999999999933],[0.1068749999999999,0.41722222222222216,2.2772000000029777],[0.1068749999999999,0.41722222222222216,2.2938000000007435],[0.10583333333333324,0.4361111111111111,2.310600000001486],[0.10583333333333324,0.4361111111111111,2.32730000000074],[0.08166666666666676,0.4316666666666667,2.343900000002229],[0.08166666666666676,0.4316666666666667,2.36060000000149],[0.08572916666666662,0.4264814814814814,2.3771000000014837],[0.05520833333333333,0.4170370370370371,2.3941000000014867],[0.05520833333333333,0.4170370370370371,2.410499999999999],[0.018333333333333358,0.4203703703703704,2.4272000000029763],[0.018333333333333358,0.4203703703703704,2.4439000000022304],[0.012083333333333357,0.4327777777777779,2.4606000000014845],[0.012083333333333357,0.4327777777777779,2.4772000000029735],[-0.004479166666666619,0.4316666666666667,2.4939000000022347],[-0.004479166666666619,0.4316666666666667,2.5106000000014888],[-0.005104166666666643,0.4418518518518519,2.527300000000743],[-0.005104166666666643,0.4418518518518519,2.5438000000007435],[-0.013750000000000047,0.4398148148148148,2.563900000002235],[-0.027604166666666666,0.38851851851851843,2.57730000000074],[-0.03708333333333336,0.31740740740740736,2.5947000000029803],[-0.04885416666666664,0.31555555555555553,2.6137000000029786],[-0.025729166666666713,0.2657407407407407,2.630999999999993],[0.013125000000000024,0.2222222222222222,2.643800000000745],[0.02322916666666662,0.17851851851851847,2.660499999999999],[0.002916666666666619,0.12166666666666676,2.677100000001488],[0.02958333333333331,0.07351851851851861,2.6939000000022304],[0.051145833333333356,0.02296296296296292,2.7143000000007405],[0.07781250000000005,-0.022037037037036994,2.7309999999999945],[0.1053124999999999,-0.02388888888888885,2.747499999999995],[0.14052083333333343,-0.03518518518518519,2.7624000000022306],[0.20114583333333325,-0.09240740740740737,2.7772000000029777],[0.16677083333333323,-0.07444444444444442,2.7938000000007435],[0.13416666666666663,-0.06555555555555552,2.8134000000022326],[0.1319791666666667,-0.072037037037037,2.8282000000029797],[0.1165625000000001,-0.03166666666666671,2.843900000002229],[0.08677083333333328,0.0005555555555554713,2.8604999999999947],[0.07166666666666661,-0.010370370370370412,2.877200000002979],[0.05583333333333336,-0.015370370370370286,2.893800000000745],[0.05239583333333329,0.0003703703703704546,2.9114999999999966],[0.015208333333333357,0.0338888888888888,2.9272000000029763],[-0.007291666666666667,0.04888888888888885,2.9439000000022304],[0.027187500000000024,0.030000000000000086,2.960499999999996],[0.08260416666666662,0.03592592592592588,2.9772000000029735],[0.11124999999999995,0.03851851851851843,2.996600000001486],[0.14343750000000005,0.03425925925925926,3.0146000000014865],[0.190625,-0.011111111111111112,3.0309000000022337],[0.1898958333333333,-0.00851851851851856,3.047300000000739],[0.2007291666666667,0.026111111111111154,3.0629999999999953],[0.20968749999999994,0.04759259259259268,3.0771000000014865],[0.1875,0.029259259259259176,3.0966000000014873],[0.15322916666666658,0.027407407407407325,3.114200000002974],[0.11052083333333323,0.09370370370370375,3.129800000000742],[0.04510416666666662,0.14425925925925923,3.143800000000745],[0.04781249999999997,0.1727777777777777,3.160499999999999],[0.06020833333333329,0.16129629629629633,3.177100000001488],[0.044166666666666646,0.19722222222222222,3.1939000000022304],[0.06135416666666664,0.22833333333333325,3.210499999999996],[0.06697916666666662,0.22740740740740734,3.2272000000029735],[0.07166666666666661,0.20092592592592592,3.243800000000739],[0.07166666666666661,0.20092592592592592,3.2604999999999933],[0.10750000000000005,0.21425925925925934,3.2772000000029777],[0.1382291666666667,0.2735185185185186,3.293900000002232],[0.15270833333333325,0.25092592592592594,3.310900000002235],[0.1671875,0.22833333333333325,3.3271000000014865],[0.16843750000000005,0.2192592592592592,3.3438000000007406],[0.1696875000000001,0.2101851851851852,3.36060000000149],[0.1650000000000001,0.17240740740740745,3.377200000002979],[0.15041666666666675,0.16074074074074066,3.3939000000022332],[0.13395833333333323,0.13499999999999995,3.413400000002234],[0.09416666666666676,0.1725925925925927,3.4272000000029763],[0.05437500000000005,0.2101851851851852,3.4439000000022304],[0.04552083333333338,0.18333333333333332,3.460499999999996],[0.057395833333333354,0.16925925925925922,3.477100000001485],[0.06395833333333331,0.172037037037037,3.493800000000739],[0.04718749999999995,0.19314814814814807,3.5112000000029795],[0.04770833333333328,0.17629629629629637,3.528100000001487],[0.0655208333333333,0.16666666666666666,3.5438000000007435],[0.06291666666666665,0.20314814814814824,3.5604999999999976],[0.042499999999999954,0.2577777777777779,3.577200000002975],[0.08822916666666672,0.2800000000000001,3.5938000000007406],[0.10187499999999995,0.2911111111111112,3.6129999999999995],[0.08708333333333323,0.3227777777777777,3.6302000000029793],[0.09114583333333333,0.34444444444444444,3.643800000000745],[0.09552083333333337,0.3772222222222223,3.660499999999999],[0.0787499999999999,0.36203703703703705,3.6772000000029763],[0.0671875,0.4046296296296296,3.693800000000742],[0.043958333333333384,0.4737037037037036,3.7109999999999985],[0.051041666666666666,0.4705555555555556,3.7299000000022318],[0.08760416666666657,0.46944444444444444,3.743800000000739],[0.08229166666666667,0.46296296296296297,3.7604000000022353],[0.0796875,0.46888888888888897,3.7771000000014894],[0.07708333333333334,0.47481481481481475,3.7943000000007387],[0.07927083333333323,0.5029629629629631,3.814],[0.12208333333333338,0.4807407407407408,3.8311000000014843],[0.14916666666666673,0.4959259259259258,3.843900000002229],[0.12833333333333338,0.4918518518518519,3.861300000000739],[0.10656249999999995,0.4846296296296297,3.8771000000014837],[0.1,0.4787037037037037,3.8939999999999984],[0.07906250000000009,0.45999999999999996,3.913400000002234],[0.06697916666666662,0.46407407407407414,3.9284999999999997],[0.08541666666666667,0.45999999999999996,3.943800000000742],[0.11500000000000009,0.4403703703703703,3.960800000000745],[0.11437499999999995,0.41648148148148145,3.977100000001485],[0.08145833333333338,0.40777777777777785,3.99440000000223],[0.1125,0.4170370370370371,4.012999999999998],[0.1125,0.4170370370370371,4.027200000002978],[0.1412499999999999,0.4294444444444444,4.0438000000007435],[0.15968749999999995,0.42685185185185187,4.060600000001486],[0.19239583333333338,0.4381481481481482,4.077200000002975],[0.2296875,0.456111111111111,4.093800000000741],[0.2631249999999999,0.4516666666666666,4.11060000000149],[0.29541666666666655,0.4540740740740742,4.127200000002979],[0.30583333333333323,0.4661111111111112,4.143900000002233],[0.3267708333333334,0.4711111111111111,4.162400000002229],[0.34406249999999994,0.49129629629629623,4.177200000002976],[0.34406249999999994,0.49129629629629623,4.193800000000742],[0.3172916666666666,0.4905555555555555,4.2106000000014845],[0.32052083333333337,0.4837037037037038,4.2313000000007435],[0.32052083333333337,0.4837037037037038,4.250600000001484],[0.3294791666666666,0.5122222222222222,4.26570000000298],[0.33541666666666664,0.5012962962962964,4.279900000002229],[0.32000000000000006,0.4920370370370371,4.2938000000007435],[0.29958333333333326,0.4824074074074074,4.310700000002974],[0.2805208333333333,0.4874074074074075,4.327200000002975],[0.27218749999999997,0.49833333333333335,4.343800000000741],[0.2738541666666668,0.5038888888888889,4.36040000000223],[0.2738541666666668,0.5038888888888889,4.377200000002979],[0.27583333333333326,0.5014814814814814,4.393900000002233],[0.27583333333333326,0.5014814814814814,4.410499999999999],[0.30145833333333344,0.4975925925925927,4.427200000002976],[0.30145833333333344,0.4975925925925927,4.44390000000223],[0.3178124999999999,0.5105555555555557,4.460499999999996],[0.3178124999999999,0.5105555555555557,4.477100000001485],[0.3223958333333333,0.49499999999999994,4.493800000000739],[0.3223958333333333,0.49499999999999994,4.510499999999993],[0.3155208333333334,0.5133333333333334,4.527100000001489],[0.29177083333333326,0.4981481481481482,4.54810000000149],[0.29177083333333326,0.4981481481481482,4.560600000001486],[0.26677083333333323,0.5140740740740741,4.582900000002233],[0.26677083333333323,0.5140740740740741,4.5941000000014895],[0.2681250000000001,0.5088888888888888,4.61060000000149],[0.2681250000000001,0.5088888888888888,4.627300000000744],[0.2686458333333334,0.4744444444444445,4.649999999999999],[0.2686458333333334,0.4744444444444445,4.660800000000741],[0.25885416666666666,0.4705555555555556,4.677300000000741],[0.25885416666666666,0.4705555555555556,4.69390000000223],[0.23468749999999997,0.42685185185185187,4.718300000000738],[0.23468749999999997,0.42685185185185187,4.727300000000739],[0.21385416666666662,0.35037037037037044,4.744],[0.21385416666666662,0.35037037037037044,4.760600000001489],[0.19343750000000004,0.34629629629629627,4.779900000002229],[0.21687500000000004,0.32981481481481484,4.796200000002976],[0.21687500000000004,0.32981481481481484,4.810800000000739],[0.22531249999999994,0.3037037037037037,4.829900000002233],[0.2526041666666667,0.27833333333333327,4.843999999999994],[0.2673958333333334,0.25851851851851854,4.86060000000149],[0.29145833333333326,0.14092592592592595,4.881900000002233],[0.2898958333333333,0.09407407407407399,4.897900000002231],[0.29239583333333335,0.03925925925925934,4.914400000002232],[0.3329166666666666,0.003333333333333249,4.929100000001483],[0.32447916666666665,-0.011481481481481566,4.946499999999993],[0.3389583333333334,-0.08499999999999996,4.96070000000298],[0.33604166666666657,-0.10759259259259263,4.977300000000739],[0.3318749999999999,-0.13574074074074077,4.997499999999995],[0.34791666666666665,-0.17999999999999997,5.0127000000029796],[0.3736458333333334,-0.222037037037037,5.028400000002229],[0.3623958333333334,-0.15981481481481483,5.044100000001485],[0.3740624999999999,-0.1381481481481482,5.062400000002235],[0.3823958333333332,-0.17703703703703708,5.077900000002231],[0.3532291666666666,-0.21703703703703703,5.095400000002229],[0.3775000000000001,-0.21518518518518517,5.115700000002974],[0.3837500000000001,-0.24574074074074073,5.1299999999999955],[0.3798958333333334,-0.3066666666666667,5.144499999999994],[0.36177083333333326,-0.30481481481481487,5.160700000002976],[0.34885416666666674,-0.30092592592592593,5.181200000002974],[0.34791666666666665,-0.2953703703703704,5.198100000001489],[0.3267708333333334,-0.26055555555555554,5.2143000000007405],[0.32937500000000003,-0.2559259259259259,5.231999999999999],[0.309375,-0.17611111111111116,5.24740000000223],[0.30322916666666655,-0.0742592592592593,5.260999999999996],[0.2673958333333334,-0.016666666666666666,5.277100000001489],[0.24739583333333334,0.039629629629629584,5.293900000002232],[0.2111458333333334,0.07592592592592592,5.312300000000739],[0.19041666666666662,0.055000000000000084,5.327200000002975],[0.16395833333333343,0.12851851851851848,5.343800000000741],[0.12958333333333344,0.16148148148148156,5.360499999999995],[0.13635416666666675,0.15018518518518523,5.378999999999998],[0.11354166666666667,0.13185185185185194,5.393999999999998],[0.11270833333333338,0.07444444444444454,5.413499999999999],[0.10114583333333324,0.015000000000000043,5.429800000000739],[0.11604166666666677,-0.015370370370370286,5.44390000000223],[0.10854166666666672,-0.05259259259259255,5.4606000000014845],[0.11729166666666657,-0.06981481481481479,5.477100000001485],[0.14375,-0.07462962962962966,5.493700000002974],[0.17041666666666658,-0.13555555555555554,5.510800000000742],[0.17687499999999995,-0.17907407407407405,5.527100000001489],[0.16239583333333343,-0.20759259259259263,5.543700000002978],[0.1318749999999999,-0.24000000000000005,5.5604999999999976],[0.1015625,-0.2651851851851852,5.5771000000014865],[0.09041666666666662,-0.22777777777777777,5.597800000000738],[0.08520833333333329,-0.22555555555555556,5.611600000001488],[0.08822916666666672,-0.21092592592592588,5.627700000002974],[0.08458333333333339,-0.1675925925925926,5.647600000001489],[0.06989583333333324,-0.16444444444444448,5.660600000001487],[0.03916666666666669,-0.13370370370370369,5.677200000002976],[0.036145833333333384,-0.11648148148148144,5.6939999999999955],[0.024583333333333356,-0.14296296296296293,5.710400000002231],[0.03843749999999998,-0.12925925925925927,5.7294999999999945],[0.041562499999999974,-0.07407407407407407,5.743800000000739],[0.035312499999999976,-0.09888888888888885,5.760400000002235],[-0.005729166666666666,-0.12111111111111107,5.777100000001489],[-0.025625000000000023,-0.11240740740740739,5.7938000000007435],[-0.036562500000000026,-0.15185185185185185,5.815100000001486],[-0.057187499999999974,-0.07833333333333335,5.830900000002231],[-0.06572916666666669,-0.04796296296296292,5.843900000002229],[-0.0860416666666667,-0.028888888888888933,5.86040000000223],[-0.07104166666666671,0.032407407407407406,5.877100000001484],[-0.06947916666666672,0.07462962962962955,5.893999999999998],[-0.058333333333333334,0.05814814814814811,5.912999999999997],[-0.016250000000000025,0.14037037037037028,5.927600000001483],[0.01427083333333338,0.2007407407407407,5.943800000000742],[-0.00625,0.24462962962962967,5.960499999999996],[-0.029062499999999977,0.3079629629629629,5.977100000001485],[-0.014374999999999952,0.32833333333333325,5.993900000002235],[-0.01729166666666669,0.3205555555555556,6.013700000002977],[0.004166666666666667,0.369074074074074,6.029800000000741],[-0.00010416666666669035,0.31666666666666665,6.0438000000007435],[-0.016979166666666618,0.30388888888888893,6.0604999999999976],[-0.024062500000000025,0.3103703703703704,6.0771000000014865],[-0.04479166666666667,0.2705555555555556,6.093900000002229],[-0.042499999999999954,0.26888888888888896,6.11340000000223],[-0.014374999999999952,0.262037037037037,6.130200000002979],[0.030416666666666713,0.2168518518518519,6.143800000000745],[0.04072916666666669,0.1294444444444444,6.160499999999999],[0.06947916666666672,0.12444444444444452,6.177200000002976],[0.07885416666666671,0.0712962962962963,6.193800000000742],[0.09541666666666657,0.11833333333333329,6.21130000000074],[0.13083333333333325,0.11777777777777781,6.227700000002976],[0.15989583333333332,0.11851851851851852,6.243900000002235],[0.17520833333333338,0.072037037037037,6.260400000002235],[0.19187500000000005,0.03537037037037041,6.277100000001489],[0.22989583333333338,0.03981481481481482,6.293800000000736],[0.25125000000000003,0.08259259259259263,6.311100000001481],[0.25843749999999993,0.1007407407407407,6.3271000000014865],[0.2682291666666667,0.08703703703703704,6.343800000000748],[0.26020833333333326,0.0962962962962963,6.360499999999995],[0.24447916666666672,0.1175925925925926,6.377100000001484],[0.2696875000000001,0.15259259259259256,6.393800000000745],[0.2926041666666668,0.18425925925925926,6.411499999999997],[0.2926041666666668,0.18425925925925926,6.427200000002976],[0.3132291666666667,0.23148148148148148,6.443800000000742],[0.3189583333333334,0.2948148148148149,6.460500000000003],[0.32916666666666666,0.29314814814814805,6.477100000001492],[0.32000000000000006,0.30037037037037045,6.495600000001481],[0.3342708333333334,0.3544444444444444,6.512999999999998],[0.3485416666666666,0.40851851851851856,6.527200000002971],[0.36958333333333326,0.4368518518518518,6.543800000000736],[0.38395833333333323,0.42314814814814816,6.561300000000735],[0.38395833333333323,0.42314814814814816,6.5771000000014865],[0.37489583333333343,0.44907407407407407,6.593800000000748],[0.37489583333333343,0.44907407407407407,6.610499999999995],[0.3558333333333332,0.4142592592592593,6.627100000001484],[0.3558333333333332,0.4142592592592593,6.643800000000745],[0.33645833333333336,0.41574074074074074,6.660499999999992],[0.33645833333333336,0.41574074074074074,6.677100000001481],[0.33312499999999995,0.3896296296296296,6.693800000000742],[0.33312499999999995,0.3896296296296296,6.710500000000003],[0.3173958333333334,0.3844444444444445,6.7272000000029735],[0.3173958333333334,0.3844444444444445,6.743900000002235],[0.3016666666666666,0.38074074074074077,6.7605],[0.3016666666666666,0.38074074074074077,6.777100000001489],[0.30145833333333344,0.372037037037037,6.793900000002232],[0.30145833333333344,0.372037037037037,6.8104999999999976],[0.3056250000000001,0.3881481481481482,6.82730000000074],[0.28718750000000004,0.3344444444444445,6.844800000000738],[0.28718750000000004,0.3344444444444445,6.860400000002237],[0.2764583333333334,0.30111111111111116,6.877100000001484],[0.2764583333333334,0.30111111111111116,6.893800000000745],[0.2726041666666667,0.22537037037037044,6.910499999999992],[0.27364583333333337,0.24833333333333338,6.930600000001483],[0.27364583333333337,0.24833333333333338,6.943800000000742],[0.24343750000000006,0.2183333333333333,6.9606000000014845],[0.22625000000000003,0.18851851851851845,6.977700000002976],[0.19145833333333329,0.14574074074074084,6.994700000002972],[0.17864583333333334,0.12240740740740745,7.013700000002977],[0.14968750000000006,0.07314814814814814,7.029700000002983],[0.10906250000000005,-0.009814814814814731,7.043800000000736],[0.10604166666666662,-0.01592592592592597,7.063499999999998],[0.10145833333333343,-0.010185185185185186,7.077600000001489],[0.08416666666666663,0.014629629629629588,7.093800000000748],[0.07197916666666657,0.0014814814814813973,7.112999999999992],[0.08677083333333328,-0.01185185185185181,7.127100000001484],[0.08739583333333342,-0.013888888888888888,7.143700000002973],[0.10833333333333334,0.01703703703703712,7.160400000002234],[0.12666666666666657,0.018148148148148063,7.177900000002232],[0.13406250000000006,0.010185185185185186,7.193800000000742],[0.14874999999999997,0.011111111111111112,7.212200000002973],[0.15875000000000009,0.007037037037036953,7.228300000000736],[0.13947916666666677,-0.0035185185185184764,7.243800000000739],[0.11572916666666658,-0.01703703703703712,7.2605],[0.09656250000000005,-0.02444444444444453,7.277100000001489],[0.08166666666666676,-0.01629629629629621,7.293800000000736],[0.06229166666666662,-0.016666666666666666,7.312999999999995],[0.03083333333333336,-0.04333333333333329,7.32730000000074],[0.010208333333333286,-0.053148148148148125,7.343800000000748],[-0.008124999999999953,-0.04518518518518514,7.360499999999995],[-0.0078125,-0.03944444444444436,7.377100000001484],[-0.01583333333333338,-0.03796296296296296,7.393800000000745],[0.02354166666666669,0,7.412800000000736],[0.023958333333333335,0.012037037037037037,7.4284000000022345],[0.04750000000000002,0.020370370370370372,7.443800000000742],[0.05010416666666669,0.0198148148148149,7.46070000000298],[0.08614583333333338,0.03851851851851843,7.477100000001492],[0.0974999999999999,0.03814814814814819,7.496999999999993],[0.09802083333333324,0.02092592592592584,7.513400000002228],[0.12395833333333334,0.011666666666666582,7.5301000000014895],[0.1446875000000001,0.03888888888888889,7.546300000000748],[0.17000000000000004,0.06814814814814807,7.5604999999999976],[0.17718749999999991,0.06740740740740736,7.5771000000014865],[0.2146874999999999,0.07444444444444454,7.593800000000748],[0.22510416666666658,0.08518518518518518,7.610900000002225],[0.22510416666666658,0.08518518518518518,7.627200000002979],[0.2564583333333334,0.10481481481481486,7.643900000002226],[0.26875,0.10759259259259263,7.661499999999997],[0.31302083333333336,0.15203703703703708,7.677],[0.3572916666666667,0.19648148148148153,7.693800000000742],[0.3481250000000001,0.18777777777777774,7.710400000002231],[0.3255208333333333,0.1448148148148149,7.727400000002227],[0.2982291666666666,0.10203703703703708,7.743800000000739],[0.2709374999999999,0.05925925925925926,7.7605]]","[0.00020000000297670795,0.03810000000148506,0.047900000002229604,0.06060000000148591,0.07720000000297489,0.09399999999999409,0.11060000000149017,0.12720000000297915,0.14390000000223324,0.16060000000148733,0.1772000000029763,0.19380000000074205,0.21070000000297995,0.2327000000029784,0.24390000000223466,0.2604999999999933,0.27720000000297773,0.29399999999999693,0.3106000000014859,0.3272000000029749,0.3517000000029782,0.3687000000029741,0.3844999999999956,0.3938000000007449,0.41060000000148733,0.42760000000148324,0.4439000000022304,0.46049999999999613,0.4773000000007386,0.49980000000073943,0.5106000000014888,0.5273000000007428,0.5438000000007435,0.5606000000014859,0.57730000000074,0.593900000002229,0.6144000000022345,0.6283000000007419,0.6439000000022332,0.6614999999999966,0.6772000000029763,0.6942000000029793,0.7109000000022334,0.7272000000029735,0.7439999999999998,0.7604999999999933,0.7772000000029777,0.7939999999999969,0.8108000000007394,0.8272000000029749,0.843900000002229,0.8606000000014902,0.8773000000007443,0.8959999999999937,0.9139000000022293,0.9273000000007414,0.943800000000742,0.96070000000298,0.9772000000029735,0.9938000000007392,1.014400000002233,1.0298000000007406,1.0439000000022318,1.0604999999999976,1.0772000000029749,1.093900000002229,1.1133000000007414,1.1272000000029792,1.1438000000007449,1.160499999999999,1.1772000000029763,1.1939000000022304,1.2104999999999961,1.2273000000007386,1.2439000000022347,1.2604999999999933,1.2773000000007428,1.2939000000022318,1.3134999999999977,1.3272000000029749,1.3438000000007406,1.3606000000014902,1.3772000000029792,1.3939999999999984,1.4106000000014873,1.427100000001488,1.4439000000022304,1.4606000000014845,1.4772000000029735,1.4951000000014858,1.5124999999999957,1.5272000000029777,1.5439000000022318,1.5604999999999976,1.57730000000074,1.593900000002229,1.6114999999999995,1.6273000000007443,1.6439000000022332,1.660499999999999,1.6772000000029763,1.6939000000022304,1.7109999999999985,1.7272000000029735,1.7439000000022347,1.7606000000014888,1.7772000000029777,1.7959999999999994,1.810600000001486,1.82730000000074,1.8438000000007406,1.8606000000014902,1.8773000000007443,1.8939000000022332,1.913499999999999,1.9277000000029787,1.9439000000022304,1.9604999999999961,1.9773000000007386,1.9961000000014835,2.0138000000007423,2.0282000000029754,2.043900000002232,2.0604999999999976,2.0771000000014865,2.093999999999994,2.1114999999999995,2.127200000002979,2.143800000000745,2.1617000000029734,2.1772000000029763,2.1939000000022304,2.2106000000014845,2.2272000000029735,2.2483000000007394,2.2604999999999933,2.2772000000029777,2.2938000000007435,2.310600000001486,2.32730000000074,2.343900000002229,2.36060000000149,2.3771000000014837,2.3941000000014867,2.410499999999999,2.4272000000029763,2.4439000000022304,2.4606000000014845,2.4772000000029735,2.4939000000022347,2.5106000000014888,2.527300000000743,2.5438000000007435,2.563900000002235,2.57730000000074,2.5947000000029803,2.6137000000029786,2.630999999999993,2.643800000000745,2.660499999999999,2.677100000001488,2.6939000000022304,2.7143000000007405,2.7309999999999945,2.747499999999995,2.7624000000022306,2.7772000000029777,2.7938000000007435,2.8134000000022326,2.8282000000029797,2.843900000002229,2.8604999999999947,2.877200000002979,2.893800000000745,2.9114999999999966,2.9272000000029763,2.9439000000022304,2.960499999999996,2.9772000000029735,2.996600000001486,3.0146000000014865,3.0309000000022337,3.047300000000739,3.0629999999999953,3.0771000000014865,3.0966000000014873,3.114200000002974,3.129800000000742,3.143800000000745,3.160499999999999,3.177100000001488,3.1939000000022304,3.210499999999996,3.2272000000029735,3.243800000000739,3.2604999999999933,3.2772000000029777,3.293900000002232,3.310900000002235,3.3271000000014865,3.3438000000007406,3.36060000000149,3.377200000002979,3.3939000000022332,3.413400000002234,3.4272000000029763,3.4439000000022304,3.460499999999996,3.477100000001485,3.493800000000739,3.5112000000029795,3.528100000001487,3.5438000000007435,3.5604999999999976,3.577200000002975,3.5938000000007406,3.6129999999999995,3.6302000000029793,3.643800000000745,3.660499999999999,3.6772000000029763,3.693800000000742,3.7109999999999985,3.7299000000022318,3.743800000000739,3.7604000000022353,3.7771000000014894,3.7943000000007387,3.814,3.8311000000014843,3.843900000002229,3.861300000000739,3.8771000000014837,3.8939999999999984,3.913400000002234,3.9284999999999997,3.943800000000742,3.960800000000745,3.977100000001485,3.99440000000223,4.012999999999998,4.027200000002978,4.0438000000007435,4.060600000001486,4.077200000002975,4.093800000000741,4.11060000000149,4.127200000002979,4.143900000002233,4.162400000002229,4.177200000002976,4.193800000000742,4.2106000000014845,4.2313000000007435,4.250600000001484,4.26570000000298,4.279900000002229,4.2938000000007435,4.310700000002974,4.327200000002975,4.343800000000741,4.36040000000223,4.377200000002979,4.393900000002233,4.410499999999999,4.427200000002976,4.44390000000223,4.460499999999996,4.477100000001485,4.493800000000739,4.510499999999993,4.527100000001489,4.54810000000149,4.560600000001486,4.582900000002233,4.5941000000014895,4.61060000000149,4.627300000000744,4.649999999999999,4.660800000000741,4.677300000000741,4.69390000000223,4.718300000000738,4.727300000000739,4.744,4.760600000001489,4.779900000002229,4.796200000002976,4.810800000000739,4.829900000002233,4.843999999999994,4.86060000000149,4.881900000002233,4.897900000002231,4.914400000002232,4.929100000001483,4.946499999999993,4.96070000000298,4.977300000000739,4.997499999999995,5.0127000000029796,5.028400000002229,5.044100000001485,5.062400000002235,5.077900000002231,5.095400000002229,5.115700000002974,5.1299999999999955,5.144499999999994,5.160700000002976,5.181200000002974,5.198100000001489,5.2143000000007405,5.231999999999999,5.24740000000223,5.260999999999996,5.277100000001489,5.293900000002232,5.312300000000739,5.327200000002975,5.343800000000741,5.360499999999995,5.378999999999998,5.393999999999998,5.413499999999999,5.429800000000739,5.44390000000223,5.4606000000014845,5.477100000001485,5.493700000002974,5.510800000000742,5.527100000001489,5.543700000002978,5.5604999999999976,5.5771000000014865,5.597800000000738,5.611600000001488,5.627700000002974,5.647600000001489,5.660600000001487,5.677200000002976,5.6939999999999955,5.710400000002231,5.7294999999999945,5.743800000000739,5.760400000002235,5.777100000001489,5.7938000000007435,5.815100000001486,5.830900000002231,5.843900000002229,5.86040000000223,5.877100000001484,5.893999999999998,5.912999999999997,5.927600000001483,5.943800000000742,5.960499999999996,5.977100000001485,5.993900000002235,6.013700000002977,6.029800000000741,6.0438000000007435,6.0604999999999976,6.0771000000014865,6.093900000002229,6.11340000000223,6.130200000002979,6.143800000000745,6.160499999999999,6.177200000002976,6.193800000000742,6.21130000000074,6.227700000002976,6.243900000002235,6.260400000002235,6.277100000001489,6.293800000000736,6.311100000001481,6.3271000000014865,6.343800000000748,6.360499999999995,6.377100000001484,6.393800000000745,6.411499999999997,6.427200000002976,6.443800000000742,6.460500000000003,6.477100000001492,6.495600000001481,6.512999999999998,6.527200000002971,6.543800000000736,6.561300000000735,6.5771000000014865,6.593800000000748,6.610499999999995,6.627100000001484,6.643800000000745,6.660499999999992,6.677100000001481,6.693800000000742,6.710500000000003,6.7272000000029735,6.743900000002235,6.7605,6.777100000001489,6.793900000002232,6.8104999999999976,6.82730000000074,6.844800000000738,6.860400000002237,6.877100000001484,6.893800000000745,6.910499999999992,6.930600000001483,6.943800000000742,6.9606000000014845,6.977700000002976,6.994700000002972,7.013700000002977,7.029700000002983,7.043800000000736,7.063499999999998,7.077600000001489,7.093800000000748,7.112999999999992,7.127100000001484,7.143700000002973,7.160400000002234,7.177900000002232,7.193800000000742,7.212200000002973,7.228300000000736,7.243800000000739,7.2605,7.277100000001489,7.293800000000736,7.312999999999995,7.32730000000074,7.343800000000748,7.360499999999995,7.377100000001484,7.393800000000745,7.412800000000736,7.4284000000022345,7.443800000000742,7.46070000000298,7.477100000001492,7.496999999999993,7.513400000002228,7.5301000000014895,7.546300000000748,7.5604999999999976,7.5771000000014865,7.593800000000748,7.610900000002225,7.627200000002979,7.643900000002226,7.661499999999997,7.677,7.693800000000742,7.710400000002231,7.727400000002227,7.743800000000739,7.7605]","[1733133057766,1733133057796,1733133057806,1733133057819,1733133057836,1733133057852,1733133057869,1733133057886,1733133057902,1733133057919,1733133057936,1733133057952,1733133057969,1733133057991,1733133058002,1733133058019,1733133058036,1733133058052,1733133058069,1733133058086,1733133058110,1733133058127,1733133058143,1733133058152,1733133058169,1733133058186,1733133058202,1733133058219,1733133058236,1733133058258,1733133058269,1733133058286,1733133058302,1733133058319,1733133058336,1733133058352,1733133058373,1733133058387,1733133058402,1733133058420,1733133058436,1733133058453,1733133058469,1733133058486,1733133058502,1733133058519,1733133058536,1733133058552,1733133058569,1733133058586,1733133058602,1733133058619,1733133058636,1733133058654,1733133058672,1733133058686,1733133058702,1733133058719,1733133058736,1733133058752,1733133058773,1733133058788,1733133058802,1733133058819,1733133058835,1733133058852,1733133058872,1733133058886,1733133058902,1733133058919,1733133058935,1733133058952,1733133058969,1733133058986,1733133059002,1733133059019,1733133059036,1733133059052,1733133059072,1733133059085,1733133059102,1733133059119,1733133059135,1733133059152,1733133059169,1733133059185,1733133059202,1733133059219,1733133059235,1733133059253,1733133059271,1733133059286,1733133059302,1733133059319,1733133059336,1733133059352,1733133059370,1733133059386,1733133059402,1733133059419,1733133059435,1733133059452,1733133059469,1733133059485,1733133059502,1733133059519,1733133059535,1733133059554,1733133059569,1733133059586,1733133059602,1733133059619,1733133059636,1733133059652,1733133059672,1733133059686,1733133059702,1733133059719,1733133059736,1733133059754,1733133059772,1733133059786,1733133059802,1733133059819,1733133059835,1733133059852,1733133059870,1733133059886,1733133059902,1733133059920,1733133059935,1733133059952,1733133059969,1733133059986,1733133060007,1733133060019,1733133060035,1733133060052,1733133060069,1733133060086,1733133060102,1733133060119,1733133060135,1733133060152,1733133060169,1733133060186,1733133060202,1733133060219,1733133060236,1733133060252,1733133060269,1733133060286,1733133060302,1733133060322,1733133060336,1733133060353,1733133060372,1733133060389,1733133060402,1733133060419,1733133060435,1733133060452,1733133060473,1733133060489,1733133060506,1733133060521,1733133060536,1733133060552,1733133060572,1733133060587,1733133060602,1733133060619,1733133060636,1733133060652,1733133060670,1733133060685,1733133060702,1733133060719,1733133060736,1733133060755,1733133060773,1733133060789,1733133060806,1733133060821,1733133060835,1733133060855,1733133060873,1733133060888,1733133060902,1733133060919,1733133060935,1733133060952,1733133060969,1733133060985,1733133061002,1733133061019,1733133061035,1733133061052,1733133061069,1733133061085,1733133061102,1733133061119,1733133061135,1733133061152,1733133061172,1733133061186,1733133061202,1733133061219,1733133061235,1733133061252,1733133061270,1733133061286,1733133061302,1733133061319,1733133061335,1733133061352,1733133061371,1733133061388,1733133061402,1733133061419,1733133061435,1733133061452,1733133061469,1733133061488,1733133061502,1733133061519,1733133061535,1733133061553,1733133061572,1733133061589,1733133061602,1733133061620,1733133061635,1733133061652,1733133061672,1733133061687,1733133061702,1733133061719,1733133061735,1733133061753,1733133061771,1733133061785,1733133061802,1733133061819,1733133061835,1733133061852,1733133061869,1733133061885,1733133061902,1733133061921,1733133061935,1733133061952,1733133061969,1733133061990,1733133062009,1733133062024,1733133062038,1733133062052,1733133062069,1733133062085,1733133062102,1733133062119,1733133062135,1733133062152,1733133062169,1733133062186,1733133062202,1733133062219,1733133062235,1733133062252,1733133062269,1733133062285,1733133062306,1733133062319,1733133062341,1733133062352,1733133062369,1733133062386,1733133062408,1733133062419,1733133062436,1733133062452,1733133062477,1733133062486,1733133062502,1733133062519,1733133062538,1733133062555,1733133062569,1733133062588,1733133062602,1733133062619,1733133062640,1733133062656,1733133062673,1733133062687,1733133062705,1733133062719,1733133062736,1733133062756,1733133062771,1733133062787,1733133062802,1733133062821,1733133062836,1733133062854,1733133062874,1733133062888,1733133062903,1733133062919,1733133062940,1733133062956,1733133062973,1733133062990,1733133063006,1733133063019,1733133063035,1733133063052,1733133063071,1733133063085,1733133063102,1733133063119,1733133063137,1733133063152,1733133063172,1733133063188,1733133063202,1733133063219,1733133063235,1733133063252,1733133063269,1733133063285,1733133063302,1733133063319,1733133063335,1733133063356,1733133063370,1733133063386,1733133063406,1733133063419,1733133063436,1733133063452,1733133063469,1733133063488,1733133063502,1733133063519,1733133063535,1733133063552,1733133063573,1733133063589,1733133063602,1733133063619,1733133063635,1733133063652,1733133063671,1733133063686,1733133063702,1733133063719,1733133063735,1733133063752,1733133063772,1733133063788,1733133063802,1733133063819,1733133063835,1733133063852,1733133063872,1733133063889,1733133063902,1733133063919,1733133063936,1733133063952,1733133063970,1733133063986,1733133064002,1733133064019,1733133064035,1733133064052,1733133064069,1733133064085,1733133064102,1733133064119,1733133064135,1733133064152,1733133064170,1733133064185,1733133064202,1733133064219,1733133064235,1733133064254,1733133064271,1733133064286,1733133064302,1733133064320,1733133064335,1733133064352,1733133064369,1733133064385,1733133064402,1733133064419,1733133064435,1733133064452,1733133064469,1733133064485,1733133064502,1733133064519,1733133064535,1733133064552,1733133064569,1733133064586,1733133064603,1733133064619,1733133064635,1733133064652,1733133064669,1733133064689,1733133064702,1733133064719,1733133064736,1733133064753,1733133064772,1733133064788,1733133064802,1733133064822,1733133064836,1733133064852,1733133064871,1733133064885,1733133064902,1733133064919,1733133064936,1733133064952,1733133064970,1733133064987,1733133065002,1733133065019,1733133065035,1733133065052,1733133065071,1733133065086,1733133065102,1733133065119,1733133065135,1733133065152,1733133065171,1733133065187,1733133065202,1733133065219,1733133065235,1733133065255,1733133065272,1733133065288,1733133065305,1733133065319,1733133065335,1733133065352,1733133065369,1733133065385,1733133065402,1733133065420,1733133065435,1733133065452,1733133065469,1733133065486,1733133065502,1733133065519]","[[1186.3,755.3],[1186.3,755.3],[1153,720.4],[1153,720.4],[1127,685.4],[1127,685.4],[1143,672.8],[1143,672.8],[1136.8,665.9],[1136.8,665.9],[1191.9,671.5],[1191.9,671.5],[1211.9,652.3],[1224.1,660.7],[1224.1,660.7],[1236.3,669.1],[1236.3,669.1],[1243.7,689.5],[1243.7,689.5],[1253.6,708.6],[1299.3,739.8],[1299.3,739.8],[1345.3,773.3],[1345.3,773.3],[1332.3,770.1],[1345,765.8],[1313,755.5],[1313.1,762.4],[1296.9,756.8],[1280.7,751.2],[1280.7,751.2],[1272.7,731.3],[1264,731.1],[1237.8,734.7],[1224.9,708.8],[1243.9,696],[1230.4,707.2],[1234.2,711.7],[1238,716.2],[1257.9,702.8],[1269.1,697.4],[1274.8,703.9],[1278.7,692],[1303,698.3],[1313.7,731.8],[1337.1,755.8],[1365.4,744.9],[1365.4,744.9],[1365.2,739.3],[1365.2,739.3],[1375.2,723],[1375.2,723],[1363.6,728.6],[1375.8,738],[1392.9,748.6],[1410,759.2],[1411,736],[1403.3,715],[1374.6,692.2],[1370,675.7],[1374.4,676.2],[1358.7,687.8],[1355.4,697.1],[1334.4,694.6],[1295.2,678.7],[1258.1,673.9],[1205.7,683.1],[1174.7,694.4],[1152,717],[1127.6,733.8],[1094.8,737.2],[1072.8,744.4],[1049.1,733.6],[1029.7,740.8],[1029.5,759.2],[1021.8,760.6],[1039,758.2],[1036.2,745.9],[1048.9,735.2],[1060.3,738.4],[1071.4,739],[1081.6,735.4],[1089.4,756.4],[1103.5,750.7],[1073.3,727.8],[1062.1,718.9],[1058.7,715.5],[1052,718.1],[995.8,720],[948.7,713.7],[913.8,707],[881,700.5],[852.3,687.4],[847.8,700.5],[878.9,727.6],[887.9,745.1],[874.7,760.2],[874.7,760.2],[859.9,781.4],[876.8,794.2],[913.4,795.2],[950,796.2],[1009.1,806.2],[1047,818.7],[1059.6,803.2],[1072.2,787.7],[1075.5,762.7],[1079.3,740],[1079.3,740],[1123,720],[1148.4,715.1],[1180,717.4],[1211.6,719.7],[1191.7,712.7],[1193,703.2],[1209.2,705.6],[1225.4,708],[1246.2,723.7],[1279.7,737],[1266.7,744.8],[1291.4,743.1],[1284.1,746.1],[1277.1,749.4],[1297,752.8],[1299,752.6],[1279.2,751],[1235.3,753.4],[1222.7,752.4],[1201.9,755.3],[1199.7,756.7],[1199.7,756.7],[1173.1,762.6],[1173.1,762.6],[1136.1,763.7],[1102.3,764.9],[1102.3,764.9],[1062.6,765.3],[1062.6,765.3],[1061.6,775.5],[1061.6,775.5],[1038.4,773.1],[1038.4,773.1],[1042.3,770.3],[1013,765.2],[1013,765.2],[977.6,767],[977.6,767],[971.6,773.7],[971.6,773.7],[955.7,773.1],[955.7,773.1],[955.1,778.6],[955.1,778.6],[946.8,777.5],[933.5,749.8],[924.4,711.4],[913.1,710.4],[935.3,683.5],[972.6,660],[982.3,636.4],[962.8,605.7],[988.4,579.7],[1009.1,552.4],[1034.7,528.1],[1061.1,527.1],[1094.9,521],[1153.1,490.1],[1120.1,499.8],[1088.8,504.6],[1086.7,501.1],[1071.9,522.9],[1043.3,540.3],[1028.8,534.4],[1013.6,531.7],[1010.3,540.2],[974.6,558.3],[953,566.4],[986.1,556.2],[1039.3,559.4],[1066.8,560.8],[1097.7,558.5],[1143,534],[1142.3,535.4],[1152.7,554.1],[1161.3,565.7],[1140,555.8],[1107.1,554.8],[1066.1,590.6],[1003.3,617.9],[1005.9,633.3],[1017.8,627.1],[1002.4,646.5],[1018.9,663.3],[1024.3,662.8],[1028.8,648.5],[1028.8,648.5],[1063.2,655.7],[1092.7,687.7],[1106.6,675.5],[1120.5,663.3],[1121.7,658.4],[1122.9,653.5],[1118.4,633.1],[1104.4,626.8],[1088.6,612.9],[1050.4,633.2],[1012.2,653.5],[1003.7,639],[1015.1,631.4],[1021.4,632.9],[1005.3,644.3],[1005.8,635.2],[1022.9,630],[1020.4,649.7],[1000.8,679.2],[1044.7,691.2],[1057.8,697.2],[1043.6,714.3],[1047.5,726],[1051.7,743.7],[1035.6,735.5],[1024.5,758.5],[1002.2,795.8],[1009,794.1],[1044.1,793.5],[1039,790],[1036.5,793.2],[1034,796.4],[1036.1,811.6],[1077.2,799.6],[1103.2,807.8],[1083.2,805.6],[1062.3,801.7],[1056,798.5],[1035.9,788.4],[1024.3,790.6],[1042,788.4],[1070.4,777.8],[1069.8,764.9],[1038.2,760.2],[1068,765.2],[1068,765.2],[1095.6,771.9],[1113.3,770.5],[1144.7,776.6],[1180.5,786.3],[1212.6,783.9],[1243.6,785.2],[1253.6,791.7],[1273.7,794.4],[1290.3,805.3],[1290.3,805.3],[1264.6,804.9],[1267.7,801.2],[1267.7,801.2],[1276.3,816.6],[1282,810.7],[1267.2,805.7],[1247.6,800.5],[1229.3,803.2],[1221.3,809.1],[1222.9,812.1],[1222.9,812.1],[1224.8,810.8],[1224.8,810.8],[1249.4,808.7],[1249.4,808.7],[1265.1,815.7],[1265.1,815.7],[1269.5,807.3],[1269.5,807.3],[1262.9,817.2],[1240.1,809],[1240.1,809],[1216.1,817.6],[1216.1,817.6],[1217.4,814.8],[1217.4,814.8],[1217.9,796.2],[1217.9,796.2],[1208.5,794.1],[1208.5,794.1],[1185.3,770.5],[1185.3,770.5],[1165.3,729.2],[1165.3,729.2],[1145.7,727],[1168.2,718.1],[1168.2,718.1],[1176.3,704],[1202.5,690.3],[1216.7,679.6],[1239.8,616.1],[1238.3,590.8],[1240.7,561.2],[1279.6,541.8],[1271.5,533.8],[1285.4,494.1],[1282.6,481.9],[1278.6,466.7],[1294,442.8],[1318.7,420.1],[1307.9,453.7],[1319.1,465.4],[1327.1,444.4],[1299.1,422.8],[1322.4,423.8],[1328.4,407.3],[1324.7,374.4],[1307.3,375.4],[1294.9,377.5],[1294,380.5],[1273.7,399.3],[1276.2,401.8],[1257,444.9],[1251.1,499.9],[1216.7,531],[1197.5,561.4],[1162.7,581],[1142.8,569.7],[1117.4,609.4],[1084.4,627.2],[1090.9,621.1],[1069,611.2],[1068.2,580.2],[1057.1,548.1],[1071.4,531.7],[1064.2,511.6],[1072.6,502.3],[1098,499.7],[1123.6,466.8],[1129.8,443.3],[1115.9,427.9],[1086.6,410.4],[1057.5,396.8],[1046.8,417],[1041.8,418.2],[1044.7,426.1],[1041.2,449.5],[1027.1,451.2],[997.6,467.8],[994.7,477.1],[983.6,462.8],[996.9,470.2],[999.9,500],[993.9,486.6],[954.5,474.6],[935.4,479.3],[924.9,458],[905.1,497.7],[896.9,514.1],[877.4,524.4],[891.8,557.5],[893.3,580.3],[904,571.4],[944.4,615.8],[973.7,648.4],[954,672.1],[932.1,706.3],[946.2,717.3],[943.4,713.1],[964,739.3],[959.9,711],[943.7,704.1],[936.9,707.6],[917,686.1],[919.2,685.2],[946.2,681.5],[989.2,657.1],[999.1,609.9],[1026.7,607.2],[1035.7,578.5],[1051.6,603.9],[1085.6,603.6],[1113.5,604],[1128.2,578.9],[1144.2,559.1],[1180.7,561.5],[1201.2,584.6],[1208.1,594.4],[1217.5,587],[1209.8,592],[1194.7,603.5],[1218.9,622.4],[1240.9,639.5],[1240.9,639.5],[1260.7,665],[1266.2,699.2],[1276,698.3],[1267.2,702.2],[1280.9,731.4],[1294.6,760.6],[1314.8,775.9],[1328.6,768.5],[1328.6,768.5],[1319.9,782.5],[1319.9,782.5],[1301.6,763.7],[1301.6,763.7],[1283,764.5],[1283,764.5],[1279.8,750.4],[1279.8,750.4],[1264.7,747.6],[1264.7,747.6],[1249.6,745.6],[1249.6,745.6],[1249.4,740.9],[1249.4,740.9],[1253.4,749.6],[1235.7,720.6],[1235.7,720.6],[1225.4,702.6],[1225.4,702.6],[1221.7,661.7],[1222.7,674.1],[1222.7,674.1],[1193.7,657.9],[1177.2,641.8],[1143.8,618.7],[1131.5,606.1],[1103.7,579.5],[1064.7,534.7],[1061.8,531.4],[1057.4,534.5],[1040.8,547.9],[1029.1,540.8],[1043.3,533.6],[1043.9,532.5],[1064,549.2],[1081.6,549.8],[1088.7,545.5],[1102.8,546],[1112.4,543.8],[1093.9,538.1],[1071.1,530.8],[1052.7,526.8],[1038.4,531.2],[1019.8,531],[989.6,516.6],[969.8,511.3],[952.2,515.6],[952.5,518.7],[944.8,519.5],[982.6,540],[983,546.5],[1005.6,551],[1008.1,550.7],[1042.7,560.8],[1053.6,560.6],[1054.1,551.3],[1079,546.3],[1098.9,561],[1123.2,576.8],[1130.1,576.4],[1166.1,580.2],[1176.1,586],[1176.1,586],[1206.2,596.6],[1218,598.1],[1260.5,622.1],[1303,646.1],[1294.2,641.4],[1272.5,618.2],[1246.3,595.1],[1220.1,572]]","[0,0.151169218]","[0.151169218,0.151169218]","[-0.151169218,-0.151169218]","[-0.151169218,0]","[0,-0.151169218]","[0.151169218,-0.151169218]","[0,0]","[0.151169218,0]",0,0,0,0,1,4,Smartphone,11,5,13,9
