inst1_resp.keys,inst1_resp.rt,calibrationMouse.x,calibrationMouse.y,calibrationMouse.leftButton,calibrationMouse.midButton,calibrationMouse.rightButton,calibrationClick.x,calibrationClick.y,calibrationClick.leftButton,calibrationClick.midButton,calibrationClick.rightButton,calibrationClick.clicked_name,trialsc.thisRepN,trialsc.thisTrialN,trialsc.thisN,trialsc.thisIndex,trialsc.ran,calibration_x,calibration_y,participant,session,date,expName,psychopyVersion,OS,frameRate,ScreenRes_pixels,Camera_pixels,mouse_2.x,mouse_2.y,mouse_2.leftButton,mouse_2.midButton,mouse_2.rightButton,mouse_2.time,mouse_2.clicked_name,mouse.x,mouse.y,mouse.leftButton,mouse.midButton,mouse.rightButton,mouse.time,mouse.clicked_name,Choice,Trial,TrialDuration,MOUSE_GAZE,ET_GAZE,ET_GAZE_x_T,time,unixTime,ET_GAZE_NF,Loc_Option1_label,Loc_Option2_label,Loc_Cost_label,Loc_Qual_label,Loc_Option1_cost,Loc_Option2_cost,Loc_Option1_quality,Loc_Option2_quality,trials.thisRepN,trials.thisTrialN,trials.thisN,trials.thisIndex,trials.ran,Block,Device,cost1,qual1,cost2,qual2
space,0.7896,0.395833333,-0.3,1,0,0,-0.334375,0.335185185,1,0,0,calibration_square,0,0,0,7,1,-0.33,0.33,10,001,2024-12-03_10h36.57.639,Attention_exp_legacy,2023.1.0,Win32,59.88023952,,,,,,,,,,,,,,,,,,,,,,,,,,,,,,,,,,,,,,,,,,,,
,,,,,,,0.667708333,-0.662962963,1,0,0,calibration_square,0,1,1,20,1,0.67,-0.67,10,001,2024-12-03_10h36.57.639,Attention_exp_legacy,2023.1.0,Win32,59.88023952,,,,,,,,,,,,,,,,,,,,,,,,,,,,,,,,,,,,,,,,,,,,
,,,,,,,-0.671875,-0.324074074,1,0,0,calibration_square,0,2,2,1,1,-0.67,-0.33,10,001,2024-12-03_10h36.57.639,Attention_exp_legacy,2023.1.0,Win32,59.88023952,,,,,,,,,,,,,,,,,,,,,,,,,,,,,,,,,,,,,,,,,,,,
,,,,,,,-0.342708333,-0.662962963,1,0,0,,0,3,3,4,1,-0.33,-0.67,10,001,2024-12-03_10h36.57.639,Attention_exp_legacy,2023.1.0,Win32,59.88023952,,,,,,,,,,,,,,,,,,,,,,,,,,,,,,,,,,,,,,,,,,,,
,,,,,,,-0.339583333,0.664814815,1,0,0,calibration_square,0,4,4,8,1,-0.33,0.67,10,001,2024-12-03_10h36.57.639,Attention_exp_legacy,2023.1.0,Win32,59.88023952,,,,,,,,,,,,,,,,,,,,,,,,,,,,,,,,,,,,,,,,,,,,
,,,,,,,-0.34375,-0.003703704,1,0,0,,0,5,5,6,1,-0.33,0,10,001,2024-12-03_10h36.57.639,Attention_exp_legacy,2023.1.0,Win32,59.88023952,,,,,,,,,,,,,,,,,,,,,,,,,,,,,,,,,,,,,,,,,,,,
,,,,,,,0,0,1,0,0,calibration_square,0,6,6,11,1,0,0,10,001,2024-12-03_10h36.57.639,Attention_exp_legacy,2023.1.0,Win32,59.88023952,,,,,,,,,,,,,,,,,,,,,,,,,,,,,,,,,,,,,,,,,,,,
,,,,,,,-0.001041667,0.674074074,1,0,0,calibration_square,0,7,7,13,1,0,0.67,10,001,2024-12-03_10h36.57.639,Attention_exp_legacy,2023.1.0,Win32,59.88023952,,,,,,,,,,,,,,,,,,,,,,,,,,,,,,,,,,,,,,,,,,,,
,,,,,,,-0.669791667,-0.677777778,1,0,0,calibration_square,0,8,8,0,1,-0.67,-0.67,10,001,2024-12-03_10h36.57.639,Attention_exp_legacy,2023.1.0,Win32,59.88023952,,,,,,,,,,,,,,,,,,,,,,,,,,,,,,,,,,,,,,,,,,,,
,,,,,,,0.329166667,-0.325925926,1,0,0,calibration_square,0,9,9,15,1,0.33,-0.33,10,001,2024-12-03_10h36.57.639,Attention_exp_legacy,2023.1.0,Win32,59.88023952,,,,,,,,,,,,,,,,,,,,,,,,,,,,,,,,,,,,,,,,,,,,
,,,,,,,-0.679166667,0.333333333,1,0,0,calibration_square,0,10,10,3,1,-0.67,0.33,10,001,2024-12-03_10h36.57.639,Attention_exp_legacy,2023.1.0,Win32,59.88023952,,,,,,,,,,,,,,,,,,,,,,,,,,,,,,,,,,,,,,,,,,,,
,,,,,,,0.004166667,-0.674074074,1,0,0,calibration_square,0,11,11,9,1,0,-0.67,10,001,2024-12-03_10h36.57.639,Attention_exp_legacy,2023.1.0,Win32,59.88023952,,,,,,,,,,,,,,,,,,,,,,,,,,,,,,,,,,,,,,,,,,,,
,,,,,,,-0.6625,0.001851852,1,0,0,calibration_square,0,12,12,2,1,-0.67,0,10,001,2024-12-03_10h36.57.639,Attention_exp_legacy,2023.1.0,Win32,59.88023952,,,,,,,,,,,,,,,,,,,,,,,,,,,,,,,,,,,,,,,,,,,,
,,,,,,,0.329166667,0.67037037,1,0,0,calibration_square,0,13,13,18,1,0.33,0.67,10,001,2024-12-03_10h36.57.639,Attention_exp_legacy,2023.1.0,Win32,59.88023952,,,,,,,,,,,,,,,,,,,,,,,,,,,,,,,,,,,,,,,,,,,,
,,,,,,,0.671875,0.664814815,1,0,0,calibration_square,0,14,14,19,1,0.67,0.67,10,001,2024-12-03_10h36.57.639,Attention_exp_legacy,2023.1.0,Win32,59.88023952,,,,,,,,,,,,,,,,,,,,,,,,,,,,,,,,,,,,,,,,,,,,
,,,,,,,0.001041667,-0.333333333,1,0,0,calibration_square,0,15,15,10,1,0,-0.33,10,001,2024-12-03_10h36.57.639,Attention_exp_legacy,2023.1.0,Win32,59.88023952,,,,,,,,,,,,,,,,,,,,,,,,,,,,,,,,,,,,,,,,,,,,
,,,,,,,0.326041667,-0.003703704,1,0,0,calibration_square,0,16,16,16,1,0.33,0,10,001,2024-12-03_10h36.57.639,Attention_exp_legacy,2023.1.0,Win32,59.88023952,,,,,,,,,,,,,,,,,,,,,,,,,,,,,,,,,,,,,,,,,,,,
,,,,,,,0.327083333,0.32962963,1,0,0,calibration_square,0,17,17,17,1,0.33,0.33,10,001,2024-12-03_10h36.57.639,Attention_exp_legacy,2023.1.0,Win32,59.88023952,,,,,,,,,,,,,,,,,,,,,,,,,,,,,,,,,,,,,,,,,,,,
,,,,,,,0.341666667,-0.674074074,1,0,0,,0,18,18,14,1,0.33,-0.67,10,001,2024-12-03_10h36.57.639,Attention_exp_legacy,2023.1.0,Win32,59.88023952,,,,,,,,,,,,,,,,,,,,,,,,,,,,,,,,,,,,,,,,,,,,
,,,,,,,-0.335416667,-0.324074074,1,0,0,calibration_square,0,19,19,5,1,-0.33,-0.33,10,001,2024-12-03_10h36.57.639,Attention_exp_legacy,2023.1.0,Win32,59.88023952,,,,,,,,,,,,,,,,,,,,,,,,,,,,,,,,,,,,,,,,,,,,
,,,,,,,-0.003125,0.322222222,1,0,0,calibration_square,0,20,20,12,1,0,0.33,10,001,2024-12-03_10h36.57.639,Attention_exp_legacy,2023.1.0,Win32,59.88023952,,,,,,,,,,,,,,,,,,,,,,,,,,,,,,,,,,,,,,,,,,,,
,,,,,,,,,,,,,,,,,,,,10,001,2024-12-03_10h36.57.639,Attention_exp_legacy,2023.1.0,Win32,59.88023952,"[1920,1080]","[640,480]",[-0.017708333333333333],[-0.5277777777777778],[1],[0],[0],[1.7627000000029796],"[""StartButton""]",[0.09375],[0.362962962962963],[1],[0],[0],[4.338200000002978],"[""Option1_label""]",Option1_label,1,5.362,"[[-0.013541666666666667,-0.3037037037037037],[-0.013541666666666667,-0.3037037037037037],[-0.013541666666666667,-0.3037037037037037],[-0.013541666666666667,-0.3037037037037037],[-0.013541666666666667,-0.3037037037037037],[-0.013541666666666667,-0.3037037037037037],[-0.013541666666666667,-0.3037037037037037],[-0.013541666666666667,-0.3037037037037037],[-0.013541666666666667,-0.3037037037037037],[-0.013541666666666667,-0.3037037037037037],[-0.013541666666666667,-0.3037037037037037],[-0.013541666666666667,-0.3037037037037037],[-0.013541666666666667,-0.3037037037037037],[-0.013541666666666667,-0.3037037037037037],[-0.013541666666666667,-0.3037037037037037],[-0.013541666666666667,-0.3037037037037037],[-0.013541666666666667,-0.3037037037037037],[-0.013541666666666667,-0.3037037037037037],[-0.013541666666666667,-0.3037037037037037],[-0.013541666666666667,-0.3037037037037037],[-0.013541666666666667,-0.3037037037037037],[-0.013541666666666667,-0.3037037037037037],[-0.013541666666666667,-0.3037037037037037],[-0.013541666666666667,-0.3037037037037037],[-0.013541666666666667,-0.3037037037037037],[-0.013541666666666667,-0.3037037037037037],[-0.013541666666666667,-0.3037037037037037],[-0.013541666666666667,-0.3037037037037037],[-0.013541666666666667,-0.3037037037037037],[-0.013541666666666667,-0.3037037037037037],[-0.013541666666666667,-0.3037037037037037],[-0.013541666666666667,-0.3037037037037037],[-0.013541666666666667,-0.3037037037037037],[-0.013541666666666667,-0.3037037037037037],[-0.013541666666666667,-0.3037037037037037],[-0.013541666666666667,-0.3037037037037037],[-0.013541666666666667,-0.3037037037037037],[-0.013541666666666667,-0.3037037037037037],[-0.013541666666666667,-0.3037037037037037],[-0.013541666666666667,-0.3037037037037037],[-0.013541666666666667,-0.3037037037037037],[-0.013541666666666667,-0.3037037037037037],[-0.013541666666666667,-0.3037037037037037],[-0.013541666666666667,-0.3037037037037037],[-0.013541666666666667,-0.3037037037037037],[-0.013541666666666667,-0.3037037037037037],[-0.013541666666666667,-0.3037037037037037],[-0.013541666666666667,-0.3037037037037037],[-0.013541666666666667,-0.3037037037037037],[-0.013541666666666667,-0.3037037037037037],[-0.013541666666666667,-0.3037037037037037],[-0.013541666666666667,-0.3037037037037037],[-0.013541666666666667,-0.3037037037037037],[-0.013541666666666667,-0.3037037037037037],[-0.013541666666666667,-0.3037037037037037],[-0.013541666666666667,-0.3037037037037037],[-0.013541666666666667,-0.3037037037037037],[-0.013541666666666667,-0.3037037037037037],[-0.013541666666666667,-0.3037037037037037],[-0.013541666666666667,-0.3037037037037037],[-0.013541666666666667,-0.3037037037037037],[-0.013541666666666667,-0.3037037037037037],[-0.013541666666666667,-0.3037037037037037],[-0.013541666666666667,-0.3037037037037037],[-0.013541666666666667,-0.3037037037037037],[-0.013541666666666667,-0.3037037037037037],[-0.013541666666666667,-0.3037037037037037],[-0.013541666666666667,-0.3037037037037037],[-0.013541666666666667,-0.3037037037037037],[-0.013541666666666667,-0.3037037037037037],[-0.013541666666666667,-0.3037037037037037],[-0.013541666666666667,-0.3037037037037037],[-0.013541666666666667,-0.30185185185185187],[-0.013541666666666667,-0.30185185185185187],[-0.013541666666666667,-0.29814814814814816],[-0.013541666666666667,-0.29444444444444445],[-0.013541666666666667,-0.28888888888888886],[-0.014583333333333334,-0.2759259259259259],[-0.014583333333333334,-0.25925925925925924],[-0.014583333333333334,-0.24074074074074073],[-0.014583333333333334,-0.21666666666666667],[-0.014583333333333334,-0.17962962962962964],[-0.014583333333333334,-0.15555555555555556],[-0.014583333333333334,-0.14814814814814814],[-0.014583333333333334,-0.08888888888888889],[-0.013541666666666667,-0.06111111111111111],[-0.013541666666666667,-0.027777777777777776],[-0.013541666666666667,-0.020370370370370372],[-0.013541666666666667,-0.007407407407407408],[-0.0125,0.003703703703703704],[-0.0125,0.016666666666666666],[-0.011458333333333333,0.03518518518518519],[-0.007291666666666667,0.06111111111111111],[-0.003125,0.08888888888888889],[0.0020833333333333333,0.11666666666666667],[0.007291666666666667,0.14444444444444443],[0.0125,0.17407407407407408],[0.017708333333333333,0.1962962962962963],[0.022916666666666665,0.21481481481481482],[0.025,0.23333333333333334],[0.028125,0.25],[0.03333333333333333,0.26666666666666666],[0.0375,0.2796296296296296],[0.0375,0.2851851851851852],[0.03854166666666667,0.29074074074074074],[0.03854166666666667,0.29444444444444445],[0.03854166666666667,0.29814814814814816],[0.03854166666666667,0.3],[0.03854166666666667,0.3037037037037037],[0.03854166666666667,0.3055555555555556],[0.03854166666666667,0.3055555555555556],[0.03854166666666667,0.3055555555555556],[0.03854166666666667,0.3055555555555556],[0.03854166666666667,0.3055555555555556],[0.03854166666666667,0.3055555555555556],[0.03854166666666667,0.3055555555555556],[0.03854166666666667,0.3055555555555556],[0.03854166666666667,0.3055555555555556],[0.03854166666666667,0.3055555555555556],[0.03854166666666667,0.3074074074074074],[0.03854166666666667,0.30925925925925923],[0.03854166666666667,0.30925925925925923],[0.03854166666666667,0.30925925925925923],[0.03854166666666667,0.30925925925925923],[0.03854166666666667,0.30925925925925923],[0.03854166666666667,0.30925925925925923],[0.03854166666666667,0.30925925925925923],[0.03854166666666667,0.30925925925925923],[0.03854166666666667,0.30925925925925923],[0.03854166666666667,0.30925925925925923],[0.03854166666666667,0.30925925925925923],[0.03854166666666667,0.30925925925925923],[0.03854166666666667,0.30925925925925923],[0.03854166666666667,0.30925925925925923],[0.03854166666666667,0.3111111111111111],[0.03854166666666667,0.3111111111111111],[0.03854166666666667,0.3111111111111111],[0.03854166666666667,0.3111111111111111],[0.03854166666666667,0.3111111111111111],[0.03854166666666667,0.3111111111111111],[0.03854166666666667,0.3111111111111111],[0.03854166666666667,0.3111111111111111],[0.03854166666666667,0.3111111111111111],[0.0375,0.31296296296296294],[0.0375,0.31296296296296294],[0.0375,0.3148148148148148],[0.0375,0.31666666666666665],[0.0375,0.31666666666666665],[0.0375,0.32037037037037036],[0.03958333333333333,0.32592592592592595],[0.04479166666666667,0.3314814814814815],[0.05,0.3351851851851852],[0.06041666666666667,0.3425925925925926],[0.06875,0.34444444444444444],[0.078125,0.35],[0.08541666666666667,0.35185185185185186],[0.10625,0.35555555555555557],[0.12083333333333333,0.35555555555555557],[0.140625,0.35555555555555557],[0.15833333333333333,0.35555555555555557],[0.178125,0.35555555555555557],[0.19375,0.35555555555555557],[0.20520833333333333,0.35555555555555557],[0.21458333333333332,0.35555555555555557],[0.22708333333333333,0.35555555555555557],[0.23645833333333333,0.35555555555555557],[0.24583333333333332,0.35],[0.253125,0.34814814814814815],[0.26875,0.34444444444444444],[0.278125,0.3425925925925926],[0.28541666666666665,0.34074074074074073],[0.29270833333333335,0.3388888888888889],[0.29791666666666666,0.3351851851851852],[0.30104166666666665,0.3351851851851852],[0.30416666666666664,0.3351851851851852],[0.30520833333333336,0.3351851851851852],[0.3072916666666667,0.3333333333333333],[0.3104166666666667,0.3333333333333333],[0.3125,0.3314814814814815],[0.315625,0.3296296296296296],[0.31979166666666664,0.3277777777777778],[0.3229166666666667,0.3277777777777778],[0.32708333333333334,0.32592592592592595],[0.3302083333333333,0.32592592592592595],[0.33229166666666665,0.32592592592592595],[0.33645833333333336,0.32592592592592595],[0.33958333333333335,0.32222222222222224],[0.34270833333333334,0.32222222222222224],[0.34479166666666666,0.32222222222222224],[0.346875,0.32222222222222224],[0.3489583333333333,0.32222222222222224],[0.3489583333333333,0.32222222222222224],[0.35104166666666664,0.32037037037037036],[0.35104166666666664,0.32037037037037036],[0.35104166666666664,0.32037037037037036],[0.35104166666666664,0.32037037037037036],[0.35104166666666664,0.32037037037037036],[0.35104166666666664,0.32037037037037036],[0.35104166666666664,0.32037037037037036],[0.35104166666666664,0.32037037037037036],[0.35104166666666664,0.32037037037037036],[0.35104166666666664,0.32037037037037036],[0.35104166666666664,0.32037037037037036],[0.35104166666666664,0.32037037037037036],[0.35104166666666664,0.32037037037037036],[0.35104166666666664,0.32037037037037036],[0.35,0.32037037037037036],[0.346875,0.31666666666666665],[0.3416666666666667,0.31666666666666665],[0.3333333333333333,0.31666666666666665],[0.31875,0.31666666666666665],[0.29791666666666666,0.31666666666666665],[0.271875,0.31666666666666665],[0.23645833333333333,0.32222222222222224],[0.20625,0.3314814814814815],[0.18125,0.3388888888888889],[0.15208333333333332,0.34814814814814815],[0.13854166666666667,0.35185185185185186],[0.12916666666666668,0.35555555555555557],[0.12291666666666666,0.3574074074074074],[0.11770833333333333,0.3592592592592593],[0.11458333333333333,0.3592592592592593],[0.11041666666666666,0.3592592592592593],[0.10729166666666666,0.3592592592592593],[0.103125,0.362962962962963],[0.09895833333333333,0.362962962962963],[0.09791666666666667,0.362962962962963],[0.096875,0.362962962962963],[0.09479166666666666,0.362962962962963],[0.09479166666666666,0.362962962962963],[0.09375,0.362962962962963],[0.09375,0.362962962962963],[0.09375,0.362962962962963],[0.09375,0.362962962962963],[0.09375,0.362962962962963],[0.09375,0.362962962962963],[0.09375,0.362962962962963],[0.09375,0.362962962962963],[0.09375,0.362962962962963],[0.09375,0.362962962962963],[0.09375,0.362962962962963],[0.09375,0.362962962962963],[0.09375,0.362962962962963],[0.09375,0.362962962962963],[0.09375,0.362962962962963],[0.09375,0.362962962962963],[0.09375,0.362962962962963],[0.09375,0.362962962962963],[0.09375,0.362962962962963],[0.09375,0.362962962962963],[0.09375,0.362962962962963],[0.09375,0.362962962962963],[0.09375,0.362962962962963],[0.09375,0.362962962962963],[0.09375,0.362962962962963],[0.09375,0.362962962962963],[0.09375,0.362962962962963],[0.09375,0.362962962962963],[0.09375,0.362962962962963],[0.09375,0.362962962962963],[0.09375,0.362962962962963],[0.09375,0.362962962962963],[0.09375,0.362962962962963],[0.09375,0.362962962962963],[0.09375,0.362962962962963],[0.09375,0.362962962962963],[0.09375,0.362962962962963],[0.09375,0.362962962962963],[0.09375,0.362962962962963],[0.09375,0.362962962962963],[0.09375,0.362962962962963],[0.09375,0.362962962962963],[0.09375,0.362962962962963],[0.09375,0.362962962962963],[0.09375,0.362962962962963],[0.09375,0.362962962962963],[0.09375,0.362962962962963],[0.09375,0.362962962962963],[0.09375,0.362962962962963],[0.09375,0.362962962962963],[0.09375,0.362962962962963],[0.09375,0.362962962962963],[0.09375,0.362962962962963],[0.09375,0.362962962962963],[0.09375,0.362962962962963],[0.09375,0.362962962962963],[0.09375,0.362962962962963],[0.09375,0.362962962962963],[0.09375,0.362962962962963],[0.09375,0.362962962962963],[0.09375,0.362962962962963],[0.09375,0.362962962962963],[0.09375,0.362962962962963],[0.09375,0.362962962962963],[0.09375,0.362962962962963],[0.09375,0.362962962962963],[0.09375,0.362962962962963],[0.09375,0.362962962962963],[0.09375,0.362962962962963],[0.09375,0.362962962962963],[0.09375,0.362962962962963],[0.09375,0.362962962962963],[0.09375,0.362962962962963],[0.09375,0.362962962962963],[0.09375,0.362962962962963],[0.09375,0.362962962962963],[0.09375,0.362962962962963],[0.09375,0.362962962962963],[0.09375,0.362962962962963],[0.09375,0.362962962962963],[0.09375,0.362962962962963],[0.09375,0.362962962962963],[0.09375,0.362962962962963],[0.09375,0.362962962962963],[0.09375,0.362962962962963],[0.09375,0.362962962962963],[0.09375,0.362962962962963],[0.09375,0.362962962962963],[0.09375,0.362962962962963],[0.09375,0.362962962962963],[0.09375,0.362962962962963],[0.09375,0.362962962962963]]","[[0.1662499999999999,0.2183333333333333],[0.1662499999999999,0.2183333333333333],[0.15270833333333325,0.2094444444444445],[0.13927083333333337,0.21518518518518526],[0.1258333333333333,0.22092592592592583],[0.10833333333333334,0.21074074074074065],[0.0765625,0.19944444444444454],[0.06645833333333329,0.19740740740740745],[0.05635416666666669,0.19537037037037036],[0.06708333333333343,0.17296296296296293],[0.07833333333333338,0.17740740740740732],[0.07666666666666658,0.1766666666666666],[0.08166666666666676,0.18851851851851845],[0.08802083333333334,0.18462962962962973],[0.0943749999999999,0.18074074074074079],[0.09739583333333333,0.18425925925925926],[0.10041666666666677,0.18777777777777774],[0.08104166666666662,0.14944444444444452],[0.06166666666666672,0.1111111111111111],[0.07177083333333342,0.10555555555555556],[0.07177083333333342,0.10555555555555556],[0.0818749999999999,0.1],[0.08479166666666677,0.09296296296296305],[0.08635416666666676,0.0837037037037038],[0.0921875,0.08518518518518518],[0.07760416666666667,0.08444444444444449],[0.06270833333333338,0.08092592592592601],[0.04041666666666662,0.08462962962962971],[0.03125,0.12333333333333338],[0.022916666666666665,0.16666666666666666],[0.008437500000000023,0.2],[-0.01854166666666662,0.2153703703703703],[-0.03770833333333338,0.2272222222222223],[-0.0359375,0.24740740740740744],[-0.03427083333333331,0.282037037037037],[-0.019895833333333356,0.30055555555555546],[-0.005520833333333286,0.319074074074074],[0.01416666666666669,0.3357407407407407],[0.033854166666666664,0.35240740740740734],[0.041770833333333354,0.35777777777777786],[0.02322916666666662,0.3581481481481481],[0.005729166666666666,0.35759259259259263],[-0.010625000000000048,0.3544444444444444],[-0.03697916666666667,0.3357407407407407],[-0.06031249999999998,0.30907407407407406],[-0.06885416666666669,0.2838888888888888],[-0.07739583333333329,0.25870370370370377],[-0.08999999999999998,0.21814814814814806],[-0.11166666666666672,0.17222222222222222],[-0.134375,0.13111111111111104],[-0.146875,0.08000000000000008],[-0.14500000000000005,0.05351851851851848],[-0.1414583333333333,0.03092592592592601],[-0.17875000000000002,0.002777777777777778],[-0.2189583333333334,-0.03185185185185194],[-0.2765625,-0.05555555555555555],[-0.32749999999999996,-0.0772222222222222],[-0.3866666666666667,-0.0940740740740741],[-0.4367708333333333,-0.10555555555555556],[-0.45677083333333335,-0.09944444444444442],[-0.45677083333333335,-0.09944444444444442],[-0.4767708333333333,-0.0933333333333333],[-0.4767708333333333,-0.0933333333333333],[-0.5180208333333334,-0.10185185185185185],[-0.5180208333333334,-0.10185185185185185],[-0.5219791666666667,-0.0992592592592593],[-0.5219791666666667,-0.0992592592592593],[-0.44,-0.0764814814814815],[-0.44,-0.0764814814814815],[-0.36916666666666664,-0.05407407407407405],[-0.27937500000000004,-0.05351851851851848],[-0.18250000000000005,-0.03925925925925934],[-0.07124999999999998,-0.0198148148148149],[0.011458333333333333,0.005370370370370328],[0.07604166666666666,0.014814814814814815],[0.14458333333333329,0.01574074074074074],[0.22802083333333342,0.0338888888888888],[0.2516666666666666,0.025925925925925925],[0.24208333333333343,0.006666666666666709],[0.23624999999999996,0.030740740740740784],[0.22177083333333342,0.08259259259259263],[0.1837500000000001,0.11611111111111119],[0.14572916666666677,0.14962962962962956],[0.125,0.16611111111111118],[0.10718750000000009,0.20018518518518522],[0.10718750000000009,0.20018518518518522],[0.07895833333333328,0.21203703703703702],[0.07895833333333328,0.21203703703703702],[0.05447916666666662,0.2116666666666666],[0.017812500000000023,0.23944444444444435],[-0.036145833333333384,0.2735185185185186],[-0.058541666666666714,0.24962962962962953],[-0.07218749999999995,0.2212962962962963],[-0.09520833333333331,0.22351851851851862],[-0.11822916666666666,0.2257407407407407],[-0.1304166666666667,0.2351851851851852],[-0.1310416666666666,0.20666666666666672],[-0.10895833333333335,0.21870370370370373],[-0.10895833333333335,0.21870370370370373],[-0.09927083333333328,0.19166666666666668],[-0.07093750000000003,0.16611111111111118],[-0.04385416666666669,0.15055555555555547],[-0.03760416666666669,0.16518518518518527],[-0.04010416666666667,0.18425925925925926],[-0.0234375,0.17537037037037045],[-0.002812500000000047,0.14870370370370362],[0.018229166666666668,0.12611111111111115],[0.018124999999999978,0.09462962962962967],[0.0017708333333333807,0.05333333333333325],[0.025520833333333333,0.05277777777777778],[0.057083333333333285,0.028888888888888933],[0.052291666666666715,0.024814814814814772],[0.044166666666666646,0.005555555555555556],[0.03885416666666662,-0.034444444444444486],[0.03354166666666671,-0.07444444444444442],[0.009791666666666643,-0.09148148148148144],[-0.01395833333333331,-0.10851851851851856],[-0.09020833333333336,-0.07703703703703708],[-0.1664583333333333,-0.0455555555555556],[-0.25104166666666666,-0.05055555555555547],[-0.2733333333333333,-0.05944444444444449],[-0.2742708333333333,-0.1051851851851852],[-0.2752083333333334,-0.15092592592592594],[-0.2816666666666666,-0.11796296296296294],[-0.2695833333333333,-0.09944444444444442],[-0.30593750000000003,-0.05499999999999998],[-0.3422916666666667,-0.01055555555555564],[-0.2585416666666667,-0.017592592592592594],[-0.20729166666666668,-0.011666666666666582],[-0.17406250000000004,0.02444444444444453],[-0.203125,0.06444444444444436],[-0.22135416666666666,0.06500000000000004],[-0.2525,0.12018518518518514],[-0.2861458333333334,0.14574074074074084],[-0.3151041666666667,0.125],[-0.2585416666666667,0.02962962962962963],[-0.20656249999999995,-0.009999999999999959],[-0.19895833333333332,-0.0712962962962963],[-0.15031249999999996,-0.14870370370370373],[-0.10791666666666669,-0.19462962962962968],[-0.0655208333333333,-0.24055555555555552],[-0.003125,-0.23962962962962958],[0.07395833333333333,-0.28203703703703703],[0.1540625000000001,-0.34870370370370374],[0.17927083333333324,-0.36500000000000005],[0.20197916666666677,-0.31722222222222224],[0.21770833333333334,-0.36574074074074076],[0.21739583333333337,-0.3151851851851852],[0.2117708333333333,-0.26055555555555554],[0.20802083333333338,-0.23537037037037042],[0.20802083333333338,-0.23537037037037042],[0.20979166666666677,-0.22592592592592592],[0.19281249999999991,-0.21703703703703703],[0.18677083333333327,-0.2222222222222222],[0.18291666666666656,-0.23148148148148148],[0.1787499999999999,-0.2381481481481482],[0.16333333333333327,-0.2627777777777777],[0.17479166666666662,-0.24351851851851852],[0.1857291666666666,-0.26944444444444443],[0.16437499999999997,-0.30481481481481487],[0.16677083333333323,-0.32888888888888895],[0.13552083333333323,-0.3472222222222222],[0.10427083333333324,-0.3655555555555555],[0.11760416666666676,-0.37777777777777777],[0.13093750000000004,-0.39000000000000007],[0.19739583333333333,-0.3864814814814815],[0.22312500000000005,-0.35648148148148145],[0.20885416666666667,-0.384074074074074],[0.20885416666666667,-0.384074074074074],[0.1828125,-0.4087037037037037],[0.1828125,-0.4087037037037037],[0.19135416666666671,-0.40314814814814814],[0.1788541666666667,-0.40240740740740744],[0.14593749999999991,-0.3861111111111111],[0.1203125,-0.3562962962962963],[0.03312499999999995,-0.3381481481481482],[-0.06864583333333331,-0.31796296296296295],[-0.1638541666666666,-0.34759259259259256],[-0.22718750000000001,-0.40629629629629627],[-0.22718750000000001,-0.40629629629629627],[-0.24354166666666663,-0.38629629629629636],[-0.24354166666666663,-0.38629629629629636],[-0.2648958333333333,-0.382962962962963],[-0.27374999999999994,-0.3933333333333333],[-0.27374999999999994,-0.3933333333333333],[-0.27406250000000004,-0.3961111111111111],[-0.27406250000000004,-0.3961111111111111],[-0.23468749999999997,-0.4192592592592592],[-0.23468749999999997,-0.4192592592592592],[-0.16822916666666668,-0.43277777777777776],[-0.16822916666666668,-0.43277777777777776],[-0.1125,-0.44092592592592594],[-0.1125,-0.44092592592592594],[-0.01729166666666669,-0.4427777777777778],[0.025520833333333333,-0.4072222222222222],[0.05385416666666672,-0.38870370370370366],[0.1125,-0.3640740740740741],[0.10927083333333343,-0.37166666666666665],[0.16239583333333343,-0.352962962962963],[0.19833333333333342,-0.3292592592592593],[0.25802083333333337,-0.275],[0.2165625000000001,-0.2992592592592593],[0.2476041666666667,-0.2985185185185185],[0.2211458333333333,-0.31666666666666665],[0.2193749999999999,-0.3303703703703703],[0.27583333333333326,-0.2985185185185185],[0.2796875,-0.2972222222222222],[0.28760416666666655,-0.2837037037037037],[0.2211458333333333,-0.3044444444444444],[0.17687499999999995,-0.3314814814814815],[0.11770833333333333,-0.3742592592592593],[0.16062500000000005,-0.3566666666666667],[0.15281250000000005,-0.3496296296296296],[0.1728125000000001,-0.33351851851851855],[0.1728125000000001,-0.33351851851851855],[0.18156249999999996,-0.3244444444444444],[0.15177083333333338,-0.3314814814814815],[0.12760416666666666,-0.35351851851851845],[0.12760416666666666,-0.35351851851851845],[0.16041666666666668,-0.34148148148148144],[0.19541666666666657,-0.3292592592592593],[0.22104166666666672,-0.31500000000000006],[0.23552083333333323,-0.3081481481481481],[0.22270833333333329,-0.3037037037037037],[0.203125,-0.31074074074074076],[0.2040625000000001,-0.3229629629629629],[0.2040625000000001,-0.3229629629629629],[0.21624999999999991,-0.32814814814814813],[0.2267708333333334,-0.3266666666666666],[0.2146874999999999,-0.3227777777777778],[0.22770833333333323,-0.3316666666666667],[0.23270833333333343,-0.3446296296296297],[0.2335416666666667,-0.365925925925926],[0.2287499999999999,-0.37222222222222223],[0.1984375,-0.38333333333333336],[0.17072916666666677,-0.40259259259259256],[0.12729166666666672,-0.41518518518518516],[0.09645833333333324,-0.4038888888888889],[0.05322916666666669,-0.4140740740740741],[0.04864583333333338,-0.4212962962962963],[0.025833333333333285,-0.4185185185185185],[-0.0026041666666666665,-0.4016666666666666],[-0.03104166666666662,-0.38481481481481483],[-0.030312500000000023,-0.337037037037037],[-0.012083333333333357,-0.28703703703703703],[-0.02635416666666662,-0.2512962962962963],[-0.04072916666666669,-0.21574074074074073],[-0.030729166666666665,-0.15907407407407403],[-0.011874999999999976,-0.1],[0.02687499999999995,0.0455555555555556],[0.07635416666666663,0.1935185185185185],[0.15031249999999996,0.3405555555555555],[0.20520833333333333,0.4816666666666667],[0.24864583333333337,0.5790740740740742],[0.24864583333333337,0.5790740740740742],[0.3016666666666666,0.6946296296296297],[0.3602083333333333,0.8009259259259259],[0.3767708333333334,0.8972222222222223],[0.32843749999999994,0.9420370370370371],[0.3030208333333334,0.9607407407407407],[0.2352083333333333,0.8855555555555557],[0.15510416666666677,0.8105555555555556],[0.046875,0.6985185185185186],[-0.035625000000000046,0.5975925925925927],[-0.11906249999999995,0.5018518518518519],[-0.22593749999999999,0.37407407407407406],[-0.30843750000000003,0.277962962962963],[-0.28802083333333334,0.21388888888888888],[-0.2713541666666667,0.1242592592592593],[-0.24385416666666668,0.08777777777777773],[-0.25052083333333336,0.06055555555555564],[-0.2263541666666666,0.024074074074074074],[-0.17541666666666664,-0.01592592592592597],[-0.13729166666666662,-0.02833333333333325],[-0.09916666666666671,-0.040740740740740744],[-0.050729166666666714,-0.02111111111111107],[-0.002291666666666714,-0.0014814814814813973],[-0.010312499999999976,-0.03370370370370379],[-0.0007291666666667141,-0.02444444444444453],[-0.0002083333333333807,-0.049074074074074076],[0.02000000000000005,-0.0772222222222222],[0.01875,-0.07759259259259255],[0.005833333333333357,-0.04666666666666675],[0.0140625,-0.05944444444444449],[0.022291666666666644,-0.07222222222222222],[0.03802083333333333,-0.09666666666666665],[0.05375000000000003,-0.12111111111111107],[0.06229166666666662,-0.15166666666666662],[0.08489583333333334,-0.19166666666666668],[0.08760416666666657,-0.21333333333333332],[0.1056250000000001,-0.22370370370370374],[0.12635416666666663,-0.26370370370370366],[0.14708333333333337,-0.3037037037037037],[0.1540625000000001,-0.287962962962963],[0.15479166666666658,-0.2933333333333333],[0.15197916666666675,-0.3055555555555556],[0.14916666666666673,-0.3177777777777778],[0.15,-0.3061111111111111],[0.1508333333333333,-0.29444444444444445],[0.1508333333333333,-0.29444444444444445],[0.15739583333333323,-0.2898148148148148],[0.15739583333333323,-0.2898148148148148],[0.15927083333333342,-0.28648148148148145],[0.1546875,-0.267037037037037],[0.1546875,-0.267037037037037],[0.15010416666666657,-0.24759259259259256],[0.15010416666666657,-0.24759259259259256],[0.13718750000000005,-0.26740740740740737],[0.13718750000000005,-0.26740740740740737],[0.15177083333333338,-0.2512962962962963],[0.15177083333333338,-0.2512962962962963],[0.1492708333333333,-0.2448148148148148],[0.1326041666666666,-0.24203703703703702],[0.13947916666666677,-0.2322222222222222],[0.14635416666666667,-0.22240740740740744],[0.1484375,-0.22148148148148153],[0.15520833333333334,-0.2192592592592592],[0.16177083333333328,-0.23648148148148146],[0.16833333333333325,-0.2537037037037037],[0.18895833333333342,-0.26129629629629636],[0.1883333333333333,-0.2837037037037037],[0.19958333333333325,-0.3055555555555556]]","[[0.1662499999999999,0.2183333333333333,0.0001999999880837322],[0.1662499999999999,0.2183333333333333,0.03889999999105953],[0.15270833333333325,0.2094444444444445,0.045399999991062145],[0.13927083333333337,0.21518518518518526,0.06209999999403948],[0.1258333333333333,0.22092592592592583,0.07939999999106107],[0.10833333333333334,0.21074074074074065,0.09550000000000125],[0.0765625,0.19944444444444454,0.11200000000000188],[0.06645833333333329,0.19740740740740745,0.12879999999702108],[0.05635416666666669,0.19537037037037036,0.14569999998808214],[0.06708333333333343,0.17296296296296293,0.16250000000000142],[0.07833333333333338,0.17740740740740732,0.17879999999702534],[0.07666666666666658,0.1766666666666666,0.19559999999404454],[0.08166666666666676,0.18851851851851845,0.21219999998807992],[0.08802083333333334,0.18462962962962973,0.22869999998808055],[0.0943749999999999,0.18074074074074079,0.247699999988086],[0.09739583333333333,0.18425925925925926,0.2621999999880842],[0.10041666666666677,0.18777777777777774,0.27879999999702676],[0.08104166666666662,0.14944444444444452,0.29539999999106215],[0.06166666666666672,0.1111111111111111,0.3120000000000047],[0.07177083333333342,0.10555555555555556,0.3287999999970239],[0.07177083333333342,0.10555555555555556,0.34550000000000125],[0.0818749999999999,0.1,0.36209999999404374],[0.08479166666666677,0.09296296296296305,0.3787999999970211],[0.08635416666666676,0.0837037037037038,0.3952999999970217],[0.0921875,0.08518518518518518,0.41200000000000614],[0.07760416666666667,0.08444444444444449,0.42879999999702534],[0.06270833333333338,0.08092592592592601,0.4453999999910607],[0.04041666666666662,0.08462962962962971,0.4620000000000033],[0.03125,0.12333333333333338,0.47869999998808055],[0.022916666666666665,0.16666666666666666,0.495399999991065],[0.008437500000000023,0.2,0.5156999999880796],[-0.01854166666666662,0.2153703703703703,0.5313999999910592],[-0.03770833333333338,0.2272222222222223,0.5460000000000065],[-0.0359375,0.24740740740740744,0.5620999999940395],[-0.03427083333333331,0.282037037037037,0.5787999999970239],[-0.019895833333333356,0.30055555555555546,0.5953999999910593],[-0.005520833333333286,0.319074074074074,0.6143999999910648],[0.01416666666666669,0.3357407407407407,0.6287999999970211],[0.033854166666666664,0.35240740740740734,0.6455000000000055],[0.041770833333333354,0.35777777777777786,0.6625999999940433],[0.02322916666666662,0.3581481481481481,0.6786999999880834],[0.005729166666666666,0.35759259259259263,0.6953999999910607],[-0.010625000000000048,0.3544444444444444,0.7120999999940452],[-0.03697916666666667,0.3357407407407407,0.7287999999970225],[-0.06031249999999998,0.30907407407407406,0.7466999999880812],[-0.06885416666666669,0.2838888888888888,0.7620999999940423],[-0.07739583333333329,0.25870370370370377,0.7786999999880848],[-0.08999999999999998,0.21814814814814806,0.7953999999910621],[-0.11166666666666672,0.17222222222222222,0.8120999999940395],[-0.134375,0.13111111111111104,0.828699999988082],[-0.146875,0.08000000000000008,0.8453999999910593],[-0.14500000000000005,0.05351851851851848,0.8620999999940437],[-0.1414583333333333,0.03092592592592601,0.8786999999880791],[-0.17875000000000002,0.002777777777777778,0.8953999999910636],[-0.2189583333333334,-0.03185185185185194,0.9120000000000061],[-0.2765625,-0.05555555555555555,0.9288999999910601],[-0.32749999999999996,-0.0772222222222222,0.9453999999910607],[-0.3866666666666667,-0.0940740740740741,0.9632999999970266],[-0.4367708333333333,-0.10555555555555556,0.9787999999970225],[-0.45677083333333335,-0.09944444444444442,0.9980999999940465],[-0.45677083333333335,-0.09944444444444442,1.0120999999940423],[-0.4767708333333333,-0.0933333333333333,1.0287999999970268],[-0.4767708333333333,-0.0933333333333333,1.045500000000004],[-0.5180208333333334,-0.10185185185185185,1.0620999999940395],[-0.5180208333333334,-0.10185185185185185,1.078799999997024],[-0.5219791666666667,-0.0992592592592593,1.0955000000000013],[-0.5219791666666667,-0.0992592592592593,1.1120999999940437],[-0.44,-0.0764814814814815,1.1286999999880791],[-0.44,-0.0764814814814815,1.1453999999910636],[-0.36916666666666664,-0.05407407407407405,1.162099999994041],[-0.27937500000000004,-0.05351851851851848,1.182199999988086],[-0.18250000000000005,-0.03925925925925934,1.1977999999970237],[-0.07124999999999998,-0.0198148148148149,1.21669999998808],[0.011458333333333333,0.005370370370370328,1.2305999999940411],[0.07604166666666666,0.014814814814814815,1.246099999994044],[0.14458333333333329,0.01574074074074074,1.2622999999970261],[0.22802083333333342,0.0338888888888888,1.2811999999880825],[0.2516666666666666,0.025925925925925925,1.2957999999970227],[0.24208333333333343,0.006666666666666709,1.3122999999970233],[0.23624999999999996,0.030740740740740784,1.3288999999910658],[0.22177083333333342,0.08259259259259263,1.3497999999970247],[0.1837500000000001,0.11611111111111119,1.365000000000002],[0.14572916666666677,0.14962962962962956,1.3815000000000026],[0.125,0.16611111111111118,1.3955999999940403],[0.10718750000000009,0.20018518518518522,1.418899999991062],[0.10718750000000009,0.20018518518518522,1.4357999999970232],[0.07895833333333328,0.21203703703703702,1.4522999999970239],[0.07895833333333328,0.21203703703703702,1.4620999999940452],[0.05447916666666662,0.2116666666666666,1.4805999999940411],[0.017812500000000023,0.23944444444444435,1.4955999999940417],[-0.036145833333333384,0.2735185185185186,1.5140999999940448],[-0.058541666666666714,0.24962962962962953,1.5311999999880825],[-0.07218749999999995,0.2212962962962963,1.5457999999970227],[-0.09520833333333331,0.22351851851851862,1.5621999999880813],[-0.11822916666666666,0.2257407407407407,1.5788999999910658],[-0.1304166666666667,0.2351851851851852,1.5978999999910641],[-0.1310416666666666,0.20666666666666672,1.6121999999880856],[-0.10895833333333335,0.21870370370370373,1.628899999991063],[-0.10895833333333335,0.21870370370370373,1.6472999999970241],[-0.09927083333333328,0.19166666666666668,1.6622999999970247],[-0.07093750000000003,0.16611111111111118,1.67889999999106],[-0.04385416666666669,0.15055555555555547,1.6976999999880817],[-0.03760416666666669,0.16518518518518527,1.7122999999970219],[-0.04010416666666667,0.18425925925925926,1.7287999999970225],[-0.0234375,0.17537037037037045,1.7478999999910627],[-0.002812500000000047,0.14870370370370362,1.7621999999880842],[0.018229166666666668,0.12611111111111115,1.7788999999910615],[0.018124999999999978,0.09462962962962967,1.795500000000004],[0.0017708333333333807,0.05333333333333325,1.8137999999970233],[0.025520833333333333,0.05277777777777778,1.828799999997024],[0.057083333333333285,0.028888888888888933,1.8453999999910593],[0.052291666666666715,0.024814814814814772,1.8620000000000019],[0.044166666666666646,0.005555555555555556,1.8786999999880791],[0.03885416666666662,-0.034444444444444486,1.8952999999970217],[0.03354166666666671,-0.07444444444444442,1.912099999994041],[0.009791666666666643,-0.09148148148148144,1.9286999999880834],[-0.01395833333333331,-0.10851851851851856,1.9453999999910607],[-0.09020833333333336,-0.07703703703703708,1.9620999999940452],[-0.1664583333333333,-0.0455555555555556,1.9787999999970225],[-0.25104166666666666,-0.05055555555555547,1.9972999999970256],[-0.2733333333333333,-0.05944444444444449,2.012199999988084],[-0.2742708333333333,-0.1051851851851852,2.028699999988085],[-0.2752083333333334,-0.15092592592592594,2.045399999991062],[-0.2816666666666666,-0.11796296296296294,2.0620999999940395],[-0.2695833333333333,-0.09944444444444442,2.078699999988082],[-0.30593750000000003,-0.05499999999999998,2.0953999999910593],[-0.3422916666666667,-0.01055555555555564,2.112000000000002],[-0.2585416666666667,-0.017592592592592594,2.128799999997021],[-0.20729166666666668,-0.011666666666666582,2.146500000000003],[-0.17406250000000004,0.02444444444444453,2.162099999994041],[-0.203125,0.06444444444444436,2.1787999999970253],[-0.22135416666666666,0.06500000000000004,2.1953999999910607],[-0.2525,0.12018518518518514,2.212099999994045],[-0.2861458333333334,0.14574074074074084,2.2286999999880805],[-0.3151041666666667,0.125,2.2471999999880836],[-0.2585416666666667,0.02962962962962963,2.2620999999940423],[-0.20656249999999995,-0.009999999999999959,2.278699999988085],[-0.19895833333333332,-0.0712962962962963,2.295399999991062],[-0.15031249999999996,-0.14870370370370373,2.3120999999940395],[-0.10791666666666669,-0.19462962962962968,2.328799999997024],[-0.0655208333333333,-0.24055555555555552,2.345599999994043],[-0.003125,-0.23962962962962958,2.3620999999940437],[0.07395833333333333,-0.28203703703703703,2.378799999997021],[0.1540625000000001,-0.34870370370370374,2.397199999988082],[0.17927083333333324,-0.36500000000000005,2.412000000000006],[0.20197916666666677,-0.31722222222222224,2.429000000000002],[0.21770833333333334,-0.36574074074074076,2.4476999999880817],[0.21739583333333337,-0.3151851851851852,2.462099999994045],[0.2117708333333333,-0.26055555555555554,2.4788999999910644],[0.20802083333333338,-0.23537037037037042,2.4995999999940395],[0.20802083333333338,-0.23537037037037042,2.512299999997026],[0.20979166666666677,-0.22592592592592592,2.5290000000000035],[0.19281249999999991,-0.21703703703703703,2.548000000000002],[0.18677083333333327,-0.2222222222222222,2.5622999999970233],[0.18291666666666656,-0.23148148148148148,2.578899999991066],[0.1787499999999999,-0.2381481481481482,2.5990000000000038],[0.16333333333333327,-0.2627777777777777,2.612799999997023],[0.17479166666666662,-0.24351851851851852,2.628899999991063],[0.1857291666666666,-0.26944444444444443,2.6455000000000055],[0.16437499999999997,-0.30481481481481487,2.665199999988083],[0.16677083333333323,-0.32888888888888895,2.6792999999970206],[0.13552083333333323,-0.3472222222222222,2.6955000000000027],[0.10427083333333324,-0.3655555555555555,2.7140999999940405],[0.11760416666666676,-0.37777777777777777,2.7288999999910644],[0.13093750000000004,-0.39000000000000007,2.7475000000000023],[0.19739583333333333,-0.3864814814814815,2.7620999999940423],[0.22312500000000005,-0.35648148148148145,2.7820000000000036],[0.20885416666666667,-0.384074074074074,2.7956999999880807],[0.20885416666666667,-0.384074074074074,2.812399999991065],[0.1828125,-0.4087037037037037,2.833500000000001],[0.1828125,-0.4087037037037037,2.8455000000000013],[0.19135416666666671,-0.40314814814814814,2.8621999999880856],[0.1788541666666667,-0.40240740740740744,2.8807999999970235],[0.14593749999999991,-0.3861111111111111,2.8955999999940403],[0.1203125,-0.3562962962962963,2.9122999999970247],[0.03312499999999995,-0.3381481481481482,2.9287999999970253],[-0.06864583333333331,-0.31796296296296295,2.9486999999880794],[-0.1638541666666666,-0.34759259259259256,2.96219999998808],[-0.22718750000000001,-0.40629629629629627,2.9788999999910644],[-0.22718750000000001,-0.40629629629629627,2.995500000000007],[-0.24354166666666663,-0.38629629629629636,3.0151999999880843],[-0.24354166666666663,-0.38629629629629636,3.0287999999970268],[-0.2648958333333333,-0.382962962962963,3.045599999994046],[-0.27374999999999994,-0.3933333333333333,3.067099999994042],[-0.27374999999999994,-0.3933333333333333,3.078799999997024],[-0.27406250000000004,-0.3961111111111111,3.095699999988085],[-0.27406250000000004,-0.3961111111111111,3.115699999988081],[-0.23468749999999997,-0.4192592592592592,3.128899999991063],[-0.23468749999999997,-0.4192592592592592,3.1455999999940403],[-0.16822916666666668,-0.43277777777777776,3.1621999999880828],[-0.16822916666666668,-0.43277777777777776,3.1823999999910626],[-0.1125,-0.44092592592592594,3.1953999999910607],[-0.1125,-0.44092592592592594,3.21219999998808],[-0.01729166666666669,-0.4427777777777778,3.2287999999970225],[0.025520833333333333,-0.4072222222222222,3.245399999991065],[0.05385416666666672,-0.38870370370370366,3.2620999999940423],[0.1125,-0.3640740740740741,3.278699999988085],[0.10927083333333343,-0.37166666666666665,3.295399999991062],[0.16239583333333343,-0.352962962962963,3.3160000000000025],[0.19833333333333342,-0.3292592592592593,3.331000000000003],[0.25802083333333337,-0.275,3.3476999999880803],[0.2165625000000001,-0.2992592592592593,3.362000000000002],[0.2476041666666667,-0.2985185185185185,3.378799999997021],[0.2211458333333333,-0.31666666666666665,3.3952999999970217],[0.2193749999999999,-0.3303703703703703,3.4122999999970247],[0.27583333333333326,-0.2985185185185185,3.4287999999970253],[0.2796875,-0.2972222222222222,3.449899999991061],[0.28760416666666655,-0.2837037037037037,3.464599999994043],[0.2211458333333333,-0.3044444444444444,3.480099999994046],[0.17687499999999995,-0.3314814814814815,3.495500000000007],[0.11770833333333333,-0.3742592592592593,3.5172999999970216],[0.16062500000000005,-0.3566666666666667,3.5318999999910616],[0.15281250000000005,-0.3496296296296296,3.5466999999880855],[0.1728125000000001,-0.33351851851851855,3.5621999999880813],[0.1728125000000001,-0.33351851851851855,3.581099999994045],[0.18156249999999996,-0.3244444444444444,3.595699999988085],[0.15177083333333338,-0.3314814814814815,3.6123999999910623],[0.12760416666666666,-0.35351851851851845,3.6320999999940398],[0.12760416666666666,-0.35351851851851845,3.645699999988082],[0.16041666666666668,-0.34148148148148144,3.6622999999970247],[0.19541666666666657,-0.3292592592592593,3.6823999999910626],[0.22104166666666672,-0.31500000000000006,3.697399999991063],[0.23552083333333323,-0.3081481481481481,3.713799999997022],[0.22270833333333329,-0.3037037037037037,3.7290000000000063],[0.203125,-0.31074074074074076,3.749299999997021],[0.2040625000000001,-0.3229629629629629,3.7641999999880795],[0.2040625000000001,-0.3229629629629629,3.7788999999910615],[0.21624999999999991,-0.32814814814814813,3.795599999994046],[0.2267708333333334,-0.3266666666666666,3.814699999988079],[0.2146874999999999,-0.3227777777777778,3.8298999999910635],[0.22770833333333323,-0.3316666666666667,3.846399999991064],[0.23270833333333343,-0.3446296296296297,3.8620999999940437],[0.2335416666666667,-0.365925925925926,3.8790999999940396],[0.2287499999999999,-0.37222222222222223,3.8953999999910636],[0.1984375,-0.38333333333333336,3.912000000000006],[0.17072916666666677,-0.40259259259259256,3.9286999999880834],[0.12729166666666672,-0.41518518518518516,3.946599999994042],[0.09645833333333324,-0.4038888888888889,3.962099999994045],[0.05322916666666669,-0.4140740740740741,3.9786999999880805],[0.04864583333333338,-0.4212962962962963,3.995399999991065],[0.025833333333333285,-0.4185185185185185,4.012099999994042],[-0.0026041666666666665,-0.4016666666666666,4.029299999997022],[-0.03104166666666662,-0.38481481481481483,4.045699999988081],[-0.030312500000000023,-0.337037037037037,4.0620999999940395],[-0.012083333333333357,-0.28703703703703703,4.078699999988082],[-0.02635416666666662,-0.2512962962962963,4.0952999999970245],[-0.04072916666666669,-0.21574074074074073,4.112199999988086],[-0.030729166666666665,-0.15907407407407403,4.128699999988079],[-0.011874999999999976,-0.1,4.145399999991064],[0.02687499999999995,0.0455555555555556,4.162000000000006],[0.07635416666666663,0.1935185185185185,4.178699999988083],[0.15031249999999996,0.3405555555555555,4.195399999991061],[0.20520833333333333,0.4816666666666667,4.212000000000003],[0.24864583333333337,0.5790740740740742,4.2287999999970225],[0.24864583333333337,0.5790740740740742,4.245299999997023],[0.3016666666666666,0.6946296296296297,4.262099999994042],[0.3602083333333333,0.8009259259259259,4.278699999988085],[0.3767708333333334,0.8972222222222223,4.29529999999702],[0.32843749999999994,0.9420370370370371,4.312000000000005],[0.3030208333333334,0.9607407407407407,4.328699999988082],[0.2352083333333333,0.8855555555555557,4.345699999988085],[0.15510416666666677,0.8105555555555556,4.362000000000002],[0.046875,0.6985185185185186,4.378699999988079],[-0.035625000000000046,0.5975925925925927,4.3955000000000055],[-0.11906249999999995,0.5018518518518519,4.412000000000006],[-0.22593749999999999,0.37407407407407406,4.4285999999940415],[-0.30843750000000003,0.277962962962963,4.4455999999940445],[-0.28802083333333334,0.21388888888888888,4.462099999994045],[-0.2713541666666667,0.1242592592592593,4.4786999999880805],[-0.24385416666666668,0.08777777777777773,4.495399999991065],[-0.25052083333333336,0.06055555555555564,4.514500000000005],[-0.2263541666666666,0.024074074074074074,4.5288999999910615],[-0.17541666666666664,-0.01592592592592597,4.545399999991062],[-0.13729166666666662,-0.02833333333333325,4.562000000000005],[-0.09916666666666671,-0.040740740740740744,4.578799999997024],[-0.050729166666666714,-0.02111111111111107,4.5952999999970245],[-0.002291666666666714,-0.0014814814814813973,4.612500000000004],[-0.010312499999999976,-0.03370370370370379,4.628699999988079],[-0.0007291666666667141,-0.02444444444444453,4.645399999991064],[-0.0002083333333333807,-0.049074074074074076,4.662000000000006],[0.02000000000000005,-0.0772222222222222,4.678699999988083],[0.01875,-0.07759259259259255,4.695399999991061],[0.005833333333333357,-0.04666666666666675,4.712099999994045],[0.0140625,-0.05944444444444449,4.7286999999880805],[0.022291666666666644,-0.07222222222222222,4.7465999999940465],[0.03802083333333333,-0.09666666666666665,4.762099999994042],[0.05375000000000003,-0.12111111111111107,4.778699999988085],[0.06229166666666662,-0.15166666666666662,4.795399999991062],[0.08489583333333334,-0.19166666666666668,4.812000000000005],[0.08760416666666657,-0.21333333333333332,4.828699999988082],[0.1056250000000001,-0.22370370370370374,4.845399999991059],[0.12635416666666663,-0.26370370370370366,4.862099999994044],[0.14708333333333337,-0.3037037037037037,4.881],[0.1540625000000001,-0.287962962962963,4.895399999991064],[0.15479166666666658,-0.2933333333333333,4.912099999994041],[0.15197916666666675,-0.3055555555555556,4.928699999988083],[0.14916666666666673,-0.3177777777777778,4.947500000000005],[0.15,-0.3061111111111111,4.962000000000003],[0.1508333333333333,-0.29444444444444445,4.979099999994041],[0.1508333333333333,-0.29444444444444445,5.003099999994042],[0.15739583333333323,-0.2898148148148148,5.02209999999404],[0.15739583333333323,-0.2898148148148148,5.028699999988085],[0.15927083333333342,-0.28648148148148145,5.045399999991062],[0.1546875,-0.267037037037037,5.064],[0.1546875,-0.267037037037037,5.078699999988082],[0.15010416666666657,-0.24759259259259256,5.095399999991059],[0.15010416666666657,-0.24759259259259256,5.112099999994044],[0.13718750000000005,-0.26740740740740737,5.128699999988079],[0.13718750000000005,-0.26740740740740737,5.145399999991064],[0.15177083333333338,-0.2512962962962963,5.162000000000006],[0.15177083333333338,-0.2512962962962963,5.178699999988083],[0.1492708333333333,-0.2448148148148148,5.195399999991061],[0.1326041666666666,-0.24203703703703702,5.212000000000003],[0.13947916666666677,-0.2322222222222222,5.2286999999880805],[0.14635416666666667,-0.22240740740740744,5.245299999997023],[0.1484375,-0.22148148148148153,5.2620000000000005],[0.15520833333333334,-0.2192592592592592,5.278699999988085],[0.16177083333333328,-0.23648148148148146,5.295399999991062],[0.16833333333333325,-0.2537037037037037,5.312000000000005],[0.18895833333333342,-0.26129629629629636,5.32859999999404],[0.1883333333333333,-0.2837037037037037,5.345399999991059],[0.19958333333333325,-0.3055555555555556,5.362000000000002]]","[0.0001999999880837322,0.03889999999105953,0.045399999991062145,0.06209999999403948,0.07939999999106107,0.09550000000000125,0.11200000000000188,0.12879999999702108,0.14569999998808214,0.16250000000000142,0.17879999999702534,0.19559999999404454,0.21219999998807992,0.22869999998808055,0.247699999988086,0.2621999999880842,0.27879999999702676,0.29539999999106215,0.3120000000000047,0.3287999999970239,0.34550000000000125,0.36209999999404374,0.3787999999970211,0.3952999999970217,0.41200000000000614,0.42879999999702534,0.4453999999910607,0.4620000000000033,0.47869999998808055,0.495399999991065,0.5156999999880796,0.5313999999910592,0.5460000000000065,0.5620999999940395,0.5787999999970239,0.5953999999910593,0.6143999999910648,0.6287999999970211,0.6455000000000055,0.6625999999940433,0.6786999999880834,0.6953999999910607,0.7120999999940452,0.7287999999970225,0.7466999999880812,0.7620999999940423,0.7786999999880848,0.7953999999910621,0.8120999999940395,0.828699999988082,0.8453999999910593,0.8620999999940437,0.8786999999880791,0.8953999999910636,0.9120000000000061,0.9288999999910601,0.9453999999910607,0.9632999999970266,0.9787999999970225,0.9980999999940465,1.0120999999940423,1.0287999999970268,1.045500000000004,1.0620999999940395,1.078799999997024,1.0955000000000013,1.1120999999940437,1.1286999999880791,1.1453999999910636,1.162099999994041,1.182199999988086,1.1977999999970237,1.21669999998808,1.2305999999940411,1.246099999994044,1.2622999999970261,1.2811999999880825,1.2957999999970227,1.3122999999970233,1.3288999999910658,1.3497999999970247,1.365000000000002,1.3815000000000026,1.3955999999940403,1.418899999991062,1.4357999999970232,1.4522999999970239,1.4620999999940452,1.4805999999940411,1.4955999999940417,1.5140999999940448,1.5311999999880825,1.5457999999970227,1.5621999999880813,1.5788999999910658,1.5978999999910641,1.6121999999880856,1.628899999991063,1.6472999999970241,1.6622999999970247,1.67889999999106,1.6976999999880817,1.7122999999970219,1.7287999999970225,1.7478999999910627,1.7621999999880842,1.7788999999910615,1.795500000000004,1.8137999999970233,1.828799999997024,1.8453999999910593,1.8620000000000019,1.8786999999880791,1.8952999999970217,1.912099999994041,1.9286999999880834,1.9453999999910607,1.9620999999940452,1.9787999999970225,1.9972999999970256,2.012199999988084,2.028699999988085,2.045399999991062,2.0620999999940395,2.078699999988082,2.0953999999910593,2.112000000000002,2.128799999997021,2.146500000000003,2.162099999994041,2.1787999999970253,2.1953999999910607,2.212099999994045,2.2286999999880805,2.2471999999880836,2.2620999999940423,2.278699999988085,2.295399999991062,2.3120999999940395,2.328799999997024,2.345599999994043,2.3620999999940437,2.378799999997021,2.397199999988082,2.412000000000006,2.429000000000002,2.4476999999880817,2.462099999994045,2.4788999999910644,2.4995999999940395,2.512299999997026,2.5290000000000035,2.548000000000002,2.5622999999970233,2.578899999991066,2.5990000000000038,2.612799999997023,2.628899999991063,2.6455000000000055,2.665199999988083,2.6792999999970206,2.6955000000000027,2.7140999999940405,2.7288999999910644,2.7475000000000023,2.7620999999940423,2.7820000000000036,2.7956999999880807,2.812399999991065,2.833500000000001,2.8455000000000013,2.8621999999880856,2.8807999999970235,2.8955999999940403,2.9122999999970247,2.9287999999970253,2.9486999999880794,2.96219999998808,2.9788999999910644,2.995500000000007,3.0151999999880843,3.0287999999970268,3.045599999994046,3.067099999994042,3.078799999997024,3.095699999988085,3.115699999988081,3.128899999991063,3.1455999999940403,3.1621999999880828,3.1823999999910626,3.1953999999910607,3.21219999998808,3.2287999999970225,3.245399999991065,3.2620999999940423,3.278699999988085,3.295399999991062,3.3160000000000025,3.331000000000003,3.3476999999880803,3.362000000000002,3.378799999997021,3.3952999999970217,3.4122999999970247,3.4287999999970253,3.449899999991061,3.464599999994043,3.480099999994046,3.495500000000007,3.5172999999970216,3.5318999999910616,3.5466999999880855,3.5621999999880813,3.581099999994045,3.595699999988085,3.6123999999910623,3.6320999999940398,3.645699999988082,3.6622999999970247,3.6823999999910626,3.697399999991063,3.713799999997022,3.7290000000000063,3.749299999997021,3.7641999999880795,3.7788999999910615,3.795599999994046,3.814699999988079,3.8298999999910635,3.846399999991064,3.8620999999940437,3.8790999999940396,3.8953999999910636,3.912000000000006,3.9286999999880834,3.946599999994042,3.962099999994045,3.9786999999880805,3.995399999991065,4.012099999994042,4.029299999997022,4.045699999988081,4.0620999999940395,4.078699999988082,4.0952999999970245,4.112199999988086,4.128699999988079,4.145399999991064,4.162000000000006,4.178699999988083,4.195399999991061,4.212000000000003,4.2287999999970225,4.245299999997023,4.262099999994042,4.278699999988085,4.29529999999702,4.312000000000005,4.328699999988082,4.345699999988085,4.362000000000002,4.378699999988079,4.3955000000000055,4.412000000000006,4.4285999999940415,4.4455999999940445,4.462099999994045,4.4786999999880805,4.495399999991065,4.514500000000005,4.5288999999910615,4.545399999991062,4.562000000000005,4.578799999997024,4.5952999999970245,4.612500000000004,4.628699999988079,4.645399999991064,4.662000000000006,4.678699999988083,4.695399999991061,4.712099999994045,4.7286999999880805,4.7465999999940465,4.762099999994042,4.778699999988085,4.795399999991062,4.812000000000005,4.828699999988082,4.845399999991059,4.862099999994044,4.881,4.895399999991064,4.912099999994041,4.928699999988083,4.947500000000005,4.962000000000003,4.979099999994041,5.003099999994042,5.02209999999404,5.028699999988085,5.045399999991062,5.064,5.078699999988082,5.095399999991059,5.112099999994044,5.128699999988079,5.145399999991064,5.162000000000006,5.178699999988083,5.195399999991061,5.212000000000003,5.2286999999880805,5.245299999997023,5.2620000000000005,5.278699999988085,5.295399999991062,5.312000000000005,5.32859999999404,5.345399999991059,5.362000000000002]","[1733193461783,1733193461814,1733193461821,1733193461838,1733193461855,1733193461871,1733193461888,1733193461904,1733193461921,1733193461938,1733193461954,1733193461971,1733193461988,1733193462006,1733193462025,1733193462039,1733193462056,1733193462073,1733193462089,1733193462106,1733193462123,1733193462139,1733193462156,1733193462173,1733193462189,1733193462206,1733193462223,1733193462239,1733193462256,1733193462273,1733193462293,1733193462309,1733193462323,1733193462339,1733193462356,1733193462373,1733193462392,1733193462406,1733193462423,1733193462440,1733193462456,1733193462473,1733193462489,1733193462506,1733193462524,1733193462539,1733193462556,1733193462573,1733193462589,1733193462606,1733193462623,1733193462639,1733193462656,1733193462673,1733193462689,1733193462706,1733193462723,1733193462740,1733193462756,1733193462775,1733193462789,1733193462806,1733193462823,1733193462839,1733193462856,1733193462873,1733193462889,1733193462906,1733193462923,1733193462939,1733193462959,1733193462975,1733193462994,1733193463008,1733193463023,1733193463039,1733193463058,1733193463073,1733193463089,1733193463106,1733193463127,1733193463142,1733193463159,1733193463173,1733193463196,1733193463213,1733193463229,1733193463239,1733193463258,1733193463273,1733193463291,1733193463308,1733193463323,1733193463339,1733193463356,1733193463375,1733193463389,1733193463406,1733193463424,1733193463439,1733193463456,1733193463475,1733193463489,1733193463506,1733193463525,1733193463539,1733193463556,1733193463573,1733193463591,1733193463606,1733193463623,1733193463639,1733193463656,1733193463673,1733193463689,1733193463706,1733193463723,1733193463739,1733193463756,1733193463774,1733193463789,1733193463806,1733193463823,1733193463839,1733193463856,1733193463873,1733193463889,1733193463906,1733193463924,1733193463939,1733193463956,1733193463973,1733193463989,1733193464006,1733193464024,1733193464039,1733193464056,1733193464073,1733193464089,1733193464106,1733193464123,1733193464139,1733193464156,1733193464174,1733193464189,1733193464206,1733193464225,1733193464239,1733193464256,1733193464277,1733193464290,1733193464306,1733193464325,1733193464339,1733193464356,1733193464376,1733193464390,1733193464406,1733193464423,1733193464442,1733193464456,1733193464473,1733193464491,1733193464506,1733193464525,1733193464539,1733193464559,1733193464573,1733193464590,1733193464611,1733193464623,1733193464639,1733193464658,1733193464673,1733193464689,1733193464706,1733193464726,1733193464739,1733193464756,1733193464773,1733193464792,1733193464806,1733193464823,1733193464844,1733193464856,1733193464873,1733193464893,1733193464906,1733193464923,1733193464939,1733193464960,1733193464973,1733193464989,1733193465006,1733193465023,1733193465039,1733193465056,1733193465073,1733193465093,1733193465108,1733193465125,1733193465139,1733193465156,1733193465173,1733193465189,1733193465206,1733193465227,1733193465242,1733193465257,1733193465273,1733193465294,1733193465309,1733193465324,1733193465339,1733193465358,1733193465373,1733193465390,1733193465409,1733193465423,1733193465439,1733193465459,1733193465475,1733193465491,1733193465506,1733193465527,1733193465541,1733193465556,1733193465573,1733193465592,1733193465607,1733193465623,1733193465639,1733193465656,1733193465673,1733193465689,1733193465706,1733193465724,1733193465739,1733193465756,1733193465773,1733193465789,1733193465806,1733193465823,1733193465839,1733193465856,1733193465872,1733193465889,1733193465906,1733193465923,1733193465939,1733193465956,1733193465973,1733193465989,1733193466006,1733193466023,1733193466039,1733193466056,1733193466073,1733193466089,1733193466106,1733193466123,1733193466139,1733193466156,1733193466173,1733193466189,1733193466206,1733193466223,1733193466239,1733193466256,1733193466273,1733193466292,1733193466306,1733193466323,1733193466339,1733193466356,1733193466373,1733193466390,1733193466406,1733193466423,1733193466439,1733193466456,1733193466472,1733193466489,1733193466506,1733193466524,1733193466539,1733193466556,1733193466573,1733193466589,1733193466606,1733193466623,1733193466639,1733193466658,1733193466673,1733193466689,1733193466706,1733193466725,1733193466739,1733193466756,1733193466780,1733193466799,1733193466806,1733193466823,1733193466841,1733193466856,1733193466872,1733193466889,1733193466906,1733193466923,1733193466939,1733193466956,1733193466972,1733193466989,1733193467006,1733193467022,1733193467039,1733193467056,1733193467073,1733193467089,1733193467106,1733193467123,1733193467139]","[[1119.6,657.9],[1119.6,657.9],[1106.6,653.1],[1093.7,656.2],[1080.8,659.3],[1064,653.8],[1033.5,647.7],[1023.8,646.6],[1014.1,645.5],[1024.4,633.4],[1035.2,635.8],[1033.6,635.4],[1038.4,641.8],[1044.5,639.7],[1050.6,637.6],[1053.5,639.5],[1056.4,641.4],[1037.8,620.7],[1019.2,600],[1028.9,597],[1028.9,597],[1038.6,594],[1041.4,590.2],[1042.9,585.2],[1048.5,586],[1034.5,585.6],[1020.2,583.7],[998.8,585.7],[990,606.6],[982,630],[968.1,648],[942.2,656.3],[923.8,662.7],[925.5,673.6],[927.1,692.3],[940.9,702.3],[954.7,712.3],[973.6,721.3],[992.5,730.3],[1000.1,733.2],[982.3,733.4],[965.5,733.1],[949.8,731.4],[924.5,721.3],[902.1,706.9],[893.9,693.3],[885.7,679.7],[873.6,657.8],[852.8,633],[831,610.8],[819,583.2],[820.8,568.9],[824.2,556.7],[788.4,541.5],[749.8,522.8],[694.5,510],[645.6,498.3],[588.8,489.2],[540.7,483],[521.5,486.3],[521.5,486.3],[502.3,489.6],[502.3,489.6],[462.7,485],[462.7,485],[458.9,486.4],[458.9,486.4],[537.6,498.7],[537.6,498.7],[605.6,510.8],[691.8,511.1],[784.8,518.8],[891.6,529.3],[971,542.9],[1033,548],[1098.8,548.5],[1178.9,558.3],[1201.6,554],[1192.4,543.6],[1186.8,556.6],[1172.9,584.6],[1136.4,602.7],[1099.9,620.8],[1080,629.7],[1062.9,648.1],[1062.9,648.1],[1035.8,654.5],[1035.8,654.5],[1012.3,654.3],[977.1,669.3],[925.3,687.7],[903.8,674.8],[890.7,659.5],[868.6,660.7],[846.5,661.9],[834.8,667],[834.2,651.6],[855.4,658.1],[855.4,658.1],[864.7,643.5],[891.9,629.7],[917.9,621.3],[923.9,629.2],[921.5,639.5],[937.5,634.7],[957.3,620.3],[977.5,608.1],[977.4,591.1],[961.7,568.8],[984.5,568.5],[1014.8,555.6],[1010.2,553.4],[1002.4,543],[997.3,521.4],[992.2,499.8],[969.4,490.6],[946.6,481.4],[873.4,498.4],[800.2,515.4],[719,512.7],[697.6,507.9],[696.7,483.2],[695.8,458.5],[689.6,476.3],[701.2,486.3],[666.3,510.3],[631.4,534.3],[711.8,530.5],[761,533.7],[792.9,553.2],[765,574.8],[747.5,575.1],[717.6,604.9],[685.3,618.7],[657.5,607.5],[711.8,556],[761.7,534.6],[769,501.5],[815.7,459.7],[856.4,434.9],[897.1,410.1],[957,410.6],[1031,387.7],[1107.9,351.7],[1132.1,342.9],[1153.9,368.7],[1169,342.5],[1168.7,369.8],[1163.3,399.3],[1159.7,412.9],[1159.7,412.9],[1161.4,418],[1145.1,422.8],[1139.3,420],[1135.6,415],[1131.6,411.4],[1116.8,398.1],[1127.8,408.5],[1138.3,394.5],[1117.8,375.4],[1120.1,362.4],[1090.1,352.5],[1060.1,342.6],[1072.9,336],[1085.7,329.4],[1149.5,331.3],[1174.2,347.5],[1160.5,332.6],[1160.5,332.6],[1135.5,319.3],[1135.5,319.3],[1143.7,322.3],[1131.7,322.7],[1100.1,331.5],[1075.5,347.6],[991.8,357.4],[894.1,368.3],[802.7,352.3],[741.9,320.6],[741.9,320.6],[726.2,331.4],[726.2,331.4],[705.7,333.2],[697.2,327.6],[697.2,327.6],[696.9,326.1],[696.9,326.1],[734.7,313.6],[734.7,313.6],[798.5,306.3],[798.5,306.3],[852,301.9],[852,301.9],[943.4,300.9],[984.5,320.1],[1011.7,330.1],[1068,343.4],[1064.9,339.3],[1115.9,349.4],[1150.4,362.2],[1207.7,391.5],[1167.9,378.4],[1197.7,378.8],[1172.3,369],[1170.6,361.6],[1224.8,378.8],[1228.5,379.5],[1236.1,386.8],[1172.3,375.6],[1129.8,361],[1073,337.9],[1114.2,347.4],[1106.7,351.2],[1125.9,359.9],[1125.9,359.9],[1134.3,364.8],[1105.7,361],[1082.5,349.1],[1082.5,349.1],[1114,355.6],[1147.6,362.2],[1172.2,369.9],[1186.1,373.6],[1173.8,376],[1155,372.2],[1155.9,365.6],[1155.9,365.6],[1167.6,362.8],[1177.7,363.6],[1166.1,365.7],[1178.6,360.9],[1183.4,353.9],[1184.2,342.4],[1179.6,339],[1150.5,333],[1123.9,322.6],[1082.2,315.8],[1052.6,321.9],[1011.1,316.4],[1006.7,312.5],[984.8,314],[957.5,323.1],[930.2,332.2],[930.9,358],[948.4,385],[934.7,404.3],[920.9,423.5],[930.5,454.1],[948.6,486],[985.8,564.6],[1033.3,644.5],[1104.3,723.9],[1157,800.1],[1198.7,852.7],[1198.7,852.7],[1249.6,915.1],[1305.8,972.5],[1321.7,1024.5],[1275.3,1048.7],[1250.9,1058.8],[1185.8,1018.2],[1108.9,977.7],[1005,917.2],[925.8,862.7],[845.7,811],[743.1,742],[663.9,690.1],[683.5,655.5],[699.5,607.1],[725.9,587.4],[719.5,572.7],[742.7,553],[791.6,531.4],[828.2,524.7],[864.8,518],[911.3,528.6],[957.8,539.2],[950.1,521.8],[959.3,526.8],[959.8,513.5],[979.2,498.3],[978,498.1],[965.6,514.8],[973.5,507.9],[981.4,501],[996.5,487.8],[1011.6,474.6],[1019.8,458.1],[1041.5,436.5],[1044.1,424.8],[1061.4,419.2],[1081.3,397.6],[1101.2,376],[1107.9,384.5],[1108.6,381.6],[1105.9,375],[1103.2,368.4],[1104,374.7],[1104.8,381],[1104.8,381],[1111.1,383.5],[1111.1,383.5],[1112.9,385.3],[1108.5,395.8],[1108.5,395.8],[1104.1,406.3],[1104.1,406.3],[1091.7,395.6],[1091.7,395.6],[1105.7,404.3],[1105.7,404.3],[1103.3,407.8],[1087.3,409.3],[1093.9,414.6],[1100.5,419.9],[1102.5,420.4],[1109,421.6],[1115.3,412.3],[1121.6,403],[1141.4,398.9],[1140.8,386.8],[1151.6,375]]","[0,0.37864299999999995]","[0.37864299999999995,0.37864299999999995]","[-0.37864299999999995,-0.37864299999999995]","[-0.37864299999999995,0]","[0,-0.37864299999999995]","[0.37864299999999995,-0.37864299999999995]","[0,0]","[0.37864299999999995,0]",0,0,0,0,1,3,Laptop,11,9,9,1
