inst1_resp.keys,inst1_resp.rt,calibrationMouse.x,calibrationMouse.y,calibrationMouse.leftButton,calibrationMouse.midButton,calibrationMouse.rightButton,calibrationClick.x,calibrationClick.y,calibrationClick.leftButton,calibrationClick.midButton,calibrationClick.rightButton,calibrationClick.clicked_name,trialsc.thisRepN,trialsc.thisTrialN,trialsc.thisN,trialsc.thisIndex,trialsc.ran,calibration_x,calibration_y,participant,session,date,expName,psychopyVersion,OS,frameRate,ScreenRes_pixels,Camera_pixels,mouse_2.x,mouse_2.y,mouse_2.leftButton,mouse_2.midButton,mouse_2.rightButton,mouse_2.time,mouse_2.clicked_name,mouse.x,mouse.y,mouse.leftButton,mouse.midButton,mouse.rightButton,mouse.time,mouse.clicked_name,Choice,Trial,TrialDuration,MOUSE_GAZE,ET_GAZE,ET_GAZE_x_T,time,unixTime,ET_GAZE_NF,Loc_Option1_label,Loc_Option2_label,Loc_Cost_label,Loc_Qual_label,Loc_Option1_cost,Loc_Option2_cost,Loc_Option1_quality,Loc_Option2_quality,trials.thisRepN,trials.thisTrialN,trials.thisN,trials.thisIndex,trials.ran,Block,Device,cost1,qual1,cost2,qual2
space,1.8467,-0.048958333,-0.122222222,1,0,0,-0.66875,-0.327777778,1,0,0,calibration_square,0,0,0,1,1,-0.67,-0.33,06,001,2024-12-02_17h54.09.321,Attention_exp_legacy,2023.1.0,Win32,59.88023952,,,,,,,,,,,,,,,,,,,,,,,,,,,,,,,,,,,,,,,,,,,,
,,,,,,,0.322916667,-0.32962963,1,0,0,calibration_square,0,1,1,15,1,0.33,-0.33,06,001,2024-12-02_17h54.09.321,Attention_exp_legacy,2023.1.0,Win32,59.88023952,,,,,,,,,,,,,,,,,,,,,,,,,,,,,,,,,,,,,,,,,,,,
,,,,,,,-0.004166667,0.335185185,1,0,0,calibration_square,0,2,2,12,1,0,0.33,06,001,2024-12-02_17h54.09.321,Attention_exp_legacy,2023.1.0,Win32,59.88023952,,,,,,,,,,,,,,,,,,,,,,,,,,,,,,,,,,,,,,,,,,,,
,,,,,,,-0.672916667,0.005555556,1,0,0,calibration_square,0,3,3,2,1,-0.67,0,06,001,2024-12-02_17h54.09.321,Attention_exp_legacy,2023.1.0,Win32,59.88023952,,,,,,,,,,,,,,,,,,,,,,,,,,,,,,,,,,,,,,,,,,,,
,,,,,,,-0.333333333,-0.672222222,1,0,0,calibration_square,0,4,4,4,1,-0.33,-0.67,06,001,2024-12-02_17h54.09.321,Attention_exp_legacy,2023.1.0,Win32,59.88023952,,,,,,,,,,,,,,,,,,,,,,,,,,,,,,,,,,,,,,,,,,,,
,,,,,,,-0.004166667,-0.318518519,1,0,0,,0,5,5,10,1,0,-0.33,06,001,2024-12-02_17h54.09.321,Attention_exp_legacy,2023.1.0,Win32,59.88023952,,,,,,,,,,,,,,,,,,,,,,,,,,,,,,,,,,,,,,,,,,,,
,,,,,,,0.005208333,-0.653703704,1,0,0,,0,6,6,9,1,0,-0.67,06,001,2024-12-02_17h54.09.321,Attention_exp_legacy,2023.1.0,Win32,59.88023952,,,,,,,,,,,,,,,,,,,,,,,,,,,,,,,,,,,,,,,,,,,,
,,,,,,,-0.330208333,0.333333333,1,0,0,calibration_square,0,7,7,7,1,-0.33,0.33,06,001,2024-12-02_17h54.09.321,Attention_exp_legacy,2023.1.0,Win32,59.88023952,,,,,,,,,,,,,,,,,,,,,,,,,,,,,,,,,,,,,,,,,,,,
,,,,,,,-0.33125,0.011111111,1,0,0,,0,8,8,6,1,-0.33,0,06,001,2024-12-02_17h54.09.321,Attention_exp_legacy,2023.1.0,Win32,59.88023952,,,,,,,,,,,,,,,,,,,,,,,,,,,,,,,,,,,,,,,,,,,,
,,,,,,,-0.0125,0.675925926,1,0,0,,0,9,9,13,1,0,0.67,06,001,2024-12-02_17h54.09.321,Attention_exp_legacy,2023.1.0,Win32,59.88023952,,,,,,,,,,,,,,,,,,,,,,,,,,,,,,,,,,,,,,,,,,,,
,,,,,,,-0.332291667,0.675925926,1,0,0,calibration_square,0,10,10,8,1,-0.33,0.67,06,001,2024-12-02_17h54.09.321,Attention_exp_legacy,2023.1.0,Win32,59.88023952,,,,,,,,,,,,,,,,,,,,,,,,,,,,,,,,,,,,,,,,,,,,
,,,,,,,0,0.005555556,1,0,0,calibration_square,0,11,11,11,1,0,0,06,001,2024-12-02_17h54.09.321,Attention_exp_legacy,2023.1.0,Win32,59.88023952,,,,,,,,,,,,,,,,,,,,,,,,,,,,,,,,,,,,,,,,,,,,
,,,,,,,-0.675,0.344444444,1,0,0,,0,12,12,3,1,-0.67,0.33,06,001,2024-12-02_17h54.09.321,Attention_exp_legacy,2023.1.0,Win32,59.88023952,,,,,,,,,,,,,,,,,,,,,,,,,,,,,,,,,,,,,,,,,,,,
,,,,,,,0.334375,0.672222222,1,0,0,calibration_square,0,13,13,18,1,0.33,0.67,06,001,2024-12-02_17h54.09.321,Attention_exp_legacy,2023.1.0,Win32,59.88023952,,,,,,,,,,,,,,,,,,,,,,,,,,,,,,,,,,,,,,,,,,,,
,,,,,,,0.339583333,-0.001851852,1,0,0,calibration_square,0,14,14,16,1,0.33,0,06,001,2024-12-02_17h54.09.321,Attention_exp_legacy,2023.1.0,Win32,59.88023952,,,,,,,,,,,,,,,,,,,,,,,,,,,,,,,,,,,,,,,,,,,,
,,,,,,,0.320833333,0.338888889,1,0,0,calibration_square,0,15,15,17,1,0.33,0.33,06,001,2024-12-02_17h54.09.321,Attention_exp_legacy,2023.1.0,Win32,59.88023952,,,,,,,,,,,,,,,,,,,,,,,,,,,,,,,,,,,,,,,,,,,,
,,,,,,,0.323958333,-0.668518519,1,0,0,calibration_square,0,16,16,14,1,0.33,-0.67,06,001,2024-12-02_17h54.09.321,Attention_exp_legacy,2023.1.0,Win32,59.88023952,,,,,,,,,,,,,,,,,,,,,,,,,,,,,,,,,,,,,,,,,,,,
,,,,,,,-0.323958333,-0.322222222,1,0,0,calibration_square,0,17,17,5,1,-0.33,-0.33,06,001,2024-12-02_17h54.09.321,Attention_exp_legacy,2023.1.0,Win32,59.88023952,,,,,,,,,,,,,,,,,,,,,,,,,,,,,,,,,,,,,,,,,,,,
,,,,,,,0.664583333,0.664814815,1,0,0,calibration_square,0,18,18,19,1,0.67,0.67,06,001,2024-12-02_17h54.09.321,Attention_exp_legacy,2023.1.0,Win32,59.88023952,,,,,,,,,,,,,,,,,,,,,,,,,,,,,,,,,,,,,,,,,,,,
,,,,,,,-0.66875,-0.674074074,1,0,0,calibration_square,0,19,19,0,1,-0.67,-0.67,06,001,2024-12-02_17h54.09.321,Attention_exp_legacy,2023.1.0,Win32,59.88023952,,,,,,,,,,,,,,,,,,,,,,,,,,,,,,,,,,,,,,,,,,,,
,,,,,,,0.663541667,-0.668518519,1,0,0,calibration_square,0,20,20,20,1,0.67,-0.67,06,001,2024-12-02_17h54.09.321,Attention_exp_legacy,2023.1.0,Win32,59.88023952,,,,,,,,,,,,,,,,,,,,,,,,,,,,,,,,,,,,,,,,,,,,
,,,,,,,,,,,,,,,,,,,,06,001,2024-12-02_17h54.09.321,Attention_exp_legacy,2023.1.0,Win32,59.88023952,"[1920,1080]","[640,480]",[0.005208333333333333],[-0.5074074074074074],[1],[0],[0],[1.197100000001491],"[""StartButton""]",[0.06979166666666667],[0.3333333333333333],[1],[0],[0],[5.289899999998511],"[""Option1_label""]",Option1_label,1,6.3147,"[[0.271875,0.11851851851851852],[0.271875,0.11851851851851852],[0.271875,0.11851851851851852],[0.271875,0.11851851851851852],[0.271875,0.11851851851851852],[0.271875,0.11851851851851852],[0.271875,0.11851851851851852],[0.271875,0.11851851851851852],[0.271875,0.11851851851851852],[0.271875,0.11851851851851852],[0.271875,0.11851851851851852],[0.271875,0.11851851851851852],[0.271875,0.11851851851851852],[0.271875,0.11851851851851852],[0.271875,0.11851851851851852],[0.271875,0.11851851851851852],[0.271875,0.11851851851851852],[0.271875,0.11851851851851852],[0.271875,0.11851851851851852],[0.271875,0.11851851851851852],[0.271875,0.11851851851851852],[0.271875,0.11851851851851852],[0.271875,0.11851851851851852],[0.271875,0.11851851851851852],[0.271875,0.11851851851851852],[0.271875,0.11851851851851852],[0.271875,0.11851851851851852],[0.271875,0.11851851851851852],[0.271875,0.11851851851851852],[0.271875,0.11851851851851852],[0.271875,0.11851851851851852],[0.271875,0.11851851851851852],[0.271875,0.11851851851851852],[0.271875,0.11851851851851852],[0.271875,0.11851851851851852],[0.271875,0.11851851851851852],[0.271875,0.11851851851851852],[0.271875,0.11851851851851852],[0.271875,0.11851851851851852],[0.271875,0.11851851851851852],[0.271875,0.11851851851851852],[0.271875,0.11851851851851852],[0.271875,0.11851851851851852],[0.271875,0.11851851851851852],[0.271875,0.11851851851851852],[0.271875,0.11851851851851852],[0.271875,0.11851851851851852],[0.271875,0.11851851851851852],[0.271875,0.11851851851851852],[0.271875,0.11851851851851852],[0.271875,0.11851851851851852],[0.271875,0.11851851851851852],[0.271875,0.11851851851851852],[0.271875,0.11851851851851852],[0.271875,0.11851851851851852],[0.271875,0.11851851851851852],[0.271875,0.11851851851851852],[0.271875,0.11851851851851852],[0.271875,0.11851851851851852],[0.271875,0.11851851851851852],[0.271875,0.11851851851851852],[0.271875,0.11851851851851852],[0.271875,0.11851851851851852],[0.271875,0.11851851851851852],[0.271875,0.11851851851851852],[0.271875,0.11851851851851852],[0.271875,0.11851851851851852],[0.271875,0.11851851851851852],[0.271875,0.11851851851851852],[0.271875,0.11851851851851852],[0.271875,0.11851851851851852],[0.271875,0.11851851851851852],[0.271875,0.11851851851851852],[0.271875,0.11851851851851852],[0.271875,0.11851851851851852],[0.271875,0.11851851851851852],[0.271875,0.11851851851851852],[0.271875,0.11851851851851852],[0.271875,0.11851851851851852],[0.271875,0.11851851851851852],[0.271875,0.11851851851851852],[0.271875,0.11851851851851852],[0.271875,0.11851851851851852],[0.271875,0.11851851851851852],[0.271875,0.11851851851851852],[0.271875,0.11851851851851852],[0.271875,0.11851851851851852],[0.271875,0.11851851851851852],[0.271875,0.11851851851851852],[0.271875,0.11851851851851852],[0.271875,0.11851851851851852],[0.271875,0.11851851851851852],[0.271875,0.11851851851851852],[0.271875,0.11851851851851852],[0.271875,0.11851851851851852],[0.271875,0.11851851851851852],[0.271875,0.11851851851851852],[0.271875,0.11851851851851852],[0.271875,0.11851851851851852],[0.271875,0.11851851851851852],[0.271875,0.11851851851851852],[0.271875,0.11851851851851852],[0.271875,0.11851851851851852],[0.271875,0.11851851851851852],[0.271875,0.11851851851851852],[0.271875,0.11851851851851852],[0.271875,0.11851851851851852],[0.271875,0.11851851851851852],[0.271875,0.11851851851851852],[0.271875,0.11851851851851852],[0.271875,0.11851851851851852],[0.271875,0.11851851851851852],[0.271875,0.11851851851851852],[0.271875,0.11851851851851852],[0.271875,0.11851851851851852],[0.271875,0.11851851851851852],[0.271875,0.11851851851851852],[0.271875,0.11851851851851852],[0.271875,0.11851851851851852],[0.271875,0.11851851851851852],[0.271875,0.11851851851851852],[0.271875,0.11851851851851852],[0.271875,0.11851851851851852],[0.271875,0.11851851851851852],[0.271875,0.11851851851851852],[0.271875,0.11851851851851852],[0.271875,0.11851851851851852],[0.271875,0.11851851851851852],[0.271875,0.11851851851851852],[0.271875,0.11851851851851852],[0.271875,0.11851851851851852],[0.271875,0.11851851851851852],[0.271875,0.11851851851851852],[0.271875,0.11851851851851852],[0.271875,0.11851851851851852],[0.271875,0.11851851851851852],[0.271875,0.11851851851851852],[0.271875,0.11851851851851852],[0.271875,0.11851851851851852],[0.271875,0.11851851851851852],[0.271875,0.11851851851851852],[0.271875,0.11851851851851852],[0.271875,0.11851851851851852],[0.271875,0.11851851851851852],[0.271875,0.11851851851851852],[0.271875,0.11851851851851852],[0.271875,0.11851851851851852],[0.271875,0.11851851851851852],[0.271875,0.11851851851851852],[0.271875,0.11851851851851852],[0.271875,0.11851851851851852],[0.271875,0.11851851851851852],[0.271875,0.11851851851851852],[0.271875,0.11851851851851852],[0.271875,0.11851851851851852],[0.271875,0.11851851851851852],[0.271875,0.11851851851851852],[0.271875,0.11851851851851852],[0.271875,0.11851851851851852],[0.271875,0.11851851851851852],[0.271875,0.11851851851851852],[0.271875,0.11851851851851852],[0.271875,0.11851851851851852],[0.271875,0.11851851851851852],[0.271875,0.11851851851851852],[0.271875,0.11851851851851852],[0.271875,0.11851851851851852],[0.271875,0.11851851851851852],[0.271875,0.11851851851851852],[0.271875,0.11851851851851852],[0.271875,0.11851851851851852],[0.271875,0.11851851851851852],[0.271875,0.11851851851851852],[0.271875,0.11851851851851852],[0.271875,0.11851851851851852],[0.271875,0.11851851851851852],[0.271875,0.11851851851851852],[0.271875,0.11851851851851852],[0.271875,0.11851851851851852],[0.271875,0.11851851851851852],[0.271875,0.11851851851851852],[0.271875,0.11851851851851852],[0.271875,0.11851851851851852],[0.271875,0.11851851851851852],[0.271875,0.11851851851851852],[0.271875,0.11851851851851852],[0.271875,0.11851851851851852],[0.271875,0.11851851851851852],[0.271875,0.11851851851851852],[0.271875,0.11851851851851852],[0.271875,0.11851851851851852],[0.271875,0.11851851851851852],[0.271875,0.11851851851851852],[0.271875,0.11851851851851852],[0.271875,0.11851851851851852],[0.271875,0.11851851851851852],[0.271875,0.11851851851851852],[0.271875,0.11851851851851852],[0.271875,0.11851851851851852],[0.271875,0.11851851851851852],[0.271875,0.11851851851851852],[0.271875,0.11851851851851852],[0.271875,0.11851851851851852],[0.271875,0.11851851851851852],[0.271875,0.11851851851851852],[0.271875,0.11851851851851852],[0.271875,0.11851851851851852],[0.271875,0.11851851851851852],[0.271875,0.11851851851851852],[0.271875,0.11851851851851852],[0.271875,0.11851851851851852],[0.271875,0.11851851851851852],[0.271875,0.11851851851851852],[0.271875,0.11851851851851852],[0.271875,0.11851851851851852],[0.271875,0.11851851851851852],[0.271875,0.11851851851851852],[0.271875,0.11851851851851852],[0.271875,0.11851851851851852],[0.271875,0.11481481481481481],[0.271875,0.11296296296296296],[0.271875,0.10925925925925926],[0.271875,0.10185185185185185],[0.271875,0.09814814814814815],[0.27395833333333336,0.09444444444444444],[0.27708333333333335,0.09259259259259259],[0.2833333333333333,0.08703703703703704],[0.2875,0.08518518518518518],[0.29270833333333335,0.08518518518518518],[0.30104166666666665,0.08518518518518518],[0.31145833333333334,0.08518518518518518],[0.31979166666666664,0.08333333333333333],[0.32083333333333336,0.08333333333333333],[0.32083333333333336,0.08333333333333333],[0.32083333333333336,0.08333333333333333],[0.32083333333333336,0.08333333333333333],[0.32083333333333336,0.08333333333333333],[0.32083333333333336,0.08333333333333333],[0.32083333333333336,0.08333333333333333],[0.32083333333333336,0.08333333333333333],[0.32083333333333336,0.08333333333333333],[0.32083333333333336,0.08333333333333333],[0.32083333333333336,0.08333333333333333],[0.32083333333333336,0.08333333333333333],[0.32083333333333336,0.08333333333333333],[0.32083333333333336,0.08333333333333333],[0.32083333333333336,0.08333333333333333],[0.32083333333333336,0.08333333333333333],[0.32083333333333336,0.08333333333333333],[0.32083333333333336,0.08333333333333333],[0.32083333333333336,0.08333333333333333],[0.32083333333333336,0.08333333333333333],[0.32083333333333336,0.08333333333333333],[0.32083333333333336,0.08333333333333333],[0.32083333333333336,0.08333333333333333],[0.32083333333333336,0.08518518518518518],[0.32083333333333336,0.08518518518518518],[0.32083333333333336,0.08518518518518518],[0.32083333333333336,0.08703703703703704],[0.32083333333333336,0.09259259259259259],[0.32083333333333336,0.09259259259259259],[0.32083333333333336,0.0962962962962963],[0.31979166666666664,0.09814814814814815],[0.3177083333333333,0.10185185185185185],[0.31666666666666665,0.1037037037037037],[0.3145833333333333,0.1037037037037037],[0.31145833333333334,0.10555555555555556],[0.30520833333333336,0.10555555555555556],[0.29791666666666666,0.10555555555555556],[0.29270833333333335,0.10555555555555556],[0.284375,0.10555555555555556],[0.28229166666666666,0.10555555555555556],[0.28020833333333334,0.10555555555555556],[0.2791666666666667,0.10555555555555556],[0.278125,0.10555555555555556],[0.278125,0.10555555555555556],[0.2760416666666667,0.1037037037037037],[0.275,0.1037037037037037],[0.27291666666666664,0.1],[0.271875,0.09814814814814815],[0.271875,0.0962962962962963],[0.271875,0.09259259259259259],[0.271875,0.09259259259259259],[0.271875,0.09074074074074075],[0.271875,0.08703703703703704],[0.271875,0.07962962962962963],[0.27395833333333336,0.07777777777777778],[0.27708333333333335,0.07407407407407407],[0.2791666666666667,0.07222222222222222],[0.2791666666666667,0.07222222222222222],[0.2791666666666667,0.07222222222222222],[0.2791666666666667,0.07222222222222222],[0.2791666666666667,0.07222222222222222],[0.2791666666666667,0.07222222222222222],[0.2791666666666667,0.07222222222222222],[0.271875,0.08148148148148149],[0.25833333333333336,0.09259259259259259],[0.240625,0.1111111111111111],[0.21875,0.13333333333333333],[0.19270833333333334,0.15925925925925927],[0.16458333333333333,0.18888888888888888],[0.13958333333333334,0.21296296296296297],[0.11770833333333333,0.24074074074074073],[0.09375,0.2777777777777778],[0.08229166666666667,0.30185185185185187],[0.07604166666666666,0.31851851851851853],[0.07291666666666667,0.32592592592592595],[0.07083333333333333,0.3296296296296296],[0.07083333333333333,0.3296296296296296],[0.06979166666666667,0.3314814814814815],[0.06979166666666667,0.3314814814814815],[0.06979166666666667,0.3314814814814815],[0.06979166666666667,0.3314814814814815],[0.06979166666666667,0.3314814814814815],[0.06979166666666667,0.3314814814814815],[0.06979166666666667,0.3333333333333333],[0.06979166666666667,0.3333333333333333],[0.06979166666666667,0.3333333333333333],[0.06979166666666667,0.3333333333333333],[0.06979166666666667,0.3333333333333333],[0.06979166666666667,0.3333333333333333],[0.06979166666666667,0.3333333333333333],[0.06979166666666667,0.3333333333333333],[0.06979166666666667,0.3333333333333333],[0.06979166666666667,0.3333333333333333],[0.06979166666666667,0.3333333333333333],[0.06979166666666667,0.3333333333333333],[0.06979166666666667,0.3333333333333333],[0.06979166666666667,0.3333333333333333],[0.06979166666666667,0.3333333333333333],[0.06979166666666667,0.3333333333333333],[0.06979166666666667,0.3333333333333333],[0.06979166666666667,0.3333333333333333],[0.06979166666666667,0.3333333333333333],[0.06979166666666667,0.3333333333333333],[0.06979166666666667,0.3333333333333333],[0.06979166666666667,0.3333333333333333],[0.06979166666666667,0.3333333333333333],[0.06979166666666667,0.3333333333333333],[0.06979166666666667,0.3333333333333333],[0.06979166666666667,0.3333333333333333],[0.06979166666666667,0.3333333333333333],[0.06979166666666667,0.3333333333333333],[0.06979166666666667,0.3333333333333333],[0.06979166666666667,0.3333333333333333],[0.06979166666666667,0.3333333333333333],[0.06979166666666667,0.3333333333333333],[0.06979166666666667,0.3333333333333333],[0.06979166666666667,0.3333333333333333],[0.06979166666666667,0.3333333333333333],[0.06979166666666667,0.3333333333333333],[0.06979166666666667,0.3333333333333333],[0.06979166666666667,0.3333333333333333],[0.06979166666666667,0.3333333333333333],[0.06979166666666667,0.3333333333333333],[0.06979166666666667,0.3333333333333333],[0.06979166666666667,0.3333333333333333],[0.06979166666666667,0.3333333333333333],[0.06979166666666667,0.3333333333333333],[0.06979166666666667,0.3333333333333333],[0.06979166666666667,0.3333333333333333],[0.06979166666666667,0.3333333333333333],[0.06979166666666667,0.3333333333333333],[0.06979166666666667,0.3333333333333333],[0.06979166666666667,0.3333333333333333],[0.06979166666666667,0.3333333333333333],[0.06979166666666667,0.3333333333333333],[0.06979166666666667,0.3333333333333333],[0.06979166666666667,0.3333333333333333],[0.06979166666666667,0.3333333333333333],[0.06979166666666667,0.3333333333333333],[0.06979166666666667,0.3333333333333333],[0.06979166666666667,0.3333333333333333],[0.06979166666666667,0.3333333333333333],[0.06979166666666667,0.3333333333333333],[0.06979166666666667,0.3333333333333333],[0.06979166666666667,0.3333333333333333],[0.06979166666666667,0.3333333333333333],[0.06979166666666667,0.3333333333333333]]","[[-0.07614583333333336,0.07888888888888893],[-0.07614583333333336,0.07888888888888893],[-0.08947916666666664,0.08296296296296288],[-0.10281250000000004,0.08703703703703704],[-0.11177083333333329,0.0837037037037038],[-0.12072916666666664,0.08037037037037033],[-0.1326041666666666,0.08000000000000008],[-0.1420833333333333,0.08407407407407404],[-0.15,0.014629629629629588],[-0.16979166666666667,-0.04259259259259259],[-0.18458333333333338,-0.08574074074074076],[-0.18374999999999997,-0.11092592592592589],[-0.20645833333333338,-0.19666666666666666],[-0.22770833333333335,-0.28351851851851856],[-0.2445833333333333,-0.3677777777777778],[-0.24958333333333335,-0.462037037037037],[-0.275,-0.572037037037037],[-0.30041666666666667,-0.6820370370370371],[-0.3177083333333333,-0.7125925925925927],[-0.3129166666666666,-0.7251851851851853],[-0.3051041666666666,-0.7353703703703705],[-0.3129166666666666,-0.7635185185185185],[-0.31697916666666665,-0.7598148148148148],[-0.29031250000000003,-0.72],[-0.26291666666666663,-0.6918518518518519],[-0.24739583333333334,-0.6537037037037037],[-0.2341666666666666,-0.6331481481481481],[-0.2273958333333333,-0.6288888888888889],[-0.20364583333333333,-0.6283333333333333],[-0.20364583333333333,-0.6283333333333333],[-0.19010416666666666,-0.657962962962963],[-0.19010416666666666,-0.657962962962963],[-0.1648958333333333,-0.6577777777777778],[-0.1648958333333333,-0.6577777777777778],[-0.1492708333333333,-0.6605555555555556],[-0.1492708333333333,-0.6605555555555556],[-0.1258333333333333,-0.6551851851851852],[-0.1258333333333333,-0.6551851851851852],[-0.1538541666666667,-0.7257407407407407],[-0.1538541666666667,-0.7257407407407407],[-0.18260416666666662,-0.7846296296296296],[-0.18260416666666662,-0.7846296296296296],[-0.2029166666666666,-0.8248148148148148],[-0.2029166666666666,-0.8248148148148148],[-0.1998958333333333,-0.8172222222222223],[-0.1998958333333333,-0.8172222222222223],[-0.19583333333333333,-0.7861111111111111],[-0.19583333333333333,-0.7861111111111111],[-0.2111458333333334,-0.7627777777777778],[-0.22041666666666668,-0.741111111111111],[-0.22041666666666668,-0.741111111111111],[-0.24947916666666667,-0.7407407407407407],[-0.24947916666666667,-0.7407407407407407],[-0.26135416666666667,-0.71],[-0.29010416666666666,-0.6759259259259259],[-0.29958333333333337,-0.600925925925926],[-0.3054166666666667,-0.5453703703703704],[-0.30572916666666666,-0.5077777777777778],[-0.3234375,-0.48777777777777775],[-0.34260416666666665,-0.48499999999999993],[-0.34260416666666665,-0.48499999999999993],[-0.3467708333333333,-0.465],[-0.3533333333333334,-0.43555555555555553],[-0.35479166666666667,-0.41703703703703704],[-0.3580208333333334,-0.38481481481481483],[-0.3377083333333334,-0.3648148148148148],[-0.31697916666666665,-0.35537037037037034],[-0.3109375,-0.3357407407407408],[-0.31312500000000004,-0.317037037037037],[-0.31364583333333335,-0.3068518518518518],[-0.3063541666666667,-0.3012962962962963],[-0.30437500000000006,-0.29666666666666663],[-0.30437500000000006,-0.29666666666666663],[-0.3140625,-0.2633333333333333],[-0.3237499999999999,-0.22333333333333338],[-0.33927083333333335,-0.22444444444444442],[-0.37072916666666667,-0.2294444444444444],[-0.3970833333333334,-0.22666666666666663],[-0.3723958333333333,-0.15629629629629627],[-0.30062500000000003,-0.08148148148148149],[-0.2367708333333333,-0.01444444444444436],[-0.16375000000000003,0.06574074074074074],[-0.09395833333333338,0.13425925925925927],[-0.02333333333333331,0.16925925925925922],[0.04729166666666664,0.19759259259259268],[0.11854166666666661,0.22037037037037038],[0.2048958333333334,0.26648148148148143],[0.29447916666666674,0.33055555555555555],[0.32270833333333326,0.3042592592592592],[0.2952083333333334,0.2875925925925925],[0.2534374999999999,0.27148148148148155],[0.2015625,0.25685185185185194],[0.1709374999999999,0.2511111111111112],[0.1474999999999999,0.24240740740740738],[0.09385416666666657,0.21648148148148144],[0.03958333333333333,0.19611111111111107],[-0.040625,0.17388888888888884],[-0.14479166666666668,0.11407407407407412],[-0.2202083333333333,0.0794444444444444],[-0.30343749999999997,0.06222222222222226],[-0.3359375,0.021481481481481525],[-0.36781250000000004,0.005370370370370328],[-0.42562500000000003,-0.017592592592592594],[-0.49937499999999996,-0.04722222222222222],[-0.5180208333333334,-0.04592592592592584],[-0.5057291666666667,-0.009259259259259259],[-0.46,-0.0022222222222223064],[-0.4117708333333333,0.03425925925925926],[-0.37093750000000003,0.07759259259259255],[-0.31906249999999997,0.07888888888888893],[-0.29406249999999995,0.11037037037037041],[-0.26968749999999997,0.11722222222222214],[-0.23552083333333335,0.1618518518518518],[-0.1866666666666667,0.20574074074074078],[-0.16614583333333333,0.21148148148148158],[-0.1765625,0.18185185185185193],[-0.19083333333333338,0.1655555555555555],[-0.2091666666666666,0.11833333333333329],[-0.22000000000000006,0.1037037037037037],[-0.21770833333333334,0.11444444444444436],[-0.22281249999999997,0.12185185185185177],[-0.21739583333333337,0.11888888888888897],[-0.20968749999999994,0.10259259259259255],[-0.19885416666666664,0.09351851851851851],[-0.20083333333333328,0.102962962962963],[-0.1938541666666667,0.0911111111111112],[-0.1938541666666667,0.0911111111111112],[-0.18374999999999997,0.09796296296296292],[-0.17781250000000004,0.14518518518518514],[-0.1796875,0.14870370370370362],[-0.20729166666666668,0.11925925925925922],[-0.2265625,0.10500000000000008],[-0.2563541666666667,0.10111111111111115],[-0.2929166666666667,0.08537037037037042],[-0.3289583333333333,0.06740740740740736],[-0.34354166666666663,0.03981481481481482],[-0.34354166666666663,0.03981481481481482],[-0.36041666666666666,0.032407407407407406],[-0.38468749999999996,0.03481481481481473],[-0.39656250000000004,0.03425925925925926],[-0.40083333333333326,0.06092592592592588],[-0.3898958333333333,0.07222222222222222],[-0.39437500000000003,0.05092592592592592],[-0.4063541666666667,0.02629629629629638],[-0.39427083333333335,0.02629629629629638],[-0.39427083333333335,0.02629629629629638],[-0.3910416666666666,0.007962962962962878],[-0.40249999999999997,0.017592592592592594],[-0.42218749999999994,0.025925925925925925],[-0.4421875,0.01314814814814819],[-0.4421875,0.01314814814814819],[-0.4547916666666667,-0.01574074074074074],[-0.46822916666666664,-0.06185185185185181],[-0.478125,-0.08148148148148149],[-0.47760416666666666,-0.08851851851851854],[-0.46333333333333326,-0.06944444444444445],[-0.4907291666666667,-0.10611111111111113],[-0.4926041666666666,-0.09129629629629632],[-0.48114583333333333,-0.08925925925925923],[-0.46812499999999996,-0.08481481481481483],[-0.4746875,-0.10796296296296298],[-0.47010416666666666,-0.12092592592592595],[-0.47010416666666666,-0.12092592592592595],[-0.4594791666666667,-0.13129629629629624],[-0.4594791666666667,-0.13129629629629624],[-0.4547916666666667,-0.13333333333333333],[-0.4547916666666667,-0.13333333333333333],[-0.44635416666666666,-0.1425925925925926],[-0.44635416666666666,-0.1425925925925926],[-0.39187500000000003,-0.1514814814814815],[-0.39187500000000003,-0.1514814814814815],[-0.33468749999999997,-0.1270370370370371],[-0.33468749999999997,-0.1270370370370371],[-0.2752083333333334,-0.13055555555555556],[-0.2752083333333334,-0.13055555555555556],[-0.24729166666666663,-0.14388888888888887],[-0.20895833333333336,-0.1398148148148148],[-0.20895833333333336,-0.1398148148148148],[-0.13187500000000002,-0.11518518518518517],[-0.13187500000000002,-0.11518518518518517],[-0.03958333333333333,-0.0948148148148148],[-0.03958333333333333,-0.0948148148148148],[0.04083333333333338,-0.060370370370370414],[0.04083333333333338,-0.060370370370370414],[0.12572916666666673,-0.03611111111111111],[0.1984375,0.011666666666666582],[0.2179166666666667,0.03222222222222218],[0.26020833333333326,0.0485185185185186],[0.28312499999999996,0.05259259259259255],[0.3337500000000001,0.0668518518518519],[0.36208333333333326,0.06740740740740736],[0.3712500000000001,0.075],[0.3720833333333334,0.0742592592592593],[0.3709374999999999,0.0698148148148149],[0.35614583333333344,0.0787037037037037],[0.35218749999999993,0.08000000000000008],[0.35052083333333334,0.0794444444444444],[0.34885416666666674,0.07888888888888893],[0.34885416666666674,0.07888888888888893],[0.346875,0.07833333333333325],[0.34260416666666677,0.07574074074074069],[0.3502083333333334,0.06944444444444445],[0.34479166666666666,0.06444444444444436],[0.3310416666666666,0.07074074074074083],[0.3310416666666666,0.07074074074074083],[0.3186458333333334,0.06518518518518526],[0.28624999999999995,0.032407407407407406],[0.26145833333333335,0.013518518518518435],[0.18395833333333325,-0.0418518518518519],[0.10645833333333338,-0.09722222222222222],[0.02833333333333338,-0.12333333333333338],[0.02833333333333338,-0.12333333333333338],[-0.06427083333333337,-0.10981481481481484],[-0.14333333333333337,-0.12462962962962965],[-0.20906250000000004,-0.14055555555555552],[-0.2833333333333333,-0.16277777777777774],[-0.36531250000000004,-0.19574074074074072],[-0.41864583333333333,-0.20574074074074078],[-0.4732291666666667,-0.23259259259259263],[-0.4764583333333333,-0.21703703703703703],[-0.4335416666666667,-0.1801851851851852],[-0.3763541666666666,-0.12851851851851848],[-0.3172916666666667,-0.16259259259259262],[-0.25354166666666667,-0.152962962962963],[-0.19010416666666666,-0.14351851851851852],[-0.12666666666666668,-0.13407407407407404],[-0.05947916666666669,-0.11962962962962967],[0.007708333333333309,-0.1051851851851852],[0.07906250000000009,-0.0690740740740741],[0.1632291666666667,-0.03851851851851843],[0.20125000000000004,-0.029259259259259176],[0.22395833333333334,-0.05462962962962963],[0.30447916666666663,-0.034999999999999955],[0.3180208333333333,-0.037037037037037035],[0.3481250000000001,0.0012962962962963806],[0.37302083333333325,0.035740740740740656],[0.39906249999999993,0.07222222222222222],[0.42510416666666656,0.10870370370370379],[0.44072916666666656,0.09574074074074082],[0.4435416666666666,0.08833333333333342],[0.46333333333333326,0.07666666666666662],[0.48312499999999997,0.06500000000000004],[0.4469791666666666,0.08648148148148156],[0.4683333333333332,0.10944444444444448],[0.42864583333333334,0.08981481481481482],[0.3941666666666668,0.07407407407407407],[0.3420833333333334,0.057962962962962876],[0.28406250000000005,0.026666666666666623],[0.21739583333333337,0.020740740740740823],[0.13958333333333334,0.03166666666666671],[0.04479166666666667,0.04685185185185177],[-0.05,0.062037037037037036],[-0.12479166666666662,0.036666666666666584],[-0.2155208333333333,0.010925925925925884],[-0.2617708333333333,-0.012592592592592508],[-0.3134375,-0.01703703703703712],[-0.28395833333333337,-0.04759259259259268],[-0.2485416666666667,-0.06296296296296296],[-0.1967708333333333,-0.07999999999999997],[-0.1967708333333333,-0.07999999999999997],[-0.12770833333333337,-0.09351851851851851],[-0.12770833333333337,-0.09351851851851851],[-0.07427083333333329,-0.0940740740740741],[0.0036458333333333334,-0.12018518518518514],[0.06489583333333329,-0.13388888888888892],[0.13333333333333333,-0.14240740740740737],[0.21020833333333327,-0.16203703703703703],[0.2690624999999999,-0.18555555555555553],[0.29635416666666664,-0.18111111111111114],[0.32833333333333337,-0.16444444444444448],[0.32354166666666656,-0.13370370370370369],[0.32354166666666656,-0.13370370370370369],[0.31062500000000004,-0.12851851851851848],[0.3363541666666668,-0.13037037037037033],[0.33468749999999997,-0.11129629629629634],[0.32614583333333325,-0.08777777777777773],[0.31760416666666674,-0.06425925925925924],[0.3138541666666666,-0.03370370370370379],[0.34427083333333336,-0.010740740740740657],[0.3455208333333334,0.01444444444444436],[0.34010416666666665,0.024629629629629547],[0.3462500000000001,0.013518518518518435],[0.3564583333333334,0.016111111111111194],[0.34364583333333343,0.012777777777777735],[0.3232291666666666,0.012592592592592508],[0.31927083333333334,-0.006851851851851936],[0.32697916666666677,-0.011111111111111112],[0.3086458333333333,-0.006296296296296254],[0.2982291666666666,-0.022592592592592678],[0.2982291666666666,-0.022592592592592678],[0.26510416666666664,-0.022777777777777692],[0.24854166666666658,-0.025185185185185227],[0.24770833333333328,-0.02111111111111107],[0.24770833333333328,-0.02111111111111107],[0.2542708333333332,-0.03740740740740749],[0.2542708333333332,-0.03740740740740749],[0.23302083333333337,-0.03537037037037041],[0.23302083333333337,-0.03537037037037041],[0.23406250000000003,-0.04148148148148144],[0.23406250000000003,-0.04148148148148144],[0.2522916666666667,-0.05129629629629638],[0.2522916666666667,-0.05129629629629638],[0.2743750000000001,-0.07037037037037037],[0.2743750000000001,-0.07037037037037037],[0.2686458333333334,-0.09907407407407408],[0.2686458333333334,-0.09907407407407408],[0.24510416666666662,-0.11722222222222224],[0.24510416666666662,-0.11722222222222224],[0.24989583333333343,-0.15],[0.24989583333333343,-0.15],[0.25197916666666675,-0.21277777777777773],[0.25197916666666675,-0.21277777777777773],[0.23406250000000003,-0.2644444444444445],[0.23406250000000003,-0.2644444444444445],[0.21062500000000003,-0.2853703703703704],[0.21062500000000003,-0.2853703703703704],[0.21218750000000006,-0.327962962962963],[0.19697916666666657,-0.35462962962962963],[0.19697916666666657,-0.35462962962962963],[0.17302083333333323,-0.38185185185185183],[0.12885416666666671,-0.38925925925925925],[0.12531249999999997,-0.392037037037037],[0.1131249999999999,-0.3972222222222222],[0.09489583333333323,-0.41518518518518516],[0.09291666666666672,-0.39351851851851855],[0.10854166666666672,-0.3442592592592592],[0.08687500000000009,-0.34759259259259256],[0.08468749999999996,-0.33648148148148144],[0.08937499999999995,-0.3446296296296297],[0.08572916666666662,-0.33555555555555555],[0.06843750000000005,-0.3374074074074074],[0.051145833333333356,-0.33925925925925926],[0.03895833333333331,-0.3124074074074074],[0.027187500000000024,-0.2742592592592593],[0.025729166666666713,-0.26240740740740737],[0.02833333333333338,-0.2814814814814815],[0.04541666666666669,-0.28481481481481485],[0.050729166666666714,-0.30037037037037034],[0.05791666666666669,-0.2992592592592593],[0.06510416666666667,-0.29814814814814816],[0.07718749999999991,-0.3235185185185185],[0.08927083333333338,-0.3501851851851852],[0.12145833333333324,-0.40111111111111114],[0.15364583333333334,-0.45203703703703707],[0.1304166666666667,-0.47314814814814815],[0.103125,-0.4938888888888889],[0.09114583333333333,-0.4792592592592593],[0.09114583333333333,-0.4792592592592593],[0.08083333333333324,-0.4940740740740741],[0.08083333333333324,-0.4940740740740741],[0.07531249999999995,-0.5085185185185186],[0.06927083333333334,-0.5196296296296297],[0.06927083333333334,-0.5196296296296297],[0.075,-0.5068518518518518],[0.08552083333333324,-0.49444444444444446],[0.07864583333333333,-0.48111111111111116],[0.06739583333333338,-0.47555555555555556],[0.07312500000000005,-0.4781481481481481],[0.10374999999999991,-0.47851851851851845],[0.11760416666666676,-0.5131481481481482],[0.12989583333333338,-0.5001851851851852],[0.1336458333333333,-0.49129629629629634],[0.14479166666666668,-0.45870370370370367],[0.14739583333333334,-0.4474074074074075],[0.14614583333333328,-0.4401851851851852],[0.15927083333333342,-0.4438888888888889],[0.15750000000000006,-0.4425925925925926],[0.15572916666666667,-0.4412962962962963],[0.1400000000000001,-0.4455555555555556],[0.1446875000000001,-0.4179629629629629],[0.14020833333333324,-0.4153703703703704],[0.13572916666666662,-0.41277777777777774],[0.12687499999999996,-0.442037037037037],[0.1165625000000001,-0.45759259259259266],[0.1053124999999999,-0.4674074074074074],[0.08624999999999995,-0.4557407407407408],[0.08177083333333333,-0.43648148148148147],[0.07729166666666672,-0.4172222222222222],[0.06291666666666665,-0.38870370370370366]]","[[-0.07614583333333336,0.07888888888888893,0.000300000000741818],[-0.07614583333333336,0.07888888888888893,0.04099999999999682],[-0.08947916666666664,0.08296296296296288,0.04540000000223188],[-0.10281250000000004,0.08703703703703704,0.06199999999999761],[-0.11177083333333329,0.0837037037037038,0.0786999999992517],[-0.12072916666666664,0.08037037037037033,0.09530000000074068],[-0.1326041666666666,0.08000000000000008,0.11199999999999477],[-0.1420833333333333,0.08407407407407404,0.12860000000148375],[-0.15,0.014629629629629588,0.14799999999999613],[-0.16979166666666667,-0.04259259259259259,0.16199999999999903],[-0.18458333333333338,-0.08574074074074076,0.178600000001488],[-0.18374999999999997,-0.11092592592592589,0.19569999999924903],[-0.20645833333333338,-0.19666666666666666,0.21569999999925216],[-0.22770833333333335,-0.28351851851851856,0.22860000000148517],[-0.2445833333333333,-0.3677777777777778,0.24530000000073926],[-0.24958333333333335,-0.462037037037037,0.26199999999999335],[-0.275,-0.572037037037037,0.27860000000148943],[-0.30041666666666667,-0.6820370370370371,0.2953000000007435],[-0.3177083333333333,-0.7125925925925927,0.31269999999925346],[-0.3129166666666666,-0.7251851851851853,0.3286000000014866],[-0.3051041666666666,-0.7353703703703705,0.34540000000222904],[-0.3129166666666666,-0.7635185185185185,0.36210000000149023],[-0.31697916666666665,-0.7598148148148148,0.37869999999924886],[-0.29031250000000003,-0.72,0.39530000000074494],[-0.26291666666666663,-0.6918518518518519,0.4121000000014874],[-0.24739583333333334,-0.6537037037037037,0.4286999999992531],[-0.2341666666666666,-0.6331481481481481,0.4458000000007445],[-0.2273958333333333,-0.6288888888888889,0.4619999999999962],[-0.20364583333333333,-0.6283333333333333,0.4786999999992503],[-0.20364583333333333,-0.6283333333333333,0.49549999999999983],[-0.19010416666666666,-0.657962962962963,0.5121000000014888],[-0.19010416666666666,-0.657962962962963,0.5288000000007429],[-0.1648958333333333,-0.6577777777777778,0.5454000000022319],[-0.1648958333333333,-0.6577777777777778,0.5619999999999976],[-0.1492708333333333,-0.6605555555555556,0.5786999999992517],[-0.1492708333333333,-0.6605555555555556,0.5953000000007407],[-0.1258333333333333,-0.6551851851851852,0.6121999999992482],[-0.1258333333333333,-0.6551851851851852,0.6286000000014837],[-0.1538541666666667,-0.7257407407407407,0.6453000000007449],[-0.1538541666666667,-0.7257407407407407,0.661999999999999],[-0.18260416666666662,-0.7846296296296296,0.6786999999992531],[-0.18260416666666662,-0.7846296296296296,0.6953000000007421],[-0.2029166666666666,-0.8248148148148148,0.7119999999999962],[-0.2029166666666666,-0.8248148148148148,0.7286000000014852],[-0.1998958333333333,-0.8172222222222223,0.7454000000022347],[-0.1998958333333333,-0.8172222222222223,0.7621000000014888],[-0.19583333333333333,-0.7861111111111111,0.7786999999992545],[-0.19583333333333333,-0.7861111111111111,0.7953000000007435],[-0.2111458333333334,-0.7627777777777778,0.8119999999999976],[-0.22041666666666668,-0.741111111111111,0.833900000002231],[-0.22041666666666668,-0.741111111111111,0.8453000000007407],[-0.24947916666666667,-0.7407407407407407,0.8619999999999948],[-0.24947916666666667,-0.7407407407407407,0.8786999999992489],[-0.26135416666666667,-0.71,0.8953000000007449],[-0.29010416666666666,-0.6759259259259259,0.9148000000007386],[-0.29958333333333337,-0.600925925925926,0.9288000000007415],[-0.3054166666666667,-0.5453703703703704,0.9463000000007398],[-0.30572916666666666,-0.5077777777777778,0.9624999999999986],[-0.3234375,-0.48777777777777775,0.9786000000014852],[-0.34260416666666665,-0.48499999999999993,0.9953000000007393],[-0.34260416666666665,-0.48499999999999993,1.0121000000014888],[-0.3467708333333333,-0.465,1.0286999999992545],[-0.3533333333333334,-0.43555555555555553,1.0479999999999947],[-0.35479166666666667,-0.41703703703703704,1.062400000002235],[-0.3580208333333334,-0.38481481481481483,1.07880000000074],[-0.3377083333333334,-0.3648148148148148,1.0953000000007407],[-0.31697916666666665,-0.35537037037037034,1.1119000000022297],[-0.3109375,-0.3357407407407408,1.1286000000014837],[-0.31312500000000004,-0.317037037037037,1.146499999999996],[-0.31364583333333335,-0.3068518518518518,1.161999999999999],[-0.3063541666666667,-0.3012962962962963,1.178600000001488],[-0.30437500000000006,-0.29666666666666663,1.195300000000742],[-0.30437500000000006,-0.29666666666666663,1.2119999999999962],[-0.3140625,-0.2633333333333333,1.2286000000014852],[-0.3237499999999999,-0.22333333333333338,1.2454999999999998],[-0.33927083333333335,-0.22444444444444442,1.2619999999999933],[-0.37072916666666667,-0.2294444444444444,1.2786000000014894],[-0.3970833333333334,-0.22666666666666663,1.2953000000007435],[-0.3723958333333333,-0.15629629629629627,1.3159999999999954],[-0.30062500000000003,-0.08148148148148149,1.3311999999992494],[-0.2367708333333333,-0.01444444444444436,1.34619999999925],[-0.16375000000000003,0.06574074074074074,1.3619000000022297],[-0.09395833333333338,0.13425925925925927,1.3786000000014837],[-0.02333333333333331,0.16925925925925922,1.395300000000745],[0.04729166666666664,0.19759259259259268,1.4146000000014851],[0.11854166666666661,0.22037037037037038,1.4286999999992531],[0.2048958333333334,0.26648148148148143,1.4454000000022305],[0.29447916666666674,0.33055555555555555,1.4619999999999962],[0.32270833333333326,0.3042592592592592,1.4786000000014852],[0.2952083333333334,0.2875925925925925,1.4954000000022347],[0.2534374999999999,0.27148148148148155,1.5149999999999935],[0.2015625,0.25685185185185194,1.5294999999999987],[0.1709374999999999,0.2511111111111112,1.5453000000007435],[0.1474999999999999,0.24240740740740738,1.5619999999999976],[0.09385416666666657,0.21648148148148144,1.5786000000014866],[0.03958333333333333,0.19611111111111107,1.5953000000007407],[-0.040625,0.17388888888888884,1.614699999999253],[-0.14479166666666668,0.11407407407407412,1.6286000000014837],[-0.2202083333333333,0.0794444444444444,1.6451999999992495],[-0.30343749999999997,0.06222222222222226,1.661900000002234],[-0.3359375,0.021481481481481525,1.6786999999992531],[-0.36781250000000004,0.005370370370370328,1.695300000000742],[-0.42562500000000003,-0.017592592592592594,1.714499999999994],[-0.49937499999999996,-0.04722222222222222,1.7286000000014852],[-0.5180208333333334,-0.04592592592592584,1.7453000000007393],[-0.5057291666666667,-0.009259259259259259,1.7619999999999933],[-0.46,-0.0022222222222223064,1.7834000000022314],[-0.4117708333333333,0.03425925925925926,1.7979000000022296],[-0.37093750000000003,0.07759259259259255,1.815800000000742],[-0.31906249999999997,0.07888888888888893,1.82880000000074],[-0.29406249999999995,0.11037037037037041,1.8453000000007407],[-0.26968749999999997,0.11722222222222214,1.8619000000022297],[-0.23552083333333335,0.1618518518518518,1.8791000000014861],[-0.1866666666666667,0.20574074074074078,1.8954000000022333],[-0.16614583333333333,0.21148148148148158,1.914900000002234],[-0.1765625,0.18185185185185193,1.928600000001488],[-0.19083333333333338,0.1655555555555555,1.9459000000022328],[-0.2091666666666666,0.11833333333333329,1.9621000000014845],[-0.22000000000000006,0.1037037037037037,1.9786000000014852],[-0.21770833333333334,0.11444444444444436,1.9953000000007393],[-0.22281249999999997,0.12185185185185177,2.0159999999999982],[-0.21739583333333337,0.11888888888888897,2.02919999999925],[-0.20968749999999994,0.10259259259259255,2.0453000000007435],[-0.19885416666666664,0.09351851851851851,2.0619000000022325],[-0.20083333333333328,0.102962962962963,2.07880000000074],[-0.1938541666666667,0.0911111111111112,2.095800000000743],[-0.1938541666666667,0.0911111111111112,2.1144999999999996],[-0.18374999999999997,0.09796296296296292,2.128699999999249],[-0.17781250000000004,0.14518518518518514,2.145300000000745],[-0.1796875,0.14870370370370362,2.161999999999999],[-0.20729166666666668,0.11925925925925922,2.178600000001488],[-0.2265625,0.10500000000000008,2.1954000000022305],[-0.2563541666666667,0.10111111111111115,2.2131000000014893],[-0.2929166666666667,0.08537037037037042,2.228600000001485],[-0.3289583333333333,0.06740740740740736,2.2453000000007393],[-0.34354166666666663,0.03981481481481482,2.2619999999999933],[-0.34354166666666663,0.03981481481481482,2.2786000000014894],[-0.36041666666666666,0.032407407407407406,2.2953000000007435],[-0.38468749999999996,0.03481481481481473,2.3125],[-0.39656250000000004,0.03425925925925926,2.3286000000014866],[-0.40083333333333326,0.06092592592592588,2.3453000000007407],[-0.3898958333333333,0.07222222222222222,2.3619000000022297],[-0.39437500000000003,0.05092592592592592,2.3786000000014837],[-0.4063541666666667,0.02629629629629638,2.3951999999992495],[-0.39427083333333335,0.02629629629629638,2.4121000000014874],[-0.39427083333333335,0.02629629629629638,2.428600000001488],[-0.3910416666666666,0.007962962962962878,2.445300000000742],[-0.40249999999999997,0.017592592592592594,2.461999999999996],[-0.42218749999999994,0.025925925925925925,2.478600000001485],[-0.4421875,0.01314814814814819,2.4954000000022347],[-0.4421875,0.01314814814814819,2.512699999999249],[-0.4547916666666667,-0.01574074074074074,2.5286999999992545],[-0.46822916666666664,-0.06185185185185181,2.5453000000007435],[-0.478125,-0.08148148148148149,2.5619000000022325],[-0.47760416666666666,-0.08851851851851854,2.5786000000014866],[-0.46333333333333326,-0.06944444444444445,2.5953000000007407],[-0.4907291666666667,-0.10611111111111113,2.613199999999253],[-0.4926041666666666,-0.09129629629629632,2.6286000000014837],[-0.48114583333333333,-0.08925925925925923,2.645300000000745],[-0.46812499999999996,-0.08481481481481483,2.661999999999999],[-0.4746875,-0.10796296296296298,2.678699999999253],[-0.47010416666666666,-0.12092592592592595,2.7003000000007447],[-0.47010416666666666,-0.12092592592592595,2.711999999999996],[-0.4594791666666667,-0.13129629629629624,2.728600000001485],[-0.4594791666666667,-0.13129629629629624,2.7453000000007393],[-0.4547916666666667,-0.13333333333333333,2.7619000000022282],[-0.4547916666666667,-0.13333333333333333,2.7786000000014894],[-0.44635416666666666,-0.1425925925925926,2.7953000000007435],[-0.44635416666666666,-0.1425925925925926,2.8119999999999976],[-0.39187500000000003,-0.1514814814814815,2.8286999999992517],[-0.39187500000000003,-0.1514814814814815,2.8453000000007407],[-0.33468749999999997,-0.1270370370370371,2.8619000000022297],[-0.33468749999999997,-0.1270370370370371,2.8786000000014837],[-0.2752083333333334,-0.13055555555555556,2.895300000000745],[-0.2752083333333334,-0.13055555555555556,2.911900000002234],[-0.24729166666666663,-0.14388888888888887,2.928600000001488],[-0.20895833333333336,-0.1398148148148148,2.9491999999992515],[-0.20895833333333336,-0.1398148148148148,2.961999999999996],[-0.13187500000000002,-0.11518518518518517,2.9788000000007386],[-0.13187500000000002,-0.11518518518518517,2.9953000000007393],[-0.03958333333333333,-0.0948148148148148,3.012100000001489],[-0.03958333333333333,-0.0948148148148148,3.0286000000014894],[0.04083333333333338,-0.060370370370370414,3.0453000000007435],[0.04083333333333338,-0.060370370370370414,3.0619999999999976],[0.12572916666666673,-0.03611111111111111,3.0786999999992517],[0.1984375,0.011666666666666582,3.097999999999999],[0.2179166666666667,0.03222222222222218,3.1149000000022298],[0.26020833333333326,0.0485185185185186,3.128699999999249],[0.28312499999999996,0.05259259259259255,3.145300000000745],[0.3337500000000001,0.0668518518518519,3.1624999999999943],[0.36208333333333326,0.06740740740740736,3.178600000001488],[0.3712500000000001,0.075,3.1954000000022305],[0.3720833333333334,0.0742592592592593,3.211900000002231],[0.3709374999999999,0.0698148148148149,3.228600000001485],[0.35614583333333344,0.0787037037037037,3.245199999999251],[0.35218749999999993,0.08000000000000008,3.2619000000022282],[0.35052083333333334,0.0794444444444444,3.2786000000014894],[0.34885416666666674,0.07888888888888893,3.2989000000022344],[0.34885416666666674,0.07888888888888893,3.3119000000022325],[0.346875,0.07833333333333325,3.3286000000014866],[0.34260416666666677,0.07574074074074069,3.3453000000007407],[0.3502083333333334,0.06944444444444445,3.3619999999999948],[0.34479166666666666,0.06444444444444436,3.3818000000007444],[0.3310416666666666,0.07074074074074083,3.3954999999999984],[0.3310416666666666,0.07074074074074083,3.411999999999999],[0.3186458333333334,0.06518518518518526,3.428600000001488],[0.28624999999999995,0.032407407407407406,3.4454999999999956],[0.26145833333333335,0.013518518518518435,3.461999999999996],[0.18395833333333325,-0.0418518518518519,3.4813000000007435],[0.10645833333333338,-0.09722222222222222,3.495199999999251],[0.02833333333333338,-0.12333333333333338,3.5164999999999935],[0.02833333333333338,-0.12333333333333338,3.5286000000014894],[-0.06427083333333337,-0.10981481481481484,3.5453000000007435],[-0.14333333333333337,-0.12462962962962965,3.5619000000022325],[-0.20906250000000004,-0.14055555555555552,3.5784999999999982],[-0.2833333333333333,-0.16277777777777774,3.5953000000007407],[-0.36531250000000004,-0.19574074074074072,3.6129999999999995],[-0.41864583333333333,-0.20574074074074078,3.6286000000014837],[-0.4732291666666667,-0.23259259259259263,3.647900000002231],[-0.4764583333333333,-0.21703703703703703,3.6646999999992502],[-0.4335416666666667,-0.1801851851851852,3.6788000000007415],[-0.3763541666666666,-0.12851851851851848,3.6954000000022305],[-0.3172916666666667,-0.16259259259259262,3.7154999999999987],[-0.25354166666666667,-0.152962962962963,3.7313000000007435],[-0.19010416666666666,-0.14351851851851852,3.745999999999995],[-0.12666666666666668,-0.13407407407407404,3.7646000000014865],[-0.05947916666666669,-0.11962962962962967,3.7786999999992545],[0.007708333333333309,-0.1051851851851852,3.795400000002232],[0.07906250000000009,-0.0690740740740741,3.8159999999999954],[0.1632291666666667,-0.03851851851851843,3.8296000000014843],[0.20125000000000004,-0.029259259259259176,3.845499999999994],[0.22395833333333334,-0.05462962962962963,3.8619999999999948],[0.30447916666666663,-0.034999999999999955,3.882400000002235],[0.3180208333333333,-0.037037037037037035,3.897100000001487],[0.3481250000000001,0.0012962962962963806,3.9154000000022293],[0.37302083333333325,0.035740740740740656,3.931300000000739],[0.39906249999999993,0.07222222222222222,3.9461000000014863],[0.42510416666666656,0.10870370370370379,3.961900000002231],[0.44072916666666656,0.09574074074074082,3.9791999999992527],[0.4435416666666666,0.08833333333333342,3.995199999999251],[0.46333333333333326,0.07666666666666662,4.012999999999998],[0.48312499999999997,0.06500000000000004,4.028600000001489],[0.4469791666666666,0.08648148148148156,4.047800000000741],[0.4683333333333332,0.10944444444444448,4.0619000000022325],[0.42864583333333334,0.08981481481481482,4.078699999999252],[0.3941666666666668,0.07407407407407407,4.095199999999252],[0.3420833333333334,0.057962962962962876,4.114999999999995],[0.28406250000000005,0.026666666666666623,4.128600000001484],[0.21739583333333337,0.020740740740740823,4.14580000000074],[0.13958333333333334,0.03166666666666671,4.164400000002232],[0.04479166666666667,0.04685185185185177,4.178600000001488],[-0.05,0.062037037037037036,4.195199999999254],[-0.12479166666666662,0.036666666666666584,4.214800000000743],[-0.2155208333333333,0.010925925925925884,4.228600000001485],[-0.2617708333333333,-0.012592592592592508,4.245300000000739],[-0.3134375,-0.01703703703703712,4.2646000000014865],[-0.28395833333333337,-0.04759259259259268,4.278600000001489],[-0.2485416666666667,-0.06296296296296296,4.2953000000007435],[-0.1967708333333333,-0.07999999999999997,4.316699999999251],[-0.1967708333333333,-0.07999999999999997,4.328699999999252],[-0.12770833333333337,-0.09351851851851851,4.345300000000741],[-0.12770833333333337,-0.09351851851851851,4.36210000000149],[-0.07427083333333329,-0.0940740740740741,4.38230000000074],[0.0036458333333333334,-0.12018518518518514,4.395999999999994],[0.06489583333333329,-0.13388888888888892,4.412100000001487],[0.13333333333333333,-0.14240740740740737,4.4288000000007415],[0.21020833333333327,-0.16203703703703703,4.448699999999249],[0.2690624999999999,-0.18555555555555553,4.464100000001487],[0.29635416666666664,-0.18111111111111114,4.47869999999925],[0.32833333333333337,-0.16444444444444448,4.498199999999251],[0.32354166666666656,-0.13370370370370369,4.520300000000745],[0.32354166666666656,-0.13370370370370369,4.529100000001485],[0.31062500000000004,-0.12851851851851848,4.5489999999999995],[0.3363541666666668,-0.13037037037037033,4.565800000000742],[0.33468749999999997,-0.11129629629629634,4.579400000002231],[0.32614583333333325,-0.08777777777777773,4.595199999999252],[0.31760416666666674,-0.06425925925925924,4.616800000000744],[0.3138541666666666,-0.03370370370370379,4.632600000001489],[0.34427083333333336,-0.010740740740740657,4.64730000000074],[0.3455208333333334,0.01444444444444436,4.662100000001487],[0.34010416666666665,0.024629629629629547,4.681600000001488],[0.3462500000000001,0.013518518518518435,4.6954000000022305],[0.3564583333333334,0.016111111111111194,4.714900000002231],[0.34364583333333343,0.012777777777777735,4.728999999999999],[0.3232291666666666,0.012592592592592508,4.74890000000223],[0.31927083333333334,-0.006851851851851936,4.762800000000745],[0.32697916666666677,-0.011111111111111112,4.778800000000743],[0.3086458333333333,-0.006296296296296254,4.797999999999995],[0.2982291666666666,-0.022592592592592678,4.815999999999995],[0.2982291666666666,-0.022592592592592678,4.828600000001487],[0.26510416666666664,-0.022777777777777692,4.845300000000741],[0.24854166666666658,-0.025185185185185227,4.86190000000223],[0.24770833333333328,-0.02111111111111107,4.881199999999254],[0.24770833333333328,-0.02111111111111107,4.8951999999992495],[0.2542708333333332,-0.03740740740740749,4.911999999999999],[0.2542708333333332,-0.03740740740740749,4.933100000001488],[0.23302083333333337,-0.03537037037037041,4.9454000000022305],[0.23302083333333337,-0.03537037037037041,4.961999999999996],[0.23406250000000003,-0.04148148148148144,4.986600000001488],[0.23406250000000003,-0.04148148148148144,4.995600000001488],[0.2522916666666667,-0.05129629629629638,5.012300000000742],[0.2522916666666667,-0.05129629629629638,5.0286999999992545],[0.2743750000000001,-0.07037037037037037,5.0504999999999995],[0.2743750000000001,-0.07037037037037037,5.061999999999998],[0.2686458333333334,-0.09907407407407408,5.07880000000074],[0.2686458333333334,-0.09907407407407408,5.1044999999999945],[0.24510416666666662,-0.11722222222222224,5.11210000000149],[0.24510416666666662,-0.11722222222222224,5.128800000000744],[0.24989583333333343,-0.15,5.145300000000745],[0.24989583333333343,-0.15,5.165499999999994],[0.25197916666666675,-0.21277777777777773,5.178600000001488],[0.25197916666666675,-0.21277777777777773,5.195300000000742],[0.23406250000000003,-0.2644444444444445,5.211999999999996],[0.23406250000000003,-0.2644444444444445,5.22869999999925],[0.21062500000000003,-0.2853703703703704,5.245300000000739],[0.21062500000000003,-0.2853703703703704,5.265300000000742],[0.21218750000000006,-0.327962962962963,5.278600000001489],[0.19697916666666657,-0.35462962962962963,5.2986000000014855],[0.19697916666666657,-0.35462962962962963,5.3119000000022325],[0.17302083333333323,-0.38185185185185183,5.328600000001487],[0.12885416666666671,-0.38925925925925925,5.345199999999252],[0.12531249999999997,-0.392037037037037,5.36190000000223],[0.1131249999999999,-0.3972222222222222,5.381999999999998],[0.09489583333333323,-0.41518518518518516,5.397999999999996],[0.09291666666666672,-0.39351851851851855,5.415199999999253],[0.10854166666666672,-0.3442592592592592,5.428600000001488],[0.08687500000000009,-0.34759259259259256,5.445199999999254],[0.08468749999999996,-0.33648148148148144,5.461900000002231],[0.08937499999999995,-0.3446296296296297,5.478900000002234],[0.08572916666666662,-0.33555555555555555,5.495300000000739],[0.06843750000000005,-0.3374074074074074,5.517400000002233],[0.051145833333333356,-0.33925925925925926,5.532800000000741],[0.03895833333333331,-0.3124074074074074,5.548199999999248],[0.027187500000000024,-0.2742592592592593,5.5626999999992535],[0.025729166666666713,-0.26240740740740737,5.578499999999998],[0.02833333333333338,-0.2814814814814815,5.595199999999252],[0.04541666666666669,-0.28481481481481485,5.615699999999251],[0.050729166666666714,-0.30037037037037034,5.628699999999249],[0.05791666666666669,-0.2992592592592593,5.6451999999992495],[0.06510416666666667,-0.29814814814814816,5.661900000002234],[0.07718749999999991,-0.3235185185185185,5.679600000001486],[0.08927083333333338,-0.3501851851851852,5.695199999999254],[0.12145833333333324,-0.40111111111111114,5.715100000001485],[0.15364583333333334,-0.45203703703703707,5.731999999999999],[0.1304166666666667,-0.47314814814814815,5.746199999999249],[0.103125,-0.4938888888888889,5.761900000002228],[0.09114583333333333,-0.4792592592592593,5.783900000002234],[0.09114583333333333,-0.4792592592592593,5.8065],[0.08083333333333324,-0.4940740740740741,5.819300000000744],[0.08083333333333324,-0.4940740740740741,5.828600000001487],[0.07531249999999995,-0.5085185185185186,5.845400000002229],[0.06927083333333334,-0.5196296296296297,5.86190000000223],[0.06927083333333334,-0.5196296296296297,5.878499999999995],[0.075,-0.5068518518518518,5.895300000000745],[0.08552083333333324,-0.49444444444444446,5.915400000002229],[0.07864583333333333,-0.48111111111111116,5.928600000001488],[0.06739583333333338,-0.47555555555555556,5.945199999999254],[0.07312500000000005,-0.4781481481481481,5.961900000002231],[0.10374999999999991,-0.47851851851851845,5.97869999999925],[0.11760416666666676,-0.5131481481481482,5.995300000000739],[0.12989583333333338,-0.5001851851851852,6.014400000002233],[0.1336458333333333,-0.49129629629629634,6.028600000001489],[0.14479166666666668,-0.45870370370370367,6.045600000001485],[0.14739583333333334,-0.4474074074074075,6.0619000000022325],[0.14614583333333328,-0.4401851851851852,6.078900000002228],[0.15927083333333342,-0.4438888888888889,6.095199999999252],[0.15750000000000006,-0.4425925925925926,6.113900000002232],[0.15572916666666667,-0.4412962962962963,6.128499999999995],[0.1400000000000001,-0.4455555555555556,6.1451999999992495],[0.1446875000000001,-0.4179629629629629,6.161900000002234],[0.14020833333333324,-0.4153703703703704,6.1785],[0.13572916666666662,-0.41277777777777774,6.195199999999254],[0.12687499999999996,-0.442037037037037,6.212999999999994],[0.1165625000000001,-0.45759259259259266,6.228600000001485],[0.1053124999999999,-0.4674074074074074,6.245199999999251],[0.08624999999999995,-0.4557407407407408,6.261900000002228],[0.08177083333333333,-0.43648148148148147,6.278499999999994],[0.07729166666666672,-0.4172222222222222,6.295199999999248],[0.06291666666666665,-0.38870370370370366,6.314699999999249]]","[0.000300000000741818,0.04099999999999682,0.04540000000223188,0.06199999999999761,0.0786999999992517,0.09530000000074068,0.11199999999999477,0.12860000000148375,0.14799999999999613,0.16199999999999903,0.178600000001488,0.19569999999924903,0.21569999999925216,0.22860000000148517,0.24530000000073926,0.26199999999999335,0.27860000000148943,0.2953000000007435,0.31269999999925346,0.3286000000014866,0.34540000000222904,0.36210000000149023,0.37869999999924886,0.39530000000074494,0.4121000000014874,0.4286999999992531,0.4458000000007445,0.4619999999999962,0.4786999999992503,0.49549999999999983,0.5121000000014888,0.5288000000007429,0.5454000000022319,0.5619999999999976,0.5786999999992517,0.5953000000007407,0.6121999999992482,0.6286000000014837,0.6453000000007449,0.661999999999999,0.6786999999992531,0.6953000000007421,0.7119999999999962,0.7286000000014852,0.7454000000022347,0.7621000000014888,0.7786999999992545,0.7953000000007435,0.8119999999999976,0.833900000002231,0.8453000000007407,0.8619999999999948,0.8786999999992489,0.8953000000007449,0.9148000000007386,0.9288000000007415,0.9463000000007398,0.9624999999999986,0.9786000000014852,0.9953000000007393,1.0121000000014888,1.0286999999992545,1.0479999999999947,1.062400000002235,1.07880000000074,1.0953000000007407,1.1119000000022297,1.1286000000014837,1.146499999999996,1.161999999999999,1.178600000001488,1.195300000000742,1.2119999999999962,1.2286000000014852,1.2454999999999998,1.2619999999999933,1.2786000000014894,1.2953000000007435,1.3159999999999954,1.3311999999992494,1.34619999999925,1.3619000000022297,1.3786000000014837,1.395300000000745,1.4146000000014851,1.4286999999992531,1.4454000000022305,1.4619999999999962,1.4786000000014852,1.4954000000022347,1.5149999999999935,1.5294999999999987,1.5453000000007435,1.5619999999999976,1.5786000000014866,1.5953000000007407,1.614699999999253,1.6286000000014837,1.6451999999992495,1.661900000002234,1.6786999999992531,1.695300000000742,1.714499999999994,1.7286000000014852,1.7453000000007393,1.7619999999999933,1.7834000000022314,1.7979000000022296,1.815800000000742,1.82880000000074,1.8453000000007407,1.8619000000022297,1.8791000000014861,1.8954000000022333,1.914900000002234,1.928600000001488,1.9459000000022328,1.9621000000014845,1.9786000000014852,1.9953000000007393,2.0159999999999982,2.02919999999925,2.0453000000007435,2.0619000000022325,2.07880000000074,2.095800000000743,2.1144999999999996,2.128699999999249,2.145300000000745,2.161999999999999,2.178600000001488,2.1954000000022305,2.2131000000014893,2.228600000001485,2.2453000000007393,2.2619999999999933,2.2786000000014894,2.2953000000007435,2.3125,2.3286000000014866,2.3453000000007407,2.3619000000022297,2.3786000000014837,2.3951999999992495,2.4121000000014874,2.428600000001488,2.445300000000742,2.461999999999996,2.478600000001485,2.4954000000022347,2.512699999999249,2.5286999999992545,2.5453000000007435,2.5619000000022325,2.5786000000014866,2.5953000000007407,2.613199999999253,2.6286000000014837,2.645300000000745,2.661999999999999,2.678699999999253,2.7003000000007447,2.711999999999996,2.728600000001485,2.7453000000007393,2.7619000000022282,2.7786000000014894,2.7953000000007435,2.8119999999999976,2.8286999999992517,2.8453000000007407,2.8619000000022297,2.8786000000014837,2.895300000000745,2.911900000002234,2.928600000001488,2.9491999999992515,2.961999999999996,2.9788000000007386,2.9953000000007393,3.012100000001489,3.0286000000014894,3.0453000000007435,3.0619999999999976,3.0786999999992517,3.097999999999999,3.1149000000022298,3.128699999999249,3.145300000000745,3.1624999999999943,3.178600000001488,3.1954000000022305,3.211900000002231,3.228600000001485,3.245199999999251,3.2619000000022282,3.2786000000014894,3.2989000000022344,3.3119000000022325,3.3286000000014866,3.3453000000007407,3.3619999999999948,3.3818000000007444,3.3954999999999984,3.411999999999999,3.428600000001488,3.4454999999999956,3.461999999999996,3.4813000000007435,3.495199999999251,3.5164999999999935,3.5286000000014894,3.5453000000007435,3.5619000000022325,3.5784999999999982,3.5953000000007407,3.6129999999999995,3.6286000000014837,3.647900000002231,3.6646999999992502,3.6788000000007415,3.6954000000022305,3.7154999999999987,3.7313000000007435,3.745999999999995,3.7646000000014865,3.7786999999992545,3.795400000002232,3.8159999999999954,3.8296000000014843,3.845499999999994,3.8619999999999948,3.882400000002235,3.897100000001487,3.9154000000022293,3.931300000000739,3.9461000000014863,3.961900000002231,3.9791999999992527,3.995199999999251,4.012999999999998,4.028600000001489,4.047800000000741,4.0619000000022325,4.078699999999252,4.095199999999252,4.114999999999995,4.128600000001484,4.14580000000074,4.164400000002232,4.178600000001488,4.195199999999254,4.214800000000743,4.228600000001485,4.245300000000739,4.2646000000014865,4.278600000001489,4.2953000000007435,4.316699999999251,4.328699999999252,4.345300000000741,4.36210000000149,4.38230000000074,4.395999999999994,4.412100000001487,4.4288000000007415,4.448699999999249,4.464100000001487,4.47869999999925,4.498199999999251,4.520300000000745,4.529100000001485,4.5489999999999995,4.565800000000742,4.579400000002231,4.595199999999252,4.616800000000744,4.632600000001489,4.64730000000074,4.662100000001487,4.681600000001488,4.6954000000022305,4.714900000002231,4.728999999999999,4.74890000000223,4.762800000000745,4.778800000000743,4.797999999999995,4.815999999999995,4.828600000001487,4.845300000000741,4.86190000000223,4.881199999999254,4.8951999999992495,4.911999999999999,4.933100000001488,4.9454000000022305,4.961999999999996,4.986600000001488,4.995600000001488,5.012300000000742,5.0286999999992545,5.0504999999999995,5.061999999999998,5.07880000000074,5.1044999999999945,5.11210000000149,5.128800000000744,5.145300000000745,5.165499999999994,5.178600000001488,5.195300000000742,5.211999999999996,5.22869999999925,5.245300000000739,5.265300000000742,5.278600000001489,5.2986000000014855,5.3119000000022325,5.328600000001487,5.345199999999252,5.36190000000223,5.381999999999998,5.397999999999996,5.415199999999253,5.428600000001488,5.445199999999254,5.461900000002231,5.478900000002234,5.495300000000739,5.517400000002233,5.532800000000741,5.548199999999248,5.5626999999992535,5.578499999999998,5.595199999999252,5.615699999999251,5.628699999999249,5.6451999999992495,5.661900000002234,5.679600000001486,5.695199999999254,5.715100000001485,5.731999999999999,5.746199999999249,5.761900000002228,5.783900000002234,5.8065,5.819300000000744,5.828600000001487,5.845400000002229,5.86190000000223,5.878499999999995,5.895300000000745,5.915400000002229,5.928600000001488,5.945199999999254,5.961900000002231,5.97869999999925,5.995300000000739,6.014400000002233,6.028600000001489,6.045600000001485,6.0619000000022325,6.078900000002228,6.095199999999252,6.113900000002232,6.128499999999995,6.1451999999992495,6.161900000002234,6.1785,6.195199999999254,6.212999999999994,6.228600000001485,6.245199999999251,6.261900000002228,6.278499999999994,6.295199999999248,6.314699999999249]","[1733133292972,1733133293004,1733133293008,1733133293025,1733133293042,1733133293058,1733133293075,1733133293092,1733133293111,1733133293125,1733133293141,1733133293158,1733133293179,1733133293191,1733133293208,1733133293225,1733133293241,1733133293258,1733133293275,1733133293291,1733133293308,1733133293325,1733133293341,1733133293358,1733133293375,1733133293392,1733133293409,1733133293425,1733133293441,1733133293458,1733133293475,1733133293492,1733133293508,1733133293525,1733133293542,1733133293558,1733133293575,1733133293591,1733133293608,1733133293625,1733133293641,1733133293658,1733133293675,1733133293691,1733133293708,1733133293725,1733133293741,1733133293758,1733133293775,1733133293797,1733133293808,1733133293825,1733133293841,1733133293858,1733133293878,1733133293892,1733133293909,1733133293925,1733133293941,1733133293958,1733133293975,1733133293992,1733133294011,1733133294025,1733133294042,1733133294058,1733133294075,1733133294091,1733133294109,1733133294125,1733133294141,1733133294158,1733133294175,1733133294191,1733133294208,1733133294225,1733133294241,1733133294258,1733133294279,1733133294294,1733133294309,1733133294325,1733133294341,1733133294358,1733133294377,1733133294391,1733133294408,1733133294425,1733133294441,1733133294458,1733133294478,1733133294492,1733133294508,1733133294525,1733133294541,1733133294558,1733133294578,1733133294591,1733133294608,1733133294625,1733133294641,1733133294658,1733133294677,1733133294691,1733133294708,1733133294725,1733133294746,1733133294761,1733133294779,1733133294792,1733133294808,1733133294825,1733133294842,1733133294858,1733133294878,1733133294891,1733133294909,1733133294925,1733133294941,1733133294958,1733133294979,1733133294992,1733133295008,1733133295025,1733133295042,1733133295059,1733133295077,1733133295092,1733133295108,1733133295125,1733133295141,1733133295158,1733133295176,1733133295191,1733133295208,1733133295225,1733133295241,1733133295258,1733133295275,1733133295291,1733133295308,1733133295325,1733133295341,1733133295358,1733133295375,1733133295391,1733133295408,1733133295425,1733133295441,1733133295458,1733133295476,1733133295491,1733133295508,1733133295525,1733133295541,1733133295558,1733133295576,1733133295591,1733133295608,1733133295625,1733133295641,1733133295663,1733133295675,1733133295691,1733133295708,1733133295725,1733133295741,1733133295758,1733133295775,1733133295791,1733133295808,1733133295825,1733133295841,1733133295858,1733133295875,1733133295891,1733133295912,1733133295925,1733133295942,1733133295958,1733133295975,1733133295991,1733133296008,1733133296025,1733133296041,1733133296061,1733133296078,1733133296091,1733133296108,1733133296125,1733133296141,1733133296158,1733133296175,1733133296191,1733133296208,1733133296225,1733133296241,1733133296262,1733133296275,1733133296291,1733133296308,1733133296325,1733133296345,1733133296358,1733133296375,1733133296392,1733133296408,1733133296425,1733133296444,1733133296458,1733133296479,1733133296492,1733133296508,1733133296525,1733133296541,1733133296558,1733133296576,1733133296591,1733133296611,1733133296627,1733133296642,1733133296658,1733133296678,1733133296694,1733133296709,1733133296727,1733133296742,1733133296758,1733133296779,1733133296792,1733133296808,1733133296825,1733133296845,1733133296860,1733133296878,1733133296894,1733133296909,1733133296925,1733133296942,1733133296958,1733133296976,1733133296991,1733133297011,1733133297025,1733133297041,1733133297058,1733133297078,1733133297091,1733133297109,1733133297127,1733133297141,1733133297158,1733133297178,1733133297191,1733133297208,1733133297227,1733133297241,1733133297258,1733133297280,1733133297292,1733133297308,1733133297325,1733133297345,1733133297359,1733133297375,1733133297392,1733133297412,1733133297427,1733133297442,1733133297461,1733133297483,1733133297492,1733133297512,1733133297529,1733133297542,1733133297558,1733133297580,1733133297595,1733133297610,1733133297625,1733133297644,1733133297658,1733133297678,1733133297692,1733133297712,1733133297726,1733133297742,1733133297761,1733133297779,1733133297791,1733133297808,1733133297825,1733133297844,1733133297858,1733133297875,1733133297896,1733133297908,1733133297925,1733133297949,1733133297958,1733133297975,1733133297992,1733133298013,1733133298025,1733133298042,1733133298067,1733133298075,1733133298092,1733133298108,1733133298128,1733133298141,1733133298158,1733133298175,1733133298191,1733133298208,1733133298228,1733133298241,1733133298262,1733133298275,1733133298291,1733133298308,1733133298325,1733133298345,1733133298361,1733133298378,1733133298391,1733133298408,1733133298425,1733133298442,1733133298458,1733133298480,1733133298496,1733133298511,1733133298525,1733133298541,1733133298558,1733133298578,1733133298592,1733133298608,1733133298625,1733133298642,1733133298658,1733133298678,1733133298695,1733133298709,1733133298725,1733133298747,1733133298769,1733133298782,1733133298791,1733133298808,1733133298825,1733133298841,1733133298858,1733133298878,1733133298891,1733133298908,1733133298925,1733133298941,1733133298958,1733133298977,1733133298991,1733133299008,1733133299025,1733133299042,1733133299058,1733133299077,1733133299091,1733133299108,1733133299125,1733133299141,1733133299158,1733133299176,1733133299191,1733133299208,1733133299225,1733133299241,1733133299258,1733133299277]","[[886.9,582.6],[886.9,582.6],[874.1,584.8],[861.3,587],[852.7,585.2],[844.1,583.4],[832.7,583.2],[823.6,585.4],[816,547.9],[797,517],[782.8,493.7],[783.6,480.1],[761.8,433.8],[741.4,386.9],[725.2,341.4],[720.4,290.5],[696,231.1],[671.6,171.7],[655,155.2],[659.6,148.4],[667.1,142.9],[659.6,127.7],[655.7,129.7],[681.3,151.2],[707.6,166.4],[722.5,187],[735.2,198.1],[741.7,200.4],[764.5,200.7],[764.5,200.7],[777.5,184.7],[777.5,184.7],[801.7,184.8],[801.7,184.8],[816.7,183.3],[816.7,183.3],[839.2,186.2],[839.2,186.2],[812.3,148.1],[812.3,148.1],[784.7,116.3],[784.7,116.3],[765.2,94.6],[765.2,94.6],[768.1,98.7],[768.1,98.7],[772,115.5],[772,115.5],[757.3,128.1],[748.4,139.8],[748.4,139.8],[720.5,140],[720.5,140],[709.1,156.6],[681.5,175],[672.4,215.5],[666.8,245.5],[666.5,265.8],[649.5,276.6],[631.1,278.1],[631.1,278.1],[627.1,288.9],[620.8,304.8],[619.4,314.8],[616.3,332.2],[635.8,343],[655.7,348.1],[661.5,358.7],[659.4,368.8],[658.9,374.3],[665.9,377.3],[667.8,379.8],[667.8,379.8],[658.5,397.8],[649.2,419.4],[634.3,418.8],[604.1,416.1],[578.8,417.6],[602.5,455.6],[671.4,496],[732.7,532.2],[802.8,575.5],[869.8,612.5],[937.6,631.4],[1005.4,646.7],[1073.8,659],[1156.7,683.9],[1242.7,718.5],[1269.8,704.3],[1243.4,695.3],[1203.3,686.6],[1153.5,678.7],[1124.1,675.6],[1101.6,670.9],[1050.1,656.9],[998,645.9],[921,633.9],[821,601.6],[748.6,582.9],[668.7,573.6],[637.5,551.6],[606.9,542.9],[551.4,530.5],[480.6,514.5],[462.7,515.2],[474.5,535],[518.4,538.8],[564.7,558.5],[603.9,581.9],[653.7,582.6],[677.7,599.6],[701.1,603.3],[733.9,627.4],[780.8,651.1],[800.5,654.2],[790.5,638.2],[776.8,629.4],[759.2,603.9],[748.8,596],[751,601.8],[746.1,605.8],[751.3,604.2],[758.7,595.4],[769.1,590.5],[767.2,595.6],[773.9,589.2],[773.9,589.2],[783.6,592.9],[789.3,618.4],[787.5,620.3],[761,604.4],[742.5,596.7],[713.9,594.6],[678.8,586.1],[644.2,576.4],[630.2,561.5],[630.2,561.5],[614,557.5],[590.7,558.8],[579.3,558.5],[575.2,572.9],[585.7,579],[581.4,567.5],[569.9,554.2],[581.5,554.2],[581.5,554.2],[584.6,544.3],[573.6,549.5],[554.7,554],[535.5,547.1],[535.5,547.1],[523.4,531.5],[510.5,506.6],[501,496],[501.5,492.2],[515.2,502.5],[488.9,482.7],[487.1,490.7],[498.1,491.8],[510.6,494.2],[504.3,481.7],[508.7,474.7],[508.7,474.7],[518.9,469.1],[518.9,469.1],[523.4,468],[523.4,468],[531.5,463],[531.5,463],[583.8,458.2],[583.8,458.2],[638.7,471.4],[638.7,471.4],[695.8,469.5],[695.8,469.5],[722.6,462.3],[759.4,464.5],[759.4,464.5],[833.4,477.8],[833.4,477.8],[922,488.8],[922,488.8],[999.2,507.4],[999.2,507.4],[1080.7,520.5],[1150.5,546.3],[1169.2,557.4],[1209.8,566.2],[1231.8,568.4],[1280.4,576.1],[1307.6,576.4],[1316.4,580.5],[1317.2,580.1],[1316.1,577.7],[1301.9,582.5],[1298.1,583.2],[1296.5,582.9],[1294.9,582.6],[1294.9,582.6],[1293,582.3],[1288.9,580.9],[1296.2,577.5],[1291,574.8],[1277.8,578.2],[1277.8,578.2],[1265.9,575.2],[1234.8,557.5],[1211,547.3],[1136.6,517.4],[1062.2,487.5],[987.2,473.4],[987.2,473.4],[898.3,480.7],[822.4,472.7],[759.3,464.1],[688,452.1],[609.3,434.3],[558.1,428.9],[505.7,414.4],[502.6,422.8],[543.8,442.7],[598.7,470.6],[655.4,452.2],[716.6,457.4],[777.5,462.5],[838.4,467.6],[902.9,475.4],[967.4,483.2],[1035.9,502.7],[1116.7,519.2],[1153.2,524.2],[1175,510.5],[1252.3,521.1],[1265.3,520],[1294.2,540.7],[1318.1,559.3],[1343.1,579],[1368.1,598.7],[1383.1,591.7],[1385.8,587.7],[1404.8,581.4],[1423.8,575.1],[1389.1,586.7],[1409.6,599.1],[1371.5,588.5],[1338.4,580],[1288.4,571.3],[1232.7,554.4],[1168.7,551.2],[1094,557.1],[1003,565.3],[912,573.5],[840.2,559.8],[753.1,545.9],[708.7,533.2],[659.1,530.8],[687.4,514.3],[721.4,506],[771.1,496.8],[771.1,496.8],[837.4,489.5],[837.4,489.5],[888.7,489.2],[963.5,475.1],[1022.3,467.7],[1088,463.1],[1161.8,452.5],[1218.3,439.8],[1244.5,442.2],[1275.2,451.2],[1270.6,467.8],[1270.6,467.8],[1258.2,470.6],[1282.9,469.6],[1281.3,479.9],[1273.1,492.6],[1264.9,505.3],[1261.3,521.8],[1290.5,534.2],[1291.7,547.8],[1286.5,553.3],[1292.4,547.3],[1302.2,548.7],[1289.9,546.9],[1270.3,546.8],[1266.5,536.3],[1273.9,534],[1256.3,536.6],[1246.3,527.8],[1246.3,527.8],[1214.5,527.7],[1198.6,526.4],[1197.8,528.6],[1197.8,528.6],[1204.1,519.8],[1204.1,519.8],[1183.7,520.9],[1183.7,520.9],[1184.7,517.6],[1184.7,517.6],[1202.2,512.3],[1202.2,512.3],[1223.4,502],[1223.4,502],[1217.9,486.5],[1217.9,486.5],[1195.3,476.7],[1195.3,476.7],[1199.9,459],[1199.9,459],[1201.9,425.1],[1201.9,425.1],[1184.7,397.2],[1184.7,397.2],[1162.2,385.9],[1162.2,385.9],[1163.7,362.9],[1149.1,348.5],[1149.1,348.5],[1126.1,333.8],[1083.7,329.8],[1080.3,328.3],[1068.6,325.5],[1051.1,315.8],[1049.2,327.5],[1064.2,354.1],[1043.4,352.3],[1041.3,358.3],[1045.8,353.9],[1042.3,358.8],[1025.7,357.8],[1009.1,356.8],[997.4,371.3],[986.1,391.9],[984.7,398.3],[987.2,388],[1003.6,386.2],[1008.7,377.8],[1015.6,378.4],[1022.5,379],[1034.1,365.3],[1045.7,350.9],[1076.6,323.4],[1107.5,295.9],[1085.2,284.5],[1059,273.3],[1047.5,281.2],[1047.5,281.2],[1037.6,273.2],[1037.6,273.2],[1032.3,265.4],[1026.5,259.4],[1026.5,259.4],[1032,266.3],[1042.1,273],[1035.5,280.2],[1024.7,283.2],[1030.2,281.8],[1059.6,281.6],[1072.9,262.9],[1084.7,269.9],[1088.3,274.7],[1099,292.3],[1101.5,298.4],[1100.3,302.3],[1112.9,300.3],[1111.2,301],[1109.5,301.7],[1094.4,299.4],[1098.9,314.3],[1094.6,315.7],[1090.3,317.1],[1081.8,301.3],[1071.9,292.9],[1061.1,287.6],[1042.8,293.9],[1038.5,304.3],[1034.2,314.7],[1020.4,330.1]]","[0,0.37864299999999995]","[0.37864299999999995,0.37864299999999995]","[-0.37864299999999995,-0.37864299999999995]","[-0.37864299999999995,0]","[0,-0.37864299999999995]","[0.37864299999999995,-0.37864299999999995]","[0,0]","[0.37864299999999995,0]",0,0,0,0,1,1,Laptop,7,7,15,9
