inst1_resp.keys,inst1_resp.rt,calibrationMouse.x,calibrationMouse.y,calibrationMouse.leftButton,calibrationMouse.midButton,calibrationMouse.rightButton,calibrationClick.x,calibrationClick.y,calibrationClick.leftButton,calibrationClick.midButton,calibrationClick.rightButton,trialsc.thisRepN,trialsc.thisTrialN,trialsc.thisN,trialsc.thisIndex,trialsc.ran,calibration_x,calibration_y,participant,session,date,expName,psychopyVersion,OS,frameRate,calibrationClick.clicked_name,ScreenRes_pixels,Camera_pixels,mouse_2.x,mouse_2.y,mouse_2.leftButton,mouse_2.midButton,mouse_2.rightButton,mouse_2.time,mouse_2.clicked_name,mouse.x,mouse.y,mouse.leftButton,mouse.midButton,mouse.rightButton,mouse.time,mouse.clicked_name,Choice,Trial,TrialDuration,MOUSE_GAZE,ET_GAZE,ET_GAZE_x_T,time,unixTime,ET_GAZE_NF,Loc_Option1_label,Loc_Option2_label,Loc_Cost_label,Loc_Qual_label,Loc_Option1_cost,Loc_Option2_cost,Loc_Option1_quality,Loc_Option2_quality,trials.thisRepN,trials.thisTrialN,trials.thisN,trials.thisIndex,trials.ran,Block,Device,cost1,qual1,cost2,qual2
space,1.3177,0.4375,0.094444444,1,0,0,0.321875,0.314814815,1,0,0,0,0,0,17,1,0.33,0.33,01,001,2024-12-03_14h27.18.737,Attention_exp_legacy,2023.1.0,Win32,59.88023952,,,,,,,,,,,,,,,,,,,,,,,,,,,,,,,,,,,,,,,,,,,,,
,,,,,,,-0.336458333,-0.666666667,1,0,0,0,1,1,4,1,-0.33,-0.67,01,001,2024-12-03_14h27.18.737,Attention_exp_legacy,2023.1.0,Win32,59.88023952,calibration_square,,,,,,,,,,,,,,,,,,,,,,,,,,,,,,,,,,,,,,,,,,,,
,,,,,,,0.001041667,-0.342592593,1,0,0,0,2,2,10,1,0,-0.33,01,001,2024-12-03_14h27.18.737,Attention_exp_legacy,2023.1.0,Win32,59.88023952,,,,,,,,,,,,,,,,,,,,,,,,,,,,,,,,,,,,,,,,,,,,,
,,,,,,,-0.339583333,0.662962963,1,0,0,0,3,3,8,1,-0.33,0.67,01,001,2024-12-03_14h27.18.737,Attention_exp_legacy,2023.1.0,Win32,59.88023952,calibration_square,,,,,,,,,,,,,,,,,,,,,,,,,,,,,,,,,,,,,,,,,,,,
,,,,,,,0.667708333,-0.668518519,1,0,0,0,4,4,20,1,0.67,-0.67,01,001,2024-12-03_14h27.18.737,Attention_exp_legacy,2023.1.0,Win32,59.88023952,calibration_square,,,,,,,,,,,,,,,,,,,,,,,,,,,,,,,,,,,,,,,,,,,,
,,,,,,,-0.665625,-0.659259259,1,0,0,0,5,5,0,1,-0.67,-0.67,01,001,2024-12-03_14h27.18.737,Attention_exp_legacy,2023.1.0,Win32,59.88023952,,,,,,,,,,,,,,,,,,,,,,,,,,,,,,,,,,,,,,,,,,,,,
,,,,,,,0,0.659259259,1,0,0,0,6,6,13,1,0,0.67,01,001,2024-12-03_14h27.18.737,Attention_exp_legacy,2023.1.0,Win32,59.88023952,,,,,,,,,,,,,,,,,,,,,,,,,,,,,,,,,,,,,,,,,,,,,
,,,,,,,0.005208333,0.335185185,1,0,0,0,7,7,12,1,0,0.33,01,001,2024-12-03_14h27.18.737,Attention_exp_legacy,2023.1.0,Win32,59.88023952,calibration_square,,,,,,,,,,,,,,,,,,,,,,,,,,,,,,,,,,,,,,,,,,,,
,,,,,,,0.317708333,-0.001851852,1,0,0,0,8,8,16,1,0.33,0,01,001,2024-12-03_14h27.18.737,Attention_exp_legacy,2023.1.0,Win32,59.88023952,,,,,,,,,,,,,,,,,,,,,,,,,,,,,,,,,,,,,,,,,,,,,
,,,,,,,-0.665625,-0.32037037,1,0,0,0,9,9,1,1,-0.67,-0.33,01,001,2024-12-03_14h27.18.737,Attention_exp_legacy,2023.1.0,Win32,59.88023952,calibration_square,,,,,,,,,,,,,,,,,,,,,,,,,,,,,,,,,,,,,,,,,,,,
,,,,,,,-0.338541667,-0.003703704,1,0,0,0,10,10,6,1,-0.33,0,01,001,2024-12-03_14h27.18.737,Attention_exp_legacy,2023.1.0,Win32,59.88023952,calibration_square,,,,,,,,,,,,,,,,,,,,,,,,,,,,,,,,,,,,,,,,,,,,
,,,,,,,-0.310416667,0.344444444,1,0,0,0,11,11,7,1,-0.33,0.33,01,001,2024-12-03_14h27.18.737,Attention_exp_legacy,2023.1.0,Win32,59.88023952,,,,,,,,,,,,,,,,,,,,,,,,,,,,,,,,,,,,,,,,,,,,,
,,,,,,,-0.65625,0.311111111,1,0,0,0,12,12,3,1,-0.67,0.33,01,001,2024-12-03_14h27.18.737,Attention_exp_legacy,2023.1.0,Win32,59.88023952,,,,,,,,,,,,,,,,,,,,,,,,,,,,,,,,,,,,,,,,,,,,,
,,,,,,,-0.00625,-0.009259259,1,0,0,0,13,13,11,1,0,0,01,001,2024-12-03_14h27.18.737,Attention_exp_legacy,2023.1.0,Win32,59.88023952,calibration_square,,,,,,,,,,,,,,,,,,,,,,,,,,,,,,,,,,,,,,,,,,,,
,,,,,,,0.339583333,-0.675925926,1,0,0,0,14,14,14,1,0.33,-0.67,01,001,2024-12-03_14h27.18.737,Attention_exp_legacy,2023.1.0,Win32,59.88023952,calibration_square,,,,,,,,,,,,,,,,,,,,,,,,,,,,,,,,,,,,,,,,,,,,
,,,,,,,0.335416667,0.661111111,1,0,0,0,15,15,18,1,0.33,0.67,01,001,2024-12-03_14h27.18.737,Attention_exp_legacy,2023.1.0,Win32,59.88023952,calibration_square,,,,,,,,,,,,,,,,,,,,,,,,,,,,,,,,,,,,,,,,,,,,
,,,,,,,0.326041667,-0.316666667,1,0,0,0,16,16,15,1,0.33,-0.33,01,001,2024-12-03_14h27.18.737,Attention_exp_legacy,2023.1.0,Win32,59.88023952,,,,,,,,,,,,,,,,,,,,,,,,,,,,,,,,,,,,,,,,,,,,,
,,,,,,,-0.680208333,-0.016666667,1,0,0,0,17,17,2,1,-0.67,0,01,001,2024-12-03_14h27.18.737,Attention_exp_legacy,2023.1.0,Win32,59.88023952,,,,,,,,,,,,,,,,,,,,,,,,,,,,,,,,,,,,,,,,,,,,,
,,,,,,,-0.353125,-0.333333333,1,0,0,0,18,18,5,1,-0.33,-0.33,01,001,2024-12-03_14h27.18.737,Attention_exp_legacy,2023.1.0,Win32,59.88023952,,,,,,,,,,,,,,,,,,,,,,,,,,,,,,,,,,,,,,,,,,,,,
,,,,,,,0.65625,0.675925926,1,0,0,0,19,19,19,1,0.67,0.67,01,001,2024-12-03_14h27.18.737,Attention_exp_legacy,2023.1.0,Win32,59.88023952,,,,,,,,,,,,,,,,,,,,,,,,,,,,,,,,,,,,,,,,,,,,,
,,,,,,,0.013541667,-0.65,1,0,0,0,20,20,9,1,0,-0.67,01,001,2024-12-03_14h27.18.737,Attention_exp_legacy,2023.1.0,Win32,59.88023952,,,,,,,,,,,,,,,,,,,,,,,,,,,,,,,,,,,,,,,,,,,,,
,,,,,,,,,,,,,,,,,,,01,001,2024-12-03_14h27.18.737,Attention_exp_legacy,2023.1.0,Win32,59.88023952,,"[1920,1080]","[640,480]",[0.08125],[-0.5148148148148148],[1],[0],[0],[1.4265999999999792],"[""StartButton""]",[0.415625],[0.28703703703703703],[1],[0],[0],[6.4879999999999995],"[""Option2_label""]",Option2_label,1,7.5117,"[[0,-0.22592592592592592],[0,-0.22592592592592592],[0,-0.22592592592592592],[0,-0.22592592592592592],[0,-0.22592592592592592],[0,-0.22592592592592592],[0,-0.22592592592592592],[0,-0.22592592592592592],[0,-0.22592592592592592],[0,-0.22592592592592592],[0,-0.22592592592592592],[0,-0.22592592592592592],[0,-0.22592592592592592],[-0.0010416666666666667,-0.22407407407407406],[-0.003125,-0.22037037037037038],[-0.003125,-0.22037037037037038],[-0.004166666666666667,-0.21851851851851853],[-0.004166666666666667,-0.21481481481481482],[-0.007291666666666667,-0.21296296296296297],[-0.007291666666666667,-0.2111111111111111],[-0.010416666666666666,-0.20555555555555555],[-0.0125,-0.2037037037037037],[-0.013541666666666667,-0.20185185185185187],[-0.015625,-0.2],[-0.016666666666666666,-0.19814814814814816],[-0.017708333333333333,-0.1962962962962963],[-0.017708333333333333,-0.19444444444444445],[-0.017708333333333333,-0.19444444444444445],[-0.017708333333333333,-0.19444444444444445],[-0.017708333333333333,-0.19444444444444445],[-0.017708333333333333,-0.19444444444444445],[-0.017708333333333333,-0.19444444444444445],[-0.017708333333333333,-0.19444444444444445],[-0.017708333333333333,-0.19444444444444445],[-0.017708333333333333,-0.19444444444444445],[-0.017708333333333333,-0.19444444444444445],[-0.017708333333333333,-0.19444444444444445],[-0.017708333333333333,-0.19444444444444445],[-0.017708333333333333,-0.19444444444444445],[-0.019791666666666666,-0.19444444444444445],[-0.022916666666666665,-0.18888888888888888],[-0.026041666666666668,-0.18518518518518517],[-0.029166666666666667,-0.17777777777777778],[-0.03125,-0.17407407407407408],[-0.03229166666666667,-0.1685185185185185],[-0.03333333333333333,-0.16666666666666666],[-0.034375,-0.16666666666666666],[-0.036458333333333336,-0.16296296296296298],[-0.036458333333333336,-0.16111111111111112],[-0.0375,-0.15925925925925927],[-0.03854166666666667,-0.1574074074074074],[-0.03958333333333333,-0.15555555555555556],[-0.03958333333333333,-0.15555555555555556],[-0.03958333333333333,-0.15555555555555556],[-0.03958333333333333,-0.15555555555555556],[-0.03958333333333333,-0.15555555555555556],[-0.03958333333333333,-0.1537037037037037],[-0.03958333333333333,-0.1537037037037037],[-0.03958333333333333,-0.1537037037037037],[-0.03958333333333333,-0.1537037037037037],[-0.03958333333333333,-0.1537037037037037],[-0.03958333333333333,-0.1537037037037037],[-0.040625,-0.1537037037037037],[-0.040625,-0.1537037037037037],[-0.041666666666666664,-0.1537037037037037],[-0.041666666666666664,-0.1537037037037037],[-0.041666666666666664,-0.1537037037037037],[-0.041666666666666664,-0.1537037037037037],[-0.041666666666666664,-0.1537037037037037],[-0.041666666666666664,-0.1537037037037037],[-0.041666666666666664,-0.1537037037037037],[-0.041666666666666664,-0.1537037037037037],[-0.041666666666666664,-0.1537037037037037],[-0.041666666666666664,-0.1537037037037037],[-0.041666666666666664,-0.1537037037037037],[-0.041666666666666664,-0.1537037037037037],[-0.041666666666666664,-0.1537037037037037],[-0.041666666666666664,-0.1537037037037037],[-0.041666666666666664,-0.1537037037037037],[-0.041666666666666664,-0.1537037037037037],[-0.041666666666666664,-0.1537037037037037],[-0.041666666666666664,-0.1537037037037037],[-0.041666666666666664,-0.1537037037037037],[-0.041666666666666664,-0.1537037037037037],[-0.041666666666666664,-0.1537037037037037],[-0.041666666666666664,-0.1537037037037037],[-0.041666666666666664,-0.1537037037037037],[-0.041666666666666664,-0.1537037037037037],[-0.041666666666666664,-0.1537037037037037],[-0.041666666666666664,-0.1537037037037037],[-0.041666666666666664,-0.1537037037037037],[-0.041666666666666664,-0.1537037037037037],[-0.041666666666666664,-0.1537037037037037],[-0.041666666666666664,-0.1537037037037037],[-0.041666666666666664,-0.1537037037037037],[-0.041666666666666664,-0.1537037037037037],[-0.041666666666666664,-0.1537037037037037],[-0.041666666666666664,-0.1537037037037037],[-0.04375,-0.15185185185185185],[-0.04583333333333333,-0.15],[-0.04791666666666667,-0.14444444444444443],[-0.04895833333333333,-0.14074074074074075],[-0.04895833333333333,-0.14074074074074075],[-0.05,-0.1388888888888889],[-0.05,-0.13703703703703704],[-0.05,-0.13518518518518519],[-0.05,-0.13518518518518519],[-0.05,-0.13518518518518519],[-0.05,-0.13518518518518519],[-0.05,-0.13518518518518519],[-0.05,-0.13518518518518519],[-0.05,-0.13518518518518519],[-0.05,-0.13518518518518519],[-0.05,-0.13518518518518519],[-0.05,-0.13518518518518519],[-0.05,-0.13518518518518519],[-0.05,-0.13518518518518519],[-0.05,-0.13518518518518519],[-0.05,-0.13518518518518519],[-0.05,-0.13518518518518519],[-0.05,-0.13518518518518519],[-0.052083333333333336,-0.13518518518518519],[-0.052083333333333336,-0.13518518518518519],[-0.053125,-0.13518518518518519],[-0.053125,-0.13518518518518519],[-0.05416666666666667,-0.13333333333333333],[-0.05520833333333333,-0.13333333333333333],[-0.05520833333333333,-0.13333333333333333],[-0.05520833333333333,-0.13333333333333333],[-0.05625,-0.13333333333333333],[-0.05625,-0.13333333333333333],[-0.05625,-0.13333333333333333],[-0.05625,-0.13333333333333333],[-0.05625,-0.13333333333333333],[-0.05625,-0.13333333333333333],[-0.05625,-0.13333333333333333],[-0.05625,-0.13333333333333333],[-0.05625,-0.13333333333333333],[-0.057291666666666664,-0.13333333333333333],[-0.057291666666666664,-0.13333333333333333],[-0.057291666666666664,-0.13333333333333333],[-0.058333333333333334,-0.12962962962962962],[-0.058333333333333334,-0.12777777777777777],[-0.058333333333333334,-0.12777777777777777],[-0.059375,-0.1259259259259259],[-0.059375,-0.1259259259259259],[-0.059375,-0.1259259259259259],[-0.06041666666666667,-0.12407407407407407],[-0.06145833333333333,-0.11851851851851852],[-0.065625,-0.1037037037037037],[-0.065625,-0.0962962962962963],[-0.06666666666666667,-0.08703703703703704],[-0.06770833333333333,-0.08333333333333333],[-0.06770833333333333,-0.08333333333333333],[-0.06770833333333333,-0.08333333333333333],[-0.06770833333333333,-0.08333333333333333],[-0.06770833333333333,-0.08333333333333333],[-0.06770833333333333,-0.08333333333333333],[-0.06770833333333333,-0.08333333333333333],[-0.06770833333333333,-0.08333333333333333],[-0.06770833333333333,-0.08333333333333333],[-0.06770833333333333,-0.08333333333333333],[-0.06770833333333333,-0.08333333333333333],[-0.06770833333333333,-0.08333333333333333],[-0.06770833333333333,-0.08333333333333333],[-0.06770833333333333,-0.08333333333333333],[-0.06770833333333333,-0.08333333333333333],[-0.06770833333333333,-0.08333333333333333],[-0.06770833333333333,-0.08333333333333333],[-0.06770833333333333,-0.08333333333333333],[-0.06770833333333333,-0.08333333333333333],[-0.06770833333333333,-0.08333333333333333],[-0.06770833333333333,-0.08333333333333333],[-0.06770833333333333,-0.08333333333333333],[-0.06770833333333333,-0.08333333333333333],[-0.06770833333333333,-0.08333333333333333],[-0.06770833333333333,-0.08333333333333333],[-0.06770833333333333,-0.08333333333333333],[-0.06770833333333333,-0.08333333333333333],[-0.06770833333333333,-0.08333333333333333],[-0.06770833333333333,-0.08333333333333333],[-0.06770833333333333,-0.08333333333333333],[-0.06770833333333333,-0.08333333333333333],[-0.06770833333333333,-0.08333333333333333],[-0.06770833333333333,-0.08333333333333333],[-0.06770833333333333,-0.08333333333333333],[-0.06770833333333333,-0.08333333333333333],[-0.06770833333333333,-0.08333333333333333],[-0.06770833333333333,-0.08333333333333333],[-0.06770833333333333,-0.08518518518518518],[-0.06770833333333333,-0.08888888888888889],[-0.06875,-0.09444444444444444],[-0.06875,-0.09814814814814815],[-0.06875,-0.10185185185185185],[-0.06875,-0.1037037037037037],[-0.06875,-0.10555555555555556],[-0.06875,-0.10740740740740741],[-0.06979166666666667,-0.1111111111111111],[-0.06979166666666667,-0.11296296296296296],[-0.06979166666666667,-0.11296296296296296],[-0.06979166666666667,-0.11666666666666667],[-0.06979166666666667,-0.11666666666666667],[-0.06979166666666667,-0.11851851851851852],[-0.06979166666666667,-0.11851851851851852],[-0.06979166666666667,-0.11851851851851852],[-0.06979166666666667,-0.11851851851851852],[-0.06979166666666667,-0.11851851851851852],[-0.06979166666666667,-0.11851851851851852],[-0.06979166666666667,-0.11851851851851852],[-0.06979166666666667,-0.11851851851851852],[-0.06979166666666667,-0.11851851851851852],[-0.06979166666666667,-0.11851851851851852],[-0.06979166666666667,-0.11851851851851852],[-0.06979166666666667,-0.11851851851851852],[-0.06979166666666667,-0.11851851851851852],[-0.06979166666666667,-0.11851851851851852],[-0.06979166666666667,-0.11851851851851852],[-0.06979166666666667,-0.11851851851851852],[-0.06979166666666667,-0.11851851851851852],[-0.06979166666666667,-0.11851851851851852],[-0.06979166666666667,-0.11851851851851852],[-0.06979166666666667,-0.11851851851851852],[-0.06979166666666667,-0.11851851851851852],[-0.07083333333333333,-0.12222222222222222],[-0.07083333333333333,-0.1259259259259259],[-0.071875,-0.12777777777777777],[-0.071875,-0.12777777777777777],[-0.07291666666666667,-0.12962962962962962],[-0.07291666666666667,-0.12962962962962962],[-0.07291666666666667,-0.13333333333333333],[-0.07291666666666667,-0.13333333333333333],[-0.07291666666666667,-0.13333333333333333],[-0.07291666666666667,-0.13518518518518519],[-0.07291666666666667,-0.13518518518518519],[-0.07291666666666667,-0.13703703703703704],[-0.07395833333333333,-0.1388888888888889],[-0.07395833333333333,-0.14074074074074075],[-0.07395833333333333,-0.14074074074074075],[-0.07395833333333333,-0.14074074074074075],[-0.07395833333333333,-0.14074074074074075],[-0.07395833333333333,-0.14074074074074075],[-0.07395833333333333,-0.14074074074074075],[-0.07395833333333333,-0.14074074074074075],[-0.07395833333333333,-0.14074074074074075],[-0.07395833333333333,-0.14074074074074075],[-0.07395833333333333,-0.14074074074074075],[-0.07395833333333333,-0.14074074074074075],[-0.07395833333333333,-0.14074074074074075],[-0.07395833333333333,-0.14074074074074075],[-0.07395833333333333,-0.14074074074074075],[-0.07395833333333333,-0.14074074074074075],[-0.07395833333333333,-0.14074074074074075],[-0.07395833333333333,-0.14074074074074075],[-0.07395833333333333,-0.14074074074074075],[-0.07395833333333333,-0.14074074074074075],[-0.07395833333333333,-0.14074074074074075],[-0.07395833333333333,-0.14074074074074075],[-0.07395833333333333,-0.14074074074074075],[-0.07395833333333333,-0.14074074074074075],[-0.07395833333333333,-0.14074074074074075],[-0.07395833333333333,-0.14074074074074075],[-0.07395833333333333,-0.14074074074074075],[-0.07395833333333333,-0.14074074074074075],[-0.07395833333333333,-0.14074074074074075],[-0.07395833333333333,-0.14074074074074075],[-0.07395833333333333,-0.14074074074074075],[-0.07395833333333333,-0.14074074074074075],[-0.07395833333333333,-0.14074074074074075],[-0.07395833333333333,-0.14074074074074075],[-0.07395833333333333,-0.14074074074074075],[-0.07395833333333333,-0.14074074074074075],[-0.07395833333333333,-0.14074074074074075],[-0.07395833333333333,-0.14074074074074075],[-0.07395833333333333,-0.14074074074074075],[-0.07395833333333333,-0.14074074074074075],[-0.07395833333333333,-0.14074074074074075],[-0.07395833333333333,-0.14074074074074075],[-0.07395833333333333,-0.14074074074074075],[-0.07395833333333333,-0.14074074074074075],[-0.07395833333333333,-0.14074074074074075],[-0.07395833333333333,-0.14074074074074075],[-0.07395833333333333,-0.14074074074074075],[-0.07395833333333333,-0.14074074074074075],[-0.07395833333333333,-0.14074074074074075],[-0.07395833333333333,-0.14074074074074075],[-0.07395833333333333,-0.14074074074074075],[-0.07395833333333333,-0.14074074074074075],[-0.07395833333333333,-0.14074074074074075],[-0.07395833333333333,-0.14074074074074075],[-0.07395833333333333,-0.14074074074074075],[-0.07395833333333333,-0.14074074074074075],[-0.07395833333333333,-0.14074074074074075],[-0.07395833333333333,-0.14074074074074075],[-0.07395833333333333,-0.14074074074074075],[-0.07395833333333333,-0.14074074074074075],[-0.07395833333333333,-0.14074074074074075],[-0.07395833333333333,-0.14074074074074075],[-0.07395833333333333,-0.14074074074074075],[-0.07395833333333333,-0.14074074074074075],[-0.07395833333333333,-0.14074074074074075],[-0.07395833333333333,-0.14074074074074075],[-0.07395833333333333,-0.14074074074074075],[-0.07395833333333333,-0.14074074074074075],[-0.07395833333333333,-0.14074074074074075],[-0.07395833333333333,-0.14074074074074075],[-0.07395833333333333,-0.14074074074074075],[-0.07395833333333333,-0.14074074074074075],[-0.07395833333333333,-0.14074074074074075],[-0.07395833333333333,-0.14074074074074075],[-0.07395833333333333,-0.14074074074074075],[-0.07395833333333333,-0.14074074074074075],[-0.07395833333333333,-0.14074074074074075],[-0.07395833333333333,-0.14074074074074075],[-0.07395833333333333,-0.14074074074074075],[-0.07395833333333333,-0.14074074074074075],[-0.07395833333333333,-0.14074074074074075],[-0.07395833333333333,-0.14074074074074075],[-0.07395833333333333,-0.14074074074074075],[-0.07395833333333333,-0.14074074074074075],[-0.07395833333333333,-0.14074074074074075],[-0.07395833333333333,-0.14074074074074075],[-0.07395833333333333,-0.14074074074074075],[-0.07395833333333333,-0.14074074074074075],[-0.07395833333333333,-0.14074074074074075],[-0.07395833333333333,-0.14074074074074075],[-0.07395833333333333,-0.14074074074074075],[-0.07395833333333333,-0.14074074074074075],[-0.07395833333333333,-0.14074074074074075],[-0.07395833333333333,-0.14074074074074075],[-0.07395833333333333,-0.14074074074074075],[-0.07395833333333333,-0.14074074074074075],[-0.07395833333333333,-0.14074074074074075],[-0.07395833333333333,-0.14074074074074075],[-0.07395833333333333,-0.14074074074074075],[-0.07395833333333333,-0.14074074074074075],[-0.07395833333333333,-0.14074074074074075],[-0.07395833333333333,-0.14074074074074075],[-0.07395833333333333,-0.14074074074074075],[-0.07395833333333333,-0.14074074074074075],[-0.07395833333333333,-0.14074074074074075],[-0.07395833333333333,-0.14074074074074075],[-0.07395833333333333,-0.14074074074074075],[-0.07395833333333333,-0.14074074074074075],[-0.07395833333333333,-0.14074074074074075],[-0.07395833333333333,-0.14074074074074075],[-0.07395833333333333,-0.14074074074074075],[-0.07395833333333333,-0.14074074074074075],[-0.07395833333333333,-0.14074074074074075],[-0.07395833333333333,-0.14074074074074075],[-0.07395833333333333,-0.14074074074074075],[-0.07395833333333333,-0.14074074074074075],[-0.07395833333333333,-0.14074074074074075],[-0.07395833333333333,-0.14074074074074075],[-0.07395833333333333,-0.14074074074074075],[-0.07395833333333333,-0.14074074074074075],[-0.07395833333333333,-0.14074074074074075],[-0.07291666666666667,-0.14444444444444443],[-0.06875,-0.14444444444444443],[-0.065625,-0.14444444444444443],[-0.06041666666666667,-0.14444444444444443],[-0.051041666666666666,-0.14444444444444443],[-0.0375,-0.14444444444444443],[-0.017708333333333333,-0.14074074074074075],[0.016666666666666666,-0.12222222222222222],[0.06666666666666667,-0.1037037037037037],[0.134375,-0.06481481481481481],[0.196875,-0.03333333333333333],[0.253125,0.011111111111111112],[0.296875,0.053703703703703705],[0.32916666666666666,0.08518518518518518],[0.3489583333333333,0.1111111111111111],[0.365625,0.1388888888888889],[0.38333333333333336,0.17962962962962964],[0.39166666666666666,0.2],[0.39791666666666664,0.21851851851851853],[0.4041666666666667,0.2351851851851852],[0.4114583333333333,0.25],[0.415625,0.2574074074074074],[0.415625,0.2574074074074074],[0.415625,0.2574074074074074],[0.415625,0.25925925925925924],[0.415625,0.26296296296296295],[0.415625,0.26851851851851855],[0.415625,0.2740740740740741],[0.415625,0.2851851851851852],[0.415625,0.28703703703703703],[0.415625,0.28703703703703703],[0.415625,0.28703703703703703],[0.415625,0.28703703703703703],[0.415625,0.28703703703703703],[0.415625,0.28703703703703703],[0.415625,0.28703703703703703],[0.415625,0.28703703703703703],[0.415625,0.28703703703703703],[0.415625,0.28703703703703703],[0.415625,0.28703703703703703],[0.415625,0.28703703703703703],[0.415625,0.28703703703703703],[0.415625,0.28703703703703703],[0.415625,0.28703703703703703],[0.415625,0.28703703703703703],[0.415625,0.28703703703703703],[0.415625,0.28703703703703703],[0.415625,0.28703703703703703],[0.415625,0.28703703703703703],[0.415625,0.28703703703703703],[0.415625,0.28703703703703703],[0.415625,0.28703703703703703],[0.415625,0.28703703703703703],[0.415625,0.28703703703703703],[0.415625,0.28703703703703703],[0.415625,0.28703703703703703],[0.415625,0.28703703703703703],[0.415625,0.28703703703703703],[0.415625,0.28703703703703703],[0.415625,0.28703703703703703],[0.415625,0.28703703703703703],[0.415625,0.28703703703703703],[0.415625,0.28703703703703703],[0.415625,0.28703703703703703],[0.415625,0.28703703703703703],[0.415625,0.28703703703703703],[0.415625,0.28703703703703703],[0.415625,0.28703703703703703],[0.415625,0.28703703703703703],[0.415625,0.28703703703703703],[0.415625,0.28703703703703703],[0.415625,0.28703703703703703],[0.415625,0.28703703703703703],[0.415625,0.28703703703703703],[0.415625,0.28888888888888886],[0.415625,0.28888888888888886],[0.415625,0.28888888888888886],[0.41458333333333336,0.28888888888888886],[0.41354166666666664,0.28703703703703703],[0.41354166666666664,0.28703703703703703],[0.41354166666666664,0.2851851851851852],[0.41354166666666664,0.2851851851851852],[0.4125,0.2833333333333333],[0.4125,0.2833333333333333],[0.4125,0.2833333333333333],[0.4125,0.2833333333333333],[0.4125,0.2833333333333333],[0.4125,0.2833333333333333],[0.4125,0.2833333333333333],[0.4114583333333333,0.2814814814814815],[0.4114583333333333,0.2814814814814815],[0.4114583333333333,0.2814814814814815],[0.4114583333333333,0.2814814814814815],[0.4114583333333333,0.2814814814814815],[0.4114583333333333,0.2814814814814815]]","[[0.26510416666666664,0.13870370370370366],[0.26510416666666664,0.13870370370370366],[0.24989583333333343,0.06851851851851852],[0.2507291666666667,0.034444444444444486],[0.2861458333333334,-0.020370370370370372],[0.26760416666666675,0.03296296296296288],[0.25281250000000005,0.021851851851851768],[0.2620833333333332,-0.010185185185185186],[0.26708333333333345,-0.053148148148148125],[0.26458333333333334,-0.08055555555555556],[0.2907291666666666,-0.14074074074074075],[0.3538541666666667,-0.17518518518518522],[0.48427083333333343,-0.175],[0.5010416666666667,-0.17814814814814814],[0.47718749999999993,-0.08722222222222227],[0.409375,-0.046296296296296294],[0.409375,-0.046296296296296294],[0.42333333333333345,-0.021296296296296296],[0.38645833333333335,-0.08777777777777773],[0.44479166666666664,-0.0772222222222222],[0.3910416666666668,-0.02092592592592584],[0.31749999999999995,0.032777777777777864],[0.26708333333333345,0.08351851851851856],[0.10364583333333334,0.16962962962962966],[0.05406249999999998,0.1853703703703704],[0.05406249999999998,0.1853703703703704],[0.04635416666666667,0.12481481481481477],[0.11593749999999996,0.04870370370370362],[0.10708333333333328,0.013888888888888888],[0.16458333333333333,0.054259259259259174],[0.14458333333333329,0.034999999999999955],[0.14458333333333329,0.034999999999999955],[0.23666666666666672,-0.030000000000000086],[0.28927083333333337,-0.07333333333333338],[0.28927083333333337,-0.07333333333333338],[0.27999999999999997,-0.07962962962962963],[0.31614583333333335,-0.1398148148148148],[0.31614583333333335,-0.1398148148148148],[0.29031250000000003,-0.1705555555555556],[0.29031250000000003,-0.1705555555555556],[0.20583333333333323,-0.07740740740740742],[0.20583333333333323,-0.07740740740740742],[0.1474999999999999,-0.013333333333333417],[0.1508333333333333,0.027037037037037078],[0.08093750000000005,0.09259259259259259],[-0.008020833333333382,0.1587037037037038],[-0.07135416666666666,0.18907407407407412],[-0.08135416666666669,0.23925925925925934],[-0.057604166666666616,0.23666666666666658],[-0.057604166666666616,0.23666666666666658],[-0.11739583333333338,0.3635185185185184],[-0.12770833333333337,0.48518518518518516],[-0.041666666666666664,0.4403703703703703],[-0.0015625,0.45111111111111113],[-0.02510416666666669,0.4751851851851852],[0.009062500000000048,0.4903703703703703],[0.044166666666666646,0.49314814814814806],[0.04364583333333331,0.4918518518518519],[-0.009687499999999953,0.5361111111111111],[-0.05802083333333338,0.5990740740740741],[-0.02687499999999995,0.5348148148148147],[-0.019166666666666644,0.5003703703703705],[-0.08989583333333329,0.5246296296296296],[-0.057500000000000044,0.4553703703703703],[-0.0328125,0.40907407407407403],[-0.04708333333333338,0.352962962962963],[-0.03843749999999998,0.31666666666666665],[-0.036458333333333336,0.31851851851851853],[-0.0032291666666666905,0.26129629629629636],[0.09072916666666657,0.18407407407407403],[0.15166666666666656,0.15907407407407403],[0.16239583333333343,0.1427777777777778],[0.21260416666666657,0.09259259259259259],[0.19833333333333342,0.08518518518518518],[0.15916666666666662,0.08925925925925934],[0.19833333333333342,0.09185185185185189],[0.21927083333333333,0.08000000000000008],[0.22166666666666662,0.08666666666666659],[0.25760416666666663,0.04814814814814815],[0.2181250000000001,0.05351851851851848],[0.1961458333333333,0.08777777777777773],[0.1851041666666667,0.08888888888888889],[0.19666666666666663,0.10981481481481473],[0.14333333333333323,0.14296296296296304],[0.21531250000000005,0.11185185185185181],[0.19114583333333332,0.11777777777777781],[0.1740624999999999,0.14333333333333328],[0.1642708333333334,0.11907407407407399],[0.12666666666666657,0.19407407407407398],[0.12666666666666657,0.19407407407407398],[0.14375,0.225],[0.11572916666666658,0.22240740740740744],[0.15833333333333333,0.2624074074074075],[0.14833333333333343,0.2511111111111112],[0.190625,0.22666666666666663],[0.16854166666666662,0.26074074074074066],[0.20322916666666657,0.26907407407407397],[0.24093749999999994,0.22148148148148153],[0.3220833333333334,0.17629629629629637],[0.3216666666666666,0.15222222222222231],[0.28020833333333334,0.15925925925925927],[0.24520833333333342,0.18185185185185193],[0.19760416666666672,0.1574074074074074],[0.17937500000000003,0.16537037037037028],[0.17312500000000006,0.13037037037037033],[0.12614583333333323,0.12092592592592584],[0.0931250000000001,0.08722222222222227],[0.05,0.08981481481481482],[-0.02010416666666662,0.1418518518518519],[-0.01864583333333331,0.1300000000000001],[-0.0296875,0.11777777777777781],[-0.019583333333333286,0.09462962962962967],[-0.04552083333333338,0.08944444444444435],[-0.034166666666666616,0.06611111111111119],[-0.042604166666666644,0.0977777777777777],[-0.08083333333333335,0.17185185185185176],[-0.16625000000000004,0.2544444444444444],[-0.19031250000000005,0.2705555555555556],[-0.22666666666666668,0.2627777777777777],[-0.21604166666666663,0.28166666666666673],[-0.20656249999999995,0.22870370370370371],[-0.1998958333333333,0.19240740740740736],[-0.19270833333333334,0.19722222222222222],[-0.22541666666666665,0.24537037037037038],[-0.253125,0.2627777777777777],[-0.2591666666666666,0.21129629629629634],[-0.19239583333333338,0.1544444444444444],[-0.18697916666666667,0.16407407407407412],[-0.16302083333333334,0.1757407407407407],[-0.18031250000000001,0.14666666666666675],[-0.21375000000000005,0.19166666666666668],[-0.22062499999999996,0.17888888888888893],[-0.21208333333333335,0.1757407407407407],[-0.21156250000000001,0.14685185185185176],[-0.18468749999999995,0.1300000000000001],[-0.16010416666666671,0.11888888888888897],[-0.16833333333333336,0.10944444444444448],[-0.18177083333333333,0.11129629629629634],[-0.19645833333333335,0.1316666666666667],[-0.2048958333333334,0.09814814814814815],[-0.18250000000000005,0.05185185185185185],[-0.17156250000000003,0.054074074074074156],[-0.12458333333333335,0.04296296296296305],[-0.11458333333333333,0.037037037037037035],[-0.09572916666666664,0.03814814814814819],[-0.09572916666666664,0.03814814814814819],[-0.06375000000000004,0.04759259259259268],[-0.051145833333333356,0.08203703703703695],[-0.019583333333333286,0.1124074074074075],[-0.019583333333333286,0.1124074074074075],[-0.011666666666666714,0.04388888888888897],[-0.011666666666666714,0.04388888888888897],[0.0067708333333333336,0.10462962962962963],[0.0067708333333333336,0.10462962962962963],[0.07937500000000004,0.048333333333333374],[0.07937500000000004,0.048333333333333374],[0.1515625,0.030555555555555555],[0.1515625,0.030555555555555555],[0.2205208333333334,-0.009444444444444486],[0.2205208333333334,-0.009444444444444486],[0.37135416666666665,-0.07685185185185185],[0.4354166666666667,-0.08444444444444449],[0.4354166666666667,-0.08444444444444449],[0.5597916666666668,-0.1522222222222222],[0.7061458333333335,-0.22518518518518524],[0.7907291666666666,-0.2831481481481481],[0.9054166666666668,-0.2577777777777778],[0.9554166666666667,-0.3198148148148148],[0.9402083333333332,-0.26666666666666666],[0.8712500000000001,-0.2742592592592593],[0.7613541666666668,-0.2831481481481481],[0.6334374999999999,-0.29907407407407405],[0.5598958333333334,-0.37518518518518523],[0.39479166666666665,-0.34740740740740744],[0.2497916666666666,-0.36203703703703705],[0.2497916666666666,-0.36203703703703705],[0.15281250000000005,-0.39888888888888885],[0.058541666666666714,-0.4274074074074074],[-0.019375000000000024,-0.35240740740740745],[-0.06947916666666672,-0.30759259259259264],[-0.07593749999999998,-0.24574074074074073],[-0.07541666666666665,-0.1911111111111111],[-0.05645833333333338,-0.12481481481481477],[-0.0375,-0.05851851851851856],[-0.003854166666666714,-0.05703703703703706],[-0.016770833333333356,-0.027037037037037078],[-0.03250000000000005,0.003703703703703704],[-0.057395833333333354,0.021296296296296296],[-0.05249999999999998,-0.04222222222222214],[-0.09041666666666662,-0.09574074074074072],[-0.07572916666666671,-0.10111111111111115],[-0.05770833333333331,-0.052037037037037076],[-0.058333333333333334,-0.0031481481481482323],[-0.07760416666666667,0.039074074074074115],[-0.06895833333333339,0.046296296296296294],[-0.05927083333333331,0.05944444444444449],[-0.052083333333333336,0.07796296296296301],[-0.050520833333333334,0.08481481481481473],[-0.035312499999999976,0.11148148148148157],[0.005937500000000048,0.16018518518518518],[-0.024374999999999977,0.1685185185185185],[-0.03312499999999995,0.1227777777777777],[-0.05322916666666669,0.07629629629629638],[-0.06614583333333333,0.017592592592592594],[-0.05343749999999995,0.00592592592592601],[-0.04125000000000002,-0.0448148148148149],[-0.04593750000000003,-0.027962962962963005],[-0.03854166666666667,0.005370370370370328],[-0.05447916666666662,-0.0005555555555554713],[-0.05447916666666662,-0.010185185185185186],[-0.06635416666666671,-0.004074074074074159],[-0.07374999999999995,0],[-0.09135416666666671,0.022777777777777692],[-0.08395833333333336,0.08666666666666659],[-0.11104166666666669,0.11351851851851844],[-0.11781250000000003,0.18037037037037032],[-0.10239583333333328,0.1735185185185186],[-0.07302083333333335,0.1646296296296296],[-0.07739583333333329,0.1737037037037036],[-0.05,0.18555555555555564],[-0.05,0.18555555555555564],[0.006458333333333381,0.17166666666666675],[0.06635416666666671,0.16074074074074066],[0.11614583333333334,0.15703703703703695],[0.1538541666666667,0.11666666666666667],[0.19104166666666675,0.10351851851851848],[0.2273958333333333,0.11370370370370367],[0.26375000000000004,0.12388888888888884],[0.24104166666666677,0.11796296296296305],[0.2620833333333332,0.105925925925926],[0.225,0.09518518518518514],[0.1955208333333334,0.07740740740740733],[0.11906249999999995,0.05314814814814823],[0.12541666666666676,-0.05462962962962963],[0.13010416666666677,-0.1081481481481481],[0.16239583333333343,-0.1896296296296296],[0.12531249999999997,-0.18925925925925924],[0.11354166666666667,-0.20111111111111116],[0.146875,-0.1948148148148148],[0.17374999999999996,-0.20018518518518522],[0.21104166666666657,-0.2059259259259259],[0.2178124999999999,-0.18277777777777776],[0.25062499999999993,-0.16888888888888887],[0.20031249999999995,-0.07481481481481478],[0.20031249999999995,-0.07481481481481478],[0.1502083333333334,-0.020555555555555598],[0.036354166666666646,0.09981481481481477],[-0.003958333333333286,0.1427777777777778],[-0.017499999999999953,0.18000000000000008],[-0.009375,0.1814814814814815],[0.005729166666666666,0.18907407407407412],[0.0009374999999999763,0.19296296296296306],[-0.010520833333333358,0.14055555555555552],[-0.03135416666666669,0.10685185185185193],[-0.04770833333333328,0.10962962962962972],[-0.0640625,0.1124074074074075],[-0.027395833333333286,0.08222222222222218],[-0.021041666666666715,0.030555555555555555],[-0.0702083333333333,-0.007777777777777862],[-0.10697916666666671,-0.0257407407407407],[-0.14427083333333332,-0.03814814814814819],[-0.20031249999999995,-0.005370370370370328],[-0.2235416666666667,0.035740740740740656],[-0.2235416666666667,0.035740740740740656],[-0.2765625,0.08888888888888889],[-0.2765625,0.08888888888888889],[-0.2869791666666667,0.09574074074074082],[-0.28500000000000003,0.10462962962962963],[-0.2998958333333333,0.10833333333333334],[-0.28187500000000004,0.1175925925925926],[-0.2604166666666667,0.13148148148148148],[-0.2604166666666667,0.13148148148148148],[-0.2730208333333334,0.16074074074074066],[-0.2730208333333334,0.16074074074074066],[-0.2873958333333333,0.19962962962962955],[-0.2873958333333333,0.19962962962962955],[-0.27020833333333333,0.17777777777777778],[-0.27020833333333333,0.17777777777777778],[-0.23239583333333336,0.16444444444444437],[-0.23239583333333336,0.16444444444444437],[-0.20125000000000004,0.19166666666666668],[-0.20125000000000004,0.19166666666666668],[-0.20083333333333328,0.1794444444444444],[-0.21468750000000003,0.17629629629629637],[-0.2263541666666666,0.17907407407407416],[-0.24333333333333335,0.1537037037037037],[-0.2603125,0.12833333333333324],[-0.2783333333333334,0.10240740740740732],[-0.25541666666666674,0.08333333333333333],[-0.2695833333333333,0.06574074074074074],[-0.3076041666666666,0.06574074074074074],[-0.2601041666666667,-0.014259259259259343],[-0.2791666666666667,-0.01574074074074074],[-0.25666666666666665,-0.036666666666666584],[-0.24031250000000004,-0.056851851851851834],[-0.22437499999999996,-0.06074074074074076],[-0.23041666666666671,-0.07592592592592592],[-0.2045833333333333,-0.09814814814814815],[-0.25354166666666667,-0.06981481481481479],[-0.26229166666666665,-0.0338888888888888],[-0.24947916666666667,-0.0418518518518519],[-0.28572916666666665,-0.02240740740740745],[-0.26833333333333337,0.0235185185185186],[-0.290625,0.07777777777777778],[-0.29666666666666663,0.10796296296296289],[-0.3182291666666667,0.13240740740740742],[-0.3489583333333333,0.13944444444444437],[-0.41781250000000003,0.19462962962962968],[-0.4510416666666667,0.18277777777777787],[-0.443125,0.13537037037037042],[-0.41916666666666663,0.12777777777777777],[-0.4517708333333334,0.11388888888888889],[-0.47125,0.03981481481481482],[-0.4523958333333333,0.016111111111111194],[-0.4452083333333333,-0.02759259259259255],[-0.42687499999999995,-0.039074074074074115],[-0.3523958333333333,-0.034074074074074034],[-0.2883333333333333,-0.04018518518518527],[-0.22427083333333328,-0.046296296296296294],[-0.19739583333333333,-0.006666666666666709],[-0.20812499999999995,0.03462962962962971],[-0.1622916666666666,0.08222222222222218],[-0.09249999999999996,0.0992592592592593],[-0.08354166666666671,0.08833333333333342],[-0.11395833333333331,0.12851851851851848],[-0.14395833333333338,0.14888888888888885],[-0.11677083333333335,0.1537037037037037],[-0.11604166666666664,0.14629629629629629],[-0.09395833333333338,0.11296296296296296],[-0.07875000000000003,0.11500000000000005],[-0.06791666666666671,0.13148148148148148],[-0.06791666666666671,0.13148148148148148],[-0.05770833333333331,0.12185185185185177],[-0.08104166666666662,0.16203703703703703],[-0.08187500000000002,0.17981481481481484],[-0.046875,0.17833333333333326],[-0.011874999999999976,0.17685185185185184],[-0.07906249999999998,0.18592592592592588],[-0.11333333333333329,0.16518518518518527],[-0.1391666666666667,0.16518518518518527],[-0.15812499999999996,0.12981481481481486],[-0.16458333333333333,0.11222222222222226],[-0.1704166666666667,0.12074074074074083],[-0.16666666666666666,0.10999999999999996],[-0.16822916666666668,0.10444444444444441],[-0.16687500000000005,0.10444444444444441],[-0.16822916666666668,0.09018518518518527],[-0.14052083333333332,0.09499999999999992],[-0.10395833333333329,0.06351851851851843],[-0.09718749999999995,0.03722222222222227],[-0.13843749999999996,0.057777777777777865],[-0.18781249999999997,0.0485185185185186],[-0.22385416666666663,0.02555555555555547],[-0.23937499999999995,-0.01444444444444436],[-0.265625,-0.06018518518518518],[-0.29500000000000004,-0.11685185185185189],[-0.3216666666666666,-0.15925925925925927],[-0.35812499999999997,-0.1366666666666667],[-0.40177083333333335,-0.06092592592592588],[-0.4014583333333333,-0.026851851851851852],[-0.3710416666666667,-0.005740740740740783],[-0.3047916666666667,0.03314814814814811],[-0.26322916666666674,0.08296296296296288],[-0.24104166666666665,0.1425925925925926],[-0.19864583333333338,0.17592592592592593],[-0.1688541666666667,0.2094444444444445],[-0.13677083333333329,0.230925925925926],[-0.07489583333333331,0.20018518518518522],[0.0048958333333333805,0.1668518518518519],[0.04072916666666669,0.17518518518518522],[0.08302083333333338,0.18555555555555564],[0.08947916666666676,0.17814814814814822],[0.11614583333333334,0.15388888888888894],[0.11614583333333334,0.15388888888888894],[0.15395833333333328,0.10481481481481486],[0.1868750000000001,0.09055555555555551],[0.2413541666666667,0.0955555555555556],[0.3023958333333333,0.08629629629629634],[0.334375,0.062407407407407495],[0.33624999999999994,0.012407407407407492],[0.34375,-0.009259259259259259],[0.3637500000000001,-0.0448148148148149],[0.3837500000000001,-0.08037037037037033],[0.3654166666666666,-0.1081481481481481],[0.3654166666666666,-0.1081481481481481],[0.39260416666666675,-0.09888888888888885],[0.39260416666666675,-0.09888888888888885],[0.459375,-0.12370370370370372],[0.4794791666666666,-0.11444444444444446],[0.46156249999999993,-0.11055555555555553],[0.4436458333333334,-0.10666666666666672],[0.4436458333333334,-0.10666666666666672],[0.48333333333333334,-0.07907407407407405],[0.4983333333333334,-0.10129629629629627],[0.5067708333333333,-0.12981481481481486],[0.5067708333333333,-0.12981481481481486],[0.5240624999999999,-0.14351851851851852],[0.5240624999999999,-0.14351851851851852],[0.5586458333333333,-0.1655555555555555],[0.5586458333333333,-0.1655555555555555],[0.5572916666666666,-0.19740740740740745],[0.5238541666666667,-0.22518518518518524],[0.5238541666666667,-0.22518518518518524],[0.53125,-0.29555555555555557],[0.5503125,-0.32388888888888884],[0.6094791666666666,-0.3774074074074074],[0.6328125,-0.4301851851851852],[0.6708333333333333,-0.4346296296296296],[0.714375,-0.45481481481481484],[0.7159375,-0.472037037037037],[0.7117708333333332,-0.45111111111111113],[0.7526041666666666,-0.4757407407407407],[0.7526041666666666,-0.4757407407407407],[0.7866666666666667,-0.47833333333333333],[0.7716666666666666,-0.43944444444444447],[0.7741666666666667,-0.41092592592592586],[0.7572916666666667,-0.4311111111111111],[0.7629166666666668,-0.4812962962962963],[0.7728125000000001,-0.4807407407407408],[0.8165625000000001,-0.5355555555555556],[0.8701041666666666,-0.5964814814814815],[0.9271874999999999,-0.6635185185185185],[0.9271874999999999,-0.6635185185185185],[0.9180208333333333,-0.6351851851851852],[0.9051041666666667,-0.5894444444444444],[0.9027083333333332,-0.5977777777777779],[0.9003125,-0.6061111111111112],[0.8926041666666668,-0.5146296296296295],[0.8465625,-0.3846296296296296],[0.8378125,-0.3512962962962963],[0.7983333333333335,-0.2711111111111111],[0.7650000000000001,-0.24407407407407408],[0.7292708333333332,-0.20240740740740742],[0.6855208333333332,-0.2103703703703704],[0.635625,-0.2270370370370371],[0.6104166666666667,-0.19240740740740736],[0.583125,-0.13481481481481483],[0.5128125,-0.125],[0.4583333333333333,-0.12370370370370372],[0.40989583333333335,-0.14240740740740737],[0.3693749999999999,-0.1485185185185185],[0.34104166666666674,-0.11703703703703702],[0.2791666666666667,-0.07074074074074072],[0.2400000000000001,-0.021851851851851768],[0.2361458333333334,-0.04722222222222222],[0.2361458333333334,-0.04722222222222222],[0.22000000000000006,-0.05888888888888891],[0.21322916666666672,-0.10407407407407405],[0.23989583333333328,-0.12740740740740744],[0.240625,-0.14462962962962966],[0.19812500000000005,-0.1227777777777778]]","[[0.26510416666666664,0.13870370370370366,0.00020000000006348273],[0.26510416666666664,0.13870370370370366,0.03940000000002186],[0.24989583333333343,0.06851851851851852,0.04560000000009268],[0.2507291666666667,0.034444444444444486,0.061900000000022715],[0.2861458333333334,-0.020370370370370372,0.07849999999999824],[0.26760416666666675,0.03296296296296288,0.09520000000006945],[0.25281250000000005,0.021851851851851768,0.11190000000001987],[0.2620833333333332,-0.010185185185185186,0.12860000000009109],[0.26708333333333345,-0.053148148148148125,0.1452000000000666],[0.26458333333333334,-0.08055555555555556,0.16190000000001703],[0.2907291666666666,-0.14074074074074075,0.17849999999999966],[0.3538541666666667,-0.17518518518518522,0.19520000000006377],[0.48427083333333343,-0.175,0.21320000000006445],[0.5010416666666667,-0.17814814814814814,0.23180000000004242],[0.47718749999999993,-0.08722222222222227,0.24530000000004293],[0.409375,-0.046296296296296294,0.26190000000001845],[0.409375,-0.046296296296296294,0.27870000000006456],[0.42333333333333345,-0.021296296296296296,0.2987000000000677],[0.38645833333333335,-0.08777777777777773,0.3127000000000635],[0.44479166666666664,-0.0772222222222222,0.3288000000000437],[0.3910416666666668,-0.02092592592592584,0.34540000000001925],[0.31749999999999995,0.032777777777777864,0.3643000000000427],[0.26708333333333345,0.08351851851851856,0.378700000000066],[0.10364583333333334,0.16962962962962966,0.3953000000000415],[0.05406249999999998,0.1853703703703704,0.4139000000000195],[0.05406249999999998,0.1853703703703704,0.42880000000004515],[0.04635416666666667,0.12481481481481477,0.44530000000004577],[0.11593749999999996,0.04870370370370362,0.4618000000000464],[0.10708333333333328,0.013888888888888888,0.4818000000000424],[0.16458333333333333,0.054259259259259174,0.49530000000004293],[0.14458333333333329,0.034999999999999955,0.5119000000000185],[0.14458333333333329,0.034999999999999955,0.5286000000000897],[0.23666666666666672,-0.030000000000000086,0.5453000000000401],[0.28927083333333337,-0.07333333333333338,0.5638000000000432],[0.28927083333333337,-0.07333333333333338,0.5784999999999982],[0.27999999999999997,-0.07962962962962963,0.5952000000000695],[0.31614583333333335,-0.1398148148148148,0.6153000000000404],[0.31614583333333335,-0.1398148148148148,0.6286000000000911],[0.29031250000000003,-0.1705555555555556,0.6452000000000666],[0.29031250000000003,-0.1705555555555556,0.6649000000000171],[0.20583333333333323,-0.07740740740740742,0.6788000000000451],[0.20583333333333323,-0.07740740740740742,0.6953000000000458],[0.1474999999999999,-0.013333333333333417,0.7148000000000465],[0.1508333333333333,0.027037037037037078,0.7287000000000674],[0.08093750000000005,0.09259259259259259,0.7454000000000178],[-0.008020833333333382,0.1587037037037038,0.7639000000000209],[-0.07135416666666666,0.18907407407407412,0.7787000000000646],[-0.08135416666666669,0.23925925925925934,0.7953000000000401],[-0.057604166666666616,0.23666666666666658,0.8149999999999977],[-0.057604166666666616,0.23666666666666658,0.8288000000000437],[-0.11739583333333338,0.3635185185185184,0.8454000000000192],[-0.12770833333333337,0.48518518518518516,0.8619999999999948],[-0.041666666666666664,0.4403703703703703,0.8784999999999954],[-0.0015625,0.45111111111111113,0.8952000000000666],[-0.02510416666666669,0.4751851851851852,0.9118000000000421],[0.009062500000000048,0.4903703703703703,0.9286000000000882],[0.044166666666666646,0.49314814814814806,0.9469999999999956],[0.04364583333333331,0.4918518518518519,0.9618000000000464],[-0.009687499999999953,0.5361111111111111,0.9784999999999968],[-0.05802083333333338,0.5990740740740741,0.9956000000000884],[-0.02687499999999995,0.5348148148148147,1.012200000000064],[-0.019166666666666644,0.5003703703703705,1.0287000000000646],[-0.08989583333333329,0.5246296296296296,1.0484000000000222],[-0.057500000000000044,0.4553703703703703,1.0642000000000635],[-0.0328125,0.40907407407407403,1.0786000000000868],[-0.04708333333333338,0.352962962962963,1.0952000000000695],[-0.03843749999999998,0.31666666666666665,1.111800000000045],[-0.036458333333333336,0.31851851851851853,1.128600000000091],[-0.0032291666666666905,0.26129629629629636,1.1452000000000666],[0.09072916666666657,0.18407407407407403,1.161900000000017],[0.15166666666666656,0.15907407407407403,1.1784999999999997],[0.16239583333333343,0.1427777777777778,1.1952000000000638],[0.21260416666666657,0.09259259259259259,1.2119000000000213],[0.19833333333333342,0.08518518518518518,1.2286000000000925],[0.15916666666666662,0.08925925925925934,1.245200000000068],[0.19833333333333342,0.09185185185185189,1.2618000000000436],[0.21927083333333333,0.08000000000000008,1.278499999999994],[0.22166666666666662,0.08666666666666659,1.2952000000000652],[0.25760416666666663,0.04814814814814815,1.3119000000000227],[0.2181250000000001,0.05351851851851848,1.3286000000000868],[0.1961458333333333,0.08777777777777773,1.3469000000000193],[0.1851041666666667,0.08888888888888889,1.3619000000000199],[0.19666666666666663,0.10981481481481473,1.3784999999999954],[0.14333333333333323,0.14296296296296304,1.3952000000000666],[0.21531250000000005,0.11185185185185181,1.411900000000017],[0.19114583333333332,0.11777777777777781,1.4317000000000633],[0.1740624999999999,0.14333333333333328,1.4454000000000207],[0.1642708333333334,0.11907407407407399,1.4619000000000213],[0.12666666666666657,0.19407407407407398,1.478400000000022],[0.12666666666666657,0.19407407407407398,1.495200000000068],[0.14375,0.225,1.5119999999999933],[0.11572916666666658,0.22240740740740744,1.530600000000092],[0.15833333333333333,0.2624074074074075,1.5451000000000903],[0.14833333333333343,0.2511111111111112,1.5619000000000227],[0.190625,0.22666666666666663,1.5784999999999982],[0.16854166666666662,0.26074074074074066,1.5951000000000874],[0.20322916666666657,0.26907407407407397,1.611800000000045],[0.24093749999999994,0.22148148148148153,1.6284999999999954],[0.3220833333333334,0.17629629629629637,1.647300000000044],[0.3216666666666666,0.15222222222222231,1.661999999999999],[0.28020833333333334,0.15925925925925927,1.6787000000000631],[0.24520833333333342,0.18185185185185193,1.6982000000000639],[0.19760416666666672,0.1574074074074074,1.712800000000044],[0.17937500000000003,0.16537037037037028,1.7287000000000674],[0.17312500000000006,0.13037037037037033,1.748400000000018],[0.12614583333333323,0.12092592592592584,1.7631000000000867],[0.0931250000000001,0.08722222222222227,1.778499999999994],[0.05,0.08981481481481482,1.7952000000000652],[-0.02010416666666662,0.1418518518518519,1.8118000000000407],[-0.01864583333333331,0.1300000000000001,1.8287000000000688],[-0.0296875,0.11777777777777781,1.8452000000000695],[-0.019583333333333286,0.09462962962962967,1.8619000000000199],[-0.04552083333333338,0.08944444444444435,1.8784999999999954],[-0.034166666666666616,0.06611111111111119,1.8967000000000667],[-0.042604166666666644,0.0977777777777777,1.911900000000017],[-0.08083333333333335,0.17185185185185176,1.9284999999999997],[-0.16625000000000004,0.2544444444444444,1.9452000000000638],[-0.19031250000000005,0.2705555555555556,1.9618000000000464],[-0.22666666666666668,0.2627777777777777,1.9784999999999968],[-0.21604166666666663,0.28166666666666673,1.9951000000000931],[-0.20656249999999995,0.22870370370370371,2.0119000000000185],[-0.1998958333333333,0.19240740740740736,2.0319999999999965],[-0.19270833333333334,0.19722222222222222,2.0471000000000927],[-0.22541666666666665,0.24537037037037038,2.0619000000000227],[-0.253125,0.2627777777777777,2.0784999999999982],[-0.2591666666666666,0.21129629629629634,2.097200000000065],[-0.19239583333333338,0.1544444444444444,2.1151000000000906],[-0.18697916666666667,0.16407407407407412,2.1307000000000684],[-0.16302083333333334,0.1757407407407407,2.1452000000000666],[-0.18031250000000001,0.14666666666666675,2.1638000000000446],[-0.21375000000000005,0.19166666666666668,2.1784999999999997],[-0.22062499999999996,0.17888888888888893,2.1953000000000458],[-0.21208333333333335,0.1757407407407407,2.2119000000000213],[-0.21156250000000001,0.14685185185185176,2.2286000000000925],[-0.18468749999999995,0.1300000000000001,2.245200000000068],[-0.16010416666666671,0.11888888888888897,2.265300000000046],[-0.16833333333333336,0.10944444444444448,2.278499999999994],[-0.18177083333333333,0.11129629629629634,2.2957000000000676],[-0.19645833333333335,0.1316666666666667,2.3143000000000455],[-0.2048958333333334,0.09814814814814815,2.330800000000046],[-0.18250000000000005,0.05185185185185185,2.3451000000000874],[-0.17156250000000003,0.054074074074074156,2.364100000000093],[-0.12458333333333335,0.04296296296296305,2.378600000000091],[-0.11458333333333333,0.037037037037037035,2.3951000000000917],[-0.09572916666666664,0.03814814814814819,2.411999999999999],[-0.09572916666666664,0.03814814814814819,2.4286000000000882],[-0.06375000000000004,0.04759259259259268,2.4452000000000638],[-0.051145833333333356,0.08203703703703695,2.4642000000000692],[-0.019583333333333286,0.1124074074074075,2.479999999999997],[-0.019583333333333286,0.1124074074074075,2.4977000000000658],[-0.011666666666666714,0.04388888888888897,2.5163000000000437],[-0.011666666666666714,0.04388888888888897,2.5287000000000646],[0.0067708333333333336,0.10462962962962963,2.545400000000022],[0.0067708333333333336,0.10462962962962963,2.5619000000000227],[0.07937500000000004,0.048333333333333374,2.5784999999999982],[0.07937500000000004,0.048333333333333374,2.5952000000000695],[0.1515625,0.030555555555555555,2.611800000000045],[0.1515625,0.030555555555555555,2.6284999999999954],[0.2205208333333334,-0.009444444444444486,2.6452000000000666],[0.2205208333333334,-0.009444444444444486,2.661800000000042],[0.37135416666666665,-0.07685185185185185,2.6784999999999997],[0.4354166666666667,-0.08444444444444449,2.698900000000023],[0.4354166666666667,-0.08444444444444449,2.7118000000000464],[0.5597916666666668,-0.1522222222222222,2.7286000000000925],[0.7061458333333335,-0.22518518518518524,2.745200000000068],[0.7907291666666666,-0.2831481481481481,2.7618000000000436],[0.9054166666666668,-0.2577777777777778,2.778400000000019],[0.9554166666666667,-0.3198148148148148,2.795499999999997],[0.9402083333333332,-0.26666666666666666,2.8119999999999976],[0.8712500000000001,-0.2742592592592593,2.828600000000087],[0.7613541666666668,-0.2831481481481481,2.8452000000000695],[0.6334374999999999,-0.29907407407407405,2.861800000000045],[0.5598958333333334,-0.37518518518518523,2.881999999999998],[0.39479166666666665,-0.34740740740740744,2.895900000000019],[0.2497916666666666,-0.36203703703703705,2.911900000000017],[0.2497916666666666,-0.36203703703703705,2.9286000000000882],[0.15281250000000005,-0.39888888888888885,2.9453000000000458],[0.058541666666666714,-0.4274074074074074,2.9618000000000464],[-0.019375000000000024,-0.35240740740740745,2.978499999999997],[-0.06947916666666672,-0.30759259259259264,2.995200000000068],[-0.07593749999999998,-0.24574074074074073,3.0119000000000185],[-0.07541666666666665,-0.1911111111111111,3.0287000000000646],[-0.05645833333333338,-0.12481481481481477,3.045200000000065],[-0.0375,-0.05851851851851856,3.0618000000000407],[-0.003854166666666714,-0.05703703703703706,3.0784000000000233],[-0.016770833333333356,-0.027037037037037078,3.0952000000000695],[-0.03250000000000005,0.003703703703703704,3.111800000000045],[-0.057395833333333354,0.021296296296296296,3.128700000000066],[-0.05249999999999998,-0.04222222222222214,3.1452000000000666],[-0.09041666666666662,-0.09574074074074072,3.1637000000000697],[-0.07572916666666671,-0.10111111111111115,3.178700000000063],[-0.05770833333333331,-0.052037037037037076,3.1956000000000913],[-0.058333333333333334,-0.0031481481481482323,3.211999999999996],[-0.07760416666666667,0.039074074074074115,3.2308000000000447],[-0.06895833333333339,0.046296296296296294,3.245300000000043],[-0.05927083333333331,0.05944444444444449,3.2619999999999933],[-0.052083333333333336,0.07796296296296301,3.2786000000000897],[-0.050520833333333334,0.08481481481481473,3.296999999999997],[-0.035312499999999976,0.11148148148148157,3.3119000000000227],[0.005937500000000048,0.16018518518518518,3.328600000000087],[-0.024374999999999977,0.1685185185185185,3.346999999999994],[-0.03312499999999995,0.1227777777777777,3.361800000000045],[-0.05322916666666669,0.07629629629629638,3.378600000000091],[-0.06614583333333333,0.017592592592592594,3.3951000000000917],[-0.05343749999999995,0.00592592592592601,3.411900000000017],[-0.04125000000000002,-0.0448148148148149,3.4301000000000883],[-0.04593750000000003,-0.027962962962963005,3.445100000000089],[-0.03854166666666667,0.005370370370370328,3.4618000000000464],[-0.05447916666666662,-0.0005555555555554713,3.478499999999997],[-0.05447916666666662,-0.010185185185185186,3.495200000000068],[-0.06635416666666671,-0.004074074074074159,3.5118000000000436],[-0.07374999999999995,0,3.5298000000000442],[-0.09135416666666671,0.022777777777777692,3.5459000000000174],[-0.08395833333333336,0.08666666666666659,3.5629999999999953],[-0.11104166666666669,0.11351851851851844,3.5784999999999982],[-0.11781250000000003,0.18037037037037032,3.5953000000000443],[-0.10239583333333328,0.1735185185185186,3.611800000000045],[-0.07302083333333335,0.1646296296296296,3.6284999999999954],[-0.07739583333333329,0.1737037037037036,3.6451000000000917],[-0.05,0.18555555555555564,3.6639999999999944],[-0.05,0.18555555555555564,3.6784999999999997],[0.006458333333333381,0.17166666666666675,3.6952000000000638],[0.06635416666666671,0.16074074074074066,3.7118000000000464],[0.11614583333333334,0.15703703703703695,3.7308000000000447],[0.1538541666666667,0.11666666666666667,3.745200000000068],[0.19104166666666675,0.10351851851851848,3.7619000000000185],[0.2273958333333333,0.11370370370370367,3.778400000000019],[0.26375000000000004,0.12388888888888884,3.796999999999997],[0.24104166666666677,0.11796296296296305,3.8118000000000407],[0.2620833333333332,0.105925925925926,3.8288000000000437],[0.225,0.09518518518518514,3.8451000000000874],[0.1955208333333334,0.07740740740740733,3.8629000000000175],[0.11906249999999995,0.05314814814814823,3.8813000000000457],[0.12541666666666676,-0.05462962962962963,3.8951000000000917],[0.13010416666666677,-0.1081481481481481,3.911999999999999],[0.16239583333333343,-0.1896296296296296,3.93190000000002],[0.12531249999999997,-0.18925925925925924,3.9454000000000207],[0.11354166666666667,-0.20111111111111116,3.9618000000000464],[0.146875,-0.1948148148148148,3.978400000000022],[0.17374999999999996,-0.20018518518518522,3.995100000000093],[0.21104166666666657,-0.2059259259259259,4.0119000000000185],[0.2178124999999999,-0.18277777777777776,4.028999999999996],[0.25062499999999993,-0.16888888888888887,4.04510000000009],[0.20031249999999995,-0.07481481481481478,4.061800000000041],[0.20031249999999995,-0.07481481481481478,4.078400000000023],[0.1502083333333334,-0.020555555555555598,4.0951000000000874],[0.036354166666666646,0.09981481481481477,4.111800000000045],[-0.003958333333333286,0.1427777777777778,4.128600000000091],[-0.017499999999999953,0.18000000000000008,4.145100000000092],[-0.009375,0.1814814814814815,4.161700000000067],[0.005729166666666666,0.18907407407407412,4.178400000000018],[0.0009374999999999763,0.19296296296296306,4.195100000000089],[-0.010520833333333358,0.14055555555555552,4.211800000000046],[-0.03135416666666669,0.10685185185185193,4.231900000000017],[-0.04770833333333328,0.10962962962962972,4.245100000000093],[-0.0640625,0.1124074074074075,4.2618000000000436],[-0.027395833333333286,0.08222222222222218,4.278400000000019],[-0.021041666666666715,0.030555555555555555,4.295200000000065],[-0.0702083333333333,-0.007777777777777862,4.311800000000041],[-0.10697916666666671,-0.0257407407407407,4.329200000000064],[-0.14427083333333332,-0.03814814814814819,4.3451000000000874],[-0.20031249999999995,-0.005370370370370328,4.361800000000045],[-0.2235416666666667,0.035740740740740656,4.381800000000041],[-0.2235416666666667,0.035740740740740656,4.395100000000092],[-0.2765625,0.08888888888888889,4.411800000000042],[-0.2765625,0.08888888888888889,4.428600000000088],[-0.2869791666666667,0.09574074074074082,4.445100000000089],[-0.28500000000000003,0.10462962962962963,4.461800000000046],[-0.2998958333333333,0.10833333333333334,4.478499999999997],[-0.28187500000000004,0.1175925925925926,4.49740000000002],[-0.2604166666666667,0.13148148148148148,4.5118000000000436],[-0.2604166666666667,0.13148148148148148,4.528499999999994],[-0.2730208333333334,0.16074074074074066,4.545200000000065],[-0.2730208333333334,0.16074074074074066,4.561800000000041],[-0.2873958333333333,0.19962962962962955,4.578499999999998],[-0.2873958333333333,0.19962962962962955,4.5951000000000874],[-0.27020833333333333,0.17777777777777778,4.61190000000002],[-0.27020833333333333,0.17777777777777778,4.628499999999995],[-0.23239583333333336,0.16444444444444437,4.6453000000000415],[-0.23239583333333336,0.16444444444444437,4.661800000000042],[-0.20125000000000004,0.19166666666666668,4.678400000000018],[-0.20125000000000004,0.19166666666666668,4.695100000000089],[-0.20083333333333328,0.1794444444444444,4.711800000000046],[-0.21468750000000003,0.17629629629629637,4.728499999999997],[-0.2263541666666666,0.17907407407407416,4.745100000000093],[-0.24333333333333335,0.1537037037037037,4.7618000000000436],[-0.2603125,0.12833333333333324,4.778400000000019],[-0.2783333333333334,0.10240740740740732,4.79510000000009],[-0.25541666666666674,0.08333333333333333,4.812999999999995],[-0.2695833333333333,0.06574074074074074,4.8297000000000665],[-0.3076041666666666,0.06574074074074074,4.8451000000000874],[-0.2601041666666667,-0.014259259259259343,4.861800000000045],[-0.2791666666666667,-0.01574074074074074,4.878499999999995],[-0.25666666666666665,-0.036666666666666584,4.895100000000092],[-0.24031250000000004,-0.056851851851851834,4.911700000000067],[-0.22437499999999996,-0.06074074074074076,4.928700000000063],[-0.23041666666666671,-0.07592592592592592,4.945100000000089],[-0.2045833333333333,-0.09814814814814815,4.9631000000000896],[-0.25354166666666667,-0.06981481481481479,4.978499999999997],[-0.26229166666666665,-0.0338888888888888,4.995100000000093],[-0.24947916666666667,-0.0418518518518519,5.0119000000000185],[-0.28572916666666665,-0.02240740740740745,5.02860000000009],[-0.26833333333333337,0.0235185185185186,5.045200000000065],[-0.290625,0.07777777777777778,5.061800000000041],[-0.29666666666666663,0.10796296296296289,5.078400000000023],[-0.3182291666666667,0.13240740740740742,5.0952000000000695],[-0.3489583333333333,0.13944444444444437,5.1121000000000905],[-0.41781250000000003,0.19462962962962968,5.129800000000046],[-0.4510416666666667,0.18277777777777787,5.145100000000092],[-0.443125,0.13537037037037042,5.1623000000000445],[-0.41916666666666663,0.12777777777777777,5.178400000000018],[-0.4517708333333334,0.11388888888888889,5.195200000000064],[-0.47125,0.03981481481481482,5.211800000000046],[-0.4523958333333333,0.016111111111111194,5.228499999999997],[-0.4452083333333333,-0.02759259259259255,5.244999999999997],[-0.42687499999999995,-0.039074074074074115,5.2618000000000436],[-0.3523958333333333,-0.034074074074074034,5.278499999999994],[-0.2883333333333333,-0.04018518518518527,5.29640000000002],[-0.22427083333333328,-0.046296296296296294,5.311800000000041],[-0.19739583333333333,-0.006666666666666709,5.330800000000046],[-0.20812499999999995,0.03462962962962971,5.3451000000000874],[-0.1622916666666666,0.08222222222222218,5.361800000000045],[-0.09249999999999996,0.0992592592592593,5.378499999999995],[-0.08354166666666671,0.08833333333333342,5.395100000000092],[-0.11395833333333331,0.12851851851851848,5.411900000000017],[-0.14395833333333338,0.14888888888888885,5.432800000000043],[-0.11677083333333335,0.1537037037037037,5.446800000000046],[-0.11604166666666664,0.14629629629629629,5.462999999999994],[-0.09395833333333338,0.11296296296296296,5.478400000000022],[-0.07875000000000003,0.11500000000000005,5.495200000000068],[-0.06791666666666671,0.13148148148148148,5.511700000000069],[-0.06791666666666671,0.13148148148148148,5.528499999999994],[-0.05770833333333331,0.12185185185185177,5.54510000000009],[-0.08104166666666662,0.16203703703703703,5.561900000000023],[-0.08187500000000002,0.17981481481481484,5.578499999999998],[-0.046875,0.17833333333333326,5.5951000000000874],[-0.011874999999999976,0.17685185185185184,5.611700000000063],[-0.07906249999999998,0.18592592592592588,5.6321000000000865],[-0.11333333333333329,0.16518518518518527,5.647400000000019],[-0.1391666666666667,0.16518518518518527,5.661900000000017],[-0.15812499999999996,0.12981481481481486,5.6785],[-0.16458333333333333,0.11222222222222226,5.697300000000041],[-0.1704166666666667,0.12074074074074083,5.711800000000046],[-0.16666666666666666,0.10999999999999996,5.728700000000067],[-0.16822916666666668,0.10444444444444441,5.745300000000043],[-0.16687500000000005,0.10444444444444441,5.761700000000069],[-0.16822916666666668,0.09018518518518527,5.778400000000019],[-0.14052083333333332,0.09499999999999992,5.795400000000022],[-0.10395833333333329,0.06351851851851843,5.811800000000041],[-0.09718749999999995,0.03722222222222227,5.828499999999998],[-0.13843749999999996,0.057777777777777865,5.8452000000000695],[-0.18781249999999997,0.0485185185185186,5.861700000000063],[-0.22385416666666663,0.02555555555555547,5.8784000000000205],[-0.23937499999999995,-0.01444444444444436,5.897300000000044],[-0.265625,-0.06018518518518518,5.911700000000067],[-0.29500000000000004,-0.11685185185185189,5.928999999999995],[-0.3216666666666666,-0.15925925925925927,5.947100000000091],[-0.35812499999999997,-0.1366666666666667,5.961900000000021],[-0.40177083333333335,-0.06092592592592588,5.9786000000000925],[-0.4014583333333333,-0.026851851851851852,5.9986000000000885],[-0.3710416666666667,-0.005740740740740783,6.013700000000064],[-0.3047916666666667,0.03314814814814811,6.030999999999999],[-0.26322916666666674,0.08296296296296288,6.04810000000009],[-0.24104166666666665,0.1425925925925926,6.063100000000091],[-0.19864583333333338,0.17592592592592593,6.078499999999998],[-0.1688541666666667,0.2094444444444445,6.0952000000000695],[-0.13677083333333329,0.230925925925926,6.113700000000065],[-0.07489583333333331,0.20018518518518522,6.128800000000041],[0.0048958333333333805,0.1668518518518519,6.147499999999994],[0.04072916666666669,0.17518518518518522,6.165300000000045],[0.08302083333333338,0.18555555555555564,6.179700000000068],[0.08947916666666676,0.17814814814814822,6.195300000000046],[0.11614583333333334,0.15388888888888894,6.215100000000092],[0.11614583333333334,0.15388888888888894,6.228700000000067],[0.15395833333333328,0.10481481481481486,6.245300000000043],[0.1868750000000001,0.09055555555555551,6.261999999999993],[0.2413541666666667,0.0955555555555556,6.281200000000069],[0.3023958333333333,0.08629629629629634,6.295200000000065],[0.334375,0.062407407407407495,6.315300000000043],[0.33624999999999994,0.012407407407407492,6.332300000000046],[0.34375,-0.009259259259259259,6.3483000000000445],[0.3637500000000001,-0.0448148148148149,6.36380000000004],[0.3837500000000001,-0.08037037037037033,6.378800000000041],[0.3654166666666666,-0.1081481481481481,6.395700000000069],[0.3654166666666666,-0.1081481481481481,6.4375],[0.39260416666666675,-0.09888888888888885,6.444300000000041],[0.39260416666666675,-0.09888888888888885,6.451499999999996],[0.459375,-0.12370370370370372,6.461800000000046],[0.4794791666666666,-0.11444444444444446,6.478400000000022],[0.46156249999999993,-0.11055555555555553,6.495100000000093],[0.4436458333333334,-0.10666666666666672,6.5119000000000185],[0.4436458333333334,-0.10666666666666672,6.528800000000047],[0.48333333333333334,-0.07907407407407405,6.54510000000009],[0.4983333333333334,-0.10129629629629627,6.567900000000023],[0.5067708333333333,-0.12981481481481486,6.582999999999998],[0.5067708333333333,-0.12981481481481486,6.5951000000000874],[0.5240624999999999,-0.14351851851851852,6.611800000000045],[0.5240624999999999,-0.14351851851851852,6.631900000000023],[0.5586458333333333,-0.1655555555555555,6.645100000000092],[0.5586458333333333,-0.1655555555555555,6.661800000000042],[0.5572916666666666,-0.19740740740740745,6.678400000000018],[0.5238541666666667,-0.22518518518518524,6.698499999999996],[0.5238541666666667,-0.22518518518518524,6.711700000000064],[0.53125,-0.29555555555555557,6.728499999999997],[0.5503125,-0.32388888888888884,6.745100000000093],[0.6094791666666666,-0.3774074074074074,6.7619000000000185],[0.6328125,-0.4301851851851852,6.778400000000019],[0.6708333333333333,-0.4346296296296296,6.794999999999995],[0.714375,-0.45481481481481484,6.811700000000066],[0.7159375,-0.472037037037037,6.828400000000023],[0.7117708333333332,-0.45111111111111113,6.8451000000000874],[0.7526041666666666,-0.4757407407407407,6.864100000000093],[0.7526041666666666,-0.4757407407407407,6.8784000000000205],[0.7866666666666667,-0.47833333333333333,6.895100000000092],[0.7716666666666666,-0.43944444444444447,6.911700000000067],[0.7741666666666667,-0.41092592592592586,6.929100000000091],[0.7572916666666667,-0.4311111111111111,6.945100000000089],[0.7629166666666668,-0.4812962962962963,6.961800000000046],[0.7728125000000001,-0.4807407407407408,6.978400000000136],[0.8165625000000001,-0.5355555555555556,6.994999999999997],[0.8701041666666666,-0.5964814814814815,7.011699999999948],[0.9271874999999999,-0.6635185185185185,7.028699999999951],[0.9271874999999999,-0.6635185185185185,7.04510000000009],[0.9180208333333333,-0.6351851851851852,7.061900000000136],[0.9051041666666667,-0.5894444444444444,7.078400000000137],[0.9027083333333332,-0.5977777777777779,7.0951000000000874],[0.9003125,-0.6061111111111112,7.111800000000045],[0.8926041666666668,-0.5146296296296295,7.128499999999995],[0.8465625,-0.3846296296296296,7.145100000000092],[0.8378125,-0.3512962962962963,7.161699999999946],[0.7983333333333335,-0.2711111111111111,7.1801999999999495],[0.7650000000000001,-0.24407407407407408,7.195100000000089],[0.7292708333333332,-0.20240740740740742,7.211699999999951],[0.6855208333333332,-0.2103703703703704,7.232100000000088],[0.635625,-0.2270370370370371,7.2471000000000885],[0.6104166666666667,-0.19240740740740736,7.261699999999948],[0.583125,-0.13481481481481483,7.278499999999994],[0.5128125,-0.125,7.294999999999995],[0.4583333333333333,-0.12370370370370372,7.3134000000001365],[0.40989583333333335,-0.14240740740740737,7.328600000000087],[0.3693749999999999,-0.1485185185185185,7.344999999999999],[0.34104166666666674,-0.11703703703703702,7.361699999999949],[0.2791666666666667,-0.07074074074074072,7.378400000000134],[0.2400000000000001,-0.021851851851851768,7.395100000000092],[0.2361458333333334,-0.04722222222222222,7.411699999999946],[0.2361458333333334,-0.04722222222222222,7.431300000000043],[0.22000000000000006,-0.05888888888888891,7.445100000000089],[0.21322916666666672,-0.10407407407407405,7.461800000000046],[0.23989583333333328,-0.12740740740740744,7.478400000000136],[0.240625,-0.14462962962962966,7.494999999999997],[0.19812500000000005,-0.1227777777777778,7.511699999999948]]","[0.00020000000006348273,0.03940000000002186,0.04560000000009268,0.061900000000022715,0.07849999999999824,0.09520000000006945,0.11190000000001987,0.12860000000009109,0.1452000000000666,0.16190000000001703,0.17849999999999966,0.19520000000006377,0.21320000000006445,0.23180000000004242,0.24530000000004293,0.26190000000001845,0.27870000000006456,0.2987000000000677,0.3127000000000635,0.3288000000000437,0.34540000000001925,0.3643000000000427,0.378700000000066,0.3953000000000415,0.4139000000000195,0.42880000000004515,0.44530000000004577,0.4618000000000464,0.4818000000000424,0.49530000000004293,0.5119000000000185,0.5286000000000897,0.5453000000000401,0.5638000000000432,0.5784999999999982,0.5952000000000695,0.6153000000000404,0.6286000000000911,0.6452000000000666,0.6649000000000171,0.6788000000000451,0.6953000000000458,0.7148000000000465,0.7287000000000674,0.7454000000000178,0.7639000000000209,0.7787000000000646,0.7953000000000401,0.8149999999999977,0.8288000000000437,0.8454000000000192,0.8619999999999948,0.8784999999999954,0.8952000000000666,0.9118000000000421,0.9286000000000882,0.9469999999999956,0.9618000000000464,0.9784999999999968,0.9956000000000884,1.012200000000064,1.0287000000000646,1.0484000000000222,1.0642000000000635,1.0786000000000868,1.0952000000000695,1.111800000000045,1.128600000000091,1.1452000000000666,1.161900000000017,1.1784999999999997,1.1952000000000638,1.2119000000000213,1.2286000000000925,1.245200000000068,1.2618000000000436,1.278499999999994,1.2952000000000652,1.3119000000000227,1.3286000000000868,1.3469000000000193,1.3619000000000199,1.3784999999999954,1.3952000000000666,1.411900000000017,1.4317000000000633,1.4454000000000207,1.4619000000000213,1.478400000000022,1.495200000000068,1.5119999999999933,1.530600000000092,1.5451000000000903,1.5619000000000227,1.5784999999999982,1.5951000000000874,1.611800000000045,1.6284999999999954,1.647300000000044,1.661999999999999,1.6787000000000631,1.6982000000000639,1.712800000000044,1.7287000000000674,1.748400000000018,1.7631000000000867,1.778499999999994,1.7952000000000652,1.8118000000000407,1.8287000000000688,1.8452000000000695,1.8619000000000199,1.8784999999999954,1.8967000000000667,1.911900000000017,1.9284999999999997,1.9452000000000638,1.9618000000000464,1.9784999999999968,1.9951000000000931,2.0119000000000185,2.0319999999999965,2.0471000000000927,2.0619000000000227,2.0784999999999982,2.097200000000065,2.1151000000000906,2.1307000000000684,2.1452000000000666,2.1638000000000446,2.1784999999999997,2.1953000000000458,2.2119000000000213,2.2286000000000925,2.245200000000068,2.265300000000046,2.278499999999994,2.2957000000000676,2.3143000000000455,2.330800000000046,2.3451000000000874,2.364100000000093,2.378600000000091,2.3951000000000917,2.411999999999999,2.4286000000000882,2.4452000000000638,2.4642000000000692,2.479999999999997,2.4977000000000658,2.5163000000000437,2.5287000000000646,2.545400000000022,2.5619000000000227,2.5784999999999982,2.5952000000000695,2.611800000000045,2.6284999999999954,2.6452000000000666,2.661800000000042,2.6784999999999997,2.698900000000023,2.7118000000000464,2.7286000000000925,2.745200000000068,2.7618000000000436,2.778400000000019,2.795499999999997,2.8119999999999976,2.828600000000087,2.8452000000000695,2.861800000000045,2.881999999999998,2.895900000000019,2.911900000000017,2.9286000000000882,2.9453000000000458,2.9618000000000464,2.978499999999997,2.995200000000068,3.0119000000000185,3.0287000000000646,3.045200000000065,3.0618000000000407,3.0784000000000233,3.0952000000000695,3.111800000000045,3.128700000000066,3.1452000000000666,3.1637000000000697,3.178700000000063,3.1956000000000913,3.211999999999996,3.2308000000000447,3.245300000000043,3.2619999999999933,3.2786000000000897,3.296999999999997,3.3119000000000227,3.328600000000087,3.346999999999994,3.361800000000045,3.378600000000091,3.3951000000000917,3.411900000000017,3.4301000000000883,3.445100000000089,3.4618000000000464,3.478499999999997,3.495200000000068,3.5118000000000436,3.5298000000000442,3.5459000000000174,3.5629999999999953,3.5784999999999982,3.5953000000000443,3.611800000000045,3.6284999999999954,3.6451000000000917,3.6639999999999944,3.6784999999999997,3.6952000000000638,3.7118000000000464,3.7308000000000447,3.745200000000068,3.7619000000000185,3.778400000000019,3.796999999999997,3.8118000000000407,3.8288000000000437,3.8451000000000874,3.8629000000000175,3.8813000000000457,3.8951000000000917,3.911999999999999,3.93190000000002,3.9454000000000207,3.9618000000000464,3.978400000000022,3.995100000000093,4.0119000000000185,4.028999999999996,4.04510000000009,4.061800000000041,4.078400000000023,4.0951000000000874,4.111800000000045,4.128600000000091,4.145100000000092,4.161700000000067,4.178400000000018,4.195100000000089,4.211800000000046,4.231900000000017,4.245100000000093,4.2618000000000436,4.278400000000019,4.295200000000065,4.311800000000041,4.329200000000064,4.3451000000000874,4.361800000000045,4.381800000000041,4.395100000000092,4.411800000000042,4.428600000000088,4.445100000000089,4.461800000000046,4.478499999999997,4.49740000000002,4.5118000000000436,4.528499999999994,4.545200000000065,4.561800000000041,4.578499999999998,4.5951000000000874,4.61190000000002,4.628499999999995,4.6453000000000415,4.661800000000042,4.678400000000018,4.695100000000089,4.711800000000046,4.728499999999997,4.745100000000093,4.7618000000000436,4.778400000000019,4.79510000000009,4.812999999999995,4.8297000000000665,4.8451000000000874,4.861800000000045,4.878499999999995,4.895100000000092,4.911700000000067,4.928700000000063,4.945100000000089,4.9631000000000896,4.978499999999997,4.995100000000093,5.0119000000000185,5.02860000000009,5.045200000000065,5.061800000000041,5.078400000000023,5.0952000000000695,5.1121000000000905,5.129800000000046,5.145100000000092,5.1623000000000445,5.178400000000018,5.195200000000064,5.211800000000046,5.228499999999997,5.244999999999997,5.2618000000000436,5.278499999999994,5.29640000000002,5.311800000000041,5.330800000000046,5.3451000000000874,5.361800000000045,5.378499999999995,5.395100000000092,5.411900000000017,5.432800000000043,5.446800000000046,5.462999999999994,5.478400000000022,5.495200000000068,5.511700000000069,5.528499999999994,5.54510000000009,5.561900000000023,5.578499999999998,5.5951000000000874,5.611700000000063,5.6321000000000865,5.647400000000019,5.661900000000017,5.6785,5.697300000000041,5.711800000000046,5.728700000000067,5.745300000000043,5.761700000000069,5.778400000000019,5.795400000000022,5.811800000000041,5.828499999999998,5.8452000000000695,5.861700000000063,5.8784000000000205,5.897300000000044,5.911700000000067,5.928999999999995,5.947100000000091,5.961900000000021,5.9786000000000925,5.9986000000000885,6.013700000000064,6.030999999999999,6.04810000000009,6.063100000000091,6.078499999999998,6.0952000000000695,6.113700000000065,6.128800000000041,6.147499999999994,6.165300000000045,6.179700000000068,6.195300000000046,6.215100000000092,6.228700000000067,6.245300000000043,6.261999999999993,6.281200000000069,6.295200000000065,6.315300000000043,6.332300000000046,6.3483000000000445,6.36380000000004,6.378800000000041,6.395700000000069,6.4375,6.444300000000041,6.451499999999996,6.461800000000046,6.478400000000022,6.495100000000093,6.5119000000000185,6.528800000000047,6.54510000000009,6.567900000000023,6.582999999999998,6.5951000000000874,6.611800000000045,6.631900000000023,6.645100000000092,6.661800000000042,6.678400000000018,6.698499999999996,6.711700000000064,6.728499999999997,6.745100000000093,6.7619000000000185,6.778400000000019,6.794999999999995,6.811700000000066,6.828400000000023,6.8451000000000874,6.864100000000093,6.8784000000000205,6.895100000000092,6.911700000000067,6.929100000000091,6.945100000000089,6.961800000000046,6.978400000000136,6.994999999999997,7.011699999999948,7.028699999999951,7.04510000000009,7.061900000000136,7.078400000000137,7.0951000000000874,7.111800000000045,7.128499999999995,7.145100000000092,7.161699999999946,7.1801999999999495,7.195100000000089,7.211699999999951,7.232100000000088,7.2471000000000885,7.261699999999948,7.278499999999994,7.294999999999995,7.3134000000001365,7.328600000000087,7.344999999999999,7.361699999999949,7.378400000000134,7.395100000000092,7.411699999999946,7.431300000000043,7.445100000000089,7.461800000000046,7.478400000000136,7.494999999999997,7.511699999999948]","[1733207282563,1733207282595,1733207282601,1733207282618,1733207282634,1733207282651,1733207282668,1733207282684,1733207282701,1733207282718,1733207282734,1733207282751,1733207282769,1733207282788,1733207282801,1733207282818,1733207282834,1733207282855,1733207282868,1733207282885,1733207282901,1733207282920,1733207282934,1733207282951,1733207282970,1733207282985,1733207283001,1733207283018,1733207283038,1733207283051,1733207283068,1733207283084,1733207283101,1733207283120,1733207283134,1733207283151,1733207283171,1733207283184,1733207283201,1733207283221,1733207283235,1733207283251,1733207283271,1733207283285,1733207283301,1733207283320,1733207283334,1733207283351,1733207283371,1733207283385,1733207283401,1733207283418,1733207283434,1733207283451,1733207283468,1733207283484,1733207283503,1733207283518,1733207283534,1733207283551,1733207283568,1733207283585,1733207283604,1733207283620,1733207283635,1733207283651,1733207283668,1733207283684,1733207283701,1733207283718,1733207283734,1733207283751,1733207283768,1733207283784,1733207283801,1733207283818,1733207283834,1733207283851,1733207283868,1733207283884,1733207283903,1733207283918,1733207283934,1733207283951,1733207283968,1733207283988,1733207284001,1733207284018,1733207284034,1733207284051,1733207284068,1733207284086,1733207284101,1733207284118,1733207284134,1733207284151,1733207284168,1733207284184,1733207284203,1733207284218,1733207284234,1733207284254,1733207284269,1733207284285,1733207284304,1733207284319,1733207284334,1733207284351,1733207284368,1733207284384,1733207284401,1733207284418,1733207284434,1733207284452,1733207284468,1733207284484,1733207284501,1733207284518,1733207284534,1733207284551,1733207284568,1733207284588,1733207284603,1733207284618,1733207284634,1733207284653,1733207284671,1733207284687,1733207284701,1733207284720,1733207284734,1733207284751,1733207284768,1733207284784,1733207284801,1733207284821,1733207284834,1733207284851,1733207284870,1733207284886,1733207284901,1733207284920,1733207284934,1733207284951,1733207284968,1733207284984,1733207285001,1733207285020,1733207285036,1733207285053,1733207285072,1733207285084,1733207285101,1733207285118,1733207285134,1733207285151,1733207285168,1733207285184,1733207285201,1733207285218,1733207285234,1733207285255,1733207285268,1733207285284,1733207285301,1733207285318,1733207285334,1733207285351,1733207285368,1733207285384,1733207285401,1733207285418,1733207285438,1733207285452,1733207285468,1733207285484,1733207285501,1733207285518,1733207285534,1733207285551,1733207285568,1733207285585,1733207285601,1733207285618,1733207285634,1733207285651,1733207285668,1733207285684,1733207285701,1733207285720,1733207285734,1733207285751,1733207285768,1733207285787,1733207285801,1733207285818,1733207285834,1733207285853,1733207285868,1733207285884,1733207285903,1733207285918,1733207285934,1733207285951,1733207285968,1733207285986,1733207286001,1733207286018,1733207286034,1733207286051,1733207286068,1733207286086,1733207286102,1733207286119,1733207286134,1733207286151,1733207286168,1733207286184,1733207286201,1733207286220,1733207286234,1733207286251,1733207286268,1733207286287,1733207286301,1733207286318,1733207286334,1733207286353,1733207286368,1733207286385,1733207286401,1733207286419,1733207286437,1733207286451,1733207286468,1733207286488,1733207286501,1733207286518,1733207286534,1733207286551,1733207286568,1733207286585,1733207286601,1733207286618,1733207286634,1733207286651,1733207286668,1733207286684,1733207286701,1733207286718,1733207286734,1733207286751,1733207286768,1733207286788,1733207286801,1733207286818,1733207286834,1733207286851,1733207286868,1733207286885,1733207286901,1733207286918,1733207286938,1733207286951,1733207286968,1733207286984,1733207287001,1733207287018,1733207287034,1733207287053,1733207287068,1733207287084,1733207287101,1733207287118,1733207287134,1733207287151,1733207287168,1733207287184,1733207287201,1733207287218,1733207287234,1733207287251,1733207287268,1733207287284,1733207287301,1733207287318,1733207287334,1733207287351,1733207287369,1733207287386,1733207287401,1733207287418,1733207287434,1733207287451,1733207287468,1733207287485,1733207287501,1733207287519,1733207287534,1733207287551,1733207287568,1733207287584,1733207287601,1733207287618,1733207287634,1733207287651,1733207287668,1733207287686,1733207287701,1733207287718,1733207287734,1733207287751,1733207287768,1733207287784,1733207287801,1733207287818,1733207287834,1733207287852,1733207287868,1733207287887,1733207287901,1733207287918,1733207287934,1733207287951,1733207287968,1733207287989,1733207288003,1733207288019,1733207288034,1733207288051,1733207288068,1733207288084,1733207288101,1733207288118,1733207288134,1733207288151,1733207288168,1733207288188,1733207288203,1733207288218,1733207288234,1733207288253,1733207288268,1733207288285,1733207288301,1733207288318,1733207288334,1733207288351,1733207288368,1733207288384,1733207288401,1733207288418,1733207288434,1733207288453,1733207288468,1733207288485,1733207288503,1733207288518,1733207288534,1733207288554,1733207288570,1733207288587,1733207288604,1733207288619,1733207288634,1733207288651,1733207288670,1733207288685,1733207288703,1733207288721,1733207288735,1733207288751,1733207288771,1733207288785,1733207288801,1733207288818,1733207288837,1733207288851,1733207288871,1733207288888,1733207288904,1733207288920,1733207288935,1733207288952,1733207288993,1733207289000,1733207289007,1733207289018,1733207289034,1733207289051,1733207289068,1733207289085,1733207289101,1733207289124,1733207289139,1733207289151,1733207289168,1733207289188,1733207289201,1733207289218,1733207289234,1733207289254,1733207289268,1733207289284,1733207289301,1733207289318,1733207289334,1733207289351,1733207289368,1733207289384,1733207289401,1733207289420,1733207289434,1733207289451,1733207289468,1733207289485,1733207289501,1733207289518,1733207289534,1733207289551,1733207289568,1733207289584,1733207289601,1733207289618,1733207289634,1733207289651,1733207289668,1733207289684,1733207289701,1733207289718,1733207289736,1733207289751,1733207289768,1733207289788,1733207289803,1733207289818,1733207289834,1733207289851,1733207289869,1733207289884,1733207289901,1733207289918,1733207289934,1733207289951,1733207289968,1733207289987,1733207290001,1733207290018,1733207290034,1733207290051,1733207290068]","[[1214.5,614.9],[1214.5,614.9],[1199.9,577],[1200.7,558.6],[1234.7,529],[1216.9,557.8],[1202.7,551.8],[1211.6,534.5],[1216.4,511.3],[1214,496.5],[1239.1,464],[1299.7,445.4],[1424.9,445.5],[1441,443.8],[1418.1,492.9],[1353,515],[1353,515],[1366.4,528.5],[1331,492.6],[1387,498.3],[1335.4,528.7],[1264.8,557.7],[1216.4,585.1],[1059.5,631.6],[1011.9,640.1],[1011.9,640.1],[1004.5,607.4],[1071.3,566.3],[1062.8,547.5],[1118,569.3],[1098.8,558.9],[1098.8,558.9],[1187.2,523.8],[1237.7,500.4],[1237.7,500.4],[1228.8,497],[1263.5,464.5],[1263.5,464.5],[1238.7,447.9],[1238.7,447.9],[1157.6,498.2],[1157.6,498.2],[1101.6,532.8],[1104.8,554.6],[1037.7,590],[952.3,625.7],[891.5,642.1],[881.9,669.2],[904.7,667.8],[904.7,667.8],[847.3,736.3],[837.4,802],[920,777.8],[958.5,783.6],[935.9,796.6],[968.7,804.8],[1002.4,806.3],[1001.9,805.6],[950.7,829.5],[904.3,863.5],[934.2,828.8],[941.6,810.2],[873.7,823.3],[904.8,785.9],[928.5,760.9],[914.8,730.6],[923.1,711],[925,712],[956.9,681.1],[1047.1,639.4],[1105.6,625.9],[1115.9,617.1],[1164.1,590],[1150.4,586],[1112.8,588.2],[1150.4,589.6],[1170.5,583.2],[1172.8,586.8],[1207.3,566],[1169.4,568.9],[1148.3,587.4],[1137.7,588],[1148.8,599.3],[1097.6,617.2],[1166.7,600.4],[1143.5,603.6],[1127.1,617.4],[1117.7,604.3],[1081.6,644.8],[1081.6,644.8],[1098,661.5],[1071.1,660.1],[1112,681.7],[1102.4,675.6],[1143,662.4],[1121.8,680.8],[1155.1,685.3],[1191.3,659.6],[1269.2,635.2],[1268.8,622.2],[1229,626],[1195.4,638.2],[1149.7,625],[1132.2,629.3],[1126.2,610.4],[1081.1,605.3],[1049.4,587.1],[1008,588.5],[940.7,616.6],[942.1,610.2],[931.5,603.6],[941.2,591.1],[916.3,588.3],[927.2,575.7],[919.1,592.8],[882.4,632.8],[800.4,677.4],[777.3,686.1],[742.4,681.9],[752.6,692.1],[761.7,663.5],[768.1,643.9],[775,646.5],[743.6,672.5],[717,681.9],[711.2,654.1],[775.3,623.4],[780.5,628.6],[803.5,634.9],[786.9,619.2],[754.8,643.5],[748.2,636.6],[756.4,634.9],[756.9,619.3],[782.7,610.2],[806.3,604.2],[798.4,599.1],[785.5,600.1],[771.4,611.1],[763.3,593],[784.8,568],[795.3,569.2],[840.4,563.2],[850,560],[868.1,560.6],[868.1,560.6],[898.8,565.7],[910.9,584.3],[941.2,600.7],[941.2,600.7],[948.8,563.7],[948.8,563.7],[966.5,596.5],[966.5,596.5],[1036.2,566.1],[1036.2,566.1],[1105.5,556.5],[1105.5,556.5],[1171.7,534.9],[1171.7,534.9],[1316.5,498.5],[1378,494.4],[1378,494.4],[1497.4,457.8],[1637.9,418.4],[1719.1,387.1],[1829.2,400.8],[1877.2,367.3],[1862.6,396],[1796.4,391.9],[1690.9,387.1],[1568.1,378.5],[1497.5,337.4],[1339,352.4],[1199.8,344.5],[1199.8,344.5],[1106.7,324.6],[1016.2,309.2],[941.4,349.7],[893.3,373.9],[887.1,407.3],[887.6,436.8],[905.8,472.6],[924,508.4],[956.3,509.2],[943.9,525.4],[928.8,542],[904.9,551.5],[909.6,517.2],[873.2,488.3],[887.3,485.4],[904.6,511.9],[904,538.3],[885.5,561.1],[893.8,565],[903.1,572.1],[910,582.1],[911.5,585.8],[926.1,600.2],[965.7,626.5],[936.6,631],[928.2,606.3],[908.9,581.2],[896.5,549.5],[908.7,543.2],[920.4,515.8],[915.9,524.9],[923,542.9],[907.7,539.7],[907.7,534.5],[896.3,537.8],[889.2,540],[872.3,552.3],[879.4,586.8],[853.4,601.3],[846.9,637.4],[861.7,633.7],[889.9,628.9],[885.7,633.8],[912,640.2],[912,640.2],[966.2,632.7],[1023.7,626.8],[1071.5,624.8],[1107.7,603],[1143.4,595.9],[1178.3,601.4],[1213.2,606.9],[1191.4,603.7],[1211.6,597.2],[1176,591.4],[1147.7,581.8],[1074.3,568.7],[1080.4,510.5],[1084.9,481.6],[1115.9,437.6],[1080.3,437.8],[1069,431.4],[1101,434.8],[1126.8,431.9],[1162.6,428.8],[1169.1,441.3],[1200.6,448.8],[1152.3,499.6],[1152.3,499.6],[1104.2,528.9],[994.9,593.9],[956.2,617.1],[943.2,637.2],[951,638],[965.5,642.1],[960.9,644.2],[949.9,615.9],[929.9,597.7],[914.2,599.2],[898.5,600.7],[933.7,584.4],[939.8,556.5],[892.6,535.8],[857.3,526.1],[821.5,519.4],[767.7,537.1],[745.4,559.3],[745.4,559.3],[694.5,588],[694.5,588],[684.5,591.7],[686.4,596.5],[672.1,598.5],[689.4,603.5],[710,611],[710,611],[697.9,626.8],[697.9,626.8],[684.1,647.8],[684.1,647.8],[700.6,636],[700.6,636],[736.9,628.8],[736.9,628.8],[766.8,643.5],[766.8,643.5],[767.2,636.9],[753.9,635.2],[742.7,636.7],[726.4,623],[710.1,609.3],[692.8,595.3],[714.8,585],[701.2,575.5],[664.7,575.5],[710.3,532.3],[692,531.5],[713.6,520.2],[729.3,509.3],[744.6,507.2],[738.8,499],[763.6,487],[716.6,502.3],[708.2,521.7],[720.5,517.4],[685.7,527.9],[702.4,552.7],[681,582],[675.2,598.3],[654.5,611.5],[625,615.3],[558.9,645.1],[527,638.7],[534.6,613.1],[557.6,609],[526.3,601.5],[507.6,561.5],[525.7,548.7],[532.6,525.1],[550.2,518.9],[621.7,521.6],[683.2,518.3],[744.7,515],[770.5,536.4],[760.2,558.7],[804.2,584.4],[871.2,593.6],[879.8,587.7],[850.6,609.4],[821.8,620.4],[847.9,623],[848.6,619],[869.8,601],[884.4,602.1],[894.8,611],[894.8,611],[904.6,605.8],[882.2,627.5],[881.4,637.1],[915,636.3],[948.6,635.5],[884.1,640.4],[851.2,629.2],[826.4,629.2],[808.2,610.1],[802,600.6],[796.4,605.2],[800,599.4],[798.5,596.4],[799.8,596.4],[798.5,588.7],[825.1,591.3],[860.2,574.3],[866.7,560.1],[827.1,571.2],[779.7,566.2],[745.1,553.8],[730.2,532.2],[705,507.5],[676.8,476.9],[651.2,454],[616.2,466.2],[574.3,507.1],[574.6,525.5],[603.8,536.9],[667.4,557.9],[707.3,584.8],[728.6,617],[769.3,635],[797.9,653.1],[828.7,664.7],[888.1,648.1],[964.7,630.1],[999.1,634.6],[1039.7,640.2],[1045.9,636.2],[1071.5,623.1],[1071.5,623.1],[1107.8,596.6],[1139.4,588.9],[1191.7,591.6],[1250.3,586.6],[1281,573.7],[1282.8,546.7],[1290,535],[1309.2,515.8],[1328.4,496.6],[1310.8,481.6],[1310.8,481.6],[1336.9,486.6],[1336.9,486.6],[1401,473.2],[1420.3,478.2],[1403.1,480.3],[1385.9,482.4],[1385.9,482.4],[1424,497.3],[1438.4,485.3],[1446.5,469.9],[1446.5,469.9],[1463.1,462.5],[1463.1,462.5],[1496.3,450.6],[1496.3,450.6],[1495,433.4],[1462.9,418.4],[1462.9,418.4],[1470,380.4],[1488.3,365.1],[1545.1,336.2],[1567.5,307.7],[1604,305.3],[1645.8,294.4],[1647.3,285.1],[1643.3,296.4],[1682.5,283.1],[1682.5,283.1],[1715.2,281.7],[1700.8,302.7],[1703.2,318.1],[1687,307.2],[1692.4,280.1],[1701.9,280.4],[1743.9,250.8],[1795.3,217.9],[1850.1,181.7],[1850.1,181.7],[1841.3,197],[1828.9,221.7],[1826.6,217.2],[1824.3,212.7],[1816.9,262.1],[1772.7,332.3],[1764.3,350.3],[1726.4,393.6],[1694.4,408.2],[1660.1,430.7],[1618.1,426.4],[1570.2,417.4],[1546,436.1],[1519.8,467.2],[1452.3,472.5],[1400,473.2],[1353.5,463.1],[1314.6,459.8],[1287.4,476.8],[1228,501.8],[1190.4,528.2],[1186.7,514.5],[1186.7,514.5],[1171.2,508.2],[1164.7,483.8],[1190.3,471.2],[1191,461.9],[1150.2,473.7]]","[0,0.3527331528]","[0.3527331528,0.3527331528]","[-0.3527331528,0]","[-0.3527331528,-0.3527331528]","[0,0]","[0.3527331528,0]","[0,-0.3527331528]","[0.3527331528,-0.3527331528]",0,0,0,0,1,4,Tablet,11,5,13,9
