inst1_resp.keys,inst1_resp.rt,calibrationMouse.x,calibrationMouse.y,calibrationMouse.leftButton,calibrationMouse.midButton,calibrationMouse.rightButton,calibrationClick.x,calibrationClick.y,calibrationClick.leftButton,calibrationClick.midButton,calibrationClick.rightButton,calibrationClick.clicked_name,trialsc.thisRepN,trialsc.thisTrialN,trialsc.thisN,trialsc.thisIndex,trialsc.ran,calibration_x,calibration_y,participant,session,date,expName,psychopyVersion,OS,frameRate,ScreenRes_pixels,Camera_pixels,mouse_2.x,mouse_2.y,mouse_2.leftButton,mouse_2.midButton,mouse_2.rightButton,mouse_2.time,mouse_2.clicked_name,mouse.x,mouse.y,mouse.leftButton,mouse.midButton,mouse.rightButton,mouse.time,mouse.clicked_name,Choice,Trial,TrialDuration,MOUSE_GAZE,ET_GAZE,ET_GAZE_x_T,time,unixTime,ET_GAZE_NF,Loc_Option1_label,Loc_Option2_label,Loc_Cost_label,Loc_Qual_label,Loc_Option1_cost,Loc_Option2_cost,Loc_Option1_quality,Loc_Option2_quality,trials.thisRepN,trials.thisTrialN,trials.thisN,trials.thisIndex,trials.ran,Block,Device,cost1,qual1,cost2,qual2
space,2.4846,-0.429166667,-0.240740741,1,0,0,-0.008333333,-0.335185185,1,0,0,calibration_square,0,0,0,10,1,0,-0.33,12,001,2024-12-03_10h34.01.838,Attention_exp_legacy,2023.1.0,Win32,60.60606061,,,,,,,,,,,,,,,,,,,,,,,,,,,,,,,,,,,,,,,,,,,,
,,,,,,,0.329166667,-0.318518519,1,0,0,,0,1,1,15,1,0.33,-0.33,12,001,2024-12-03_10h34.01.838,Attention_exp_legacy,2023.1.0,Win32,60.60606061,,,,,,,,,,,,,,,,,,,,,,,,,,,,,,,,,,,,,,,,,,,,
,,,,,,,-0.664583333,-0.001851852,1,0,0,calibration_square,0,2,2,2,1,-0.67,0,12,001,2024-12-03_10h34.01.838,Attention_exp_legacy,2023.1.0,Win32,60.60606061,,,,,,,,,,,,,,,,,,,,,,,,,,,,,,,,,,,,,,,,,,,,
,,,,,,,-0.332291667,0.662962963,1,0,0,calibration_square,0,3,3,8,1,-0.33,0.67,12,001,2024-12-03_10h34.01.838,Attention_exp_legacy,2023.1.0,Win32,60.60606061,,,,,,,,,,,,,,,,,,,,,,,,,,,,,,,,,,,,,,,,,,,,
,,,,,,,0.334375,-0.662962963,1,0,0,calibration_square,0,4,4,14,1,0.33,-0.67,12,001,2024-12-03_10h34.01.838,Attention_exp_legacy,2023.1.0,Win32,60.60606061,,,,,,,,,,,,,,,,,,,,,,,,,,,,,,,,,,,,,,,,,,,,
,,,,,,,-0.007291667,0.675925926,1,0,0,calibration_square,0,5,5,13,1,0,0.67,12,001,2024-12-03_10h34.01.838,Attention_exp_legacy,2023.1.0,Win32,60.60606061,,,,,,,,,,,,,,,,,,,,,,,,,,,,,,,,,,,,,,,,,,,,
,,,,,,,0.66875,-0.655555556,1,0,0,,0,6,6,20,1,0.67,-0.67,12,001,2024-12-03_10h34.01.838,Attention_exp_legacy,2023.1.0,Win32,60.60606061,,,,,,,,,,,,,,,,,,,,,,,,,,,,,,,,,,,,,,,,,,,,
,,,,,,,-0.328125,-0.677777778,1,0,0,calibration_square,0,7,7,4,1,-0.33,-0.67,12,001,2024-12-03_10h34.01.838,Attention_exp_legacy,2023.1.0,Win32,60.60606061,,,,,,,,,,,,,,,,,,,,,,,,,,,,,,,,,,,,,,,,,,,,
,,,,,,,0.671875,0.659259259,1,0,0,,0,8,8,19,1,0.67,0.67,12,001,2024-12-03_10h34.01.838,Attention_exp_legacy,2023.1.0,Win32,60.60606061,,,,,,,,,,,,,,,,,,,,,,,,,,,,,,,,,,,,,,,,,,,,
,,,,,,,-0.669791667,0.327777778,1,0,0,calibration_square,0,9,9,3,1,-0.67,0.33,12,001,2024-12-03_10h34.01.838,Attention_exp_legacy,2023.1.0,Win32,60.60606061,,,,,,,,,,,,,,,,,,,,,,,,,,,,,,,,,,,,,,,,,,,,
,,,,,,,0.00625,0.32037037,1,0,0,calibration_square,0,10,10,12,1,0,0.33,12,001,2024-12-03_10h34.01.838,Attention_exp_legacy,2023.1.0,Win32,60.60606061,,,,,,,,,,,,,,,,,,,,,,,,,,,,,,,,,,,,,,,,,,,,
,,,,,,,-0.002083333,-0.67037037,1,0,0,calibration_square,0,11,11,9,1,0,-0.67,12,001,2024-12-03_10h34.01.838,Attention_exp_legacy,2023.1.0,Win32,60.60606061,,,,,,,,,,,,,,,,,,,,,,,,,,,,,,,,,,,,,,,,,,,,
,,,,,,,-0.339583333,0.333333333,1,0,0,calibration_square,0,12,12,7,1,-0.33,0.33,12,001,2024-12-03_10h34.01.838,Attention_exp_legacy,2023.1.0,Win32,60.60606061,,,,,,,,,,,,,,,,,,,,,,,,,,,,,,,,,,,,,,,,,,,,
,,,,,,,0.3375,0.32962963,1,0,0,calibration_square,0,13,13,17,1,0.33,0.33,12,001,2024-12-03_10h34.01.838,Attention_exp_legacy,2023.1.0,Win32,60.60606061,,,,,,,,,,,,,,,,,,,,,,,,,,,,,,,,,,,,,,,,,,,,
,,,,,,,-0.667708333,-0.333333333,1,0,0,calibration_square,0,14,14,1,1,-0.67,-0.33,12,001,2024-12-03_10h34.01.838,Attention_exp_legacy,2023.1.0,Win32,60.60606061,,,,,,,,,,,,,,,,,,,,,,,,,,,,,,,,,,,,,,,,,,,,
,,,,,,,-0.335416667,0,1,0,0,calibration_square,0,15,15,6,1,-0.33,0,12,001,2024-12-03_10h34.01.838,Attention_exp_legacy,2023.1.0,Win32,60.60606061,,,,,,,,,,,,,,,,,,,,,,,,,,,,,,,,,,,,,,,,,,,,
,,,,,,,0.328125,0.668518519,1,0,0,calibration_square,0,16,16,18,1,0.33,0.67,12,001,2024-12-03_10h34.01.838,Attention_exp_legacy,2023.1.0,Win32,60.60606061,,,,,,,,,,,,,,,,,,,,,,,,,,,,,,,,,,,,,,,,,,,,
,,,,,,,0.335416667,0.007407407,1,0,0,calibration_square,0,17,17,16,1,0.33,0,12,001,2024-12-03_10h34.01.838,Attention_exp_legacy,2023.1.0,Win32,60.60606061,,,,,,,,,,,,,,,,,,,,,,,,,,,,,,,,,,,,,,,,,,,,
,,,,,,,-0.334375,-0.327777778,1,0,0,calibration_square,0,18,18,5,1,-0.33,-0.33,12,001,2024-12-03_10h34.01.838,Attention_exp_legacy,2023.1.0,Win32,60.60606061,,,,,,,,,,,,,,,,,,,,,,,,,,,,,,,,,,,,,,,,,,,,
,,,,,,,0.008333333,0.011111111,1,0,0,,0,19,19,11,1,0,0,12,001,2024-12-03_10h34.01.838,Attention_exp_legacy,2023.1.0,Win32,60.60606061,,,,,,,,,,,,,,,,,,,,,,,,,,,,,,,,,,,,,,,,,,,,
,,,,,,,-0.676041667,-0.661111111,1,0,0,calibration_square,0,20,20,0,1,-0.67,-0.67,12,001,2024-12-03_10h34.01.838,Attention_exp_legacy,2023.1.0,Win32,60.60606061,,,,,,,,,,,,,,,,,,,,,,,,,,,,,,,,,,,,,,,,,,,,
,,,,,,,,,,,,,,,,,,,,12,001,2024-12-03_10h34.01.838,Attention_exp_legacy,2023.1.0,Win32,60.60606061,"[1920,1080]","[640,480]",[0.03229166666666667],[-0.5185185185185185],[1],[0],[0],[2.096599999994041],"[""StartButton""]",[0.4166666666666667],[0.30925925925925923],[1],[0],[0],[2.270899999991059],"[""Option2_label""]",Option2_label,1,3.2789,"[[0.08229166666666667,-0.46111111111111114],[0.08229166666666667,-0.46111111111111114],[0.08229166666666667,-0.46111111111111114],[0.08229166666666667,-0.46111111111111114],[0.08229166666666667,-0.46111111111111114],[0.08229166666666667,-0.46111111111111114],[0.08229166666666667,-0.46111111111111114],[0.08229166666666667,-0.46111111111111114],[0.08229166666666667,-0.46111111111111114],[0.08229166666666667,-0.46111111111111114],[0.08229166666666667,-0.46111111111111114],[0.08229166666666667,-0.46111111111111114],[0.08229166666666667,-0.46111111111111114],[0.08229166666666667,-0.46111111111111114],[0.08229166666666667,-0.46111111111111114],[0.08229166666666667,-0.46111111111111114],[0.08229166666666667,-0.46111111111111114],[0.08229166666666667,-0.46111111111111114],[0.08229166666666667,-0.46111111111111114],[0.08229166666666667,-0.46111111111111114],[0.08229166666666667,-0.45925925925925926],[0.08229166666666667,-0.45925925925925926],[0.08229166666666667,-0.45740740740740743],[0.08229166666666667,-0.45740740740740743],[0.08229166666666667,-0.4537037037037037],[0.08229166666666667,-0.4537037037037037],[0.08229166666666667,-0.4537037037037037],[0.08229166666666667,-0.4537037037037037],[0.08229166666666667,-0.4537037037037037],[0.08229166666666667,-0.4537037037037037],[0.08229166666666667,-0.4537037037037037],[0.08229166666666667,-0.4537037037037037],[0.08229166666666667,-0.4537037037037037],[0.08229166666666667,-0.4537037037037037],[0.08229166666666667,-0.4537037037037037],[0.08229166666666667,-0.4537037037037037],[0.08229166666666667,-0.45185185185185184],[0.08229166666666667,-0.45185185185185184],[0.08229166666666667,-0.45185185185185184],[0.08229166666666667,-0.45185185185185184],[0.08229166666666667,-0.45185185185185184],[0.08229166666666667,-0.45185185185185184],[0.08229166666666667,-0.45185185185185184],[0.08229166666666667,-0.45185185185185184],[0.08229166666666667,-0.45185185185185184],[0.08229166666666667,-0.45185185185185184],[0.08229166666666667,-0.45185185185185184],[0.08229166666666667,-0.45185185185185184],[0.08229166666666667,-0.44814814814814813],[0.08229166666666667,-0.4462962962962963],[0.08229166666666667,-0.4425925925925926],[0.08229166666666667,-0.4425925925925926],[0.08229166666666667,-0.4425925925925926],[0.08229166666666667,-0.4425925925925926],[0.08229166666666667,-0.4425925925925926],[0.08229166666666667,-0.4425925925925926],[0.08229166666666667,-0.4425925925925926],[0.08229166666666667,-0.4425925925925926],[0.08229166666666667,-0.4425925925925926],[0.08229166666666667,-0.4425925925925926],[0.08229166666666667,-0.4425925925925926],[0.08229166666666667,-0.4425925925925926],[0.08229166666666667,-0.4425925925925926],[0.08229166666666667,-0.4425925925925926],[0.08229166666666667,-0.4425925925925926],[0.08229166666666667,-0.4425925925925926],[0.08229166666666667,-0.4425925925925926],[0.08229166666666667,-0.4425925925925926],[0.08229166666666667,-0.4425925925925926],[0.08125,-0.44074074074074077],[0.08125,-0.44074074074074077],[0.08125,-0.44074074074074077],[0.08125,-0.44074074074074077],[0.08125,-0.44074074074074077],[0.08125,-0.44074074074074077],[0.08125,-0.44074074074074077],[0.08125,-0.44074074074074077],[0.08125,-0.44074074074074077],[0.08125,-0.44074074074074077],[0.08125,-0.44074074074074077],[0.08020833333333334,-0.44074074074074077],[0.08020833333333334,-0.4388888888888889],[0.07916666666666666,-0.4388888888888889],[0.078125,-0.4351851851851852],[0.07708333333333334,-0.43333333333333335],[0.07708333333333334,-0.43148148148148147],[0.075,-0.42407407407407405],[0.075,-0.4203703703703704],[0.075,-0.412962962962963],[0.07395833333333333,-0.40555555555555556],[0.07395833333333333,-0.4],[0.07395833333333333,-0.3907407407407407],[0.07395833333333333,-0.3851851851851852],[0.07395833333333333,-0.37962962962962965],[0.07395833333333333,-0.37222222222222223],[0.075,-0.3574074074074074],[0.07708333333333334,-0.34074074074074073],[0.08645833333333333,-0.30925925925925923],[0.10208333333333333,-0.26851851851851855],[0.121875,-0.21666666666666667],[0.14895833333333333,-0.16111111111111112],[0.17604166666666668,-0.1111111111111111],[0.20104166666666667,-0.07037037037037037],[0.25,0.003703703703703704],[0.28020833333333334,0.04814814814814815],[0.309375,0.09259259259259259],[0.328125,0.12407407407407407],[0.346875,0.15],[0.35833333333333334,0.16666666666666666],[0.36770833333333336,0.18333333333333332],[0.3770833333333333,0.1962962962962963],[0.384375,0.2074074074074074],[0.3927083333333333,0.2222222222222222],[0.4010416666666667,0.23703703703703705],[0.4083333333333333,0.25],[0.4125,0.26296296296296295],[0.41354166666666664,0.26481481481481484],[0.41458333333333336,0.26851851851851855],[0.415625,0.2796296296296296],[0.4166666666666667,0.28703703703703703],[0.4166666666666667,0.29444444444444445],[0.4166666666666667,0.3],[0.4166666666666667,0.30185185185185187],[0.4166666666666667,0.3037037037037037],[0.4166666666666667,0.3055555555555556],[0.4166666666666667,0.3055555555555556],[0.4166666666666667,0.30925925925925923],[0.4166666666666667,0.30925925925925923],[0.4166666666666667,0.30925925925925923],[0.4166666666666667,0.30925925925925923],[0.4166666666666667,0.30925925925925923],[0.4166666666666667,0.30925925925925923],[0.4166666666666667,0.30925925925925923],[0.4166666666666667,0.30925925925925923],[0.4166666666666667,0.30925925925925923],[0.4166666666666667,0.30925925925925923],[0.4166666666666667,0.30925925925925923],[0.4166666666666667,0.30925925925925923],[0.4166666666666667,0.30925925925925923],[0.4166666666666667,0.30925925925925923],[0.4166666666666667,0.30925925925925923],[0.4166666666666667,0.30925925925925923],[0.4166666666666667,0.30925925925925923],[0.4166666666666667,0.30925925925925923],[0.4166666666666667,0.30925925925925923],[0.4166666666666667,0.30925925925925923],[0.4166666666666667,0.30925925925925923],[0.4166666666666667,0.30925925925925923],[0.4166666666666667,0.30925925925925923],[0.4166666666666667,0.30925925925925923],[0.4166666666666667,0.30925925925925923],[0.4166666666666667,0.30925925925925923],[0.4166666666666667,0.30925925925925923],[0.4166666666666667,0.30925925925925923],[0.4166666666666667,0.30925925925925923],[0.4166666666666667,0.30925925925925923],[0.4166666666666667,0.30925925925925923],[0.4166666666666667,0.30925925925925923],[0.4166666666666667,0.30925925925925923],[0.4166666666666667,0.30925925925925923],[0.4166666666666667,0.30925925925925923],[0.4166666666666667,0.30925925925925923],[0.4166666666666667,0.30925925925925923],[0.4166666666666667,0.30925925925925923],[0.4166666666666667,0.30925925925925923],[0.4166666666666667,0.30925925925925923],[0.4166666666666667,0.30925925925925923],[0.4166666666666667,0.30925925925925923],[0.4166666666666667,0.30925925925925923],[0.4166666666666667,0.30925925925925923],[0.4166666666666667,0.30925925925925923],[0.4166666666666667,0.30925925925925923],[0.4166666666666667,0.30925925925925923],[0.4166666666666667,0.30925925925925923],[0.4166666666666667,0.30925925925925923],[0.4166666666666667,0.30925925925925923],[0.4166666666666667,0.30925925925925923],[0.4166666666666667,0.30925925925925923],[0.4166666666666667,0.30925925925925923],[0.4166666666666667,0.30925925925925923],[0.4166666666666667,0.30925925925925923],[0.4166666666666667,0.30925925925925923],[0.4166666666666667,0.30925925925925923],[0.415625,0.30925925925925923],[0.415625,0.3111111111111111],[0.415625,0.3111111111111111],[0.415625,0.3111111111111111],[0.41458333333333336,0.31296296296296294],[0.41458333333333336,0.31296296296296294],[0.41458333333333336,0.3148148148148148],[0.41458333333333336,0.3148148148148148],[0.41458333333333336,0.3148148148148148],[0.41458333333333336,0.3148148148148148],[0.41458333333333336,0.3148148148148148],[0.41458333333333336,0.3148148148148148],[0.41354166666666664,0.3148148148148148],[0.41354166666666664,0.31666666666666665]]","[[0.1818749999999999,0.4933333333333333],[0.1818749999999999,0.4933333333333333],[0.1865624999999999,0.4401851851851853],[0.1865624999999999,0.4401851851851853],[0.20343749999999997,0.4372222222222223],[0.20343749999999997,0.4372222222222223],[0.19249999999999995,0.4403703703703703],[0.19249999999999995,0.4403703703703703],[0.19500000000000003,0.4537037037037037],[0.19500000000000003,0.4537037037037037],[0.17437500000000009,0.4412962962962962],[0.17437500000000009,0.4412962962962962],[0.17802083333333343,0.531111111111111],[0.17802083333333343,0.531111111111111],[0.15552083333333327,0.5974074074074075],[0.15010416666666657,0.630925925925926],[0.1466666666666666,0.644814814814815],[0.1382291666666667,0.7092592592592593],[0.1382291666666667,0.7092592592592593],[0.12333333333333343,0.7849999999999999],[0.09281249999999991,0.7922222222222222],[0.09989583333333343,0.7661111111111112],[0.09114583333333333,0.757037037037037],[0.10281250000000004,0.7266666666666666],[0.10906250000000005,0.6848148148148148],[0.08333333333333333,0.6261111111111112],[0.07333333333333343,0.555925925925926],[0.08333333333333333,0.48148148148148145],[0.09874999999999995,0.3762962962962964],[0.10197916666666676,0.30111111111111116],[0.10166666666666657,0.25388888888888894],[0.09635416666666667,0.2479629629629629],[0.09708333333333338,0.22481481481481477],[0.08479166666666677,0.24574074074074082],[0.0796875,0.2125925925925925],[0.08291666666666657,0.24814814814814815],[0.08250000000000005,0.2818518518518519],[0.06083333333333331,0.34148148148148144],[0.030520833333333285,0.4],[0.020937500000000022,0.41944444444444445],[0.03302083333333338,0.443888888888889],[0.025729166666666713,0.4368518518518518],[0.025312499999999953,0.4233333333333334],[0.04385416666666669,0.41092592592592586],[0.03697916666666667,0.42851851851851847],[0.050937499999999976,0.39740740740740743],[0.06854166666666663,0.36814814814814806],[0.08333333333333333,0.3483333333333334],[0.10635416666666657,0.3762962962962964],[0.12781250000000005,0.40611111111111103],[0.11687500000000005,0.44240740740740736],[0.14802083333333324,0.4383333333333334],[0.16885416666666658,0.4546296296296296],[0.15791666666666657,0.4170370370370371],[0.16520833333333323,0.4035185185185185],[0.15875000000000009,0.431111111111111],[0.19947916666666668,0.4057407407407408],[0.24208333333333343,0.3737037037037036],[0.24416666666666675,0.3587037037037038],[0.24604166666666671,0.3183333333333333],[0.2586458333333333,0.26648148148148143],[0.2521874999999999,0.302962962962963],[0.2491666666666667,0.3255555555555555],[0.27625000000000005,0.331111111111111],[0.3033333333333334,0.33666666666666656],[0.33010416666666675,0.3344444444444445],[0.30968749999999995,0.3851851851851852],[0.27583333333333326,0.40907407407407403],[0.2783333333333334,0.37296296296296294],[0.2861458333333334,0.3661111111111112],[0.2786458333333333,0.3861111111111111],[0.2555208333333333,0.39296296296296307],[0.23239583333333325,0.3998148148148148],[0.20083333333333328,0.4564814814814815],[0.16927083333333334,0.5131481481481482],[0.15093750000000009,0.5153703703703703],[0.1196875000000001,0.5033333333333333],[0.07739583333333329,0.5270370370370371],[0.03968750000000002,0.547037037037037],[0.03968750000000002,0.547037037037037],[-0.030104166666666644,0.5781481481481482],[-0.01729166666666669,0.5616666666666665],[0.006562499999999953,0.5094444444444445],[0.006562499999999953,0.5094444444444445],[-0.000416666666666643,0.48629629629629634],[-0.005208333333333333,0.4770370370370371],[-0.005208333333333333,0.4770370370370371],[-0.017916666666666713,0.45203703703703707],[-0.010000000000000024,0.4551851851851851],[0.011249999999999953,0.4648148148148148],[0.06739583333333338,0.4566666666666667],[0.10072916666666672,0.4527777777777778],[0.15875000000000009,0.4316666666666667],[0.14708333333333337,0.43129629629629623],[0.12385416666666677,0.45092592592592595],[0.14354166666666662,0.42314814814814816],[0.14354166666666662,0.42314814814814816],[0.15072916666666672,0.39018518518518525],[0.14708333333333337,0.3762962962962964],[0.1171875,0.39277777777777784],[0.11010416666666671,0.3490740740740741],[0.08781249999999995,0.3387037037037037],[0.09739583333333333,0.33425925925925926],[0.09708333333333338,0.3412962962962962],[0.1078125,0.3072222222222222],[0.12625000000000006,0.27148148148148155],[0.12135416666666667,0.2953703703703704],[0.13604166666666656,0.25759259259259265],[0.18322916666666675,0.19888888888888884],[0.17520833333333338,0.17981481481481484],[0.1946875000000001,0.1574074074074074],[0.2234375,0.15240740740740732],[0.23020833333333332,0.10666666666666672],[0.23541666666666666,0.10462962962962963],[0.2319791666666667,0.14370370370370375],[0.24322916666666666,0.1527777777777778],[0.2682291666666667,0.1088888888888888],[0.2786458333333333,0.11740740740740736],[0.27531249999999996,0.14351851851851852],[0.35145833333333343,0.0801851851851851],[0.36395833333333344,0.07481481481481478],[0.38041666666666674,0.040740740740740744],[0.40604166666666663,0.044999999999999915],[0.42208333333333337,0.018888888888888972],[0.43552083333333325,-0.02555555555555547],[0.41437499999999994,-0.02555555555555547],[0.39072916666666657,-0.013888888888888888],[0.39072916666666657,-0.013888888888888888],[0.40166666666666656,-0.06574074074074074],[0.39822916666666663,-0.11814814814814817],[0.3892708333333334,-0.172037037037037],[0.3935416666666666,-0.1983333333333334],[0.38937499999999997,-0.23777777777777773],[0.37302083333333325,-0.275],[0.37302083333333325,-0.275],[0.37302083333333325,-0.32759259259259255],[0.37302083333333325,-0.32759259259259255],[0.3603125000000001,-0.3412962962962963],[0.3603125000000001,-0.3412962962962963],[0.41468749999999993,-0.47759259259259257],[0.41468749999999993,-0.47759259259259257],[0.4383333333333333,-0.5124074074074074],[0.4383333333333333,-0.5124074074074074],[0.434375,-0.5316666666666667],[0.434375,-0.5316666666666667],[0.4625,-0.532962962962963],[0.4647916666666667,-0.5218518518518519],[0.47802083333333345,-0.5205555555555555],[0.4912499999999999,-0.5192592592592592],[0.4947916666666667,-0.5275925925925925],[0.4881249999999999,-0.51],[0.5017708333333334,-0.5262962962962963],[0.46822916666666664,-0.43444444444444447],[0.46333333333333326,-0.4346296296296296],[0.44500000000000006,-0.36740740740740735],[0.4258333333333333,-0.3405555555555555],[0.4087500000000001,-0.3096296296296296],[0.37374999999999997,-0.30907407407407406],[0.3480208333333332,-0.32833333333333337],[0.3492708333333333,-0.3320370370370371],[0.3640625,-0.36277777777777775],[0.37000000000000005,-0.3731481481481482],[0.35572916666666665,-0.36629629629629634],[0.38385416666666666,-0.395],[0.4189583333333334,-0.47962962962962963],[0.42302083333333323,-0.5244444444444444],[0.4270833333333333,-0.5692592592592592],[0.4358333333333334,-0.5722222222222222],[0.4353125000000001,-0.5553703703703703],[0.4275000000000001,-0.5574074074074075],[0.4105208333333332,-0.5542592592592592],[0.38916666666666655,-0.5562962962962963],[0.3932291666666667,-0.5822222222222222],[0.3631249999999999,-0.5555555555555556],[0.33833333333333326,-0.5],[0.3076041666666666,-0.46111111111111114],[0.3007291666666667,-0.42981481481481487],[0.2869791666666667,-0.4057407407407408],[0.2783333333333334,-0.37962962962962965],[0.28458333333333335,-0.3403703703703704],[0.29666666666666663,-0.30462962962962964],[0.3023958333333333,-0.3024074074074074],[0.3029166666666666,-0.2935185185185185],[0.30791666666666656,-0.31129629629629635],[0.31760416666666674,-0.3140740740740741],[0.3355208333333332,-0.3148148148148148],[0.32270833333333326,-0.31129629629629635],[0.3178124999999999,-0.30481481481481487],[0.3178124999999999,-0.30481481481481487],[0.31312499999999993,-0.3109259259259259],[0.2907291666666666,-0.3272222222222222],[0.24864583333333337,-0.32518518518518524],[0.2211458333333333,-0.29148148148148145],[0.19979166666666662,-0.27037037037037037],[0.1678124999999999,-0.2490740740740741],[0.12937500000000005,-0.23944444444444446],[0.11583333333333339,-0.22388888888888886]]","[[0.1818749999999999,0.4933333333333333,0.0001999999880837322],[0.1818749999999999,0.4933333333333333,0.04239999999106203],[0.1865624999999999,0.4401851851851853,0.052499999999994884],[0.1865624999999999,0.4401851851851853,0.06229999999702329],[0.20343749999999997,0.4372222222222223,0.07879999999701681],[0.20343749999999997,0.4372222222222223,0.09550000000000125],[0.19249999999999995,0.4403703703703703,0.11209999999404374],[0.19249999999999995,0.4403703703703703,0.12899999999999068],[0.19500000000000003,0.4537037037037037,0.1454999999999984],[0.19500000000000003,0.4537037037037037,0.1620999999940409],[0.17437500000000009,0.4412962962962962,0.1788999999910601],[0.17437500000000009,0.4412962962962962,0.19539999999105362],[0.17802083333333343,0.531111111111111,0.21239999999106374],[0.17802083333333343,0.531111111111111,0.22889999999105726],[0.15552083333333327,0.5974074074074075,0.24549999999999272],[0.15010416666666657,0.630925925925926,0.26219999998807],[0.1466666666666666,0.644814814814815,0.27949999999999875],[0.1382291666666667,0.7092592592592593,0.2955000000000041],[0.1382291666666667,0.7092592592592593,0.31219999998808134],[0.12333333333333343,0.7849999999999999,0.3292999999970192],[0.09281249999999991,0.7922222222222222,0.3483999999910594],[0.09989583333333343,0.7661111111111112,0.36209999999404374],[0.09114583333333333,0.757037037037037,0.3791999999880744],[0.10281250000000004,0.7266666666666666,0.3954999999999984],[0.10906250000000005,0.6848148148148148,0.41549999999999443],[0.08333333333333333,0.6261111111111112,0.4311999999880811],[0.07333333333333343,0.555925925925926,0.4474999999999909],[0.08333333333333333,0.48148148148148145,0.46489999999106146],[0.09874999999999995,0.3762962962962964,0.48149999999999693],[0.10197916666666676,0.30111111111111116,0.4960999999940441],[0.10166666666666657,0.25388888888888894,0.5120999999940352],[0.09635416666666667,0.2479629629629629,0.5301999999880707],[0.09708333333333338,0.22481481481481477,0.5453999999910621],[0.08479166666666677,0.24574074074074082,0.5620999999940324],[0.0796875,0.2125925925925925,0.5788999999910516],[0.08291666666666657,0.24814814814814815,0.5953999999910593],[0.08250000000000005,0.2818518518518519,0.615599999994032],[0.06083333333333331,0.34148148148148144,0.6315000000000026],[0.030520833333333285,0.4,0.6454999999999984],[0.020937500000000022,0.41944444444444445,0.6621999999880757],[0.03302083333333338,0.443888888888889,0.6787999999970111],[0.025729166666666713,0.4368518518518518,0.6954999999999956],[0.025312499999999953,0.4233333333333334,0.7120999999940381],[0.04385416666666669,0.41092592592592586,0.7315999999940317],[0.03697916666666667,0.42851851851851847,0.7473999999910603],[0.050937499999999976,0.39740740740740743,0.7620999999940352],[0.06854166666666663,0.36814814814814806,0.7786999999880777],[0.08333333333333333,0.3483333333333334,0.7955999999940389],[0.10635416666666657,0.3762962962962964,0.8157999999970116],[0.12781250000000005,0.40611111111111103,0.832499999999996],[0.11687500000000005,0.44240740740740736,0.8473999999910546],[0.14802083333333324,0.4383333333333334,0.8620999999940437],[0.16885416666666658,0.4546296296296296,0.878699999988072],[0.15791666666666657,0.4170370370370371,0.8955999999940332],[0.16520833333333323,0.4035185185185185,0.9121999999880757],[0.15875000000000009,0.431111111111111,0.929000000000002],[0.19947916666666668,0.4057407407407408,0.9454999999999956],[0.24208333333333343,0.3737037037037036,0.9623999999910637],[0.24416666666666675,0.3587037037037038,0.9787999999970225],[0.24604166666666671,0.3183333333333333,0.9953999999910508],[0.2586458333333333,0.26648148148148143,1.01219999998807],[0.2521874999999999,0.302962962962963,1.029299999997022],[0.2491666666666667,0.3255555555555555,1.0453999999910621],[0.27625000000000005,0.331111111111111,1.0622999999970233],[0.3033333333333334,0.33666666666666656,1.0786999999880749],[0.33010416666666675,0.3344444444444445,1.0955000000000013],[0.30968749999999995,0.3851851851851852,1.1121999999880785],[0.27583333333333326,0.40907407407407403,1.1316999999880721],[0.2783333333333334,0.37296296296296294,1.1477999999970194],[0.2861458333333334,0.3661111111111112,1.1645999999940386],[0.2786458333333333,0.3861111111111111,1.1786999999880834],[0.2555208333333333,0.39296296296296307,1.1953999999910536],[0.23239583333333325,0.3998148148148148,1.212099999994038],[0.20083333333333328,0.4564814814814815,1.2301999999880735],[0.16927083333333334,0.5131481481481482,1.2453999999910508],[0.15093750000000009,0.5153703703703703,1.26219999998807],[0.1196875000000001,0.5033333333333333,1.2786999999880777],[0.07739583333333329,0.5270370370370371,1.2953999999910621],[0.03968750000000002,0.547037037037037,1.3119999999999976],[0.03968750000000002,0.547037037037037,1.3288999999910516],[-0.030104166666666644,0.5781481481481482,1.3486999999880709],[-0.01729166666666669,0.5616666666666665,1.3622999999970204],[0.006562499999999953,0.5094444444444445,1.380399999991056],[0.006562499999999953,0.5094444444444445,1.410399999991057],[-0.000416666666666643,0.48629629629629634,1.417299999997013],[-0.005208333333333333,0.4770370370370371,1.4323999999910626],[-0.005208333333333333,0.4770370370370371,1.4454999999999956],[-0.017916666666666713,0.45203703703703707,1.4650000000000034],[-0.010000000000000024,0.4551851851851851,1.4788999999910573],[0.011249999999999953,0.4648148148148148,1.4956999999880765],[0.06739583333333338,0.4566666666666667,1.515399999991061],[0.10072916666666672,0.4527777777777778,1.5310999999940407],[0.15875000000000009,0.4316666666666667,1.5458999999910503],[0.14708333333333337,0.43129629629629623,1.5652999999970234],[0.12385416666666677,0.45092592592592595,1.5791999999880773],[0.14354166666666662,0.42314814814814816,1.5958999999910617],[0.14354166666666662,0.42314814814814816,1.6152999999970206],[0.15072916666666672,0.39018518518518525,1.6289999999999907],[0.14708333333333337,0.3762962962962964,1.6455999999940332],[0.1171875,0.39277777777777784,1.6647999999970153],[0.11010416666666671,0.3490740740740741,1.679000000000002],[0.08781249999999995,0.3387037037037037,1.6956999999880793],[0.09739583333333333,0.33425925925925926,1.7121999999880728],[0.09708333333333338,0.3412962962962962,1.7312999999970202],[0.1078125,0.3072222222222222,1.7455999999940417],[0.12625000000000006,0.27148148148148155,1.762299999997012],[0.12135416666666667,0.2953703703703704,1.781599999994043],[0.13604166666666656,0.25759259259259265,1.7955999999940389],[0.18322916666666675,0.19888888888888884,1.8125],[0.17520833333333338,0.17981481481481484,1.8319999999999936],[0.1946875000000001,0.1574074074074074,1.8457999999970127],[0.2234375,0.15240740740740732,1.8622999999970204],[0.23020833333333332,0.10666666666666672,1.881099999994035],[0.23541666666666666,0.10462962962962963,1.8956999999880821],[0.2319791666666667,0.14370370370370375,1.9122999999970176],[0.24322916666666666,0.1527777777777778,1.932699999988074],[0.2682291666666667,0.1088888888888888,1.9484999999999957],[0.2786458333333333,0.11740740740740736,1.9622999999970148],[0.27531249999999996,0.14351851851851852,1.9788999999910573],[0.35145833333333343,0.0801851851851851,1.9985999999940418],[0.36395833333333344,0.07481481481481478,2.012299999997012],[0.38041666666666674,0.040740740740740744,2.0289999999999964],[0.40604166666666663,0.044999999999999915,2.048000000000002],[0.42208333333333337,0.018888888888888972,2.062399999991058],[0.43552083333333325,-0.02555555555555547,2.0788999999910516],[0.41437499999999994,-0.02555555555555547,2.0955000000000013],[0.39072916666666657,-0.013888888888888888,2.117999999999995],[0.39072916666666657,-0.013888888888888888,2.128799999997014],[0.40166666666666656,-0.06574074074074074,2.1454999999999984],[0.39822916666666663,-0.11814814814814817,2.162099999994041],[0.3892708333333334,-0.172037037037037,2.17889999999106],[0.3935416666666666,-0.1983333333333334,2.1953999999910536],[0.38937499999999997,-0.23777777777777773,2.212199999988073],[0.37302083333333325,-0.275,2.2341999999880784],[0.37302083333333325,-0.275,2.2453999999910508],[0.37302083333333325,-0.32759259259259255,2.26219999998807],[0.37302083333333325,-0.32759259259259255,2.2786999999880777],[0.3603125000000001,-0.3412962962962963,2.295500000000004],[0.3603125000000001,-0.3412962962962963,2.3120999999940324],[0.41468749999999993,-0.47759259259259257,2.3291999999880773],[0.41468749999999993,-0.47759259259259257,2.3455000000000013],[0.4383333333333333,-0.5124074074074074,2.3620999999940437],[0.4383333333333333,-0.5124074074074074,2.378699999988072],[0.434375,-0.5316666666666667,2.3954999999999984],[0.434375,-0.5316666666666667,2.412099999994041],[0.4625,-0.532962962962963,2.429000000000002],[0.4647916666666667,-0.5218518518518519,2.445299999997019],[0.47802083333333345,-0.5205555555555555,2.462199999988073],[0.4912499999999999,-0.5192592592592592,2.4786999999880805],[0.4947916666666667,-0.5275925925925925,2.4953999999910508],[0.4881249999999999,-0.51,2.51219999998807],[0.5017708333333334,-0.5262962962962963,2.531499999999994],[0.46822916666666664,-0.43444444444444447,2.545399999991062],[0.46333333333333326,-0.4346296296296296,2.5619999999999976],[0.44500000000000006,-0.36740740740740735,2.578799999997017],[0.4258333333333333,-0.3405555555555555,2.5953999999910593],[0.4087500000000001,-0.3096296296296296,2.6121999999880785],[0.37374999999999997,-0.30907407407407406,2.6311999999880697],[0.3480208333333332,-0.32833333333333337,2.6453999999910565],[0.3492708333333333,-0.3320370370370371,2.662099999994041],[0.3640625,-0.36277777777777775,2.6786999999880834],[0.37000000000000005,-0.3731481481481482,2.6956999999880793],[0.35572916666666665,-0.36629629629629634,2.7120000000000033],[0.38385416666666666,-0.395,2.7319999999999993],[0.4189583333333334,-0.47962962962962963,2.7466999999880812],[0.42302083333333323,-0.5244444444444444,2.7620000000000005],[0.4270833333333333,-0.5692592592592592,2.7786999999880777],[0.4358333333333334,-0.5722222222222222,2.795399999991062],[0.4353125000000001,-0.5553703703703703,2.8120999999940324],[0.4275000000000001,-0.5574074074074075,2.830799999997012],[0.4105208333333332,-0.5542592592592592,2.8453999999910593],[0.38916666666666655,-0.5562962962962963,2.8620999999940437],[0.3932291666666667,-0.5822222222222222,2.878699999988072],[0.3631249999999999,-0.5555555555555556,2.8960999999940356],[0.33833333333333326,-0.5,2.911999999999992],[0.3076041666666666,-0.46111111111111114,2.931099999994032],[0.3007291666666667,-0.42981481481481487,2.945299999997019],[0.2869791666666667,-0.4057407407407408,2.9620000000000033],[0.2783333333333334,-0.37962962962962965,2.9787999999970225],[0.28458333333333335,-0.3403703703703704,2.995299999997016],[0.29666666666666663,-0.30462962962962964,3.012299999997012],[0.3023958333333333,-0.3024074074074074,3.031499999999994],[0.3029166666666666,-0.2935185185185185,3.0474999999999994],[0.30791666666666656,-0.31129629629629635,3.0643999999910534],[0.31760416666666674,-0.3140740740740741,3.078799999997017],[0.3355208333333332,-0.3148148148148148,3.0953999999910593],[0.32270833333333326,-0.31129629629629635,3.112399999991055],[0.3178124999999999,-0.30481481481481487,3.1335999999940327],[0.3178124999999999,-0.30481481481481487,3.1453999999910565],[0.31312499999999993,-0.3109259259259259,3.1621999999880757],[0.2907291666666666,-0.3272222222222222,3.1786999999880834],[0.24864583333333337,-0.32518518518518524,3.1954999999999956],[0.2211458333333333,-0.29148148148148145,3.2120000000000033],[0.19979166666666662,-0.27037037037037037,3.2286999999880805],[0.1678124999999999,-0.2490740740740741,3.247699999988072],[0.12937500000000005,-0.23944444444444446,3.264499999999998],[0.11583333333333339,-0.22388888888888886,3.2788999999910544]]","[0.0001999999880837322,0.04239999999106203,0.052499999999994884,0.06229999999702329,0.07879999999701681,0.09550000000000125,0.11209999999404374,0.12899999999999068,0.1454999999999984,0.1620999999940409,0.1788999999910601,0.19539999999105362,0.21239999999106374,0.22889999999105726,0.24549999999999272,0.26219999998807,0.27949999999999875,0.2955000000000041,0.31219999998808134,0.3292999999970192,0.3483999999910594,0.36209999999404374,0.3791999999880744,0.3954999999999984,0.41549999999999443,0.4311999999880811,0.4474999999999909,0.46489999999106146,0.48149999999999693,0.4960999999940441,0.5120999999940352,0.5301999999880707,0.5453999999910621,0.5620999999940324,0.5788999999910516,0.5953999999910593,0.615599999994032,0.6315000000000026,0.6454999999999984,0.6621999999880757,0.6787999999970111,0.6954999999999956,0.7120999999940381,0.7315999999940317,0.7473999999910603,0.7620999999940352,0.7786999999880777,0.7955999999940389,0.8157999999970116,0.832499999999996,0.8473999999910546,0.8620999999940437,0.878699999988072,0.8955999999940332,0.9121999999880757,0.929000000000002,0.9454999999999956,0.9623999999910637,0.9787999999970225,0.9953999999910508,1.01219999998807,1.029299999997022,1.0453999999910621,1.0622999999970233,1.0786999999880749,1.0955000000000013,1.1121999999880785,1.1316999999880721,1.1477999999970194,1.1645999999940386,1.1786999999880834,1.1953999999910536,1.212099999994038,1.2301999999880735,1.2453999999910508,1.26219999998807,1.2786999999880777,1.2953999999910621,1.3119999999999976,1.3288999999910516,1.3486999999880709,1.3622999999970204,1.380399999991056,1.410399999991057,1.417299999997013,1.4323999999910626,1.4454999999999956,1.4650000000000034,1.4788999999910573,1.4956999999880765,1.515399999991061,1.5310999999940407,1.5458999999910503,1.5652999999970234,1.5791999999880773,1.5958999999910617,1.6152999999970206,1.6289999999999907,1.6455999999940332,1.6647999999970153,1.679000000000002,1.6956999999880793,1.7121999999880728,1.7312999999970202,1.7455999999940417,1.762299999997012,1.781599999994043,1.7955999999940389,1.8125,1.8319999999999936,1.8457999999970127,1.8622999999970204,1.881099999994035,1.8956999999880821,1.9122999999970176,1.932699999988074,1.9484999999999957,1.9622999999970148,1.9788999999910573,1.9985999999940418,2.012299999997012,2.0289999999999964,2.048000000000002,2.062399999991058,2.0788999999910516,2.0955000000000013,2.117999999999995,2.128799999997014,2.1454999999999984,2.162099999994041,2.17889999999106,2.1953999999910536,2.212199999988073,2.2341999999880784,2.2453999999910508,2.26219999998807,2.2786999999880777,2.295500000000004,2.3120999999940324,2.3291999999880773,2.3455000000000013,2.3620999999940437,2.378699999988072,2.3954999999999984,2.412099999994041,2.429000000000002,2.445299999997019,2.462199999988073,2.4786999999880805,2.4953999999910508,2.51219999998807,2.531499999999994,2.545399999991062,2.5619999999999976,2.578799999997017,2.5953999999910593,2.6121999999880785,2.6311999999880697,2.6453999999910565,2.662099999994041,2.6786999999880834,2.6956999999880793,2.7120000000000033,2.7319999999999993,2.7466999999880812,2.7620000000000005,2.7786999999880777,2.795399999991062,2.8120999999940324,2.830799999997012,2.8453999999910593,2.8620999999940437,2.878699999988072,2.8960999999940356,2.911999999999992,2.931099999994032,2.945299999997019,2.9620000000000033,2.9787999999970225,2.995299999997016,3.012299999997012,3.031499999999994,3.0474999999999994,3.0643999999910534,3.078799999997017,3.0953999999910593,3.112399999991055,3.1335999999940327,3.1453999999910565,3.1621999999880757,3.1786999999880834,3.1954999999999956,3.2120000000000033,3.2286999999880805,3.247699999988072,3.264499999999998,3.2788999999910544]","[1733193286400,1733193286434,1733193286444,1733193286454,1733193286471,1733193286487,1733193286504,1733193286521,1733193286537,1733193286554,1733193286571,1733193286587,1733193286604,1733193286621,1733193286637,1733193286654,1733193286671,1733193286687,1733193286704,1733193286721,1733193286740,1733193286754,1733193286771,1733193286787,1733193286807,1733193286823,1733193286839,1733193286857,1733193286873,1733193286888,1733193286904,1733193286922,1733193286937,1733193286954,1733193286971,1733193286987,1733193287007,1733193287023,1733193287037,1733193287054,1733193287071,1733193287087,1733193287104,1733193287123,1733193287139,1733193287154,1733193287170,1733193287187,1733193287208,1733193287224,1733193287239,1733193287254,1733193287271,1733193287287,1733193287304,1733193287321,1733193287337,1733193287354,1733193287371,1733193287387,1733193287404,1733193287421,1733193287437,1733193287454,1733193287470,1733193287487,1733193287504,1733193287523,1733193287540,1733193287556,1733193287570,1733193287587,1733193287604,1733193287622,1733193287637,1733193287654,1733193287670,1733193287687,1733193287704,1733193287721,1733193287740,1733193287754,1733193287772,1733193287802,1733193287809,1733193287824,1733193287837,1733193287857,1733193287871,1733193287887,1733193287907,1733193287923,1733193287938,1733193287957,1733193287971,1733193287988,1733193288007,1733193288021,1733193288037,1733193288057,1733193288071,1733193288087,1733193288104,1733193288123,1733193288137,1733193288154,1733193288173,1733193288187,1733193288204,1733193288224,1733193288238,1733193288254,1733193288273,1733193288287,1733193288304,1733193288324,1733193288340,1733193288354,1733193288371,1733193288390,1733193288404,1733193288421,1733193288440,1733193288454,1733193288471,1733193288487,1733193288510,1733193288521,1733193288537,1733193288554,1733193288571,1733193288587,1733193288604,1733193288626,1733193288637,1733193288654,1733193288671,1733193288687,1733193288704,1733193288721,1733193288737,1733193288754,1733193288771,1733193288787,1733193288804,1733193288821,1733193288837,1733193288854,1733193288870,1733193288887,1733193288904,1733193288923,1733193288937,1733193288954,1733193288971,1733193288987,1733193289004,1733193289023,1733193289037,1733193289054,1733193289070,1733193289087,1733193289104,1733193289124,1733193289138,1733193289154,1733193289170,1733193289187,1733193289204,1733193289222,1733193289237,1733193289254,1733193289271,1733193289288,1733193289304,1733193289323,1733193289337,1733193289354,1733193289370,1733193289387,1733193289404,1733193289423,1733193289439,1733193289456,1733193289471,1733193289487,1733193289504,1733193289525,1733193289537,1733193289554,1733193289570,1733193289587,1733193289604,1733193289621,1733193289639,1733193289656,1733193289671]","[[1134.6,806.4],[1134.6,806.4],[1139.1,777.7],[1139.1,777.7],[1155.3,776.1],[1155.3,776.1],[1144.8,777.8],[1144.8,777.8],[1147.2,785],[1147.2,785],[1127.4,778.3],[1127.4,778.3],[1130.9,826.8],[1130.9,826.8],[1109.3,862.6],[1104.1,880.7],[1100.8,888.2],[1092.7,923],[1092.7,923],[1078.4,963.9],[1049.1,967.8],[1055.9,953.7],[1047.5,948.8],[1058.7,932.4],[1064.7,909.8],[1040,878.1],[1030.4,840.2],[1040,800],[1054.8,743.2],[1057.9,702.6],[1057.6,677.1],[1052.5,673.9],[1053.2,661.4],[1041.4,672.7],[1036.5,654.8],[1039.6,674],[1039.2,692.2],[1018.4,724.4],[989.3,756],[980.1,766.5],[991.7,779.7],[984.7,775.9],[984.3,768.6],[1002.1,761.9],[995.5,771.4],[1008.9,754.6],[1025.8,738.8],[1040,728.1],[1062.1,743.2],[1082.7,759.3],[1072.2,778.9],[1102.1,776.7],[1122.1,785.5],[1111.6,765.2],[1118.6,757.9],[1112.4,772.8],[1151.5,759.1],[1192.4,741.8],[1194.4,733.7],[1196.2,711.9],[1208.3,683.9],[1202.1,703.6],[1199.2,715.8],[1225.2,718.8],[1251.2,721.8],[1276.9,720.6],[1257.3,748],[1224.8,760.9],[1227.2,741.4],[1234.7,737.7],[1227.5,748.5],[1205.3,752.2],[1183.1,755.9],[1152.8,786.5],[1122.5,817.1],[1104.9,818.3],[1074.9,811.8],[1034.3,824.6],[998.1,835.4],[998.1,835.4],[931.1,852.2],[943.4,843.3],[966.3,815.1],[966.3,815.1],[959.6,802.6],[955,797.6],[955,797.6],[942.8,784.1],[950.4,785.8],[970.8,791],[1024.7,786.6],[1056.7,784.5],[1112.4,773.1],[1101.2,772.9],[1078.9,783.5],[1097.8,768.5],[1097.8,768.5],[1104.7,750.7],[1101.2,743.2],[1072.5,752.1],[1065.7,728.5],[1044.3,722.9],[1053.5,720.5],[1053.2,724.3],[1063.5,705.9],[1081.2,686.6],[1076.5,699.5],[1090.6,679.1],[1135.9,647.4],[1128.2,637.1],[1146.9,625],[1174.5,622.3],[1181,597.6],[1186,596.5],[1182.7,617.6],[1193.5,622.5],[1217.5,598.8],[1227.5,603.4],[1224.3,617.5],[1297.4,583.3],[1309.4,580.4],[1325.2,562],[1349.8,564.3],[1365.2,550.2],[1378.1,526.2],[1357.8,526.2],[1335.1,532.5],[1335.1,532.5],[1345.6,504.5],[1342.3,476.2],[1333.7,447.1],[1337.8,432.9],[1333.8,411.6],[1318.1,391.5],[1318.1,391.5],[1318.1,363.1],[1318.1,363.1],[1305.9,355.7],[1305.9,355.7],[1358.1,282.1],[1358.1,282.1],[1380.8,263.3],[1380.8,263.3],[1377,252.9],[1377,252.9],[1404,252.2],[1406.2,258.2],[1418.9,258.9],[1431.6,259.6],[1435,255.1],[1428.6,264.6],[1441.7,255.8],[1409.5,305.4],[1404.8,305.3],[1387.2,341.6],[1368.8,356.1],[1352.4,372.8],[1318.8,373.1],[1294.1,362.7],[1295.3,360.7],[1309.5,344.1],[1315.2,338.5],[1301.5,342.2],[1328.5,326.7],[1362.2,281],[1366.1,256.8],[1370,232.6],[1378.4,231],[1377.9,240.1],[1370.4,239],[1354.1,240.7],[1333.6,239.6],[1337.5,225.6],[1308.6,240],[1284.8,270],[1255.3,291],[1248.7,307.9],[1235.5,320.9],[1227.2,335],[1233.2,356.2],[1244.8,375.5],[1250.3,376.7],[1250.8,381.5],[1255.6,371.9],[1264.9,370.4],[1282.1,370],[1269.8,371.9],[1265.1,375.4],[1265.1,375.4],[1260.6,372.1],[1239.1,363.3],[1198.7,364.4],[1172.3,382.6],[1151.8,394],[1121.1,405.5],[1084.2,410.7],[1071.2,419.1]]","[0,0.3527331528]","[0.3527331528,0.3527331528]","[-0.3527331528,0]","[-0.3527331528,-0.3527331528]","[0,0]","[0.3527331528,0]","[0,-0.3527331528]","[0.3527331528,-0.3527331528]",0,0,0,0,1,4,Tablet,11,5,13,9
,,,,,,,,,,,,,,,,,,,,12,001,2024-12-03_10h34.01.838,Attention_exp_legacy,2023.1.0,Win32,60.60606061,,,,,,,,,,[0.38229166666666664],[0.3277777777777778],[1],[0],[0],[2.798500000000004],"[""Option2_label""]",Option2_label,2,3.7994,"[[0.3958333333333333,0.31666666666666665],[0.3958333333333333,0.31666666666666665],[0.3958333333333333,0.31666666666666665],[0.3958333333333333,0.31666666666666665],[0.3958333333333333,0.31666666666666665],[0.3958333333333333,0.31666666666666665],[0.3958333333333333,0.31666666666666665],[0.3958333333333333,0.31666666666666665],[0.3958333333333333,0.31666666666666665],[0.3958333333333333,0.31666666666666665],[0.3958333333333333,0.31666666666666665],[0.3958333333333333,0.31666666666666665],[0.3958333333333333,0.31666666666666665],[0.3958333333333333,0.31666666666666665],[0.3958333333333333,0.31666666666666665],[0.3958333333333333,0.31666666666666665],[0.3958333333333333,0.31666666666666665],[0.3958333333333333,0.31666666666666665],[0.3958333333333333,0.31666666666666665],[0.3958333333333333,0.31666666666666665],[0.3958333333333333,0.31666666666666665],[0.3958333333333333,0.31666666666666665],[0.3958333333333333,0.31666666666666665],[0.3958333333333333,0.31666666666666665],[0.3958333333333333,0.31666666666666665],[0.3958333333333333,0.31666666666666665],[0.3958333333333333,0.31666666666666665],[0.3958333333333333,0.31666666666666665],[0.3958333333333333,0.31666666666666665],[0.3958333333333333,0.31666666666666665],[0.39479166666666665,0.31666666666666665],[0.39479166666666665,0.3148148148148148],[0.39375,0.3148148148148148],[0.39166666666666666,0.31296296296296294],[0.39166666666666666,0.31296296296296294],[0.39166666666666666,0.31296296296296294],[0.39166666666666666,0.31296296296296294],[0.39166666666666666,0.31296296296296294],[0.39166666666666666,0.31296296296296294],[0.39166666666666666,0.31296296296296294],[0.39166666666666666,0.31296296296296294],[0.39166666666666666,0.31296296296296294],[0.39166666666666666,0.31296296296296294],[0.39166666666666666,0.31296296296296294],[0.39166666666666666,0.31296296296296294],[0.39166666666666666,0.31296296296296294],[0.39166666666666666,0.31296296296296294],[0.39166666666666666,0.31296296296296294],[0.39166666666666666,0.31296296296296294],[0.39166666666666666,0.31296296296296294],[0.39166666666666666,0.31296296296296294],[0.39166666666666666,0.31296296296296294],[0.39166666666666666,0.31296296296296294],[0.39166666666666666,0.31296296296296294],[0.39166666666666666,0.31296296296296294],[0.39166666666666666,0.31296296296296294],[0.39166666666666666,0.31296296296296294],[0.39166666666666666,0.31296296296296294],[0.39166666666666666,0.31296296296296294],[0.39166666666666666,0.31296296296296294],[0.39166666666666666,0.31296296296296294],[0.39166666666666666,0.31296296296296294],[0.39166666666666666,0.31296296296296294],[0.39166666666666666,0.31296296296296294],[0.39166666666666666,0.31296296296296294],[0.39166666666666666,0.31296296296296294],[0.39166666666666666,0.31296296296296294],[0.39166666666666666,0.31296296296296294],[0.39166666666666666,0.31296296296296294],[0.39166666666666666,0.31296296296296294],[0.39166666666666666,0.31296296296296294],[0.39166666666666666,0.31296296296296294],[0.39166666666666666,0.31296296296296294],[0.39166666666666666,0.31296296296296294],[0.39166666666666666,0.31296296296296294],[0.39166666666666666,0.31296296296296294],[0.39166666666666666,0.31296296296296294],[0.39166666666666666,0.31296296296296294],[0.39166666666666666,0.31296296296296294],[0.39166666666666666,0.31296296296296294],[0.39166666666666666,0.31296296296296294],[0.39166666666666666,0.31296296296296294],[0.39166666666666666,0.31296296296296294],[0.39166666666666666,0.31296296296296294],[0.39166666666666666,0.31296296296296294],[0.39166666666666666,0.31296296296296294],[0.39166666666666666,0.31296296296296294],[0.39166666666666666,0.31296296296296294],[0.39166666666666666,0.31296296296296294],[0.39166666666666666,0.31296296296296294],[0.39166666666666666,0.31296296296296294],[0.39166666666666666,0.31296296296296294],[0.39166666666666666,0.31296296296296294],[0.39166666666666666,0.31296296296296294],[0.39166666666666666,0.31296296296296294],[0.39166666666666666,0.31296296296296294],[0.39166666666666666,0.31296296296296294],[0.39166666666666666,0.31296296296296294],[0.39166666666666666,0.31296296296296294],[0.39166666666666666,0.31296296296296294],[0.39166666666666666,0.31296296296296294],[0.39166666666666666,0.31296296296296294],[0.39166666666666666,0.31296296296296294],[0.39166666666666666,0.31296296296296294],[0.39166666666666666,0.31296296296296294],[0.39166666666666666,0.31296296296296294],[0.39166666666666666,0.31296296296296294],[0.39166666666666666,0.31296296296296294],[0.39166666666666666,0.31296296296296294],[0.39166666666666666,0.31296296296296294],[0.39166666666666666,0.31296296296296294],[0.39166666666666666,0.31296296296296294],[0.39166666666666666,0.31296296296296294],[0.39166666666666666,0.31296296296296294],[0.39166666666666666,0.31296296296296294],[0.39166666666666666,0.31296296296296294],[0.39166666666666666,0.31296296296296294],[0.39166666666666666,0.31296296296296294],[0.39166666666666666,0.31296296296296294],[0.39166666666666666,0.31296296296296294],[0.39166666666666666,0.31296296296296294],[0.39166666666666666,0.31296296296296294],[0.39166666666666666,0.31296296296296294],[0.39166666666666666,0.31296296296296294],[0.39166666666666666,0.31296296296296294],[0.39166666666666666,0.31296296296296294],[0.39166666666666666,0.31296296296296294],[0.39166666666666666,0.31296296296296294],[0.39166666666666666,0.31296296296296294],[0.39166666666666666,0.31296296296296294],[0.39166666666666666,0.31296296296296294],[0.39166666666666666,0.31296296296296294],[0.39166666666666666,0.31296296296296294],[0.39166666666666666,0.31296296296296294],[0.39166666666666666,0.31296296296296294],[0.39166666666666666,0.31296296296296294],[0.39166666666666666,0.31296296296296294],[0.39166666666666666,0.31296296296296294],[0.39166666666666666,0.31296296296296294],[0.39166666666666666,0.31296296296296294],[0.39166666666666666,0.31296296296296294],[0.39166666666666666,0.31296296296296294],[0.39166666666666666,0.31296296296296294],[0.39166666666666666,0.31296296296296294],[0.39166666666666666,0.31296296296296294],[0.39166666666666666,0.31296296296296294],[0.39166666666666666,0.31296296296296294],[0.39166666666666666,0.31296296296296294],[0.39166666666666666,0.31296296296296294],[0.39166666666666666,0.31296296296296294],[0.39166666666666666,0.31296296296296294],[0.39166666666666666,0.31296296296296294],[0.39166666666666666,0.31296296296296294],[0.38958333333333334,0.31296296296296294],[0.38958333333333334,0.31296296296296294],[0.3885416666666667,0.31296296296296294],[0.38645833333333335,0.3148148148148148],[0.384375,0.31851851851851853],[0.384375,0.32222222222222224],[0.38333333333333336,0.32407407407407407],[0.38229166666666664,0.3277777777777778],[0.38229166666666664,0.3277777777777778],[0.38229166666666664,0.3277777777777778],[0.38229166666666664,0.3277777777777778],[0.38229166666666664,0.3277777777777778],[0.38229166666666664,0.3277777777777778],[0.38229166666666664,0.3277777777777778],[0.38229166666666664,0.3277777777777778],[0.38229166666666664,0.3277777777777778],[0.38229166666666664,0.3277777777777778],[0.38229166666666664,0.3277777777777778],[0.38229166666666664,0.3277777777777778],[0.38229166666666664,0.3277777777777778],[0.38229166666666664,0.3277777777777778],[0.38229166666666664,0.3277777777777778],[0.38229166666666664,0.3277777777777778],[0.38229166666666664,0.3277777777777778],[0.38229166666666664,0.3277777777777778],[0.38229166666666664,0.3277777777777778],[0.38229166666666664,0.3277777777777778],[0.38229166666666664,0.3277777777777778],[0.38229166666666664,0.3277777777777778],[0.38229166666666664,0.3277777777777778],[0.38229166666666664,0.3277777777777778],[0.38229166666666664,0.3277777777777778],[0.38229166666666664,0.3277777777777778],[0.38229166666666664,0.3277777777777778],[0.38229166666666664,0.3277777777777778],[0.38229166666666664,0.3277777777777778],[0.38229166666666664,0.3277777777777778],[0.38229166666666664,0.3277777777777778],[0.38229166666666664,0.3277777777777778],[0.38229166666666664,0.3277777777777778],[0.38229166666666664,0.3277777777777778],[0.38229166666666664,0.3277777777777778],[0.38229166666666664,0.3277777777777778],[0.38229166666666664,0.3277777777777778],[0.38229166666666664,0.3277777777777778],[0.38229166666666664,0.3277777777777778],[0.38229166666666664,0.3277777777777778],[0.38229166666666664,0.3277777777777778],[0.38229166666666664,0.3277777777777778],[0.38229166666666664,0.3277777777777778],[0.38229166666666664,0.3277777777777778],[0.38229166666666664,0.3277777777777778],[0.38229166666666664,0.3277777777777778],[0.38229166666666664,0.3277777777777778],[0.38229166666666664,0.3277777777777778],[0.38229166666666664,0.3277777777777778],[0.38229166666666664,0.3277777777777778],[0.38229166666666664,0.3277777777777778],[0.38229166666666664,0.3277777777777778],[0.38229166666666664,0.3277777777777778],[0.38229166666666664,0.3277777777777778],[0.38229166666666664,0.3277777777777778],[0.38229166666666664,0.3277777777777778],[0.38229166666666664,0.3277777777777778],[0.38229166666666664,0.3277777777777778],[0.38229166666666664,0.3277777777777778],[0.38229166666666664,0.3277777777777778],[0.38229166666666664,0.3277777777777778],[0.38229166666666664,0.3277777777777778],[0.38229166666666664,0.3277777777777778],[0.38229166666666664,0.3277777777777778],[0.38229166666666664,0.3277777777777778],[0.38229166666666664,0.3277777777777778],[0.38229166666666664,0.3277777777777778],[0.38229166666666664,0.3277777777777778],[0.38229166666666664,0.3277777777777778]]","[[0.03250000000000005,0.19037037037037027],[0.12479166666666662,0.09833333333333337],[0.2103125000000001,0.039074074074074115],[0.2103125000000001,0.039074074074074115],[0.28447916666666656,0.0035185185185184764],[0.35520833333333335,-0.04388888888888897],[0.39781250000000007,-0.09000000000000004],[0.4066666666666668,-0.08444444444444449],[0.4066666666666668,-0.08444444444444449],[0.39895833333333336,-0.030555555555555555],[0.39895833333333336,-0.030555555555555555],[0.40208333333333335,0.005000000000000084],[0.4154166666666666,0.03629629629629634],[0.4154166666666666,0.03629629629629634],[0.42072916666666677,0.09388888888888898],[0.42072916666666677,0.09388888888888898],[0.42604166666666665,0.15148148148148138],[0.42604166666666665,0.15148148148148138],[0.40208333333333335,0.15537037037037033],[0.40208333333333335,0.15537037037037033],[0.3941666666666668,0.14314814814814805],[0.4007291666666667,0.14333333333333328],[0.41218750000000004,0.14148148148148143],[0.4361458333333334,0.15481481481481485],[0.4253124999999999,0.14296296296296304],[0.4088541666666667,0.1537037037037037],[0.3609375,0.23037037037037034],[0.3290625000000001,0.29018518518518527],[0.30479166666666657,0.30037037037037045],[0.3165625000000001,0.3314814814814815],[0.3385416666666667,0.3537037037037037],[0.3352083333333333,0.32518518518518524],[0.29958333333333326,0.3014814814814814],[0.25760416666666663,0.27518518518518525],[0.2894791666666668,0.23166666666666672],[0.33541666666666664,0.18499999999999997],[0.34093749999999995,0.075],[0.3732291666666666,-0.060555555555555536],[0.36083333333333345,-0.11703703703703702],[0.3549999999999999,-0.1794444444444444],[0.3251041666666666,-0.2168518518518519],[0.2989583333333333,-0.21962962962962967],[0.3245833333333332,-0.22185185185185188],[0.3382291666666667,-0.23111111111111113],[0.30281250000000004,-0.22666666666666663],[0.28020833333333334,-0.21648148148148144],[0.29885416666666675,-0.17685185185185184],[0.2757291666666667,-0.13481481481481483],[0.28020833333333334,-0.08796296296296297],[0.28020833333333334,-0.08796296296296297],[0.3085416666666667,-0.08888888888888889],[0.32927083333333323,-0.11037037037037041],[0.34656250000000005,-0.12148148148148152],[0.3297916666666666,-0.12148148148148152],[0.3245833333333332,-0.10851851851851856],[0.3459374999999999,-0.11518518518518517],[0.30791666666666656,-0.10777777777777775],[0.28229166666666666,-0.1259259259259259],[0.24635416666666668,-0.11425925925925924],[0.23489583333333333,-0.1527777777777778],[0.19322916666666667,-0.15],[0.1671875,-0.16870370370370374],[0.16135416666666677,-0.1787037037037037],[0.15552083333333327,-0.18870370370370365],[0.1252083333333334,-0.18981481481481483],[0.08822916666666672,-0.19981481481481478],[0.07927083333333323,-0.2294444444444444],[0.07552083333333333,-0.2609259259259259],[0.0578125,-0.29685185185185187],[0.02510416666666669,-0.3168518518518519],[-0.007083333333333286,-0.32888888888888895],[-0.04729166666666664,-0.29888888888888887],[-0.08354166666666671,-0.2770370370370371],[-0.11916666666666664,-0.24518518518518514],[-0.12749999999999997,-0.23555555555555555],[-0.13125,-0.2205555555555556],[-0.15072916666666672,-0.20425925925925928],[-0.17302083333333335,-0.17999999999999997],[-0.16989583333333336,-0.16648148148148145],[-0.16677083333333337,-0.152962962962963],[-0.17114583333333327,-0.1559259259259259],[-0.17552083333333332,-0.1588888888888889],[-0.20437500000000006,-0.17314814814814813],[-0.23385416666666667,-0.19740740740740745],[-0.26843750000000005,-0.20685185185185184],[-0.2833333333333333,-0.18592592592592588],[-0.303125,-0.15870370370370368],[-0.32531249999999995,-0.13759259259259263],[-0.35375,-0.16925925925925922],[-0.3897916666666667,-0.1412962962962963],[-0.40822916666666664,-0.14629629629629629],[-0.4270833333333333,-0.15],[-0.4195833333333333,-0.12907407407407406],[-0.41208333333333336,-0.1081481481481481],[-0.41208333333333336,-0.1081481481481481],[-0.4061458333333333,-0.07574074074074069],[-0.4319791666666667,-0.06129629629629634],[-0.43635416666666665,-0.06277777777777774],[-0.42312500000000003,-0.05537037037037033],[-0.4209375,0.015555555555555513],[-0.3944791666666667,0.021481481481481525],[-0.39895833333333336,0.07833333333333325],[-0.3710416666666667,0.11574074074074074],[-0.36531250000000004,0.13296296296296287],[-0.34395833333333337,0.20537037037037034],[-0.3597916666666666,0.23944444444444435],[-0.35437500000000005,0.2512962962962964],[-0.3453125,0.27444444444444455],[-0.2994791666666667,0.25462962962962965],[-0.2625,0.23796296296296296],[-0.2391666666666667,0.22777777777777777],[-0.19572916666666665,0.2205555555555556],[-0.17229166666666665,0.22907407407407415],[-0.13875000000000004,0.2490740740740741],[-0.13093750000000004,0.2140740740740741],[-0.08864583333333335,0.1868518518518518],[-0.049479166666666664,0.17314814814814813],[-0.010312499999999976,0.1594444444444445],[-0.03104166666666662,0.19648148148148153],[-0.027708333333333356,0.21222222222222226],[-0.04072916666666669,0.24259259259259258],[-0.05375000000000003,0.2729629629629629],[-0.06458333333333334,0.29907407407407405],[-0.06458333333333334,0.29907407407407405],[-0.07541666666666665,0.32518518518518524],[-0.07541666666666665,0.32518518518518524],[-0.07875000000000003,0.32814814814814824],[-0.06385416666666661,0.3224074074074075],[-0.06385416666666661,0.3224074074074075],[-0.06416666666666669,0.3435185185185185],[-0.04052083333333331,0.3625925925925925],[-0.016770833333333356,0.35055555555555545],[0.005520833333333286,0.3588888888888888],[0.04635416666666667,0.3472222222222222],[0.0728125000000001,0.33240740740740743],[0.078125,0.31962962962962965],[0.0834374999999999,0.30685185185185193],[0.10812499999999996,0.3148148148148148],[0.10395833333333329,0.3264814814814814],[0.11104166666666657,0.3111111111111111],[0.08552083333333324,0.2807407407407408],[0.06541666666666662,0.26481481481481484],[0.06541666666666662,0.26481481481481484],[0.075,0.23185185185185195],[0.075,0.23185185185185195],[0.051250000000000046,0.20907407407407402],[0.051250000000000046,0.20907407407407402],[0.06656249999999998,0.1874074074074075],[0.0787499999999999,0.16518518518518527],[0.0787499999999999,0.16518518518518527],[0.09208333333333343,0.13518518518518519],[0.09208333333333343,0.13518518518518519],[0.0953125,0.12074074074074083],[0.11333333333333329,0.07685185185185185],[0.11302083333333333,0.057037037037036956],[0.12135416666666667,0.054259259259259174],[0.14770833333333327,0.03925925925925934],[0.14583333333333334,0.02092592592592584],[0.21385416666666662,-0.028703703703703703],[0.23229166666666667,-0.08796296296296297],[0.2608333333333334,-0.14203703703703702],[0.27395833333333336,-0.18740740740740738],[0.3072916666666667,-0.25981481481481483],[0.3023958333333333,-0.2735185185185185],[0.3306250000000001,-0.3418518518518519],[0.35885416666666664,-0.4101851851851852],[0.38229166666666664,-0.44962962962962966],[0.40572916666666664,-0.4890740740740741],[0.38729166666666665,-0.5114814814814814],[0.39375,-0.5222222222222223],[0.3814583333333334,-0.5322222222222222],[0.38343749999999993,-0.5431481481481482],[0.37260416666666674,-0.5029629629629631],[0.3958333333333333,-0.48703703703703705],[0.40166666666666656,-0.45333333333333337],[0.40614583333333343,-0.4212962962962963],[0.3709374999999999,-0.4027777777777778],[0.33572916666666663,-0.38425925925925924],[0.3180208333333333,-0.3594444444444445],[0.2794791666666666,-0.3303703703703703],[0.2620833333333332,-0.2992592592592593],[0.24468750000000009,-0.2681481481481482],[0.21687500000000004,-0.2881481481481482],[0.1890625,-0.3081481481481481],[0.1638541666666666,-0.3153703703703704],[0.11447916666666676,-0.287962962962963],[0.11177083333333329,-0.2922222222222222],[0.10906250000000005,-0.2964814814814815],[0.11458333333333333,-0.307962962962963],[0.14093749999999997,-0.3237037037037037],[0.1319791666666667,-0.32222222222222224],[0.12302083333333323,-0.3207407407407407],[0.09854166666666657,-0.3051851851851852],[0.0740624999999999,-0.28962962962962957],[0.0740624999999999,-0.28962962962962957],[0.04854166666666669,-0.2577777777777778],[0.05343749999999995,-0.25555555555555554],[0.03812500000000003,-0.22481481481481477],[0.03135416666666669,-0.20407407407407405],[-0.020729166666666642,-0.16814814814814816],[-0.028854166666666715,-0.14333333333333328],[-0.019895833333333356,-0.12999999999999998],[0.01895833333333338,-0.1690740740740741],[0.0696875000000001,-0.20851851851851855],[0.12041666666666657,-0.21537037037037038],[0.15989583333333332,-0.2707407407407407],[0.18958333333333333,-0.3061111111111111],[0.21927083333333333,-0.34148148148148144],[0.2404166666666666,-0.3668518518518519],[0.2865624999999999,-0.3698148148148148],[0.2912499999999999,-0.38740740740740737],[0.3117708333333333,-0.41351851851851856],[0.27791666666666665,-0.39462962962962966],[0.24406249999999996,-0.3757407407407407],[0.20927083333333343,-0.3896296296296296],[0.18677083333333327,-0.3712962962962963],[0.1787499999999999,-0.3698148148148148],[0.16854166666666662,-0.372037037037037],[0.1568749999999999,-0.3461111111111111],[0.17052083333333337,-0.3424074074074074],[0.15072916666666672,-0.31962962962962965],[0.13333333333333333,-0.2940740740740741],[0.12729166666666672,-0.26592592592592595],[0.13708333333333325,-0.23296296296296298],[0.14510416666666662,-0.17518518518518522],[0.16656250000000009,-0.12333333333333338],[0.18760416666666657,-0.1418518518518519],[0.21083333333333343,-0.1566666666666667],[0.23229166666666667,-0.1948148148148148]]","[[0.03250000000000005,0.19037037037037027,0.00009999999403476068],[0.12479166666666662,0.09833333333333337,0.016700000002970228],[0.2103125000000001,0.039074074074074115,0.03549999999999898],[0.2103125000000001,0.039074074074074115,0.04929999999701806],[0.28447916666666656,0.0035185185185184764,0.06620000000297921],[0.35520833333333335,-0.04388888888888897,0.08259999999403078],[0.39781250000000007,-0.09000000000000004,0.09929999999701522],[0.4066666666666668,-0.08444444444444449,0.11879999999700885],[0.4066666666666668,-0.08444444444444449,0.1327000000029699],[0.39895833333333336,-0.030555555555555555,0.14940000000595433],[0.39895833333333336,-0.030555555555555555,0.16599999999999682],[0.40208333333333335,0.005000000000000084,0.1825999999940393],[0.4154166666666666,0.03629629629629634,0.20509999999403306],[0.4154166666666666,0.03629629629629634,0.21599999999999397],[0.42072916666666677,0.09388888888888898,0.23290000000595512],[0.42072916666666677,0.09388888888888898,0.24940000000596285],[0.42604166666666665,0.15148148148148138,0.26590000000595637],[0.42604166666666665,0.15148148148148138,0.28270000000297557],[0.40208333333333335,0.15537037037037033,0.29929999999701806],[0.40208333333333335,0.15537037037037033,0.31609999999403726],[0.3941666666666668,0.14314814814814805,0.3325999999940308],[0.4007291666666667,0.14333333333333328,0.34920000000298046],[0.41218750000000004,0.14148148148148143,0.3659000000059507],[0.4361458333333334,0.15481481481481485,0.38259999999404215],[0.4253124999999999,0.14296296296296304,0.3992999999970124],[0.4088541666666667,0.1537037037037037,0.41590000000596206],[0.3609375,0.23037037037037034,0.4354000000059557],[0.3290625000000001,0.29018518518518527,0.4494000000059515],[0.30479166666666657,0.30037037037037045,0.465999999999994],[0.3165625000000001,0.3314814814814815,0.4829000000059551],[0.3385416666666667,0.3537037037037037,0.5017999999970186],[0.3352083333333333,0.32518518518518524,0.5162999999970168],[0.29958333333333326,0.3014814814814814,0.5339999999999918],[0.25760416666666663,0.27518518518518525,0.5494999999999948],[0.2894791666666668,0.23166666666666672,0.5659000000059535],[0.33541666666666664,0.18499999999999997,0.5847000000029823],[0.34093749999999995,0.075,0.5992999999970152],[0.3732291666666666,-0.060555555555555536,0.6159999999999997],[0.36083333333333345,-0.11703703703703702,0.6345000000000027],[0.3549999999999999,-0.1794444444444444,0.6492000000029776],[0.3251041666666666,-0.2168518518518519,0.6659999999999968],[0.2989583333333333,-0.21962962962962967,0.682799999997016],[0.3245833333333332,-0.22185185185185188,0.6992999999970095],[0.3382291666666667,-0.23111111111111113,0.7164000000059616],[0.30281250000000004,-0.22666666666666663,0.7325999999940365],[0.28020833333333334,-0.21648148148148144,0.7495999999940324],[0.29885416666666675,-0.17685185185185184,0.7659000000059564],[0.2757291666666667,-0.13481481481481483,0.7827999999970103],[0.28020833333333334,-0.08796296296296297,0.79940000000596],[0.28020833333333334,-0.08796296296296297,0.8185000000000002],[0.3085416666666667,-0.08888888888888889,0.8377000000029824],[0.32927083333333323,-0.11037037037037041,0.8524000000059573],[0.34656250000000005,-0.12148148148148152,0.8659999999999997],[0.3297916666666666,-0.12148148148148152,0.8824999999999932],[0.3245833333333332,-0.10851851851851856,0.8992999999970124],[0.3459374999999999,-0.11518518518518517,0.9159000000059621],[0.30791666666666656,-0.10777777777777775,0.932799999997016],[0.28229166666666666,-0.1259259259259259,0.9492999999970095],[0.24635416666666668,-0.11425925925925924,0.965999999999994],[0.23489583333333333,-0.1527777777777778,0.9825999999940365],[0.19322916666666667,-0.15,0.9992999999970209],[0.1671875,-0.16870370370370374,1.0159999999999911],[0.16135416666666677,-0.1787037037037037,1.0327999999970103],[0.15552083333333327,-0.18870370370370365,1.0522999999970182],[0.1252083333333334,-0.18981481481481483,1.0660999999940373],[0.08822916666666672,-0.19981481481481478,1.0827000000029727],[0.07927083333333323,-0.2294444444444444,1.0992000000029805],[0.07552083333333333,-0.2609259259259259,1.1159999999999997],[0.0578125,-0.29685185185185187,1.1325999999940422],[0.02510416666666669,-0.3168518518518519,1.1492000000029776],[-0.007083333333333286,-0.32888888888888895,1.1659999999999968],[-0.04729166666666664,-0.29888888888888887,1.1824999999999903],[-0.08354166666666671,-0.2770370370370371,1.1992999999970095],[-0.11916666666666664,-0.24518518518518514,1.2159000000059592],[-0.12749999999999997,-0.23555555555555555,1.2325999999940365],[-0.13125,-0.2205555555555556,1.249200000002972],[-0.15072916666666672,-0.20425925925925928,1.2659999999999911],[-0.17302083333333335,-0.17999999999999997,1.2825999999940336],[-0.16989583333333336,-0.16648148148148145,1.299299999997018],[-0.16677083333333337,-0.152962962962963,1.3159000000059535],[-0.17114583333333327,-0.1559259259259259,1.3327999999970217],[-0.17552083333333332,-0.1588888888888889,1.3492999999970152],[-0.20437500000000006,-0.17314814814814813,1.3659999999999997],[-0.23385416666666667,-0.19740740740740745,1.3824999999999932],[-0.26843750000000005,-0.20685185185185184,1.3994000000059543],[-0.2833333333333333,-0.18592592592592588,1.4159999999999968],[-0.303125,-0.15870370370370368,1.4329999999999927],[-0.32531249999999995,-0.13759259259259263,1.4492999999970095],[-0.35375,-0.16925925925925922,1.4657999999970173],[-0.3897916666666667,-0.1412962962962963,1.4827000000029784],[-0.40822916666666664,-0.14629629629629629,1.49909999999403],[-0.4270833333333333,-0.15,1.51609999999404],[-0.4195833333333333,-0.12907407407407406,1.5329000000059523],[-0.41208333333333336,-0.1081481481481481,1.549299999997018],[-0.41208333333333336,-0.1081481481481481,1.5660999999940373],[-0.4061458333333333,-0.07574074074074069,1.5825999999940308],[-0.4319791666666667,-0.06129629629629634,1.5992999999970152],[-0.43635416666666665,-0.06277777777777774,1.6159000000059507],[-0.42312500000000003,-0.05537037037037033,1.6327999999970189],[-0.4209375,0.015555555555555513,1.6492999999970124],[-0.3944791666666667,0.021481481481481525,1.6659999999999968],[-0.39895833333333336,0.07833333333333325,1.6824999999999903],[-0.3710416666666667,0.11574074074074074,1.6992999999970095],[-0.36531250000000004,0.13296296296296287,1.715999999999994],[-0.34395833333333337,0.20537037037037034,1.7329000000059551],[-0.3597916666666666,0.23944444444444435,1.749200000002972],[-0.35437500000000005,0.2512962962962964,1.7659999999999911],[-0.3453125,0.27444444444444455,1.7825999999940336],[-0.2994791666666667,0.25462962962962965,1.799299999997018],[-0.2625,0.23796296296296296,1.8159000000059535],[-0.2391666666666667,0.22777777777777777,1.8352999999970194],[-0.19572916666666665,0.2205555555555556,1.8515000000000015],[-0.17229166666666665,0.22907407407407415,1.8659000000059507],[-0.13875000000000004,0.2490740740740741,1.8827000000029699],[-0.13093750000000004,0.2140740740740741,1.8992999999970124],[-0.08864583333333335,0.1868518518518518,1.9159999999999968],[-0.049479166666666664,0.17314814814814813,1.932799999997016],[-0.010312499999999976,0.1594444444444445,1.9492000000029748],[-0.03104166666666662,0.19648148148148153,1.965999999999994],[-0.027708333333333356,0.21222222222222226,1.9825999999940365],[-0.04072916666666669,0.24259259259259258,1.999299999997021],[-0.05375000000000003,0.2729629629629629,2.0157999999970144],[-0.06458333333333334,0.29907407407407405,2.0352000000029733],[-0.06458333333333334,0.29907407407407405,2.0492000000029833],[-0.07541666666666665,0.32518518518518524,2.0665999999940396],[-0.07541666666666665,0.32518518518518524,2.082499999999996],[-0.07875000000000003,0.32814814814814824,2.099299999997015],[-0.06385416666666661,0.3224074074074075,2.12109999999403],[-0.06385416666666661,0.3224074074074075,2.13270000000297],[-0.06416666666666669,0.3435185185185185,2.1492999999970124],[-0.04052083333333331,0.3625925925925925,2.165900000005962],[-0.016770833333333356,0.35055555555555545,2.1825999999940393],[0.005520833333333286,0.3588888888888888,2.1994000000059515],[0.04635416666666667,0.3472222222222222,2.215900000005959],[0.0728125000000001,0.33240740740740743,2.233099999994039],[0.078125,0.31962962962962965,2.249299999997021],[0.0834374999999999,0.30685185185185193,2.2659000000059564],[0.10812499999999996,0.3148148148148148,2.2827000000029756],[0.10395833333333329,0.3264814814814814,2.302200000002969],[0.11104166666666657,0.3111111111111111,2.3160000000000025],[0.08552083333333324,0.2807407407407408,2.3329000000059494],[0.06541666666666662,0.26481481481481484,2.353499999999997],[0.06541666666666662,0.26481481481481484,2.3659999999999997],[0.075,0.23185185185185195,2.382599999994042],[0.075,0.23185185185185195,2.3992999999970124],[0.051250000000000046,0.20907407407407402,2.415900000005962],[0.051250000000000046,0.20907407407407402,2.4327000000029813],[0.06656249999999998,0.1874074074074075,2.4492999999970095],[0.0787499999999999,0.16518518518518527,2.4707999999970127],[0.0787499999999999,0.16518518518518527,2.4825000000000017],[0.09208333333333343,0.13518518518518519,2.4994999999999976],[0.09208333333333343,0.13518518518518519,2.5159000000059564],[0.0953125,0.12074074074074083,2.5327999999970103],[0.11333333333333329,0.07685185185185185,2.553200000002974],[0.11302083333333333,0.057037037037036956,2.566200000002979],[0.12135416666666667,0.054259259259259174,2.5827999999970217],[0.14770833333333327,0.03925925925925934,2.599499999999992],[0.14583333333333334,0.02092592592592584,2.619500000000002],[0.21385416666666662,-0.028703703703703703,2.63509999999404],[0.23229166666666667,-0.08796296296296297,2.6497999999970148],[0.2608333333333334,-0.14203703703703702,2.665999999999997],[0.27395833333333336,-0.18740740740740738,2.6827000000029813],[0.3072916666666667,-0.25981481481481483,2.6992000000029748],[0.3023958333333333,-0.2735185185185185,2.7160999999940287],[0.3306250000000001,-0.3418518518518519,2.7325999999940365],[0.35885416666666664,-0.4101851851851852,2.749200000002972],[0.38229166666666664,-0.44962962962962966,2.765999999999991],[0.40572916666666664,-0.4890740740740741,2.7827000000029756],[0.38729166666666665,-0.5114814814814814,2.7992000000029833],[0.39375,-0.5222222222222223,2.8160999999940373],[0.3814583333333334,-0.5322222222222222,2.8327999999970217],[0.38343749999999993,-0.5431481481481482,2.8492000000029805],[0.37260416666666674,-0.5029629629629631,2.8659999999999997],[0.3958333333333333,-0.48703703703703705,2.882499999999993],[0.40166666666666656,-0.45333333333333337,2.8992000000029776],[0.40614583333333343,-0.4212962962962963,2.91579999999702],[0.3709374999999999,-0.4027777777777778,2.9327000000029813],[0.33572916666666663,-0.38425925925925924,2.949099999994033],[0.3180208333333333,-0.3594444444444445,2.965999999999994],[0.2794791666666666,-0.3303703703703703,2.9825000000000017],[0.2620833333333332,-0.2992592592592593,2.999200000002972],[0.24468750000000009,-0.2681481481481482,3.0157999999970144],[0.21687500000000004,-0.2881481481481482,3.034700000002971],[0.1890625,-0.3081481481481481,3.0492000000029833],[0.1638541666666666,-0.3153703703703704,3.0692000000029793],[0.11447916666666676,-0.287962962962963,3.086400000005952],[0.11177083333333329,-0.2922222222222222,3.099400000005957],[0.10906250000000005,-0.2964814814814815,3.1159999999999997],[0.11458333333333333,-0.307962962962963,3.132599999994042],[0.14093749999999997,-0.3237037037037037,3.1492999999970124],[0.1319791666666667,-0.32222222222222224,3.165900000005962],[0.12302083333333323,-0.3207407407407407,3.1824999999999903],[0.09854166666666657,-0.3051851851851852,3.1992999999970095],[0.0740624999999999,-0.28962962962962957,3.215999999999994],[0.0740624999999999,-0.28962962962962957,3.2325999999940365],[0.04854166666666669,-0.2577777777777778,3.249299999997021],[0.05343749999999995,-0.25555555555555554,3.2659000000059564],[0.03812500000000003,-0.22481481481481477,3.2825999999940336],[0.03135416666666669,-0.20407407407407405,3.299299999997018],[-0.020729166666666642,-0.16814814814814816,3.3159000000059535],[-0.028854166666666715,-0.14333333333333328,3.334900000005959],[-0.019895833333333356,-0.12999999999999998,3.3490999999940385],[0.01895833333333338,-0.1690740740740741,3.3659999999999997],[0.0696875000000001,-0.20851851851851855,3.382499999999993],[0.12041666666666657,-0.21537037037037038,3.3992999999970124],[0.15989583333333332,-0.2707407407407407,3.41579999999702],[0.18958333333333333,-0.3061111111111111,3.4325999999940393],[0.21927083333333333,-0.34148148148148144,3.4492000000029748],[0.2404166666666666,-0.3668518518518519,3.465900000005959],[0.2865624999999999,-0.3698148148148148,3.4827000000029784],[0.2912499999999999,-0.38740740740740737,3.5012000000029815],[0.3117708333333333,-0.41351851851851856,3.515999999999991],[0.27791666666666665,-0.39462962962962966,3.532499999999999],[0.24406249999999996,-0.3757407407407407,3.5490999999940414],[0.20927083333333343,-0.3896296296296296,3.5659000000059535],[0.18677083333333327,-0.3712962962962963,3.582599999994031],[0.1787499999999999,-0.3698148148148148,3.599299999997015],[0.16854166666666662,-0.372037037037037,3.6159000000059507],[0.1568749999999999,-0.3461111111111111,3.632499999999993],[0.17052083333333337,-0.3424074074074074,3.6492000000029776],[0.15072916666666672,-0.31962962962962965,3.665900000005962],[0.13333333333333333,-0.2940740740740741,3.6824999999999903],[0.12729166666666672,-0.26592592592592595,3.6992000000029748],[0.13708333333333325,-0.23296296296296298,3.7157999999970173],[0.14510416666666662,-0.17518518518518522,3.7325999999940365],[0.16656250000000009,-0.12333333333333338,3.749200000002972],[0.18760416666666657,-0.1418518518518519,3.7659000000059564],[0.21083333333333343,-0.1566666666666667,3.7825999999940336],[0.23229166666666667,-0.1948148148148148,3.79940000000596]]","[0.00009999999403476068,0.016700000002970228,0.03549999999999898,0.04929999999701806,0.06620000000297921,0.08259999999403078,0.09929999999701522,0.11879999999700885,0.1327000000029699,0.14940000000595433,0.16599999999999682,0.1825999999940393,0.20509999999403306,0.21599999999999397,0.23290000000595512,0.24940000000596285,0.26590000000595637,0.28270000000297557,0.29929999999701806,0.31609999999403726,0.3325999999940308,0.34920000000298046,0.3659000000059507,0.38259999999404215,0.3992999999970124,0.41590000000596206,0.4354000000059557,0.4494000000059515,0.465999999999994,0.4829000000059551,0.5017999999970186,0.5162999999970168,0.5339999999999918,0.5494999999999948,0.5659000000059535,0.5847000000029823,0.5992999999970152,0.6159999999999997,0.6345000000000027,0.6492000000029776,0.6659999999999968,0.682799999997016,0.6992999999970095,0.7164000000059616,0.7325999999940365,0.7495999999940324,0.7659000000059564,0.7827999999970103,0.79940000000596,0.8185000000000002,0.8377000000029824,0.8524000000059573,0.8659999999999997,0.8824999999999932,0.8992999999970124,0.9159000000059621,0.932799999997016,0.9492999999970095,0.965999999999994,0.9825999999940365,0.9992999999970209,1.0159999999999911,1.0327999999970103,1.0522999999970182,1.0660999999940373,1.0827000000029727,1.0992000000029805,1.1159999999999997,1.1325999999940422,1.1492000000029776,1.1659999999999968,1.1824999999999903,1.1992999999970095,1.2159000000059592,1.2325999999940365,1.249200000002972,1.2659999999999911,1.2825999999940336,1.299299999997018,1.3159000000059535,1.3327999999970217,1.3492999999970152,1.3659999999999997,1.3824999999999932,1.3994000000059543,1.4159999999999968,1.4329999999999927,1.4492999999970095,1.4657999999970173,1.4827000000029784,1.49909999999403,1.51609999999404,1.5329000000059523,1.549299999997018,1.5660999999940373,1.5825999999940308,1.5992999999970152,1.6159000000059507,1.6327999999970189,1.6492999999970124,1.6659999999999968,1.6824999999999903,1.6992999999970095,1.715999999999994,1.7329000000059551,1.749200000002972,1.7659999999999911,1.7825999999940336,1.799299999997018,1.8159000000059535,1.8352999999970194,1.8515000000000015,1.8659000000059507,1.8827000000029699,1.8992999999970124,1.9159999999999968,1.932799999997016,1.9492000000029748,1.965999999999994,1.9825999999940365,1.999299999997021,2.0157999999970144,2.0352000000029733,2.0492000000029833,2.0665999999940396,2.082499999999996,2.099299999997015,2.12109999999403,2.13270000000297,2.1492999999970124,2.165900000005962,2.1825999999940393,2.1994000000059515,2.215900000005959,2.233099999994039,2.249299999997021,2.2659000000059564,2.2827000000029756,2.302200000002969,2.3160000000000025,2.3329000000059494,2.353499999999997,2.3659999999999997,2.382599999994042,2.3992999999970124,2.415900000005962,2.4327000000029813,2.4492999999970095,2.4707999999970127,2.4825000000000017,2.4994999999999976,2.5159000000059564,2.5327999999970103,2.553200000002974,2.566200000002979,2.5827999999970217,2.599499999999992,2.619500000000002,2.63509999999404,2.6497999999970148,2.665999999999997,2.6827000000029813,2.6992000000029748,2.7160999999940287,2.7325999999940365,2.749200000002972,2.765999999999991,2.7827000000029756,2.7992000000029833,2.8160999999940373,2.8327999999970217,2.8492000000029805,2.8659999999999997,2.882499999999993,2.8992000000029776,2.91579999999702,2.9327000000029813,2.949099999994033,2.965999999999994,2.9825000000000017,2.999200000002972,3.0157999999970144,3.034700000002971,3.0492000000029833,3.0692000000029793,3.086400000005952,3.099400000005957,3.1159999999999997,3.132599999994042,3.1492999999970124,3.165900000005962,3.1824999999999903,3.1992999999970095,3.215999999999994,3.2325999999940365,3.249299999997021,3.2659000000059564,3.2825999999940336,3.299299999997018,3.3159000000059535,3.334900000005959,3.3490999999940385,3.3659999999999997,3.382499999999993,3.3992999999970124,3.41579999999702,3.4325999999940393,3.4492000000029748,3.465900000005959,3.4827000000029784,3.5012000000029815,3.515999999999991,3.532499999999999,3.5490999999940414,3.5659000000059535,3.582599999994031,3.599299999997015,3.6159000000059507,3.632499999999993,3.6492000000029776,3.665900000005962,3.6824999999999903,3.6992000000029748,3.7157999999970173,3.7325999999940365,3.749200000002972,3.7659000000059564,3.7825999999940336,3.79940000000596]","[1733193290689,1733193290705,1733193290723,1733193290737,1733193290754,1733193290770,1733193290787,1733193290807,1733193290821,1733193290837,1733193290854,1733193290870,1733193290893,1733193290904,1733193290921,1733193290937,1733193290954,1733193290970,1733193290987,1733193291004,1733193291020,1733193291037,1733193291054,1733193291070,1733193291087,1733193291104,1733193291123,1733193291137,1733193291154,1733193291171,1733193291190,1733193291204,1733193291222,1733193291237,1733193291254,1733193291273,1733193291287,1733193291304,1733193291322,1733193291337,1733193291354,1733193291371,1733193291387,1733193291404,1733193291420,1733193291437,1733193291454,1733193291471,1733193291487,1733193291506,1733193291526,1733193291540,1733193291554,1733193291570,1733193291587,1733193291604,1733193291621,1733193291637,1733193291654,1733193291670,1733193291687,1733193291704,1733193291721,1733193291740,1733193291754,1733193291771,1733193291787,1733193291804,1733193291820,1733193291837,1733193291854,1733193291870,1733193291887,1733193291904,1733193291920,1733193291937,1733193291954,1733193291970,1733193291987,1733193292004,1733193292021,1733193292037,1733193292054,1733193292070,1733193292087,1733193292104,1733193292121,1733193292137,1733193292154,1733193292171,1733193292187,1733193292204,1733193292221,1733193292237,1733193292254,1733193292270,1733193292287,1733193292304,1733193292321,1733193292337,1733193292354,1733193292370,1733193292387,1733193292404,1733193292421,1733193292437,1733193292454,1733193292470,1733193292487,1733193292504,1733193292523,1733193292539,1733193292554,1733193292571,1733193292587,1733193292604,1733193292621,1733193292637,1733193292654,1733193292670,1733193292687,1733193292704,1733193292723,1733193292737,1733193292754,1733193292770,1733193292787,1733193292809,1733193292821,1733193292837,1733193292854,1733193292870,1733193292887,1733193292904,1733193292921,1733193292937,1733193292954,1733193292971,1733193292990,1733193293004,1733193293021,1733193293041,1733193293054,1733193293070,1733193293087,1733193293104,1733193293121,1733193293137,1733193293159,1733193293170,1733193293187,1733193293204,1733193293221,1733193293241,1733193293254,1733193293271,1733193293287,1733193293307,1733193293323,1733193293338,1733193293354,1733193293371,1733193293387,1733193293404,1733193293420,1733193293437,1733193293454,1733193293471,1733193293487,1733193293504,1733193293521,1733193293537,1733193293554,1733193293570,1733193293587,1733193293604,1733193293621,1733193293637,1733193293654,1733193293670,1733193293687,1733193293704,1733193293723,1733193293737,1733193293757,1733193293774,1733193293787,1733193293804,1733193293820,1733193293837,1733193293854,1733193293870,1733193293887,1733193293904,1733193293920,1733193293937,1733193293954,1733193293970,1733193293987,1733193294004,1733193294023,1733193294037,1733193294054,1733193294070,1733193294087,1733193294104,1733193294121,1733193294137,1733193294154,1733193294170,1733193294189,1733193294204,1733193294220,1733193294237,1733193294254,1733193294270,1733193294287,1733193294304,1733193294320,1733193294337,1733193294354,1733193294370,1733193294387,1733193294404,1733193294420,1733193294437,1733193294454,1733193294470,1733193294487]","[[991.2,642.8],[1079.8,593.1],[1161.9,561.1],[1161.9,561.1],[1233.1,541.9],[1301,516.3],[1341.9,491.4],[1350.4,494.4],[1350.4,494.4],[1343,523.5],[1343,523.5],[1346,542.7],[1358.8,559.6],[1358.8,559.6],[1363.9,590.7],[1363.9,590.7],[1369,621.8],[1369,621.8],[1346,623.9],[1346,623.9],[1338.4,617.3],[1344.7,617.4],[1355.7,616.4],[1378.7,623.6],[1368.3,617.2],[1352.5,623],[1306.5,664.4],[1275.9,696.7],[1252.6,702.2],[1263.9,719],[1285,731],[1281.8,715.6],[1247.6,702.8],[1207.3,688.6],[1237.9,665.1],[1282,639.9],[1287.3,580.5],[1318.3,507.3],[1306.4,476.8],[1300.8,443.1],[1272.1,422.9],[1247,421.4],[1271.6,420.2],[1284.7,415.2],[1250.7,417.6],[1229,423.1],[1246.9,444.5],[1224.7,467.2],[1229,492.5],[1229,492.5],[1256.2,492],[1276.1,480.4],[1292.7,474.4],[1276.6,474.4],[1271.6,481.4],[1292.1,477.8],[1255.6,481.8],[1231,472],[1196.5,478.3],[1185.5,457.5],[1145.5,459],[1120.5,448.9],[1114.9,443.5],[1109.3,438.1],[1080.2,437.5],[1044.7,432.1],[1036.1,416.1],[1032.5,399.1],[1015.5,379.7],[984.1,368.9],[953.2,362.4],[914.6,378.6],[879.8,390.4],[845.6,407.6],[837.6,412.8],[834,420.9],[815.3,429.7],[793.9,442.8],[796.9,450.1],[799.9,457.4],[795.7,455.8],[791.5,454.2],[763.8,446.5],[735.5,433.4],[702.3,428.3],[688,439.6],[669,454.3],[647.7,465.7],[620.4,448.6],[585.8,463.7],[568.1,461],[550,459],[557.2,470.3],[564.4,481.6],[564.4,481.6],[570.1,499.1],[545.3,506.9],[541.1,506.1],[553.8,510.1],[555.9,548.4],[581.3,551.6],[577,582.3],[603.8,602.5],[609.3,611.8],[629.8,650.9],[614.6,669.3],[619.8,675.7],[628.5,688.2],[672.5,677.5],[708,668.5],[730.4,663],[772.1,659.1],[794.6,663.7],[826.8,674.5],[834.3,655.6],[874.9,640.9],[912.5,633.5],[950.1,626.1],[930.2,646.1],[933.4,654.6],[920.9,671],[908.4,687.4],[898,701.5],[898,701.5],[887.6,715.6],[887.6,715.6],[884.4,717.2],[898.7,714.1],[898.7,714.1],[898.4,725.5],[921.1,735.8],[943.9,729.3],[965.3,733.8],[1004.5,727.5],[1029.9,719.5],[1035,712.6],[1040.1,705.7],[1063.8,710],[1059.8,716.3],[1066.6,708],[1042.1,691.6],[1022.8,683],[1022.8,683],[1032,665.2],[1032,665.2],[1009.2,652.9],[1009.2,652.9],[1023.9,641.2],[1035.6,629.2],[1035.6,629.2],[1048.4,613],[1048.4,613],[1051.5,605.2],[1068.8,581.5],[1068.5,570.8],[1076.5,569.3],[1101.8,561.2],[1100,551.3],[1165.3,524.5],[1183,492.5],[1210.4,463.3],[1223,438.8],[1255,399.7],[1250.3,392.3],[1277.4,355.4],[1304.5,318.5],[1327,297.2],[1349.5,275.9],[1331.8,263.8],[1338,258],[1326.2,252.6],[1328.1,246.7],[1317.7,268.4],[1340,277],[1345.6,295.2],[1349.9,312.5],[1316.1,322.5],[1282.3,332.5],[1265.3,345.9],[1228.3,361.6],[1211.6,378.4],[1194.9,395.2],[1168.2,384.4],[1141.5,373.6],[1117.3,369.7],[1069.9,384.5],[1067.3,382.2],[1064.7,379.9],[1070,373.7],[1095.3,365.2],[1086.7,366],[1078.1,366.8],[1054.6,375.2],[1031.1,383.6],[1031.1,383.6],[1006.6,400.8],[1011.3,402],[996.6,418.6],[990.1,429.8],[940.1,449.2],[932.3,462.6],[940.9,469.8],[978.2,448.7],[1026.9,427.4],[1075.6,423.7],[1113.5,393.8],[1142,374.7],[1170.5,355.6],[1190.8,341.9],[1235.1,340.3],[1239.6,330.8],[1259.3,316.7],[1226.8,326.9],[1194.3,337.1],[1160.9,329.6],[1139.3,339.5],[1131.6,340.3],[1121.8,339.1],[1110.6,353.1],[1123.7,355.1],[1104.7,367.4],[1088,381.2],[1082.2,396.4],[1091.6,414.2],[1099.3,445.4],[1119.9,473.4],[1140.1,463.4],[1162.4,455.4],[1183,434.8]]","[0,0.3527331528]","[0.3527331528,0.3527331528]","[-0.3527331528,0]","[-0.3527331528,-0.3527331528]","[0,0]","[0.3527331528,0]","[0,-0.3527331528]","[0.3527331528,-0.3527331528]",0,1,1,1,1,4,Tablet,5,1,13,7
