inst1_resp.keys,inst1_resp.rt,calibrationMouse.x,calibrationMouse.y,calibrationMouse.leftButton,calibrationMouse.midButton,calibrationMouse.rightButton,calibrationClick.x,calibrationClick.y,calibrationClick.leftButton,calibrationClick.midButton,calibrationClick.rightButton,trialsc.thisRepN,trialsc.thisTrialN,trialsc.thisN,trialsc.thisIndex,trialsc.ran,calibration_x,calibration_y,participant,session,date,expName,psychopyVersion,OS,frameRate,calibrationClick.clicked_name,ScreenRes_pixels,Camera_pixels,mouse_2.x,mouse_2.y,mouse_2.leftButton,mouse_2.midButton,mouse_2.rightButton,mouse_2.time,mouse_2.clicked_name,mouse.x,mouse.y,mouse.leftButton,mouse.midButton,mouse.rightButton,mouse.time,mouse.clicked_name,Choice,Trial,TrialDuration,MOUSE_GAZE,ET_GAZE,ET_GAZE_x_T,time,unixTime,ET_GAZE_NF,Loc_Option1_label,Loc_Option2_label,Loc_Cost_label,Loc_Qual_label,Loc_Option1_cost,Loc_Option2_cost,Loc_Option1_quality,Loc_Option2_quality,trials.thisRepN,trials.thisTrialN,trials.thisN,trials.thisIndex,trials.ran,Block,Device,cost1,qual1,cost2,qual2
space,1.1752,-0.13125,0.059259259,1,0,0,-0.33125,0.322222222,0,0,0,0,0,0,7,1,-0.33,0.33,17,001,2024-12-03_10h45.55.512,Attention_exp_legacy,2023.1.0,Win32,60.24096386,,,,,,,,,,,,,,,,,,,,,,,,,,,,,,,,,,,,,,,,,,,,,
,,,,,,,0.327083333,-0.327777778,1,0,0,0,1,1,15,1,0.33,-0.33,17,001,2024-12-03_10h45.55.512,Attention_exp_legacy,2023.1.0,Win32,60.24096386,calibration_square,,,,,,,,,,,,,,,,,,,,,,,,,,,,,,,,,,,,,,,,,,,,
,,,,,,,-0.678125,-0.325925926,1,0,0,0,2,2,1,1,-0.67,-0.33,17,001,2024-12-03_10h45.55.512,Attention_exp_legacy,2023.1.0,Win32,60.24096386,calibration_square,,,,,,,,,,,,,,,,,,,,,,,,,,,,,,,,,,,,,,,,,,,,
,,,,,,,0.327083333,-0.681481481,1,0,0,0,3,3,14,1,0.33,-0.67,17,001,2024-12-03_10h45.55.512,Attention_exp_legacy,2023.1.0,Win32,60.24096386,,,,,,,,,,,,,,,,,,,,,,,,,,,,,,,,,,,,,,,,,,,,,
,,,,,,,-0.66875,-0.67037037,1,0,0,0,4,4,0,1,-0.67,-0.67,17,001,2024-12-03_10h45.55.512,Attention_exp_legacy,2023.1.0,Win32,60.24096386,calibration_square,,,,,,,,,,,,,,,,,,,,,,,,,,,,,,,,,,,,,,,,,,,,
,,,,,,,-0.335416667,-0.335185185,1,0,0,0,5,5,5,1,-0.33,-0.33,17,001,2024-12-03_10h45.55.512,Attention_exp_legacy,2023.1.0,Win32,60.24096386,calibration_square,,,,,,,,,,,,,,,,,,,,,,,,,,,,,,,,,,,,,,,,,,,,
,,,,,,,-0.003125,0.666666667,1,0,0,0,6,6,13,1,0,0.67,17,001,2024-12-03_10h45.55.512,Attention_exp_legacy,2023.1.0,Win32,60.24096386,calibration_square,,,,,,,,,,,,,,,,,,,,,,,,,,,,,,,,,,,,,,,,,,,,
,,,,,,,-0.339583333,0.664814815,1,0,0,0,7,7,8,1,-0.33,0.67,17,001,2024-12-03_10h45.55.512,Attention_exp_legacy,2023.1.0,Win32,60.24096386,calibration_square,,,,,,,,,,,,,,,,,,,,,,,,,,,,,,,,,,,,,,,,,,,,
,,,,,,,-0.00625,-0.668518519,1,0,0,0,8,8,9,1,0,-0.67,17,001,2024-12-03_10h45.55.512,Attention_exp_legacy,2023.1.0,Win32,60.24096386,calibration_square,,,,,,,,,,,,,,,,,,,,,,,,,,,,,,,,,,,,,,,,,,,,
,,,,,,,-0.689583333,-0.014814815,1,0,0,0,9,9,2,1,-0.67,0,17,001,2024-12-03_10h45.55.512,Attention_exp_legacy,2023.1.0,Win32,60.24096386,,,,,,,,,,,,,,,,,,,,,,,,,,,,,,,,,,,,,,,,,,,,,
,,,,,,,-0.007291667,-0.333333333,1,0,0,0,10,10,10,1,0,-0.33,17,001,2024-12-03_10h45.55.512,Attention_exp_legacy,2023.1.0,Win32,60.24096386,calibration_square,,,,,,,,,,,,,,,,,,,,,,,,,,,,,,,,,,,,,,,,,,,,
,,,,,,,0.666666667,0.664814815,1,0,0,0,11,11,19,1,0.67,0.67,17,001,2024-12-03_10h45.55.512,Attention_exp_legacy,2023.1.0,Win32,60.24096386,calibration_square,,,,,,,,,,,,,,,,,,,,,,,,,,,,,,,,,,,,,,,,,,,,
,,,,,,,0.333333333,0.003703704,1,0,0,0,12,12,16,1,0.33,0,17,001,2024-12-03_10h45.55.512,Attention_exp_legacy,2023.1.0,Win32,60.24096386,calibration_square,,,,,,,,,,,,,,,,,,,,,,,,,,,,,,,,,,,,,,,,,,,,
,,,,,,,0.00625,0.327777778,1,0,0,0,13,13,12,1,0,0.33,17,001,2024-12-03_10h45.55.512,Attention_exp_legacy,2023.1.0,Win32,60.24096386,calibration_square,,,,,,,,,,,,,,,,,,,,,,,,,,,,,,,,,,,,,,,,,,,,
,,,,,,,-0.325,-0.677777778,1,0,0,0,14,14,4,1,-0.33,-0.67,17,001,2024-12-03_10h45.55.512,Attention_exp_legacy,2023.1.0,Win32,60.24096386,calibration_square,,,,,,,,,,,,,,,,,,,,,,,,,,,,,,,,,,,,,,,,,,,,
,,,,,,,0.327083333,0.659259259,1,0,0,0,15,15,18,1,0.33,0.67,17,001,2024-12-03_10h45.55.512,Attention_exp_legacy,2023.1.0,Win32,60.24096386,,,,,,,,,,,,,,,,,,,,,,,,,,,,,,,,,,,,,,,,,,,,,
,,,,,,,-0.665625,0.327777778,1,0,0,0,16,16,3,1,-0.67,0.33,17,001,2024-12-03_10h45.55.512,Attention_exp_legacy,2023.1.0,Win32,60.24096386,calibration_square,,,,,,,,,,,,,,,,,,,,,,,,,,,,,,,,,,,,,,,,,,,,
,,,,,,,0.663541667,-0.662962963,1,0,0,0,17,17,20,1,0.67,-0.67,17,001,2024-12-03_10h45.55.512,Attention_exp_legacy,2023.1.0,Win32,60.24096386,calibration_square,,,,,,,,,,,,,,,,,,,,,,,,,,,,,,,,,,,,,,,,,,,,
,,,,,,,-0.315625,-0.003703704,1,0,0,0,18,18,6,1,-0.33,0,17,001,2024-12-03_10h45.55.512,Attention_exp_legacy,2023.1.0,Win32,60.24096386,,,,,,,,,,,,,,,,,,,,,,,,,,,,,,,,,,,,,,,,,,,,,
,,,,,,,-0.002083333,-0.007407407,1,0,0,0,19,19,11,1,0,0,17,001,2024-12-03_10h45.55.512,Attention_exp_legacy,2023.1.0,Win32,60.24096386,calibration_square,,,,,,,,,,,,,,,,,,,,,,,,,,,,,,,,,,,,,,,,,,,,
,,,,,,,0.327083333,0.327777778,1,0,0,0,20,20,17,1,0.33,0.33,17,001,2024-12-03_10h45.55.512,Attention_exp_legacy,2023.1.0,Win32,60.24096386,calibration_square,,,,,,,,,,,,,,,,,,,,,,,,,,,,,,,,,,,,,,,,,,,,
,,,,,,,,,,,,,,,,,,,17,001,2024-12-03_10h45.55.512,Attention_exp_legacy,2023.1.0,Win32,60.24096386,,"[1920,1080]","[640,480]",[0.065625],[-0.4888888888888889],[1],[0],[0],[1.3461999999880803],"[""StartButton""]",[0.059375],[0.3648148148148148],[1],[0],[0],[1.6880999999940371],"[""Option1_label""]",Option1_label,1,2.6951,"[[0.036458333333333336,-0.362962962962963],[0.034375,-0.3592592592592593],[0.034375,-0.3574074074074074],[0.034375,-0.3574074074074074],[0.034375,-0.35555555555555557],[0.034375,-0.35555555555555557],[0.034375,-0.3537037037037037],[0.03333333333333333,-0.35185185185185186],[0.03333333333333333,-0.35185185185185186],[0.03333333333333333,-0.35],[0.03333333333333333,-0.34814814814814815],[0.03333333333333333,-0.34814814814814815],[0.03333333333333333,-0.34629629629629627],[0.03333333333333333,-0.34629629629629627],[0.03333333333333333,-0.34444444444444444],[0.03333333333333333,-0.3425925925925926],[0.03125,-0.34074074074074073],[0.03125,-0.34074074074074073],[0.03125,-0.34074074074074073],[0.03125,-0.337037037037037],[0.03125,-0.3351851851851852],[0.029166666666666667,-0.32407407407407407],[0.029166666666666667,-0.32222222222222224],[0.028125,-0.3074074074074074],[0.027083333333333334,-0.29814814814814816],[0.027083333333333334,-0.29259259259259257],[0.027083333333333334,-0.2851851851851852],[0.027083333333333334,-0.2814814814814815],[0.027083333333333334,-0.2759259259259259],[0.027083333333333334,-0.26666666666666666],[0.027083333333333334,-0.25925925925925924],[0.027083333333333334,-0.2537037037037037],[0.027083333333333334,-0.2462962962962963],[0.027083333333333334,-0.24074074074074073],[0.027083333333333334,-0.23333333333333334],[0.027083333333333334,-0.2222222222222222],[0.027083333333333334,-0.2074074074074074],[0.027083333333333334,-0.19814814814814816],[0.027083333333333334,-0.19074074074074074],[0.027083333333333334,-0.17962962962962964],[0.028125,-0.16111111111111112],[0.030208333333333334,-0.14444444444444443],[0.034375,-0.1259259259259259],[0.03854166666666667,-0.10185185185185185],[0.041666666666666664,-0.08148148148148149],[0.046875,-0.06111111111111111],[0.052083333333333336,-0.04259259259259259],[0.059375,-0.022222222222222223],[0.075,0.007407407407407408],[0.08854166666666667,0.03148148148148148],[0.1,0.05],[0.11041666666666666,0.06481481481481481],[0.121875,0.07962962962962963],[0.12916666666666668,0.08888888888888889],[0.13645833333333332,0.09814814814814815],[0.14375,0.10555555555555556],[0.153125,0.11851851851851852],[0.159375,0.1259259259259259],[0.16666666666666666,0.13518518518518519],[0.175,0.14629629629629629],[0.184375,0.16111111111111112],[0.19479166666666667,0.17222222222222222],[0.209375,0.18888888888888888],[0.22604166666666667,0.2037037037037037],[0.24270833333333333,0.2222222222222222],[0.25625,0.23703703703703705],[0.2677083333333333,0.24814814814814815],[0.27708333333333335,0.25925925925925924],[0.29270833333333335,0.2759259259259259],[0.3020833333333333,0.28888888888888886],[0.30833333333333335,0.2962962962962963],[0.31145833333333334,0.30185185185185187],[0.3125,0.3037037037037037],[0.3125,0.3055555555555556],[0.3125,0.3074074074074074],[0.3125,0.3074074074074074],[0.3125,0.30925925925925923],[0.3125,0.30925925925925923],[0.30625,0.31296296296296294],[0.2916666666666667,0.31851851851851853],[0.275,0.32222222222222224],[0.2552083333333333,0.32592592592592595],[0.23541666666666666,0.3314814814814815],[0.20833333333333334,0.337037037037037],[0.19166666666666668,0.34074074074074073],[0.175,0.34629629629629627],[0.15729166666666666,0.35],[0.13645833333333332,0.3537037037037037],[0.1125,0.3592592592592593],[0.090625,0.3611111111111111],[0.075,0.3648148148148148],[0.06666666666666667,0.3648148148148148],[0.0625,0.3648148148148148],[0.06041666666666667,0.3648148148148148],[0.059375,0.3648148148148148],[0.059375,0.3648148148148148],[0.059375,0.3648148148148148],[0.059375,0.3648148148148148],[0.059375,0.3648148148148148],[0.059375,0.3648148148148148],[0.059375,0.3648148148148148],[0.059375,0.3648148148148148],[0.059375,0.3648148148148148],[0.059375,0.3648148148148148],[0.059375,0.3648148148148148],[0.059375,0.3648148148148148],[0.059375,0.3648148148148148],[0.059375,0.3648148148148148],[0.059375,0.3648148148148148],[0.059375,0.3648148148148148],[0.059375,0.3648148148148148],[0.059375,0.3648148148148148],[0.059375,0.3648148148148148],[0.059375,0.3648148148148148],[0.059375,0.3648148148148148],[0.059375,0.3648148148148148],[0.059375,0.3648148148148148],[0.059375,0.3648148148148148],[0.059375,0.3648148148148148],[0.059375,0.3648148148148148],[0.059375,0.3648148148148148],[0.059375,0.3648148148148148],[0.059375,0.3648148148148148],[0.059375,0.3648148148148148],[0.059375,0.3648148148148148],[0.059375,0.3648148148148148],[0.059375,0.3648148148148148],[0.059375,0.3648148148148148],[0.059375,0.3648148148148148],[0.059375,0.3648148148148148],[0.059375,0.3648148148148148],[0.059375,0.3648148148148148],[0.059375,0.3648148148148148],[0.059375,0.3648148148148148],[0.059375,0.3648148148148148],[0.059375,0.3648148148148148],[0.059375,0.3648148148148148],[0.059375,0.3648148148148148],[0.059375,0.3648148148148148],[0.059375,0.3648148148148148],[0.059375,0.3648148148148148],[0.059375,0.3648148148148148],[0.059375,0.3648148148148148],[0.059375,0.3648148148148148],[0.059375,0.3648148148148148],[0.059375,0.3648148148148148],[0.059375,0.3648148148148148],[0.059375,0.3648148148148148],[0.059375,0.3648148148148148],[0.059375,0.3648148148148148],[0.059375,0.3648148148148148],[0.059375,0.3648148148148148],[0.059375,0.3648148148148148],[0.059375,0.3648148148148148],[0.059375,0.3648148148148148],[0.058333333333333334,0.3648148148148148],[0.058333333333333334,0.3648148148148148],[0.058333333333333334,0.3648148148148148],[0.058333333333333334,0.3648148148148148],[0.058333333333333334,0.3648148148148148],[0.058333333333333334,0.3648148148148148],[0.058333333333333334,0.3648148148148148]]","[[0.0828125,0.19185185185185188],[0.0828125,0.19185185185185188],[0.07510416666666657,0.19944444444444454],[0.07468750000000005,0.19981481481481478],[0.06437499999999995,0.19796296296296292],[0.06937499999999991,0.22333333333333338],[0.06197916666666667,0.23555555555555563],[0.06802083333333328,0.2455555555555556],[0.06385416666666661,0.2625925925925925],[0.06020833333333329,0.29000000000000004],[0.05552083333333328,0.25388888888888894],[0.04458333333333329,0.25574074074074077],[0.04750000000000002,0.24648148148148152],[0.050416666666666644,0.23722222222222225],[0.05802083333333338,0.22925925925925916],[0.05427083333333336,0.2574074074074074],[0.06124999999999995,0.2794444444444444],[0.06322916666666671,0.26907407407407397],[0.07541666666666676,0.25166666666666665],[0.07520833333333338,0.2564814814814815],[0.06614583333333333,0.2699999999999999],[0.07625000000000005,0.2857407407407407],[0.07729166666666672,0.32018518518518513],[0.06802083333333328,0.33555555555555566],[0.06614583333333333,0.3448148148148149],[0.0756249999999999,0.31796296296296306],[0.07687499999999996,0.305925925925926],[0.06489583333333329,0.3098148148148147],[0.0696875000000001,0.28888888888888886],[0.08291666666666657,0.26944444444444443],[0.09156250000000009,0.24240740740740738],[0.09156250000000009,0.24240740740740738],[0.08083333333333324,0.21722222222222215],[0.08156249999999995,0.20925925925925926],[0.1171875,0.1983333333333334],[0.1421875,0.20888888888888882],[0.14583333333333334,0.21370370370370367],[0.14583333333333334,0.21370370370370367],[0.159375,0.22296296296296292],[0.159375,0.22296296296296292],[0.17916666666666667,0.23499999999999996],[0.17916666666666667,0.23499999999999996],[0.18979166666666672,0.26444444444444437],[0.18979166666666672,0.26444444444444437],[0.18895833333333342,0.26851851851851855],[0.18895833333333342,0.26851851851851855],[0.18562500000000004,0.26500000000000007],[0.18562500000000004,0.26500000000000007],[0.21552083333333344,0.2661111111111112],[0.21510416666666668,0.24981481481481477],[0.19958333333333325,0.2507407407407407],[0.1872916666666666,0.23629629629629634],[0.16531250000000006,0.24240740740740738],[0.15270833333333325,0.25203703703703706],[0.13718750000000005,0.21222222222222226],[0.1140625,0.17981481481481484],[0.11541666666666663,0.15537037037037033],[0.11906249999999995,0.14648148148148152],[0.10625,0.12518518518518523],[0.09708333333333338,0.11407407407407412],[0.10072916666666672,0.08592592592592588],[0.0931250000000001,0.058333333333333334],[0.1165625000000001,0.01592592592592597],[0.09802083333333324,-0.05388888888888893],[0.0900000000000001,-0.04462962962962967],[0.04510416666666662,-0.045740740740740825],[-0.008854166666666666,-0.053148148148148125],[-0.03260416666666662,-0.05018518518518523],[-0.0828125,-0.07666666666666662],[-0.11781250000000003,-0.11314814814814819],[-0.18739583333333332,-0.12333333333333338],[-0.17229166666666665,-0.14666666666666664],[-0.18010416666666665,-0.17092592592592595],[-0.15531250000000002,-0.1712962962962963],[-0.14375,-0.205],[-0.0953125,-0.22833333333333336],[-0.06468750000000002,-0.24814814814814815],[-0.059062500000000046,-0.26962962962962966],[-0.023958333333333335,-0.2788888888888889],[0.03697916666666667,-0.2887037037037037],[0.09937500000000009,-0.29981481481481476],[0.08833333333333329,-0.2983333333333334],[0.09468750000000009,-0.29444444444444445],[0.11031250000000009,-0.297037037037037],[0.140625,-0.29444444444444445],[0.1709374999999999,-0.2918518518518519],[0.21906249999999997,-0.2927777777777778],[0.25052083333333336,-0.2892592592592592],[0.2679166666666667,-0.28296296296296297],[0.2546875,-0.2783333333333334],[0.2522916666666667,-0.27685185185185185],[0.2522916666666667,-0.27685185185185185],[0.22770833333333323,-0.28129629629629627],[0.2196875000000001,-0.29240740740740734],[0.1915625000000001,-0.2601851851851852],[0.1571875000000001,-0.2338888888888889],[0.12416666666666672,-0.2448148148148148],[0.09114583333333333,-0.25574074074074077],[0.07322916666666662,-0.2564814814814815],[0.05531250000000002,-0.2572222222222222],[0.018437500000000048,-0.25851851851851854],[-0.018437500000000048,-0.25981481481481483],[-0.013854166666666619,-0.2294444444444444],[-0.0203125,-0.19388888888888886],[-0.027708333333333356,-0.17259259259259258],[-0.044166666666666646,-0.14962962962962964],[-0.0704166666666667,-0.0955555555555556],[-0.09666666666666662,-0.04148148148148144],[-0.10510416666666664,-0.006666666666666709],[-0.10343749999999995,-0.01796296296296305],[-0.0780208333333333,-0.026481481481481398],[-0.06052083333333336,0.0016666666666666245],[-0.033645833333333285,-0.013333333333333417],[-0.02302083333333336,-0.020740740740740823],[-0.0006250000000000236,-0.0507407407407407],[0.035104166666666714,-0.09814814814814815],[0.07927083333333323,-0.13944444444444445],[0.10812499999999996,-0.14962962962962964],[0.12843749999999995,-0.14500000000000002],[0.1664583333333333,-0.11333333333333331],[0.1851041666666667,-0.09462962962962967],[0.22802083333333342,-0.11537037037037039],[0.23125,-0.09055555555555551],[0.2507291666666667,-0.07333333333333338],[0.29145833333333326,-0.05499999999999998],[0.31885416666666655,-0.019259259259259216],[0.33604166666666657,0.005370370370370328],[0.3685416666666666,-0.0011111111111111532],[0.3693749999999999,-0.05611111111111113],[0.37083333333333335,-0.06796296296296295],[0.3789583333333333,-0.11500000000000005],[0.3654166666666666,-0.1479629629629629],[0.37260416666666674,-0.24000000000000005],[0.3775000000000001,-0.3237037037037037],[0.3775000000000001,-0.3237037037037037],[0.3671875,-0.4140740740740741],[0.3671875,-0.4140740740740741],[0.3671875,-0.4140740740740741],[0.3634375000000001,-0.48351851851851857],[0.3478125000000001,-0.5401851851851852],[0.36124999999999996,-0.5790740740740741],[0.36916666666666675,-0.5951851851851852],[0.35177083333333337,-0.6274074074074074],[0.32093749999999993,-0.6162962962962963],[0.32093749999999993,-0.6162962962962963],[0.31010416666666674,-0.5792592592592593],[0.27312500000000006,-0.5235185185185185],[0.24500000000000005,-0.4594444444444445],[0.20177083333333337,-0.4374074074074074],[0.15197916666666675,-0.43629629629629635],[0.1349999999999999,-0.4038888888888889],[0.09302083333333329,-0.40185185185185185],[0.06395833333333331,-0.31370370370370365],[0.03177083333333333,-0.23351851851851857],[0.035520833333333356,-0.08740740740740739],[0.03135416666666669,-0.019259259259259216],[0.02802083333333331,0.012962962962962963],[0.018124999999999978,0.028518518518518478],[0.018124999999999978,0.028518518518518478],[0.018020833333333285,0.10981481481481473],[0.018020833333333285,0.10981481481481473],[0.001979166666666643,0.15333333333333324]]","[[0.0828125,0.19185185185185188,0.00020000000298381337],[0.0828125,0.19185185185185188,0.0429000000059645],[0.07510416666666657,0.19944444444444454,0.049099999994041355],[0.07468750000000005,0.19981481481481478,0.06420000000298387],[0.06437499999999995,0.19796296296296292,0.07970000000297972],[0.06937499999999991,0.22333333333333338,0.09559999999404312],[0.06197916666666667,0.23555555555555563,0.11500000000000199],[0.06802083333333328,0.2455555555555556,0.13100000000000023],[0.06385416666666661,0.2625925925925925,0.14659999999404505],[0.06020833333333329,0.29000000000000004,0.16170000000298046],[0.05552083333333328,0.25388888888888894,0.181400000005965],[0.04458333333333329,0.25574074074074077,0.19700000000000273],[0.04750000000000002,0.24648148148148152,0.21190000000596143],[0.050416666666666644,0.23722222222222225,0.2282999999970201],[0.05802083333333338,0.22925925925925916,0.24809999999403942],[0.05427083333333336,0.2574074074074074,0.26459999999404005],[0.06124999999999995,0.2794444444444444,0.2785000000000011],[0.06322916666666671,0.26907407407407397,0.29490000000595984],[0.07541666666666676,0.25166666666666665,0.3115999999940442],[0.07520833333333338,0.2564814814814815,0.3309000000059612],[0.06614583333333333,0.2699999999999999,0.3452000000029827],[0.07625000000000005,0.2857407407407407,0.36299999999999955],[0.07729166666666672,0.32018518518518513,0.37840000000596064],[0.06802083333333328,0.33555555555555566,0.39840000000596376],[0.06614583333333333,0.3448148148148149,0.4147000000029806],[0.0756249999999999,0.31796296296296306,0.4299999999999997],[0.07687499999999996,0.305925925925926,0.44529999999701886],[0.06489583333333329,0.3098148148148147,0.465299999997022],[0.0696875000000001,0.28888888888888886,0.4789999999999992],[0.08291666666666657,0.26944444444444443,0.49500000000000455],[0.09156250000000009,0.24240740740740738,0.5129000000059634],[0.09156250000000009,0.24240740740740738,0.535499999999999],[0.08083333333333324,0.21722222222222215,0.5452999999970203],[0.08156249999999995,0.20925925925925926,0.5620999999940395],[0.1171875,0.1983333333333334,0.5784000000059635],[0.1421875,0.20888888888888882,0.5975999999940385],[0.14583333333333334,0.21370370370370367,0.6120000000000019],[0.14583333333333334,0.21370370370370367,0.6284000000059606],[0.159375,0.22296296296296292,0.6512999999970219],[0.159375,0.22296296296296292,0.6617999999970223],[0.17916666666666667,0.23499999999999996,0.6784999999999997],[0.17916666666666667,0.23499999999999996,0.6950999999940422],[0.18979166666666672,0.26444444444444437,0.7170999999940406],[0.18979166666666672,0.26444444444444437,0.7284000000059621],[0.18895833333333342,0.26851851851851855,0.7452000000029813],[0.18895833333333342,0.26851851851851855,0.7617000000029819],[0.18562500000000004,0.26500000000000007,0.7847000000029851],[0.18562500000000004,0.26500000000000007,0.7950999999940436],[0.21552083333333344,0.2661111111111112,0.811700000002979],[0.21510416666666668,0.24981481481481477,0.8324000000059613],[0.19958333333333325,0.2507407407407407,0.8479000000059642],[0.1872916666666666,0.23629629629629634,0.8630999999940414],[0.16531250000000006,0.24240740740740738,0.8784000000059606],[0.15270833333333325,0.25203703703703706,0.8985999999940404],[0.13718750000000005,0.21222222222222226,0.9137999999970248],[0.1140625,0.17981481481481484,0.9284000000059649],[0.11541666666666663,0.15537037037037033,0.9452000000029841],[0.11906249999999995,0.14648148148148152,0.9642000000029824],[0.10625,0.12518518518518523,0.9784000000059621],[0.09708333333333338,0.11407407407407412,0.9950000000000045],[0.10072916666666672,0.08592592592592588,1.015500000000003],[0.0931250000000001,0.058333333333333334,1.030799999997022],[0.1165625000000001,0.01592592592592597,1.0474000000059647],[0.09802083333333324,-0.05388888888888893,1.064],[0.0900000000000001,-0.04462962962962967,1.0784000000059635],[0.04510416666666662,-0.045740740740740825,1.0950999999940407],[-0.008854166666666666,-0.053148148148148125,1.1117999999970252],[-0.03260416666666662,-0.05018518518518523,1.1317999999970212],[-0.0828125,-0.07666666666666662,1.1490999999940428],[-0.11781250000000003,-0.11314814814814819,1.165099999994041],[-0.18739583333333332,-0.12333333333333338,1.1825000000000045],[-0.17229166666666665,-0.14666666666666664,1.1975000000000051],[-0.18010416666666665,-0.17092592592592595,1.2144000000059592],[-0.15531250000000002,-0.1712962962962963,1.233000000000004],[-0.14375,-0.205,1.2494000000059629],[-0.0953125,-0.22833333333333336,1.2657000000029797],[-0.06468750000000002,-0.24814814814814815,1.2809999999999988],[-0.059062500000000046,-0.26962962962962966,1.297099999994039],[-0.023958333333333335,-0.2788888888888889,1.314900000005963],[0.03697916666666667,-0.2887037037037037,1.331000000000003],[0.09937500000000009,-0.29981481481481476,1.3457999999970198],[0.08833333333333329,-0.2983333333333334,1.3620999999940437],[0.09468750000000009,-0.29444444444444445,1.3809000000059655],[0.11031250000000009,-0.297037037037037,1.3950000000000031],[0.140625,-0.29444444444444445,1.413599999994041],[0.1709374999999999,-0.2918518518518519,1.428400000005965],[0.21906249999999997,-0.2927777777777778,1.4480999999940423],[0.25052083333333336,-0.2892592592592592,1.4640999999940405],[0.2679166666666667,-0.28296296296296297,1.478500000000004],[0.2546875,-0.2783333333333334,1.4950999999940393],[0.2522916666666667,-0.27685185185185185,1.5182999999970193],[0.2522916666666667,-0.27685185185185185,1.528599999994043],[0.22770833333333323,-0.28129629629629627,1.5452000000029855],[0.2196875000000001,-0.29240740740740734,1.5665000000000049],[0.1915625000000001,-0.2601851851851852,1.581000000000003],[0.1571875000000001,-0.2338888888888889,1.594900000005964],[0.12416666666666672,-0.2448148148148148,1.6130999999940414],[0.09114583333333333,-0.25574074074074077,1.6317999999970212],[0.07322916666666662,-0.2564814814814815,1.6475999999940427],[0.05531250000000002,-0.2572222222222222,1.6640999999940433],[0.018437500000000048,-0.25851851851851854,1.678299999997023],[-0.018437500000000048,-0.25981481481481483,1.6950000000000003],[-0.013854166666666619,-0.2294444444444444,1.71220000000298],[-0.0203125,-0.19388888888888886,1.7285999999940387],[-0.027708333333333356,-0.17259259259259258,1.7479000000059628],[-0.044166666666666646,-0.14962962962962964,1.7640999999940448],[-0.0704166666666667,-0.0955555555555556,1.7782999999970244],[-0.09666666666666662,-0.04148148148148144,1.7949000000059598],[-0.10510416666666664,-0.006666666666666709,1.8142000000029839],[-0.10343749999999995,-0.01796296296296305,1.8282000000029797],[-0.0780208333333333,-0.026481481481481398,1.844900000005964],[-0.06052083333333336,0.0016666666666666245,1.8614999999999995],[-0.033645833333333285,-0.013333333333333417,1.8782999999970187],[-0.02302083333333336,-0.020740740740740823,1.8950000000000031],[-0.0006250000000000236,-0.0507407407407407,1.9115000000000038],[0.035104166666666714,-0.09814814814814815,1.928200000002981],[0.07927083333333323,-0.13944444444444445,1.945200000002984],[0.10812499999999996,-0.14962962962962964,1.9640999999940405],[0.12843749999999995,-0.14500000000000002,1.978400000005962],[0.1664583333333333,-0.11333333333333331,1.9950000000000045],[0.1851041666666667,-0.09462962962962967,2.0120000000000005],[0.22802083333333342,-0.11537037037037039,2.0282999999970244],[0.23125,-0.09055555555555551,2.0450000000000017],[0.2507291666666667,-0.07333333333333338,2.064200000002984],[0.29145833333333326,-0.05499999999999998,2.0782999999970215],[0.31885416666666655,-0.019259259259259216,2.094799999997022],[0.33604166666666657,0.005370370370370328,2.1137000000029857],[0.3685416666666666,-0.0011111111111111532,2.128799999997021],[0.3693749999999999,-0.05611111111111113,2.145000000000003],[0.37083333333333335,-0.06796296296296295,2.163000000000004],[0.3789583333333333,-0.11500000000000005,2.178200000002981],[0.3654166666666666,-0.1479629629629629,2.1949000000059655],[0.37260416666666674,-0.24000000000000005,2.2115999999940428],[0.3775000000000001,-0.3237037037037037,2.229200000002983],[0.3775000000000001,-0.3237037037037037,2.259200000002984],[0.3671875,-0.4140740740740741,2.281700000002985],[0.3671875,-0.4140740740740741,2.2935999999940435],[0.3671875,-0.4140740740740741,2.2977000000029832],[0.3634375000000001,-0.48351851851851857,2.3115000000000023],[0.3478125000000001,-0.5401851851851852,2.3284000000059635],[0.36124999999999996,-0.5790740740740741,2.344999999999999],[0.36916666666666675,-0.5951851851851852,2.361799999997025],[0.35177083333333337,-0.6274074074074074,2.378200000002984],[0.32093749999999993,-0.6162962962962963,2.395000000000003],[0.32093749999999993,-0.6162962962962963,2.4115999999940385],[0.31010416666666674,-0.5792592592592593,2.428400000005965],[0.27312500000000006,-0.5235185185185185,2.4450000000000003],[0.24500000000000005,-0.4594444444444445,2.461500000000001],[0.20177083333333337,-0.4374074074074074,2.478500000000004],[0.15197916666666675,-0.43629629629629635,2.4949000000059627],[0.1349999999999999,-0.4038888888888889,2.5122000000029843],[0.09302083333333329,-0.40185185185185185,2.5304000000059617],[0.06395833333333331,-0.31370370370370365,2.545599999994039],[0.03177083333333333,-0.23351851851851857,2.5615000000000023],[0.035520833333333356,-0.08740740740740739,2.5782999999970215],[0.03135416666666669,-0.019259259259259216,2.598700000002985],[0.02802083333333331,0.012962962962962963,2.61190000000596],[0.018124999999999978,0.028518518518518478,2.6285999999940444],[0.018124999999999978,0.028518518518518478,2.645000000000003],[0.018020833333333285,0.10981481481481473,2.6617000000029805],[0.018020833333333285,0.10981481481481473,2.678299999997023],[0.001979166666666643,0.15333333333333324,2.695099999994042]]","[0.00020000000298381337,0.0429000000059645,0.049099999994041355,0.06420000000298387,0.07970000000297972,0.09559999999404312,0.11500000000000199,0.13100000000000023,0.14659999999404505,0.16170000000298046,0.181400000005965,0.19700000000000273,0.21190000000596143,0.2282999999970201,0.24809999999403942,0.26459999999404005,0.2785000000000011,0.29490000000595984,0.3115999999940442,0.3309000000059612,0.3452000000029827,0.36299999999999955,0.37840000000596064,0.39840000000596376,0.4147000000029806,0.4299999999999997,0.44529999999701886,0.465299999997022,0.4789999999999992,0.49500000000000455,0.5129000000059634,0.535499999999999,0.5452999999970203,0.5620999999940395,0.5784000000059635,0.5975999999940385,0.6120000000000019,0.6284000000059606,0.6512999999970219,0.6617999999970223,0.6784999999999997,0.6950999999940422,0.7170999999940406,0.7284000000059621,0.7452000000029813,0.7617000000029819,0.7847000000029851,0.7950999999940436,0.811700000002979,0.8324000000059613,0.8479000000059642,0.8630999999940414,0.8784000000059606,0.8985999999940404,0.9137999999970248,0.9284000000059649,0.9452000000029841,0.9642000000029824,0.9784000000059621,0.9950000000000045,1.015500000000003,1.030799999997022,1.0474000000059647,1.064,1.0784000000059635,1.0950999999940407,1.1117999999970252,1.1317999999970212,1.1490999999940428,1.165099999994041,1.1825000000000045,1.1975000000000051,1.2144000000059592,1.233000000000004,1.2494000000059629,1.2657000000029797,1.2809999999999988,1.297099999994039,1.314900000005963,1.331000000000003,1.3457999999970198,1.3620999999940437,1.3809000000059655,1.3950000000000031,1.413599999994041,1.428400000005965,1.4480999999940423,1.4640999999940405,1.478500000000004,1.4950999999940393,1.5182999999970193,1.528599999994043,1.5452000000029855,1.5665000000000049,1.581000000000003,1.594900000005964,1.6130999999940414,1.6317999999970212,1.6475999999940427,1.6640999999940433,1.678299999997023,1.6950000000000003,1.71220000000298,1.7285999999940387,1.7479000000059628,1.7640999999940448,1.7782999999970244,1.7949000000059598,1.8142000000029839,1.8282000000029797,1.844900000005964,1.8614999999999995,1.8782999999970187,1.8950000000000031,1.9115000000000038,1.928200000002981,1.945200000002984,1.9640999999940405,1.978400000005962,1.9950000000000045,2.0120000000000005,2.0282999999970244,2.0450000000000017,2.064200000002984,2.0782999999970215,2.094799999997022,2.1137000000029857,2.128799999997021,2.145000000000003,2.163000000000004,2.178200000002981,2.1949000000059655,2.2115999999940428,2.229200000002983,2.259200000002984,2.281700000002985,2.2935999999940435,2.2977000000029832,2.3115000000000023,2.3284000000059635,2.344999999999999,2.361799999997025,2.378200000002984,2.395000000000003,2.4115999999940385,2.428400000005965,2.4450000000000003,2.461500000000001,2.478500000000004,2.4949000000059627,2.5122000000029843,2.5304000000059617,2.545599999994039,2.5615000000000023,2.5782999999970215,2.598700000002985,2.61190000000596,2.6285999999940444,2.645000000000003,2.6617000000029805,2.678299999997023,2.695099999994042]","[1733193999190,1733193999226,1733193999232,1733193999247,1733193999263,1733193999279,1733193999298,1733193999314,1733193999330,1733193999345,1733193999365,1733193999380,1733193999395,1733193999411,1733193999431,1733193999448,1733193999462,1733193999478,1733193999495,1733193999514,1733193999528,1733193999546,1733193999562,1733193999582,1733193999598,1733193999613,1733193999628,1733193999648,1733193999662,1733193999678,1733193999696,1733193999719,1733193999728,1733193999745,1733193999762,1733193999781,1733193999795,1733193999812,1733193999834,1733193999845,1733193999862,1733193999878,1733193999900,1733193999912,1733193999928,1733193999945,1733193999968,1733193999978,1733193999995,1733194000015,1733194000031,1733194000046,1733194000062,1733194000082,1733194000097,1733194000112,1733194000128,1733194000147,1733194000162,1733194000178,1733194000199,1733194000214,1733194000231,1733194000247,1733194000261,1733194000278,1733194000295,1733194000315,1733194000332,1733194000348,1733194000366,1733194000381,1733194000397,1733194000416,1733194000433,1733194000449,1733194000464,1733194000480,1733194000498,1733194000514,1733194000529,1733194000545,1733194000564,1733194000578,1733194000597,1733194000612,1733194000631,1733194000647,1733194000662,1733194000678,1733194000701,1733194000712,1733194000728,1733194000750,1733194000764,1733194000778,1733194000796,1733194000815,1733194000831,1733194000847,1733194000861,1733194000878,1733194000895,1733194000912,1733194000931,1733194000947,1733194000961,1733194000978,1733194000997,1733194001011,1733194001028,1733194001045,1733194001061,1733194001078,1733194001095,1733194001111,1733194001128,1733194001147,1733194001162,1733194001178,1733194001195,1733194001211,1733194001228,1733194001247,1733194001261,1733194001278,1733194001297,1733194001312,1733194001328,1733194001346,1733194001361,1733194001378,1733194001395,1733194001412,1733194001442,1733194001465,1733194001477,1733194001481,1733194001495,1733194001512,1733194001528,1733194001545,1733194001561,1733194001578,1733194001595,1733194001612,1733194001628,1733194001645,1733194001662,1733194001678,1733194001695,1733194001714,1733194001729,1733194001745,1733194001761,1733194001782,1733194001795,1733194001812,1733194001828,1733194001845,1733194001861,1733194001878]","[[1039.5,643.6],[1039.5,643.6],[1032.1,647.7],[1031.7,647.9],[1021.8,646.9],[1026.6,660.6],[1019.5,667.2],[1025.3,672.6],[1021.3,681.8],[1017.8,696.6],[1013.3,677.1],[1002.8,678.1],[1005.6,673.1],[1008.4,668.1],[1015.7,663.8],[1012.1,679],[1018.8,690.9],[1020.7,685.3],[1032.4,675.9],[1032.2,678.5],[1023.5,685.8],[1033.2,694.3],[1034.2,712.9],[1025.3,721.2],[1023.5,726.2],[1032.6,711.7],[1033.8,705.2],[1022.3,707.3],[1026.9,696],[1039.6,685.5],[1047.9,670.9],[1047.9,670.9],[1037.6,657.3],[1038.3,653],[1072.5,647.1],[1096.5,652.8],[1100,655.4],[1100,655.4],[1113,660.4],[1113,660.4],[1132,666.9],[1132,666.9],[1142.2,682.8],[1142.2,682.8],[1141.4,685],[1141.4,685],[1138.2,683.1],[1138.2,683.1],[1166.9,683.7],[1166.5,674.9],[1151.6,675.4],[1139.8,667.6],[1118.7,670.9],[1106.6,676.1],[1091.7,654.6],[1069.5,637.1],[1070.8,623.9],[1074.3,619.1],[1062,607.6],[1053.2,601.6],[1056.7,586.4],[1049.4,571.5],[1071.9,548.6],[1054.1,510.9],[1046.4,515.9],[1003.3,515.3],[951.5,511.3],[928.7,512.9],[880.5,498.6],[846.9,478.9],[780.1,473.4],[794.6,460.8],[787.1,447.7],[810.9,447.5],[822,429.3],[868.5,416.7],[897.9,406],[903.3,394.4],[937,389.4],[995.5,384.1],[1055.4,378.1],[1044.8,378.9],[1050.9,381],[1065.9,379.6],[1095,381],[1124.1,382.4],[1170.3,381.9],[1200.5,383.8],[1217.2,387.2],[1204.5,389.7],[1202.2,390.5],[1202.2,390.5],[1178.6,388.1],[1170.9,382.1],[1143.9,399.5],[1110.9,413.7],[1079.2,407.8],[1047.5,401.9],[1030.3,401.5],[1013.1,401.1],[977.7,400.4],[942.3,399.7],[946.7,416.1],[940.5,435.3],[933.4,446.8],[917.6,459.2],[892.4,488.4],[867.2,517.6],[859.1,536.4],[860.7,530.3],[885.1,525.7],[901.9,540.9],[927.7,532.8],[937.9,528.8],[959.4,512.6],[993.7,487],[1036.1,464.7],[1063.8,459.2],[1083.3,461.7],[1119.8,478.8],[1137.7,488.9],[1178.9,477.7],[1182,491.1],[1200.7,500.4],[1239.8,510.3],[1266.1,529.6],[1282.6,542.9],[1313.8,539.4],[1314.6,509.7],[1316,503.3],[1323.8,477.9],[1310.8,460.1],[1317.7,410.4],[1322.4,365.2],[1322.4,365.2],[1312.5,316.4],[1312.5,316.4],[1312.5,316.4],[1308.9,278.9],[1293.9,248.3],[1306.8,227.3],[1314.4,218.6],[1297.7,201.2],[1268.1,207.2],[1268.1,207.2],[1257.7,227.2],[1222.2,257.3],[1195.2,291.9],[1153.7,303.8],[1105.9,304.4],[1089.6,321.9],[1049.3,323],[1021.4,370.6],[990.5,413.9],[994.1,492.8],[990.1,529.6],[986.9,547],[977.4,555.4],[977.4,555.4],[977.3,599.3],[977.3,599.3],[961.9,622.8]]","[0,0.37864299999999995]","[0.37864299999999995,0.37864299999999995]","[-0.37864299999999995,-0.37864299999999995]","[-0.37864299999999995,0]","[0,-0.37864299999999995]","[0.37864299999999995,-0.37864299999999995]","[0,0]","[0.37864299999999995,0]",0,0,0,0,1,3,Laptop,11,9,9,1
,,,,,,,,,,,,,,,,,,,17,001,2024-12-03_10h45.55.512,Attention_exp_legacy,2023.1.0,Win32,60.24096386,,,,,,,,,,,[0.057291666666666664],[0.362962962962963],[1],[0],[0],[1.1480000000000032],"[""Option1_label""]",Option1_label,2,2.1659,"[[0.057291666666666664,0.362962962962963],[0.057291666666666664,0.362962962962963],[0.057291666666666664,0.362962962962963],[0.057291666666666664,0.362962962962963],[0.057291666666666664,0.362962962962963],[0.057291666666666664,0.362962962962963],[0.057291666666666664,0.362962962962963],[0.057291666666666664,0.362962962962963],[0.057291666666666664,0.362962962962963],[0.057291666666666664,0.362962962962963],[0.057291666666666664,0.362962962962963],[0.057291666666666664,0.362962962962963],[0.057291666666666664,0.362962962962963],[0.057291666666666664,0.362962962962963],[0.057291666666666664,0.362962962962963],[0.057291666666666664,0.362962962962963],[0.057291666666666664,0.362962962962963],[0.057291666666666664,0.362962962962963],[0.057291666666666664,0.362962962962963],[0.057291666666666664,0.362962962962963],[0.057291666666666664,0.362962962962963],[0.057291666666666664,0.362962962962963],[0.057291666666666664,0.362962962962963],[0.057291666666666664,0.362962962962963],[0.057291666666666664,0.362962962962963],[0.057291666666666664,0.362962962962963],[0.057291666666666664,0.362962962962963],[0.057291666666666664,0.362962962962963],[0.057291666666666664,0.362962962962963],[0.057291666666666664,0.362962962962963],[0.057291666666666664,0.362962962962963],[0.057291666666666664,0.362962962962963],[0.057291666666666664,0.362962962962963],[0.057291666666666664,0.362962962962963],[0.057291666666666664,0.362962962962963],[0.057291666666666664,0.362962962962963],[0.057291666666666664,0.362962962962963],[0.057291666666666664,0.362962962962963],[0.057291666666666664,0.362962962962963],[0.057291666666666664,0.362962962962963],[0.057291666666666664,0.362962962962963],[0.057291666666666664,0.362962962962963],[0.057291666666666664,0.362962962962963],[0.057291666666666664,0.362962962962963],[0.057291666666666664,0.362962962962963],[0.057291666666666664,0.362962962962963],[0.057291666666666664,0.362962962962963],[0.057291666666666664,0.362962962962963],[0.057291666666666664,0.362962962962963],[0.057291666666666664,0.362962962962963],[0.057291666666666664,0.362962962962963],[0.057291666666666664,0.362962962962963],[0.057291666666666664,0.362962962962963],[0.057291666666666664,0.362962962962963],[0.057291666666666664,0.362962962962963],[0.057291666666666664,0.362962962962963],[0.057291666666666664,0.362962962962963],[0.057291666666666664,0.362962962962963],[0.057291666666666664,0.362962962962963],[0.057291666666666664,0.362962962962963],[0.057291666666666664,0.362962962962963],[0.057291666666666664,0.362962962962963],[0.057291666666666664,0.362962962962963],[0.057291666666666664,0.362962962962963],[0.057291666666666664,0.362962962962963],[0.057291666666666664,0.362962962962963],[0.057291666666666664,0.362962962962963],[0.057291666666666664,0.362962962962963],[0.057291666666666664,0.362962962962963],[0.057291666666666664,0.362962962962963],[0.057291666666666664,0.362962962962963],[0.057291666666666664,0.362962962962963],[0.057291666666666664,0.362962962962963],[0.057291666666666664,0.362962962962963],[0.057291666666666664,0.362962962962963],[0.057291666666666664,0.362962962962963],[0.057291666666666664,0.362962962962963],[0.057291666666666664,0.362962962962963],[0.057291666666666664,0.362962962962963],[0.057291666666666664,0.362962962962963],[0.057291666666666664,0.362962962962963],[0.057291666666666664,0.362962962962963],[0.057291666666666664,0.362962962962963],[0.057291666666666664,0.362962962962963],[0.057291666666666664,0.362962962962963],[0.057291666666666664,0.362962962962963],[0.057291666666666664,0.362962962962963],[0.057291666666666664,0.362962962962963],[0.057291666666666664,0.362962962962963],[0.057291666666666664,0.362962962962963],[0.057291666666666664,0.362962962962963],[0.057291666666666664,0.362962962962963],[0.057291666666666664,0.362962962962963],[0.057291666666666664,0.362962962962963],[0.057291666666666664,0.362962962962963],[0.057291666666666664,0.362962962962963],[0.057291666666666664,0.362962962962963],[0.057291666666666664,0.362962962962963],[0.057291666666666664,0.362962962962963],[0.057291666666666664,0.362962962962963],[0.057291666666666664,0.362962962962963],[0.057291666666666664,0.362962962962963],[0.057291666666666664,0.362962962962963],[0.057291666666666664,0.362962962962963],[0.057291666666666664,0.362962962962963],[0.057291666666666664,0.362962962962963],[0.057291666666666664,0.362962962962963],[0.057291666666666664,0.362962962962963],[0.057291666666666664,0.362962962962963],[0.057291666666666664,0.362962962962963],[0.057291666666666664,0.362962962962963],[0.057291666666666664,0.362962962962963],[0.057291666666666664,0.362962962962963],[0.057291666666666664,0.362962962962963],[0.057291666666666664,0.362962962962963],[0.057291666666666664,0.362962962962963],[0.057291666666666664,0.362962962962963],[0.057291666666666664,0.362962962962963],[0.057291666666666664,0.362962962962963],[0.057291666666666664,0.362962962962963],[0.057291666666666664,0.362962962962963],[0.057291666666666664,0.362962962962963],[0.057291666666666664,0.362962962962963],[0.057291666666666664,0.362962962962963],[0.057291666666666664,0.362962962962963],[0.057291666666666664,0.362962962962963],[0.057291666666666664,0.362962962962963],[0.057291666666666664,0.362962962962963],[0.057291666666666664,0.362962962962963],[0.057291666666666664,0.362962962962963],[0.057291666666666664,0.362962962962963]]","[[0.014583333333333334,-0.04537037037037037],[-0.00302083333333331,-0.02370370370370362],[-0.015416666666666618,-0.002962962962963005],[0.0037500000000000237,-0.012222222222222264],[0.002812500000000047,-0.0016666666666666245],[0.02020833333333331,0.04407407407407399],[0.01906249999999995,0.056296296296296254],[0.01416666666666669,0.06888888888888897],[0.012395833333333309,0.0772222222222223],[0.012395833333333309,0.07592592592592592],[0.01885416666666669,0.06629629629629621],[0.025625000000000023,0.036666666666666584],[0.013645833333333357,0.021481481481481525],[0.022187499999999954,0.013333333333333417],[0.00791666666666669,-0.0418518518518519],[0.002916666666666619,-0.06777777777777783],[-0.011562500000000024,-0.1096296296296296],[-0.013750000000000047,-0.15777777777777777],[-0.005104166666666643,-0.15722222222222218],[0.00010416666666669035,-0.16296296296296298],[0.004062499999999977,-0.18944444444444447],[0.00302083333333331,-0.2094444444444445],[0.01416666666666669,-0.24111111111111108],[0.0005208333333333333,-0.27240740740740743],[0.02312500000000005,-0.23277777777777775],[0.011979166666666667,-0.27],[0.04781249999999997,-0.24666666666666665],[0.05333333333333338,-0.2485185185185185],[0.07614583333333323,-0.2548148148148149],[0.09281249999999991,-0.25703703703703706],[0.12302083333333323,-0.24648148148148152],[0.15656249999999997,-0.21333333333333332],[0.19145833333333329,-0.18203703703703705],[0.2247916666666666,-0.1301851851851852],[0.2543750000000001,-0.09851851851851849],[0.29354166666666665,-0.05888888888888891],[0.29833333333333345,-0.056296296296296254],[0.2695833333333333,-0.06666666666666667],[0.23104166666666662,-0.06740740740740736],[0.2078125,-0.06796296296296295],[0.16802083333333329,-0.06277777777777774],[0.11072916666666661,-0.10111111111111115],[0.0740624999999999,-0.10685185185185184],[0.04041666666666662,-0.12666666666666662],[-0.00458333333333331,-0.15499999999999997],[-0.05302083333333331,-0.17888888888888893],[-0.11270833333333338,-0.22148148148148153],[-0.1170833333333333,-0.22000000000000003],[-0.15208333333333332,-0.24500000000000002],[-0.20239583333333327,-0.27018518518518514],[-0.2522916666666667,-0.29740740740740745],[-0.28500000000000003,-0.2916666666666667],[-0.335,-0.31870370370370377],[-0.4046875,-0.3479629629629629],[-0.4401041666666667,-0.3374074074074074],[-0.4401041666666667,-0.3374074074074074],[-0.47552083333333334,-0.32685185185185184],[-0.47552083333333334,-0.32685185185185184],[-0.5020833333333333,-0.29388888888888887],[-0.5020833333333333,-0.29388888888888887],[-0.5167708333333334,-0.2890740740740741],[-0.5167708333333334,-0.2890740740740741],[-0.531875,-0.257962962962963],[-0.531875,-0.257962962962963],[-0.5371875,-0.2103703703703704],[-0.5264583333333334,-0.18129629629629626],[-0.5178125,-0.13944444444444445],[-0.5125,-0.09740740740740746],[-0.4765625,-0.072037037037037],[-0.46291666666666664,-0.06703703703703702],[-0.42062499999999997,-0.06518518518518517],[-0.3770833333333333,-0.08740740740740739],[-0.3388541666666666,-0.06796296296296295],[-0.2726041666666667,-0.06833333333333329],[-0.21541666666666662,-0.08814814814814818],[-0.18916666666666668,-0.08203703703703706],[-0.12927083333333336,-0.11314814814814819],[-0.07302083333333335,-0.16055555555555553],[-0.01572916666666669,-0.16222222222222227],[0.05677083333333333,-0.1646296296296296],[0.08479166666666677,-0.17407407407407408],[0.11645833333333329,-0.15870370370370368],[0.1334374999999999,-0.18333333333333332],[0.1474999999999999,-0.21574074074074073],[0.16083333333333344,-0.24518518518518514],[0.19635416666666666,-0.2890740740740741],[0.20031249999999995,-0.3085185185185186],[0.22531249999999994,-0.337037037037037],[0.2185416666666666,-0.39944444444444444],[0.19791666666666666,-0.4705555555555556],[0.21124999999999997,-0.5137037037037037],[0.22208333333333338,-0.5612962962962963],[0.23364583333333327,-0.6151851851851852],[0.24885416666666677,-0.6659259259259259],[0.27312500000000006,-0.7187037037037037],[0.29812500000000003,-0.7651851851851852],[0.30354166666666677,-0.7825925925925926],[0.2976041666666667,-0.7727777777777778],[0.2924999999999999,-0.7905555555555556],[0.28541666666666665,-0.8098148148148149],[0.27291666666666664,-0.845],[0.2507291666666667,-0.8916666666666667],[0.24468750000000009,-0.8855555555555555],[0.22520833333333337,-0.8887037037037037],[0.19666666666666663,-0.8898148148148148],[0.17781250000000004,-0.8779629629629631],[0.17854166666666677,-0.8951851851851852],[0.1625,-0.8462962962962963],[0.1506249999999999,-0.759074074074074],[0.13958333333333334,-0.5827777777777777],[0.12072916666666676,-0.39388888888888884],[0.11156249999999991,-0.1935185185185185],[0.09364583333333343,-0.01314814814814819],[0.0890625,0.18648148148148155],[0.09135416666666671,0.3175925925925926],[0.07572916666666671,0.465],[0.05916666666666662,0.5964814814814815],[0.05364583333333333,0.6572222222222222],[0.0546875,0.6837037037037038],[0.0625,0.6014814814814814],[0.06499999999999997,0.5088888888888888],[0.06749999999999995,0.4162962962962962],[0.05437500000000005,0.3148148148148148],[0.04135416666666671,0.20333333333333325],[0.04718749999999995,0.14685185185185176],[0.057083333333333285,0.06611111111111119],[0.05479166666666669,-0.000925925925925926],[0.052187500000000026,-0.06518518518518517],[0.05635416666666669,-0.10537037037037032],[0.05447916666666662,-0.1507407407407407],[0.05302083333333331,-0.20018518518518522]]","[[0.014583333333333334,-0.04537037037037037,0.00020000000298381337],[-0.00302083333333331,-0.02370370370370362,0.019400000005958873],[-0.015416666666666618,-0.002962962962963005,0.0352000000029804],[0.0037500000000000237,-0.012222222222222264,0.04929999999701806],[0.002812500000000047,-0.0016666666666666245,0.0660000000000025],[0.02020833333333331,0.04407407407407399,0.08260000000893797],[0.01906249999999995,0.056296296296296254,0.09940000000595717],[0.01416666666666669,0.06888888888888897,0.11599999999999966],[0.012395833333333309,0.0772222222222223,0.132700000002977],[0.012395833333333309,0.07592592592592592,0.14929999999701948],[0.01885416666666669,0.06629629629629621,0.16590000000596206],[0.025625000000000023,0.036666666666666584,0.18270000000298126],[0.013645833333333357,0.021481481481481525,0.19929999999701664],[0.022187499999999954,0.013333333333333417,0.21600000000000108],[0.00791666666666669,-0.0418518518518519,0.23260000000894365],[0.002916666666666619,-0.06777777777777783,0.2492999999970209],[-0.011562500000000024,-0.1096296296296296,0.26599999999999824],[-0.013750000000000047,-0.15777777777777777,0.2827000000029827],[-0.005104166666666643,-0.15722222222222218,0.2992000000029833],[0.00010416666666669035,-0.16296296296296298,0.3162000000029792],[0.004062499999999977,-0.18944444444444447,0.33270000000297983],[0.00302083333333331,-0.2094444444444445,0.34940000000595717],[0.01416666666666669,-0.24111111111111108,0.36599999999999966],[0.0005208333333333333,-0.27240740740740743,0.3825000000000003],[0.02312500000000005,-0.23277777777777775,0.3992999999970195],[0.011979166666666667,-0.27,0.41590000000596206],[0.04781249999999997,-0.24666666666666665,0.43270000000298126],[0.05333333333333338,-0.2485185185185185,0.44970000000297716],[0.07614583333333323,-0.2548148148148149,0.4660000000000011],[0.09281249999999991,-0.25703703703703706,0.4825000000000017],[0.12302083333333323,-0.24648148148148152,0.49940000000596285],[0.15656249999999997,-0.21333333333333332,0.5159000000059635],[0.19145833333333329,-0.18203703703703705,0.5327000000029827],[0.2247916666666666,-0.1301851851851852,0.5492999999970181],[0.2543750000000001,-0.09851851851851849,0.5659000000059606],[0.29354166666666665,-0.05888888888888891,0.582600000008938],[0.29833333333333345,-0.056296296296296254,0.5992999999970223],[0.2695833333333333,-0.06666666666666667,0.6159999999999997],[0.23104166666666662,-0.06740740740740736,0.6326000000089422],[0.2078125,-0.06796296296296295,0.6492999999970195],[0.16802083333333329,-0.06277777777777774,0.6657999999970201],[0.11072916666666661,-0.10111111111111115,0.6826000000089394],[0.0740624999999999,-0.10685185185185184,0.6992000000029819],[0.04041666666666662,-0.12666666666666662,0.7160000000000011],[-0.00458333333333331,-0.15499999999999997,0.7327000000029784],[-0.05302083333333331,-0.17888888888888893,0.7492999999970209],[-0.11270833333333338,-0.22148148148148153,0.7659000000059635],[-0.1170833333333333,-0.22000000000000003,0.7827000000029827],[-0.15208333333333332,-0.24500000000000002,0.8011000000089439],[-0.20239583333333327,-0.27018518518518514,0.8181000000089398],[-0.2522916666666667,-0.29740740740740745,0.8327999999970217],[-0.28500000000000003,-0.2916666666666667,0.8492999999970223],[-0.335,-0.31870370370370377,0.8659999999999997],[-0.4046875,-0.3479629629629629,0.882700000002977],[-0.4401041666666667,-0.3374074074074074,0.8994000000059614],[-0.4401041666666667,-0.3374074074074074,0.9159999999999968],[-0.47552083333333334,-0.32685185185185184,0.9327000000029813],[-0.47552083333333334,-0.32685185185185184,0.9492999999970166],[-0.5020833333333333,-0.29388888888888887,0.9660000000000011],[-0.5020833333333333,-0.29388888888888887,0.9826000000089437],[-0.5167708333333334,-0.2890740740740741,0.9992999999970209],[-0.5167708333333334,-0.2890740740740741,1.0159999999999982],[-0.531875,-0.257962962962963,1.0326000000089408],[-0.531875,-0.257962962962963,1.0495000000000019],[-0.5371875,-0.2103703703703704,1.0659000000059606],[-0.5264583333333334,-0.18129629629629626,1.0867999999970195],[-0.5178125,-0.13944444444444445,1.1027999999970177],[-0.5125,-0.09740740740740746,1.1167000000029788],[-0.4765625,-0.072037037037037,1.1326000000089422],[-0.46291666666666664,-0.06703703703703702,1.1494000000059614],[-0.42062499999999997,-0.06518518518518517,1.1659999999999968],[-0.3770833333333333,-0.08740740740740739,1.1826000000089394],[-0.3388541666666666,-0.06796296296296295,1.1994000000059586],[-0.2726041666666667,-0.06833333333333329,1.2159000000059592],[-0.21541666666666662,-0.08814814814814818,1.2327999999970203],[-0.18916666666666668,-0.08203703703703706,1.249200000002979],[-0.12927083333333336,-0.11314814814814819,1.2659999999999982],[-0.07302083333333335,-0.16055555555555553,1.2826000000089408],[-0.01572916666666669,-0.16222222222222227,1.299299999997018],[0.05677083333333333,-0.1646296296296296,1.3159000000059606],[0.08479166666666677,-0.17407407407407408,1.3327000000029798],[0.11645833333333329,-0.15870370370370368,1.3492999999970223],[0.1334374999999999,-0.18333333333333332,1.3659000000059578],[0.1474999999999999,-0.21574074074074073,1.382700000002977],[0.16083333333333344,-0.24518518518518514,1.3992000000029776],[0.19635416666666666,-0.2890740740740741,1.4159999999999968],[0.20031249999999995,-0.3085185185185186,1.4327000000029813],[0.22531249999999994,-0.337037037037037,1.4492999999970166],[0.2185416666666666,-0.39944444444444444,1.466000000000001],[0.19791666666666666,-0.4705555555555556,1.4827000000029784],[0.21124999999999997,-0.5137037037037037,1.499299999997021],[0.22208333333333338,-0.5612962962962963,1.5161000000089402],[0.23364583333333327,-0.6151851851851852,1.5327000000029827],[0.24885416666666677,-0.6659259259259259,1.5492000000029833],[0.27312500000000006,-0.7187037037037037,1.5660000000000025],[0.29812500000000003,-0.7651851851851852,1.582600000008938],[0.30354166666666677,-0.7825925925925926,1.5992000000029805],[0.2976041666666667,-0.7727777777777778,1.615799999997023],[0.2924999999999999,-0.7905555555555556,1.6327999999970189],[0.28541666666666665,-0.8098148148148149,1.6492000000029776],[0.27291666666666664,-0.845,1.665900000005962],[0.2507291666666667,-0.8916666666666667,1.6826000000089394],[0.24468750000000009,-0.8855555555555555,1.6992999999970166],[0.22520833333333337,-0.8887037037037037,1.7159000000059592],[0.19666666666666663,-0.8898148148148148,1.7327999999970203],[0.17781250000000004,-0.8779629629629631,1.749299999997021],[0.17854166666666677,-0.8951851851851852,1.7659000000059635],[0.1625,-0.8462962962962963,1.7827000000029827],[0.1506249999999999,-0.759074074074074,1.8029000000059625],[0.13958333333333334,-0.5827777777777777,1.8197000000029817],[0.12072916666666676,-0.39388888888888884,1.8350000000000009],[0.11156249999999991,-0.1935185185185185,1.8494000000059572],[0.09364583333333343,-0.01314814814814819,1.865799999997023],[0.0890625,0.18648148148148155,1.882700000002977],[0.09135416666666671,0.3175925925925926,1.8992999999970195],[0.07572916666666671,0.465,1.9161000000089388],[0.05916666666666662,0.5964814814814815,1.9326000000089394],[0.05364583333333333,0.6572222222222222,1.9492999999970166],[0.0546875,0.6837037037037038,1.9659000000059592],[0.0625,0.6014814814814814,1.9826000000089437],[0.06499999999999997,0.5088888888888888,1.999299999997021],[0.06749999999999995,0.4162962962962962,2.0159000000059635],[0.05437500000000005,0.3148148148148148,2.0329000000059594],[0.04135416666666671,0.20333333333333325,2.04940000000596],[0.04718749999999995,0.14685185185185176,2.0660000000000025],[0.057083333333333285,0.06611111111111119,2.082500000000003],[0.05479166666666669,-0.000925925925925926,2.099499999999999],[0.052187500000000026,-0.06518518518518517,2.11640000000596],[0.05635416666666669,-0.10537037037037032,2.1326000000089422],[0.05447916666666662,-0.1507407407407407,2.1492999999970195],[0.05302083333333331,-0.20018518518518522,2.165900000005962]]","[0.00020000000298381337,0.019400000005958873,0.0352000000029804,0.04929999999701806,0.0660000000000025,0.08260000000893797,0.09940000000595717,0.11599999999999966,0.132700000002977,0.14929999999701948,0.16590000000596206,0.18270000000298126,0.19929999999701664,0.21600000000000108,0.23260000000894365,0.2492999999970209,0.26599999999999824,0.2827000000029827,0.2992000000029833,0.3162000000029792,0.33270000000297983,0.34940000000595717,0.36599999999999966,0.3825000000000003,0.3992999999970195,0.41590000000596206,0.43270000000298126,0.44970000000297716,0.4660000000000011,0.4825000000000017,0.49940000000596285,0.5159000000059635,0.5327000000029827,0.5492999999970181,0.5659000000059606,0.582600000008938,0.5992999999970223,0.6159999999999997,0.6326000000089422,0.6492999999970195,0.6657999999970201,0.6826000000089394,0.6992000000029819,0.7160000000000011,0.7327000000029784,0.7492999999970209,0.7659000000059635,0.7827000000029827,0.8011000000089439,0.8181000000089398,0.8327999999970217,0.8492999999970223,0.8659999999999997,0.882700000002977,0.8994000000059614,0.9159999999999968,0.9327000000029813,0.9492999999970166,0.9660000000000011,0.9826000000089437,0.9992999999970209,1.0159999999999982,1.0326000000089408,1.0495000000000019,1.0659000000059606,1.0867999999970195,1.1027999999970177,1.1167000000029788,1.1326000000089422,1.1494000000059614,1.1659999999999968,1.1826000000089394,1.1994000000059586,1.2159000000059592,1.2327999999970203,1.249200000002979,1.2659999999999982,1.2826000000089408,1.299299999997018,1.3159000000059606,1.3327000000029798,1.3492999999970223,1.3659000000059578,1.382700000002977,1.3992000000029776,1.4159999999999968,1.4327000000029813,1.4492999999970166,1.466000000000001,1.4827000000029784,1.499299999997021,1.5161000000089402,1.5327000000029827,1.5492000000029833,1.5660000000000025,1.582600000008938,1.5992000000029805,1.615799999997023,1.6327999999970189,1.6492000000029776,1.665900000005962,1.6826000000089394,1.6992999999970166,1.7159000000059592,1.7327999999970203,1.749299999997021,1.7659000000059635,1.7827000000029827,1.8029000000059625,1.8197000000029817,1.8350000000000009,1.8494000000059572,1.865799999997023,1.882700000002977,1.8992999999970195,1.9161000000089388,1.9326000000089394,1.9492999999970166,1.9659000000059592,1.9826000000089437,1.999299999997021,2.0159000000059635,2.0329000000059594,2.04940000000596,2.0660000000000025,2.082500000000003,2.099499999999999,2.11640000000596,2.1326000000089422,2.1492999999970195,2.165900000005962]","[1733194002897,1733194002915,1733194002931,1733194002945,1733194002961,1733194002978,1733194002995,1733194003011,1733194003028,1733194003045,1733194003061,1733194003078,1733194003095,1733194003111,1733194003128,1733194003145,1733194003161,1733194003178,1733194003195,1733194003212,1733194003228,1733194003245,1733194003261,1733194003278,1733194003295,1733194003311,1733194003328,1733194003345,1733194003361,1733194003378,1733194003395,1733194003411,1733194003428,1733194003445,1733194003461,1733194003478,1733194003495,1733194003511,1733194003528,1733194003545,1733194003561,1733194003578,1733194003595,1733194003611,1733194003628,1733194003645,1733194003661,1733194003678,1733194003697,1733194003714,1733194003728,1733194003745,1733194003761,1733194003778,1733194003795,1733194003811,1733194003828,1733194003845,1733194003861,1733194003878,1733194003895,1733194003911,1733194003928,1733194003945,1733194003961,1733194003982,1733194003998,1733194004012,1733194004028,1733194004045,1733194004061,1733194004078,1733194004095,1733194004111,1733194004128,1733194004145,1733194004161,1733194004178,1733194004195,1733194004211,1733194004228,1733194004245,1733194004261,1733194004278,1733194004295,1733194004311,1733194004328,1733194004345,1733194004361,1733194004378,1733194004395,1733194004411,1733194004428,1733194004445,1733194004461,1733194004478,1733194004495,1733194004511,1733194004528,1733194004545,1733194004561,1733194004578,1733194004595,1733194004611,1733194004628,1733194004645,1733194004661,1733194004678,1733194004698,1733194004715,1733194004730,1733194004745,1733194004761,1733194004778,1733194004795,1733194004812,1733194004828,1733194004845,1733194004861,1733194004878,1733194004895,1733194004911,1733194004928,1733194004945,1733194004961,1733194004978,1733194004995,1733194005012,1733194005028,1733194005045,1733194005061]","[[974,515.5],[957.1,527.2],[945.2,538.4],[963.6,533.4],[962.7,539.1],[979.4,563.8],[978.3,570.4],[973.6,577.2],[971.9,581.7],[971.9,581],[978.1,575.8],[984.6,559.8],[973.1,551.6],[981.3,547.2],[967.6,517.4],[962.8,503.4],[948.9,480.8],[946.8,454.8],[955.1,455.1],[960.1,452],[963.9,437.7],[962.9,426.9],[973.6,409.8],[960.5,392.9],[982.2,414.3],[971.5,394.2],[1005.9,406.8],[1011.2,405.8],[1033.1,402.4],[1049.1,401.2],[1078.1,406.9],[1110.3,424.8],[1143.8,441.7],[1175.8,469.7],[1204.2,486.8],[1241.8,508.2],[1246.4,509.6],[1218.8,504],[1181.8,503.6],[1159.5,503.3],[1121.3,506.1],[1066.3,485.4],[1031.1,482.3],[998.8,471.6],[955.6,456.3],[909.1,443.4],[851.8,420.4],[847.6,421.2],[814,407.7],[765.7,394.1],[717.8,379.4],[686.4,382.5],[638.4,367.9],[571.5,352.1],[537.5,357.8],[537.5,357.8],[503.5,363.5],[503.5,363.5],[478,381.3],[478,381.3],[463.9,383.9],[463.9,383.9],[449.4,400.7],[449.4,400.7],[444.3,426.4],[454.6,442.1],[462.9,464.7],[468,487.4],[502.5,501.1],[515.6,503.8],[556.2,504.8],[598,492.8],[634.7,503.3],[698.3,503.1],[753.2,492.4],[778.4,495.7],[835.9,478.9],[889.9,453.3],[944.9,452.4],[1014.5,451.1],[1041.4,446],[1071.8,454.3],[1088.1,441],[1101.6,423.5],[1114.4,407.6],[1148.5,383.9],[1152.3,373.4],[1176.3,358],[1169.8,324.3],[1150,285.9],[1162.8,262.6],[1173.2,236.9],[1184.3,207.8],[1198.9,180.4],[1222.2,151.9],[1246.2,126.8],[1251.4,117.4],[1245.7,122.7],[1240.8,113.1],[1234,102.7],[1222,83.7],[1200.7,58.5],[1194.9,61.8],[1176.2,60.1],[1148.8,59.5],[1130.7,65.9],[1131.4,56.6],[1116,83],[1104.6,130.1],[1094,225.3],[1075.9,327.3],[1067.1,435.5],[1049.9,532.9],[1045.5,640.7],[1047.7,711.5],[1032.7,791.1],[1016.8,862.1],[1011.5,894.9],[1012.5,909.2],[1020,864.8],[1022.4,814.8],[1024.8,764.8],[1012.2,710],[999.7,649.8],[1005.3,619.3],[1014.8,575.7],[1012.6,539.5],[1010.1,504.8],[1014.1,483.1],[1012.3,458.6],[1010.9,431.9]]","[0,0.37864299999999995]","[0.37864299999999995,0.37864299999999995]","[-0.37864299999999995,-0.37864299999999995]","[-0.37864299999999995,0]","[0,-0.37864299999999995]","[0.37864299999999995,-0.37864299999999995]","[0,0]","[0.37864299999999995,0]",0,1,1,1,1,3,Laptop,5,5,13,7
,,,,,,,,,,,,,,,,,,,17,001,2024-12-03_10h45.55.512,Attention_exp_legacy,2023.1.0,Win32,60.24096386,,,,,,,,,,,[0.057291666666666664],[0.362962962962963],[1],[0],[0],[1.7698999999910612],"[""Option1_label""]",Option1_label,3,2.7832,"[[0.057291666666666664,0.362962962962963],[0.057291666666666664,0.362962962962963],[0.057291666666666664,0.362962962962963],[0.057291666666666664,0.362962962962963],[0.057291666666666664,0.362962962962963],[0.057291666666666664,0.362962962962963],[0.057291666666666664,0.362962962962963],[0.057291666666666664,0.362962962962963],[0.057291666666666664,0.362962962962963],[0.057291666666666664,0.362962962962963],[0.057291666666666664,0.362962962962963],[0.057291666666666664,0.362962962962963],[0.057291666666666664,0.362962962962963],[0.057291666666666664,0.362962962962963],[0.057291666666666664,0.362962962962963],[0.057291666666666664,0.362962962962963],[0.057291666666666664,0.362962962962963],[0.057291666666666664,0.362962962962963],[0.057291666666666664,0.362962962962963],[0.057291666666666664,0.362962962962963],[0.057291666666666664,0.362962962962963],[0.057291666666666664,0.362962962962963],[0.057291666666666664,0.362962962962963],[0.057291666666666664,0.362962962962963],[0.057291666666666664,0.362962962962963],[0.057291666666666664,0.362962962962963],[0.057291666666666664,0.362962962962963],[0.057291666666666664,0.362962962962963],[0.057291666666666664,0.362962962962963],[0.057291666666666664,0.362962962962963],[0.057291666666666664,0.362962962962963],[0.057291666666666664,0.362962962962963],[0.057291666666666664,0.362962962962963],[0.057291666666666664,0.362962962962963],[0.057291666666666664,0.362962962962963],[0.057291666666666664,0.362962962962963],[0.057291666666666664,0.362962962962963],[0.057291666666666664,0.362962962962963],[0.057291666666666664,0.362962962962963],[0.057291666666666664,0.362962962962963],[0.057291666666666664,0.362962962962963],[0.057291666666666664,0.362962962962963],[0.057291666666666664,0.362962962962963],[0.057291666666666664,0.362962962962963],[0.057291666666666664,0.362962962962963],[0.057291666666666664,0.362962962962963],[0.057291666666666664,0.362962962962963],[0.057291666666666664,0.362962962962963],[0.057291666666666664,0.362962962962963],[0.057291666666666664,0.362962962962963],[0.057291666666666664,0.362962962962963],[0.057291666666666664,0.362962962962963],[0.057291666666666664,0.362962962962963],[0.057291666666666664,0.362962962962963],[0.057291666666666664,0.362962962962963],[0.057291666666666664,0.362962962962963],[0.057291666666666664,0.362962962962963],[0.057291666666666664,0.362962962962963],[0.057291666666666664,0.362962962962963],[0.057291666666666664,0.362962962962963],[0.057291666666666664,0.362962962962963],[0.057291666666666664,0.362962962962963],[0.057291666666666664,0.362962962962963],[0.057291666666666664,0.362962962962963],[0.057291666666666664,0.362962962962963],[0.057291666666666664,0.362962962962963],[0.057291666666666664,0.362962962962963],[0.057291666666666664,0.362962962962963],[0.057291666666666664,0.362962962962963],[0.057291666666666664,0.362962962962963],[0.057291666666666664,0.362962962962963],[0.057291666666666664,0.362962962962963],[0.057291666666666664,0.362962962962963],[0.057291666666666664,0.362962962962963],[0.057291666666666664,0.362962962962963],[0.057291666666666664,0.362962962962963],[0.057291666666666664,0.362962962962963],[0.057291666666666664,0.362962962962963],[0.057291666666666664,0.362962962962963],[0.057291666666666664,0.362962962962963],[0.057291666666666664,0.362962962962963],[0.057291666666666664,0.362962962962963],[0.057291666666666664,0.362962962962963],[0.057291666666666664,0.362962962962963],[0.057291666666666664,0.362962962962963],[0.057291666666666664,0.362962962962963],[0.057291666666666664,0.362962962962963],[0.057291666666666664,0.362962962962963],[0.057291666666666664,0.362962962962963],[0.057291666666666664,0.362962962962963],[0.057291666666666664,0.362962962962963],[0.057291666666666664,0.362962962962963],[0.057291666666666664,0.362962962962963],[0.057291666666666664,0.362962962962963],[0.057291666666666664,0.362962962962963],[0.057291666666666664,0.362962962962963],[0.057291666666666664,0.362962962962963],[0.057291666666666664,0.362962962962963],[0.057291666666666664,0.362962962962963],[0.057291666666666664,0.362962962962963],[0.057291666666666664,0.362962962962963],[0.057291666666666664,0.362962962962963],[0.057291666666666664,0.362962962962963],[0.057291666666666664,0.362962962962963],[0.057291666666666664,0.362962962962963],[0.057291666666666664,0.362962962962963],[0.057291666666666664,0.362962962962963],[0.057291666666666664,0.362962962962963],[0.057291666666666664,0.362962962962963],[0.057291666666666664,0.362962962962963],[0.057291666666666664,0.362962962962963],[0.057291666666666664,0.362962962962963],[0.057291666666666664,0.362962962962963],[0.057291666666666664,0.362962962962963],[0.057291666666666664,0.362962962962963],[0.057291666666666664,0.362962962962963],[0.057291666666666664,0.362962962962963],[0.057291666666666664,0.362962962962963],[0.057291666666666664,0.362962962962963],[0.057291666666666664,0.362962962962963],[0.057291666666666664,0.362962962962963],[0.057291666666666664,0.362962962962963],[0.057291666666666664,0.362962962962963],[0.057291666666666664,0.362962962962963],[0.057291666666666664,0.362962962962963],[0.057291666666666664,0.362962962962963],[0.057291666666666664,0.362962962962963],[0.057291666666666664,0.362962962962963],[0.057291666666666664,0.362962962962963],[0.057291666666666664,0.362962962962963],[0.057291666666666664,0.362962962962963],[0.057291666666666664,0.362962962962963],[0.057291666666666664,0.362962962962963],[0.057291666666666664,0.362962962962963],[0.057291666666666664,0.362962962962963],[0.057291666666666664,0.362962962962963],[0.057291666666666664,0.362962962962963],[0.057291666666666664,0.362962962962963],[0.057291666666666664,0.362962962962963],[0.057291666666666664,0.362962962962963],[0.057291666666666664,0.362962962962963],[0.057291666666666664,0.362962962962963],[0.057291666666666664,0.362962962962963],[0.057291666666666664,0.362962962962963],[0.057291666666666664,0.362962962962963],[0.057291666666666664,0.362962962962963],[0.057291666666666664,0.362962962962963],[0.057291666666666664,0.362962962962963],[0.057291666666666664,0.362962962962963],[0.057291666666666664,0.362962962962963],[0.057291666666666664,0.362962962962963],[0.057291666666666664,0.362962962962963],[0.057291666666666664,0.362962962962963],[0.057291666666666664,0.362962962962963],[0.057291666666666664,0.362962962962963],[0.057291666666666664,0.362962962962963],[0.057291666666666664,0.362962962962963],[0.057291666666666664,0.362962962962963],[0.057291666666666664,0.362962962962963],[0.057291666666666664,0.362962962962963],[0.057291666666666664,0.362962962962963],[0.057291666666666664,0.362962962962963],[0.057291666666666664,0.362962962962963],[0.057291666666666664,0.362962962962963],[0.057291666666666664,0.362962962962963],[0.057291666666666664,0.362962962962963],[0.057291666666666664,0.362962962962963],[0.057291666666666664,0.362962962962963]]","[[-0.13937499999999994,0.15222222222222231],[-0.11468750000000003,0.12481481481481477],[-0.09750000000000002,0.09314814814814806],[-0.07395833333333333,0.049074074074074076],[-0.05260416666666667,0.027777777777777776],[-0.02374999999999995,0.018888888888888972],[0.008541666666666715,-0.010740740740740657],[0.035520833333333356,-0.0025925925925925505],[0.06302083333333333,-0.01703703703703712],[0.08395833333333323,0.016111111111111194],[0.11864583333333342,0.019259259259259216],[0.1400000000000001,0.025185185185185227],[0.16302083333333334,-0.0005555555555554713],[0.16885416666666658,-0.0257407407407407],[0.1853125000000001,-0.032407407407407406],[0.19229166666666658,-0.04407407407407399],[0.19229166666666658,-0.04407407407407399],[0.19854166666666656,-0.0653703703703704],[0.20052083333333334,-0.09981481481481477],[0.18979166666666672,-0.13407407407407404],[0.19885416666666675,-0.19037037037037038],[0.18802083333333333,-0.20611111111111113],[0.17718749999999991,-0.22185185185185188],[0.1709374999999999,-0.20759259259259263],[0.1646874999999999,-0.1933333333333333],[0.15854166666666672,-0.1809259259259259],[0.15364583333333334,-0.18722222222222226],[0.1446875000000001,-0.19444444444444445],[0.1798958333333334,-0.18944444444444447],[0.203125,-0.1668518518518519],[0.2263541666666666,-0.14425925925925923],[0.2540625000000001,-0.14055555555555552],[0.28177083333333336,-0.1368518518518518],[0.30322916666666655,-0.13148148148148148],[0.2942708333333333,-0.12685185185185185],[0.2820833333333333,-0.1346296296296296],[0.27229166666666677,-0.1440740740740741],[0.25416666666666665,-0.1479629629629629],[0.22458333333333325,-0.15796296296296297],[0.20260416666666667,-0.175],[0.17864583333333334,-0.18129629629629626],[0.15635416666666657,-0.17925925925925928],[0.13083333333333325,-0.16925925925925922],[0.1053124999999999,-0.15925925925925927],[0.11437499999999995,-0.15981481481481483],[0.12645833333333342,-0.14222222222222225],[0.14260416666666675,-0.13185185185185183],[0.14260416666666675,-0.1096296296296296],[0.13552083333333323,-0.10351851851851848],[0.14197916666666663,-0.08907407407407411],[0.14333333333333323,-0.07851851851851847],[0.13447916666666657,-0.08277777777777776],[0.12885416666666671,-0.09500000000000001],[0.13770833333333338,-0.11574074074074074],[0.13770833333333338,-0.11574074074074074],[0.1423958333333334,-0.12518518518518523],[0.1506249999999999,-0.13370370370370369],[0.1616666666666667,-0.12907407407407406],[0.17687499999999995,-0.14148148148148143],[0.1881249999999999,-0.15499999999999997],[0.1805208333333333,-0.17407407407407408],[0.17999999999999997,-0.2],[0.19947916666666668,-0.18629629629629635],[0.22864583333333333,-0.18592592592592588],[0.24072916666666658,-0.1824074074074074],[0.2459374999999999,-0.17111111111111107],[0.2616666666666667,-0.19740740740740745],[0.24958333333333324,-0.21240740740740738],[0.2573958333333332,-0.2111111111111111],[0.2873958333333334,-0.23574074074074075],[0.31906249999999997,-0.25703703703703706],[0.33624999999999994,-0.2711111111111111],[0.34364583333333343,-0.30999999999999994],[0.3381249999999999,-0.31074074074074076],[0.3564583333333334,-0.31796296296296295],[0.36958333333333326,-0.3327777777777778],[0.365625,-0.3290740740740741],[0.38093750000000004,-0.33648148148148144],[0.3945833333333333,-0.34888888888888886],[0.3863541666666668,-0.3327777777777778],[0.378125,-0.31666666666666665],[0.3770833333333333,-0.307962962962963],[0.38343749999999993,-0.3140740740740741],[0.38395833333333323,-0.33185185185185184],[0.37697916666666675,-0.33925925925925926],[0.3729166666666667,-0.3464814814814815],[0.38156249999999997,-0.36277777777777775],[0.3707291666666668,-0.3638888888888889],[0.36906249999999996,-0.34944444444444445],[0.3637500000000001,-0.34870370370370374],[0.3641666666666666,-0.3333333333333333],[0.3832291666666668,-0.3264814814814815],[0.3876041666666666,-0.3066666666666667],[0.38958333333333334,-0.28944444444444445],[0.37781250000000005,-0.2707407407407407],[0.35572916666666665,-0.2524074074074074],[0.3298958333333334,-0.2366666666666667],[0.31124999999999997,-0.24314814814814817],[0.28104166666666663,-0.25277777777777777],[0.26583333333333337,-0.25407407407407406],[0.24291666666666673,-0.26537037037037037],[0.20739583333333325,-0.27],[0.1955208333333334,-0.2531481481481481],[0.18489583333333334,-0.2485185185185185],[0.18489583333333334,-0.2485185185185185],[0.16802083333333329,-0.24462962962962967],[0.18041666666666673,-0.22092592592592594],[0.18041666666666673,-0.22092592592592594],[0.18010416666666676,-0.20555555555555555],[0.18010416666666676,-0.20555555555555555],[0.1875,-0.18222222222222217],[0.1875,-0.18222222222222217],[0.20104166666666667,-0.16814814814814816],[0.20104166666666667,-0.16814814814814816],[0.23125,-0.17092592592592595],[0.23125,-0.17092592592592595],[0.21677083333333325,-0.182962962962963],[0.19812500000000005,-0.18111111111111114],[0.17322916666666663,-0.205],[0.17697916666666677,-0.22018518518518515],[0.18583333333333343,-0.2512962962962963],[0.13583333333333342,-0.31074074074074076],[0.08958333333333333,-0.3501851851851852],[0.057500000000000044,-0.36314814814814816],[0.022187499999999954,-0.37351851851851847],[-0.03322916666666664,-0.3816666666666667],[-0.041979166666666616,-0.3851851851851852],[-0.050520833333333334,-0.4311111111111111],[-0.05687500000000002,-0.442037037037037],[-0.08166666666666664,-0.45999999999999996],[-0.0936458333333333,-0.4666666666666667],[-0.06197916666666667,-0.44462962962962965],[-0.02635416666666662,-0.43499999999999994],[-0.0003124999999999526,-0.44592592592592595],[0.00614583333333331,-0.45388888888888895],[0.014583333333333334,-0.43277777777777776],[0.033645833333333285,-0.40370370370370373],[0.04833333333333331,-0.36666666666666664],[0.03739583333333331,-0.3568518518518518],[0.02802083333333331,-0.3327777777777778],[0.02385416666666664,-0.27814814814814814],[0.035520833333333356,-0.2607407407407408],[0.043229166666666666,-0.2309259259259259],[0.01229166666666662,-0.17981481481481484],[0.0007291666666667141,-0.1794444444444444],[-0.027499999999999976,-0.19888888888888884],[-0.051250000000000046,-0.18796296296296297],[-0.06958333333333329,-0.1588888888888889],[-0.07458333333333336,-0.13148148148148148],[-0.07437499999999998,-0.12074074074074072],[-0.08656250000000003,-0.12759259259259256],[-0.10416666666666667,-0.11722222222222224],[-0.11802083333333328,-0.1287037037037037],[-0.10343749999999995,-0.16888888888888887],[-0.1141666666666667,-0.18888888888888888],[-0.11000000000000003,-0.1479629629629629],[-0.12687499999999996,-0.13277777777777774],[-0.13958333333333334,-0.11314814814814819],[-0.15416666666666667,-0.14092592592592595],[-0.16770833333333332,-0.12999999999999998],[-0.17552083333333332,-0.1205555555555556],[-0.1985416666666667,-0.11740740740740736],[-0.22760416666666666,-0.08574074074074076],[-0.2311458333333333,-0.05129629629629638],[-0.20968749999999994,0.005000000000000084],[-0.1655208333333333,-0.008333333333333333],[-0.11541666666666663,-0.03425925925925926],[-0.05656249999999995,-0.041666666666666664]]","[[-0.13937499999999994,0.15222222222222231,0.0000999999940418661],[-0.11468750000000003,0.12481481481481477,0.016700000002977333],[-0.09750000000000002,0.09314814814814806,0.03320000000297796],[-0.07395833333333333,0.049074074074074076,0.05029999999701573],[-0.05260416666666667,0.027777777777777776,0.06640000000596302],[-0.02374999999999995,0.018888888888888972,0.08329999999701698],[0.008541666666666715,-0.010740740740740657,0.09979999999701761],[0.035520833333333356,-0.0025925925925925505,0.11650000000000205],[0.06302083333333333,-0.01703703703703712,0.13320000000297938],[0.08395833333333323,0.016111111111111194,0.1499000000059567],[0.11864583333333342,0.019259259259259216,0.16799999999999926],[0.1400000000000001,0.025185185185185227,0.18320000000297654],[0.16302083333333334,-0.0005555555555554713,0.19990000000596098],[0.16885416666666658,-0.0257407407407407,0.21649999999999636],[0.1853125000000001,-0.032407407407407406,0.2332000000029808],[0.19229166666666658,-0.04407407407407399,0.2502999999970186],[0.19229166666666658,-0.04407407407407399,0.26670000000297733],[0.19854166666666656,-0.0653703703703704,0.28320000000297796],[0.20052083333333334,-0.09981481481481477,0.30140000000596245],[0.18979166666666672,-0.13407407407407404,0.3164999999999978],[0.19885416666666675,-0.19037037037037038,0.333299999997017],[0.18802083333333333,-0.20611111111111113,0.3497999999970176],[0.17718749999999991,-0.22185185185185188,0.36650000000000205],[0.1709374999999999,-0.20759259259259263,0.38329999999702125],[0.1646874999999999,-0.1933333333333333,0.3999000000059567],[0.15854166666666672,-0.1809259259259259,0.41659999999404107],[0.15364583333333334,-0.18722222222222226,0.4332999999970184],[0.1446875000000001,-0.19444444444444445,0.44999999999999574],[0.1798958333333334,-0.18944444444444447,0.46659999999403823],[0.203125,-0.1668518518518519,0.48329999999701556],[0.2263541666666666,-0.14425925925925923,0.49990000000595813],[0.2540625000000001,-0.14055555555555552,0.5165999999940354],[0.28177083333333336,-0.1368518518518518,0.533200000002978],[0.30322916666666655,-0.13148148148148148,0.5499000000059624],[0.2942708333333333,-0.12685185185185185,0.5665999999940396],[0.2820833333333333,-0.1346296296296296,0.5832000000029822],[0.27229166666666677,-0.1440740740740741,0.6024000000059573],[0.25416666666666665,-0.1479629629629629,0.6174000000059578],[0.22458333333333325,-0.15796296296296297,0.6365999999940399],[0.20260416666666667,-0.175,0.6525999999940382],[0.17864583333333334,-0.18129629629629626,0.6664999999999992],[0.15635416666666657,-0.17925925925925928,0.6832000000029765],[0.13083333333333325,-0.16925925925925922,0.699900000005961],[0.1053124999999999,-0.15925925925925927,0.7164999999999964],[0.11437499999999995,-0.15981481481481483,0.7332999999970156],[0.12645833333333342,-0.14222222222222225,0.7499000000059581],[0.14260416666666675,-0.13185185185185183,0.7665000000000006],[0.14260416666666675,-0.1096296296296296,0.7832999999970198],[0.13552083333333323,-0.10351851851851848,0.7997999999970204],[0.14197916666666663,-0.08907407407407411,0.8164999999999978],[0.14333333333333323,-0.07851851851851847,0.8330999999940403],[0.13447916666666657,-0.08277777777777776,0.8500999999940362],[0.12885416666666671,-0.09500000000000001,0.8664000000059602],[0.13770833333333338,-0.11574074074074074,0.8832999999970212],[0.13770833333333338,-0.11574074074074074,0.8997999999970219],[0.1423958333333334,-0.12518518518518523,0.9165999999940411],[0.1506249999999999,-0.13370370370370369,0.9332000000029765],[0.1616666666666667,-0.12907407407407406,0.9499999999999957],[0.17687499999999995,-0.14148148148148143,0.9665999999940382],[0.1881249999999999,-0.15499999999999997,0.9832999999970156],[0.1805208333333333,-0.17407407407407408,0.9999000000059581],[0.17999999999999997,-0.2,1.0165000000000006],[0.19947916666666668,-0.18629629629629635,1.0332999999970198],[0.22864583333333333,-0.18592592592592588,1.0499999999999972],[0.24072916666666658,-0.1824074074074074,1.0665999999940396],[0.2459374999999999,-0.17111111111111107,1.0832000000029822],[0.2616666666666667,-0.19740740740740745,1.0999000000059596],[0.24958333333333324,-0.21240740740740738,1.116500000000002],[0.2573958333333332,-0.2111111111111111,1.1332999999970212],[0.2873958333333334,-0.23574074074074075,1.1499999999999986],[0.31906249999999997,-0.25703703703703706,1.1664000000059573],[0.33624999999999994,-0.2711111111111111,1.1832000000029765],[0.34364583333333343,-0.30999999999999994,1.199799999997019],[0.3381249999999999,-0.31074074074074076,1.2165999999940382],[0.3564583333333334,-0.31796296296296295,1.2330999999940389],[0.36958333333333326,-0.3327777777777778,1.2500999999940419],[0.365625,-0.3290740740740741,1.2665000000000006],[0.38093750000000004,-0.33648148148148144,1.283200000002978],[0.3945833333333333,-0.34888888888888886,1.2999000000059624],[0.3863541666666668,-0.3327777777777778,1.3165999999940396],[0.378125,-0.31666666666666665,1.3337000000029775],[0.3770833333333333,-0.307962962962963,1.3499000000059596],[0.38343749999999993,-0.3140740740740741,1.3665999999940368],[0.38395833333333323,-0.33185185185185184,1.3830999999940374],[0.37697916666666675,-0.33925925925925926,1.3999000000059567],[0.3729166666666667,-0.3464814814814815,1.4164999999999992],[0.38156249999999997,-0.36277777777777775,1.4332999999970184],[0.3707291666666668,-0.3638888888888889,1.449900000005961],[0.36906249999999996,-0.34944444444444445,1.466799999997022],[0.3637500000000001,-0.34870370370370374,1.4830999999940389],[0.3641666666666666,-0.3333333333333333,1.4999000000059581],[0.3832291666666668,-0.3264814814814815,1.5165000000000006],[0.3876041666666666,-0.3066666666666667,1.5332999999970198],[0.38958333333333334,-0.28944444444444445,1.5499000000059624],[0.37781250000000005,-0.2707407407407407,1.5669000000059583],[0.35572916666666665,-0.2524074074074074,1.5832000000029822],[0.3298958333333334,-0.2366666666666667,1.5999000000059596],[0.31124999999999997,-0.24314814814814817,1.6197000000029789],[0.28104166666666663,-0.25277777777777777,1.6369000000059586],[0.26583333333333337,-0.25407407407407406,1.6530999999940406],[0.24291666666666673,-0.26537037037037037,1.6664999999999992],[0.20739583333333325,-0.27,1.6832000000029765],[0.1955208333333334,-0.2531481481481481,1.699799999997019],[0.18489583333333334,-0.2485185185185185,1.7165999999940382],[0.18489583333333334,-0.2485185185185185,1.7332999999970156],[0.16802083333333329,-0.24462962962962967,1.7502999999970186],[0.18041666666666673,-0.22092592592592594,1.7712999999970194],[0.18041666666666673,-0.22092592592592594,1.783200000002978],[0.18010416666666676,-0.20555555555555555,1.7999000000059624],[0.18010416666666676,-0.20555555555555555,1.8164999999999978],[0.1875,-0.18222222222222217,1.833400000005959],[0.1875,-0.18222222222222217,1.8500000000000014],[0.20104166666666667,-0.16814814814814816,1.8665999999940368],[0.20104166666666667,-0.16814814814814816,1.8832000000029794],[0.23125,-0.17092592592592595,1.9060999999940407],[0.23125,-0.17092592592592595,1.9164999999999992],[0.21677083333333325,-0.182962962962963,1.9334000000059604],[0.19812500000000005,-0.18111111111111114,1.9500999999940376],[0.17322916666666663,-0.205,1.9664000000059616],[0.17697916666666677,-0.22018518518518515,1.9832000000029808],[0.18583333333333343,-0.2512962962962963,1.9999000000059581],[0.13583333333333342,-0.31074074074074076,2.0165999999940354],[0.08958333333333333,-0.3501851851851852,2.033200000002978],[0.057500000000000044,-0.36314814814814816,2.051499999999997],[0.022187499999999954,-0.37351851851851847,2.066400000005963],[-0.03322916666666664,-0.3816666666666667,2.083200000002982],[-0.041979166666666616,-0.3851851851851852,2.100099999994036],[-0.050520833333333334,-0.4311111111111111,2.116500000000002],[-0.05687500000000002,-0.442037037037037,2.1332000000029794],[-0.08166666666666664,-0.45999999999999996,2.1499000000059567],[-0.0936458333333333,-0.4666666666666667,2.166599999994041],[-0.06197916666666667,-0.44462962962962965,2.1832999999970184],[-0.02635416666666662,-0.43499999999999994,2.199900000005961],[-0.0003124999999999526,-0.44592592592592595,2.2164000000059616],[0.00614583333333331,-0.45388888888888895,2.2332999999970156],[0.014583333333333334,-0.43277777777777776,2.2504000000059605],[0.033645833333333285,-0.40370370370370373,2.2665999999940354],[0.04833333333333331,-0.36666666666666664,2.283099999994036],[0.03739583333333331,-0.3568518518518518,2.2999000000059624],[0.02802083333333331,-0.3327777777777778,2.316499999999998],[0.02385416666666664,-0.27814814814814814,2.333200000002982],[0.035520833333333356,-0.2607407407407408,2.3499000000059596],[0.043229166666666666,-0.2309259259259259,2.36640000000596],[0.01229166666666662,-0.17981481481481484,2.3832000000029794],[0.0007291666666667141,-0.1794444444444444,2.400299999997017],[-0.027499999999999976,-0.19888888888888884,2.416599999994041],[-0.051250000000000046,-0.18796296296296297,2.4330999999940417],[-0.06958333333333329,-0.1588888888888889,2.4499999999999957],[-0.07458333333333336,-0.13148148148148148,2.4664000000059616],[-0.07437499999999998,-0.12074074074074072,2.483200000002981],[-0.08656250000000003,-0.12759259259259256,2.499900000005958],[-0.10416666666666667,-0.11722222222222224,2.5165999999940354],[-0.11802083333333328,-0.1287037037037037,2.533200000002978],[-0.10343749999999995,-0.16888888888888887,2.5504999999999995],[-0.1141666666666667,-0.18888888888888888,2.5669000000059583],[-0.11000000000000003,-0.1479629629629629,2.5830999999940403],[-0.12687499999999996,-0.13277777777777774,2.5997999999970176],[-0.13958333333333334,-0.11314814814814819,2.6192999999970183],[-0.15416666666666667,-0.14092592592592595,2.6370000000000005],[-0.16770833333333332,-0.12999999999999998,2.6532999999970173],[-0.17552083333333332,-0.1205555555555556,2.666700000002976],[-0.1985416666666667,-0.11740740740740736,2.6830999999940417],[-0.22760416666666666,-0.08574074074074076,2.699900000005961],[-0.2311458333333333,-0.05129629629629638,2.7165999999940382],[-0.20968749999999994,0.005000000000000084,2.7332999999970156],[-0.1655208333333333,-0.008333333333333333,2.7525999999940396],[-0.11541666666666663,-0.03425925925925926,2.7682000000029774],[-0.05656249999999995,-0.041666666666666664,2.783200000002978]]","[0.0000999999940418661,0.016700000002977333,0.03320000000297796,0.05029999999701573,0.06640000000596302,0.08329999999701698,0.09979999999701761,0.11650000000000205,0.13320000000297938,0.1499000000059567,0.16799999999999926,0.18320000000297654,0.19990000000596098,0.21649999999999636,0.2332000000029808,0.2502999999970186,0.26670000000297733,0.28320000000297796,0.30140000000596245,0.3164999999999978,0.333299999997017,0.3497999999970176,0.36650000000000205,0.38329999999702125,0.3999000000059567,0.41659999999404107,0.4332999999970184,0.44999999999999574,0.46659999999403823,0.48329999999701556,0.49990000000595813,0.5165999999940354,0.533200000002978,0.5499000000059624,0.5665999999940396,0.5832000000029822,0.6024000000059573,0.6174000000059578,0.6365999999940399,0.6525999999940382,0.6664999999999992,0.6832000000029765,0.699900000005961,0.7164999999999964,0.7332999999970156,0.7499000000059581,0.7665000000000006,0.7832999999970198,0.7997999999970204,0.8164999999999978,0.8330999999940403,0.8500999999940362,0.8664000000059602,0.8832999999970212,0.8997999999970219,0.9165999999940411,0.9332000000029765,0.9499999999999957,0.9665999999940382,0.9832999999970156,0.9999000000059581,1.0165000000000006,1.0332999999970198,1.0499999999999972,1.0665999999940396,1.0832000000029822,1.0999000000059596,1.116500000000002,1.1332999999970212,1.1499999999999986,1.1664000000059573,1.1832000000029765,1.199799999997019,1.2165999999940382,1.2330999999940389,1.2500999999940419,1.2665000000000006,1.283200000002978,1.2999000000059624,1.3165999999940396,1.3337000000029775,1.3499000000059596,1.3665999999940368,1.3830999999940374,1.3999000000059567,1.4164999999999992,1.4332999999970184,1.449900000005961,1.466799999997022,1.4830999999940389,1.4999000000059581,1.5165000000000006,1.5332999999970198,1.5499000000059624,1.5669000000059583,1.5832000000029822,1.5999000000059596,1.6197000000029789,1.6369000000059586,1.6530999999940406,1.6664999999999992,1.6832000000029765,1.699799999997019,1.7165999999940382,1.7332999999970156,1.7502999999970186,1.7712999999970194,1.783200000002978,1.7999000000059624,1.8164999999999978,1.833400000005959,1.8500000000000014,1.8665999999940368,1.8832000000029794,1.9060999999940407,1.9164999999999992,1.9334000000059604,1.9500999999940376,1.9664000000059616,1.9832000000029808,1.9999000000059581,2.0165999999940354,2.033200000002978,2.051499999999997,2.066400000005963,2.083200000002982,2.100099999994036,2.116500000000002,2.1332000000029794,2.1499000000059567,2.166599999994041,2.1832999999970184,2.199900000005961,2.2164000000059616,2.2332999999970156,2.2504000000059605,2.2665999999940354,2.283099999994036,2.2999000000059624,2.316499999999998,2.333200000002982,2.3499000000059596,2.36640000000596,2.3832000000029794,2.400299999997017,2.416599999994041,2.4330999999940417,2.4499999999999957,2.4664000000059616,2.483200000002981,2.499900000005958,2.5165999999940354,2.533200000002978,2.5504999999999995,2.5669000000059583,2.5830999999940403,2.5997999999970176,2.6192999999970183,2.6370000000000005,2.6532999999970173,2.666700000002976,2.6830999999940417,2.699900000005961,2.7165999999940382,2.7332999999970156,2.7525999999940396,2.7682000000029774,2.783200000002978]","[1733194006080,1733194006095,1733194006111,1733194006128,1733194006145,1733194006161,1733194006178,1733194006195,1733194006211,1733194006228,1733194006246,1733194006261,1733194006278,1733194006295,1733194006311,1733194006328,1733194006345,1733194006361,1733194006380,1733194006395,1733194006411,1733194006428,1733194006445,1733194006461,1733194006478,1733194006495,1733194006511,1733194006528,1733194006545,1733194006561,1733194006578,1733194006595,1733194006611,1733194006628,1733194006645,1733194006661,1733194006681,1733194006696,1733194006715,1733194006731,1733194006745,1733194006761,1733194006778,1733194006795,1733194006811,1733194006828,1733194006845,1733194006861,1733194006878,1733194006895,1733194006911,1733194006928,1733194006945,1733194006961,1733194006978,1733194006995,1733194007011,1733194007028,1733194007045,1733194007061,1733194007078,1733194007095,1733194007111,1733194007128,1733194007145,1733194007161,1733194007178,1733194007195,1733194007211,1733194007228,1733194007245,1733194007261,1733194007278,1733194007295,1733194007311,1733194007328,1733194007345,1733194007361,1733194007378,1733194007395,1733194007412,1733194007428,1733194007445,1733194007461,1733194007478,1733194007495,1733194007511,1733194007528,1733194007545,1733194007561,1733194007578,1733194007595,1733194007611,1733194007628,1733194007645,1733194007661,1733194007678,1733194007698,1733194007715,1733194007731,1733194007745,1733194007761,1733194007778,1733194007795,1733194007811,1733194007828,1733194007849,1733194007861,1733194007878,1733194007895,1733194007912,1733194007928,1733194007945,1733194007961,1733194007984,1733194007995,1733194008012,1733194008028,1733194008045,1733194008061,1733194008078,1733194008095,1733194008111,1733194008130,1733194008145,1733194008161,1733194008178,1733194008195,1733194008211,1733194008228,1733194008245,1733194008261,1733194008278,1733194008295,1733194008311,1733194008329,1733194008345,1733194008361,1733194008378,1733194008395,1733194008411,1733194008428,1733194008445,1733194008461,1733194008478,1733194008495,1733194008511,1733194008528,1733194008545,1733194008561,1733194008578,1733194008595,1733194008611,1733194008629,1733194008645,1733194008661,1733194008678,1733194008698,1733194008715,1733194008731,1733194008745,1733194008761,1733194008778,1733194008795,1733194008811,1733194008831,1733194008846,1733194008861]","[[826.2,622.2],[849.9,607.4],[866.4,590.3],[889,566.5],[909.5,555],[937.2,550.2],[968.2,534.2],[994.1,538.6],[1020.5,530.8],[1040.6,548.7],[1073.9,550.4],[1094.4,553.6],[1116.5,539.7],[1122.1,526.1],[1137.9,522.5],[1144.6,516.2],[1144.6,516.2],[1150.6,504.7],[1152.5,486.1],[1142.2,467.6],[1150.9,437.2],[1140.5,428.7],[1130.1,420.2],[1124.1,427.9],[1118.1,435.6],[1112.2,442.3],[1107.5,438.9],[1098.9,435],[1132.7,437.7],[1155,449.9],[1177.3,462.1],[1203.9,464.1],[1230.5,466.1],[1251.1,469],[1242.5,471.5],[1230.8,467.3],[1221.4,462.2],[1204,460.1],[1175.6,454.7],[1154.5,445.5],[1131.5,442.1],[1110.1,443.2],[1085.6,448.6],[1061.1,454],[1069.8,453.7],[1081.4,463.2],[1096.9,468.8],[1096.9,480.8],[1090.1,484.1],[1096.3,491.9],[1097.6,497.6],[1089.1,495.3],[1083.7,488.7],[1092.2,477.5],[1092.2,477.5],[1096.7,472.4],[1104.6,467.8],[1115.2,470.3],[1129.8,463.6],[1140.6,456.3],[1133.3,446],[1132.8,432],[1151.5,439.4],[1179.5,439.6],[1191.1,441.5],[1196.1,447.6],[1211.2,433.4],[1199.6,425.3],[1207.1,426],[1235.9,412.7],[1266.3,401.2],[1282.8,393.6],[1289.9,372.6],[1284.6,372.2],[1302.2,368.3],[1314.8,360.3],[1311,362.3],[1325.7,358.3],[1338.8,351.6],[1330.9,360.3],[1323,369],[1322,373.7],[1328.1,370.4],[1328.6,360.8],[1321.9,356.8],[1318,352.9],[1326.3,344.1],[1315.9,343.5],[1314.3,351.3],[1309.2,351.7],[1309.6,360],[1327.9,363.7],[1332.1,374.4],[1334,383.7],[1322.7,393.8],[1301.5,403.7],[1276.7,412.2],[1258.8,408.7],[1229.8,403.5],[1215.2,402.8],[1193.2,396.7],[1159.1,394.2],[1147.7,403.3],[1137.5,405.8],[1137.5,405.8],[1121.3,407.9],[1133.2,420.7],[1133.2,420.7],[1132.9,429],[1132.9,429],[1140,441.6],[1140,441.6],[1153,449.2],[1153,449.2],[1182,447.7],[1182,447.7],[1168.1,441.2],[1150.2,442.2],[1126.3,429.3],[1129.9,421.1],[1138.4,404.3],[1090.4,372.2],[1046,350.9],[1015.2,343.9],[981.3,338.3],[928.1,333.9],[919.7,332],[911.5,307.2],[905.4,301.3],[881.6,291.6],[870.1,288],[900.5,299.9],[934.7,305.1],[959.7,299.2],[965.9,294.9],[974,306.3],[992.3,322],[1006.4,342],[995.9,347.3],[986.9,360.3],[982.9,389.8],[994.1,399.2],[1001.5,415.3],[971.8,442.9],[960.7,443.1],[933.6,432.6],[910.8,438.5],[893.2,454.2],[888.4,469],[888.6,474.8],[876.9,471.1],[860,476.7],[846.7,470.5],[860.7,448.8],[850.4,438],[854.4,460.1],[838.2,468.3],[826,478.9],[812,463.9],[799,469.8],[791.5,474.9],[769.4,476.6],[741.5,493.7],[738.1,512.3],[758.7,542.7],[801.1,535.5],[849.2,521.5],[905.7,517.5]]","[0,0.37864299999999995]","[0.37864299999999995,0.37864299999999995]","[-0.37864299999999995,0]","[-0.37864299999999995,-0.37864299999999995]","[0,0]","[0.37864299999999995,0]","[0,-0.37864299999999995]","[0.37864299999999995,-0.37864299999999995]",0,2,2,2,1,3,Laptop,5,5,15,9
