inst1_resp.keys,inst1_resp.rt,calibrationMouse.x,calibrationMouse.y,calibrationMouse.leftButton,calibrationMouse.midButton,calibrationMouse.rightButton,calibrationClick.x,calibrationClick.y,calibrationClick.leftButton,calibrationClick.midButton,calibrationClick.rightButton,trialsc.thisRepN,trialsc.thisTrialN,trialsc.thisN,trialsc.thisIndex,trialsc.ran,calibration_x,calibration_y,participant,session,date,expName,psychopyVersion,OS,frameRate,calibrationClick.clicked_name,ScreenRes_pixels,mouse_2.x,mouse_2.y,mouse_2.leftButton,mouse_2.midButton,mouse_2.rightButton,mouse_2.time,mouse_2.clicked_name,Camera_pixels,mouse.x,mouse.y,mouse.leftButton,mouse.midButton,mouse.rightButton,mouse.time,mouse.clicked_name,Choice,Trial,TrialDuration,MOUSE_GAZE,ET_GAZE,ET_GAZE_x_T,time,unixTime,ET_GAZE_NF,Loc_Option1_label,Loc_Option2_label,Loc_Cost_label,Loc_Qual_label,Loc_Option1_cost,Loc_Option2_cost,Loc_Option1_quality,Loc_Option2_quality,trials.thisRepN,trials.thisTrialN,trials.thisN,trials.thisIndex,trials.ran,Block,Device,cost1,qual1,cost2,qual2
space,2.5492,0.194791667,0.22037037,1,0,0,0.172916667,0.240740741,1,0,0,0,0,0,8,1,-0.33,0.67,32,001,2024-12-02_19h07.08.521,Attention_exp_legacy,2023.1.0,Win32,59.88023952,,,,,,,,,,,,,,,,,,,,,,,,,,,,,,,,,,,,,,,,,,,,,
,,,,,,,0.607291667,-0.37037037,1,0,0,0,1,1,20,1,0.67,-0.67,32,001,2024-12-02_19h07.08.521,Attention_exp_legacy,2023.1.0,Win32,59.88023952,,,,,,,,,,,,,,,,,,,,,,,,,,,,,,,,,,,,,,,,,,,,,
,,,,,,,-0.314583333,0.311111111,1,0,0,0,2,2,7,1,-0.33,0.33,32,001,2024-12-02_19h07.08.521,Attention_exp_legacy,2023.1.0,Win32,59.88023952,,,,,,,,,,,,,,,,,,,,,,,,,,,,,,,,,,,,,,,,,,,,,
,,,,,,,0.352083333,-0.327777778,1,0,0,0,3,3,15,1,0.33,-0.33,32,001,2024-12-02_19h07.08.521,Attention_exp_legacy,2023.1.0,Win32,59.88023952,,,,,,,,,,,,,,,,,,,,,,,,,,,,,,,,,,,,,,,,,,,,,
,,,,,,,-0.016666667,0.651851852,1,0,0,0,4,4,13,1,0,0.67,32,001,2024-12-02_19h07.08.521,Attention_exp_legacy,2023.1.0,Win32,59.88023952,,,,,,,,,,,,,,,,,,,,,,,,,,,,,,,,,,,,,,,,,,,,,
,,,,,,,0.315625,0.014814815,1,0,0,0,5,5,16,1,0.33,0,32,001,2024-12-02_19h07.08.521,Attention_exp_legacy,2023.1.0,Win32,59.88023952,,,,,,,,,,,,,,,,,,,,,,,,,,,,,,,,,,,,,,,,,,,,,
,,,,,,,-0.3375,-0.655555556,1,0,0,0,6,6,4,1,-0.33,-0.67,32,001,2024-12-02_19h07.08.521,Attention_exp_legacy,2023.1.0,Win32,59.88023952,,,,,,,,,,,,,,,,,,,,,,,,,,,,,,,,,,,,,,,,,,,,,
,,,,,,,0.669791667,0.701851852,1,0,0,0,7,7,19,1,0.67,0.67,32,001,2024-12-02_19h07.08.521,Attention_exp_legacy,2023.1.0,Win32,59.88023952,,,,,,,,,,,,,,,,,,,,,,,,,,,,,,,,,,,,,,,,,,,,,
,,,,,,,0.004166667,-0.346296296,1,0,0,0,8,8,10,1,0,-0.33,32,001,2024-12-02_19h07.08.521,Attention_exp_legacy,2023.1.0,Win32,59.88023952,,,,,,,,,,,,,,,,,,,,,,,,,,,,,,,,,,,,,,,,,,,,,
,,,,,,,0,0.331481481,1,0,0,0,9,9,12,1,0,0.33,32,001,2024-12-02_19h07.08.521,Attention_exp_legacy,2023.1.0,Win32,59.88023952,calibration_square,,,,,,,,,,,,,,,,,,,,,,,,,,,,,,,,,,,,,,,,,,,,
,,,,,,,-0.68125,0.02037037,1,0,0,0,10,10,2,1,-0.67,0,32,001,2024-12-02_19h07.08.521,Attention_exp_legacy,2023.1.0,Win32,59.88023952,,,,,,,,,,,,,,,,,,,,,,,,,,,,,,,,,,,,,,,,,,,,,
,,,,,,,0.319791667,0.688888889,1,0,0,0,11,11,18,1,0.33,0.67,32,001,2024-12-02_19h07.08.521,Attention_exp_legacy,2023.1.0,Win32,59.88023952,,,,,,,,,,,,,,,,,,,,,,,,,,,,,,,,,,,,,,,,,,,,,
,,,,,,,-0.328125,-0.307407407,1,0,0,0,12,12,5,1,-0.33,-0.33,32,001,2024-12-02_19h07.08.521,Attention_exp_legacy,2023.1.0,Win32,59.88023952,,,,,,,,,,,,,,,,,,,,,,,,,,,,,,,,,,,,,,,,,,,,,
,,,,,,,0.333333333,0.32962963,1,0,0,0,13,13,17,1,0.33,0.33,32,001,2024-12-02_19h07.08.521,Attention_exp_legacy,2023.1.0,Win32,59.88023952,calibration_square,,,,,,,,,,,,,,,,,,,,,,,,,,,,,,,,,,,,,,,,,,,,
,,,,,,,-0.671875,-0.32962963,1,0,0,0,14,14,1,1,-0.67,-0.33,32,001,2024-12-02_19h07.08.521,Attention_exp_legacy,2023.1.0,Win32,59.88023952,calibration_square,,,,,,,,,,,,,,,,,,,,,,,,,,,,,,,,,,,,,,,,,,,,
,,,,,,,-0.65625,-0.662962963,1,0,0,0,15,15,0,1,-0.67,-0.67,32,001,2024-12-02_19h07.08.521,Attention_exp_legacy,2023.1.0,Win32,59.88023952,,,,,,,,,,,,,,,,,,,,,,,,,,,,,,,,,,,,,,,,,,,,,
,,,,,,,-0.688541667,0.316666667,1,0,0,0,16,16,3,1,-0.67,0.33,32,001,2024-12-02_19h07.08.521,Attention_exp_legacy,2023.1.0,Win32,59.88023952,,,,,,,,,,,,,,,,,,,,,,,,,,,,,,,,,,,,,,,,,,,,,
,,,,,,,-0.329166667,-0.012962963,1,0,0,0,17,17,6,1,-0.33,0,32,001,2024-12-02_19h07.08.521,Attention_exp_legacy,2023.1.0,Win32,59.88023952,,,,,,,,,,,,,,,,,,,,,,,,,,,,,,,,,,,,,,,,,,,,,
,,,,,,,0.007291667,0.003703704,1,0,0,0,18,18,11,1,0,0,32,001,2024-12-02_19h07.08.521,Attention_exp_legacy,2023.1.0,Win32,59.88023952,calibration_square,,,,,,,,,,,,,,,,,,,,,,,,,,,,,,,,,,,,,,,,,,,,
,,,,,,,0.003125,-0.666666667,1,0,0,0,19,19,9,1,0,-0.67,32,001,2024-12-02_19h07.08.521,Attention_exp_legacy,2023.1.0,Win32,59.88023952,calibration_square,,,,,,,,,,,,,,,,,,,,,,,,,,,,,,,,,,,,,,,,,,,,
,,,,,,,0.334375,-0.692592593,1,0,0,0,20,20,14,1,0.33,-0.67,32,001,2024-12-02_19h07.08.521,Attention_exp_legacy,2023.1.0,Win32,59.88023952,,,,,,,,,,,,,,,,,,,,,,,,,,,,,,,,,,,,,,,,,,,,,
,,,,,,,,,,,,,,,,,,,32,001,2024-12-02_19h07.08.521,Attention_exp_legacy,2023.1.0,Win32,59.88023952,,"[1920,1080]",[0.036458333333333336],[-0.5037037037037037],[1],[0],[0],[0.996600000001493],"[""StartButton""]","[640,480]","[0.203125,0.07395833333333333]","[-0.005555555555555556,0.6129629629629629]","[1,1]","[0,0]","[0,0]","[4.000399999998514,4.685399999998516]","[""Option1_label""]",Option1_label,1,5.7087,"[[-0.03854166666666667,-0.40370370370370373],[-0.03854166666666667,-0.40370370370370373],[-0.03854166666666667,-0.40370370370370373],[-0.03854166666666667,-0.40370370370370373],[-0.03854166666666667,-0.40370370370370373],[-0.03854166666666667,-0.40370370370370373],[-0.03854166666666667,-0.40370370370370373],[-0.03854166666666667,-0.40370370370370373],[-0.03854166666666667,-0.40370370370370373],[-0.03854166666666667,-0.40370370370370373],[-0.03854166666666667,-0.40370370370370373],[-0.03854166666666667,-0.40370370370370373],[-0.03854166666666667,-0.40370370370370373],[-0.03854166666666667,-0.40370370370370373],[-0.03854166666666667,-0.40370370370370373],[-0.03854166666666667,-0.40370370370370373],[-0.03854166666666667,-0.40370370370370373],[-0.03854166666666667,-0.40370370370370373],[-0.03854166666666667,-0.40370370370370373],[-0.03854166666666667,-0.40370370370370373],[-0.03854166666666667,-0.40370370370370373],[-0.03854166666666667,-0.40370370370370373],[-0.03854166666666667,-0.40370370370370373],[-0.03854166666666667,-0.40370370370370373],[-0.03854166666666667,-0.40370370370370373],[-0.03854166666666667,-0.40370370370370373],[-0.03854166666666667,-0.40370370370370373],[-0.03854166666666667,-0.40370370370370373],[-0.03854166666666667,-0.40370370370370373],[-0.03854166666666667,-0.40370370370370373],[-0.03854166666666667,-0.40370370370370373],[-0.03854166666666667,-0.40370370370370373],[-0.03854166666666667,-0.40370370370370373],[-0.03854166666666667,-0.40370370370370373],[-0.03854166666666667,-0.40370370370370373],[-0.03854166666666667,-0.40370370370370373],[-0.03854166666666667,-0.40370370370370373],[-0.03854166666666667,-0.40370370370370373],[-0.03854166666666667,-0.40370370370370373],[-0.03854166666666667,-0.40370370370370373],[-0.03854166666666667,-0.40370370370370373],[-0.03854166666666667,-0.40370370370370373],[-0.03854166666666667,-0.40370370370370373],[-0.03854166666666667,-0.40370370370370373],[-0.03854166666666667,-0.40370370370370373],[-0.03854166666666667,-0.40370370370370373],[-0.03854166666666667,-0.40370370370370373],[-0.03854166666666667,-0.40370370370370373],[-0.03854166666666667,-0.40370370370370373],[-0.03854166666666667,-0.40370370370370373],[-0.03854166666666667,-0.40370370370370373],[-0.03854166666666667,-0.40370370370370373],[-0.03854166666666667,-0.40370370370370373],[-0.03854166666666667,-0.40370370370370373],[-0.03854166666666667,-0.40370370370370373],[-0.03854166666666667,-0.40370370370370373],[-0.03854166666666667,-0.40370370370370373],[-0.03854166666666667,-0.40370370370370373],[-0.03854166666666667,-0.40370370370370373],[-0.03854166666666667,-0.40370370370370373],[-0.03854166666666667,-0.40370370370370373],[-0.03854166666666667,-0.40370370370370373],[-0.03854166666666667,-0.40370370370370373],[-0.03854166666666667,-0.40370370370370373],[-0.03854166666666667,-0.40370370370370373],[-0.03854166666666667,-0.40370370370370373],[-0.03854166666666667,-0.40370370370370373],[-0.03854166666666667,-0.40370370370370373],[-0.03854166666666667,-0.40370370370370373],[-0.03854166666666667,-0.40370370370370373],[-0.03854166666666667,-0.40370370370370373],[-0.03854166666666667,-0.40370370370370373],[-0.03854166666666667,-0.40370370370370373],[-0.03854166666666667,-0.40370370370370373],[-0.03854166666666667,-0.40370370370370373],[-0.03854166666666667,-0.40370370370370373],[-0.03854166666666667,-0.40370370370370373],[-0.03854166666666667,-0.40370370370370373],[-0.03854166666666667,-0.40370370370370373],[-0.03854166666666667,-0.40370370370370373],[-0.03854166666666667,-0.40370370370370373],[-0.03854166666666667,-0.40370370370370373],[-0.041666666666666664,-0.40555555555555556],[-0.042708333333333334,-0.40555555555555556],[-0.04791666666666667,-0.4111111111111111],[-0.04791666666666667,-0.4111111111111111],[-0.051041666666666666,-0.412962962962963],[-0.052083333333333336,-0.4148148148148148],[-0.05625,-0.4203703703703704],[-0.058333333333333334,-0.42407407407407405],[-0.06354166666666666,-0.43148148148148147],[-0.065625,-0.43333333333333335],[-0.07604166666666666,-0.4537037037037037],[-0.07604166666666666,-0.4537037037037037],[-0.09583333333333334,-0.4777777777777778],[-0.10208333333333333,-0.48703703703703705],[-0.12916666666666668,-0.5185185185185185],[-0.13854166666666667,-0.5314814814814814],[-0.1625,-0.562962962962963],[-0.171875,-0.5722222222222222],[-0.19479166666666667,-0.6018518518518519],[-0.203125,-0.6166666666666667],[-0.23125,-0.6462962962962963],[-0.23958333333333334,-0.6574074074074074],[-0.26666666666666666,-0.6888888888888889],[-0.27395833333333336,-0.7],[-0.303125,-0.7351851851851852],[-0.30833333333333335,-0.7425925925925926],[-0.32083333333333336,-0.7611111111111111],[-0.3229166666666667,-0.7648148148148148],[-0.33229166666666665,-0.7759259259259259],[-0.3333333333333333,-0.7796296296296297],[-0.33541666666666664,-0.7814814814814814],[-0.33645833333333336,-0.7814814814814814],[-0.33645833333333336,-0.7814814814814814],[-0.33645833333333336,-0.7814814814814814],[-0.33645833333333336,-0.7814814814814814],[-0.33645833333333336,-0.7814814814814814],[-0.33541666666666664,-0.7759259259259259],[-0.3302083333333333,-0.7685185185185185],[-0.321875,-0.7518518518518519],[-0.31979166666666664,-0.7444444444444445],[-0.3104166666666667,-0.6981481481481482],[-0.30625,-0.6759259259259259],[-0.296875,-0.6092592592592593],[-0.29375,-0.5851851851851851],[-0.2864583333333333,-0.4962962962962963],[-0.2864583333333333,-0.43333333333333335],[-0.2864583333333333,-0.42592592592592593],[-0.2864583333333333,-0.4203703703703704],[-0.2864583333333333,-0.4148148148148148],[-0.2864583333333333,-0.412962962962963],[-0.2864583333333333,-0.40925925925925927],[-0.2864583333333333,-0.4074074074074074],[-0.2864583333333333,-0.4074074074074074],[-0.2864583333333333,-0.4074074074074074],[-0.2864583333333333,-0.4074074074074074],[-0.2864583333333333,-0.4074074074074074],[-0.2864583333333333,-0.4074074074074074],[-0.2864583333333333,-0.4074074074074074],[-0.2864583333333333,-0.4074074074074074],[-0.2864583333333333,-0.4074074074074074],[-0.2864583333333333,-0.4074074074074074],[-0.2864583333333333,-0.4074074074074074],[-0.2864583333333333,-0.4074074074074074],[-0.2864583333333333,-0.4074074074074074],[-0.2864583333333333,-0.4074074074074074],[-0.2864583333333333,-0.4074074074074074],[-0.28020833333333334,-0.40185185185185185],[-0.2760416666666667,-0.40185185185185185],[-0.2552083333333333,-0.3907407407407407],[-0.24791666666666667,-0.387037037037037],[-0.21770833333333334,-0.37222222222222223],[-0.19895833333333332,-0.362962962962963],[-0.17083333333333334,-0.34629629629629627],[-0.17083333333333334,-0.34629629629629627],[-0.13958333333333334,-0.3314814814814815],[-0.13229166666666667,-0.32592592592592595],[-0.10833333333333334,-0.3148148148148148],[-0.09479166666666666,-0.30925925925925923],[-0.057291666666666664,-0.2814814814814815],[-0.04479166666666667,-0.27037037037037037],[0.014583333333333334,-0.21851851851851853],[0.03333333333333333,-0.2074074074074074],[0.11041666666666666,-0.14814814814814814],[0.15208333333333332,-0.11666666666666667],[0.20208333333333334,-0.07777777777777778],[0.20208333333333334,-0.07777777777777778],[0.2635416666666667,-0.04259259259259259],[0.2760416666666667,-0.03333333333333333],[0.2947916666666667,-0.016666666666666666],[0.29583333333333334,-0.012962962962962963],[0.2989583333333333,-0.009259259259259259],[0.2989583333333333,-0.009259259259259259],[0.2989583333333333,-0.009259259259259259],[0.2989583333333333,-0.009259259259259259],[0.32083333333333336,0.001851851851851852],[0.3302083333333333,0.003703703703703704],[0.39166666666666666,0.020370370370370372],[0.39166666666666666,0.020370370370370372],[0.5427083333333333,0.04259259259259259],[0.56875,0.046296296296296294],[0.6208333333333333,0.046296296296296294],[0.63125,0.046296296296296294],[0.6479166666666667,0.04259259259259259],[0.6489583333333333,0.04259259259259259],[0.6489583333333333,0.04259259259259259],[0.6489583333333333,0.04259259259259259],[0.6489583333333333,0.04259259259259259],[0.6489583333333333,0.04259259259259259],[0.6489583333333333,0.04259259259259259],[0.6489583333333333,0.04259259259259259],[0.6489583333333333,0.04259259259259259],[0.6489583333333333,0.04259259259259259],[0.6489583333333333,0.04259259259259259],[0.6489583333333333,0.04259259259259259],[0.6489583333333333,0.04259259259259259],[0.6489583333333333,0.04259259259259259],[0.6489583333333333,0.04259259259259259],[0.6489583333333333,0.04259259259259259],[0.65,0.040740740740740744],[0.6489583333333333,0.040740740740740744],[0.6479166666666667,0.040740740740740744],[0.6479166666666667,0.040740740740740744],[0.6479166666666667,0.040740740740740744],[0.6479166666666667,0.040740740740740744],[0.6458333333333334,0.040740740740740744],[0.6458333333333334,0.040740740740740744],[0.6447916666666667,0.03888888888888889],[0.640625,0.037037037037037035],[0.6177083333333333,0.03148148148148148],[0.6052083333333333,0.025925925925925925],[0.5552083333333333,0.020370370370370372],[0.5333333333333333,0.014814814814814815],[0.4739583333333333,0.014814814814814815],[0.4635416666666667,0.014814814814814815],[0.4395833333333333,0.014814814814814815],[0.43333333333333335,0.014814814814814815],[0.40625,0.014814814814814815],[0.3927083333333333,0.014814814814814815],[0.35208333333333336,0.014814814814814815],[0.3416666666666667,0.014814814814814815],[0.3125,0.014814814814814815],[0.30416666666666664,0.014814814814814815],[0.28541666666666665,0.014814814814814815],[0.278125,0.012962962962962963],[0.25104166666666666,0.005555555555555556],[0.24375,0.003703703703703704],[0.22604166666666667,0],[0.22083333333333333,-0.001851851851851852],[0.21145833333333333,-0.003703703703703704],[0.21041666666666667,-0.003703703703703704],[0.20729166666666668,-0.005555555555555556],[0.20729166666666668,-0.005555555555555556],[0.20416666666666666,-0.005555555555555556],[0.203125,-0.005555555555555556],[0.203125,-0.005555555555555556],[0.203125,-0.005555555555555556],[0.203125,-0.005555555555555556],[0.203125,-0.005555555555555556],[0.203125,-0.005555555555555556],[0.203125,-0.005555555555555556],[0.203125,-0.005555555555555556],[0.203125,-0.005555555555555556],[0.203125,-0.005555555555555556],[0.203125,-0.005555555555555556],[0.203125,-0.005555555555555556],[0.203125,-0.005555555555555556],[0.203125,-0.005555555555555556],[0.203125,-0.005555555555555556],[0.203125,-0.005555555555555556],[0.203125,-0.005555555555555556],[0.203125,-0.005555555555555556],[0.203125,-0.005555555555555556],[0.203125,-0.005555555555555556],[0.203125,-0.005555555555555556],[0.203125,-0.005555555555555556],[0.203125,-0.005555555555555556],[0.203125,-0.005555555555555556],[0.203125,-0.005555555555555556],[0.203125,-0.005555555555555556],[0.203125,-0.005555555555555556],[0.203125,-0.005555555555555556],[0.203125,-0.005555555555555556],[0.203125,-0.005555555555555556],[0.203125,-0.001851851851851852],[0.19375,0.06666666666666667],[0.19166666666666668,0.1037037037037037],[0.16354166666666667,0.2796296296296296],[0.13020833333333334,0.42407407407407405],[0.09583333333333334,0.5444444444444444],[0.090625,0.5648148148148148],[0.07604166666666666,0.6055555555555555],[0.07395833333333333,0.6129629629629629],[0.07395833333333333,0.6129629629629629],[0.07395833333333333,0.6129629629629629],[0.07395833333333333,0.6129629629629629],[0.07395833333333333,0.6129629629629629],[0.07395833333333333,0.6129629629629629],[0.07395833333333333,0.6129629629629629],[0.07395833333333333,0.6129629629629629],[0.07395833333333333,0.6129629629629629],[0.07395833333333333,0.6129629629629629],[0.07395833333333333,0.6129629629629629],[0.07395833333333333,0.6129629629629629],[0.07395833333333333,0.6129629629629629],[0.07395833333333333,0.6129629629629629],[0.07395833333333333,0.6129629629629629],[0.07395833333333333,0.6129629629629629],[0.07395833333333333,0.6129629629629629],[0.07395833333333333,0.6129629629629629],[0.07395833333333333,0.6129629629629629],[0.07395833333333333,0.6129629629629629],[0.07395833333333333,0.6129629629629629],[0.07395833333333333,0.6129629629629629],[0.07395833333333333,0.6129629629629629],[0.07395833333333333,0.6129629629629629],[0.07395833333333333,0.6129629629629629],[0.07395833333333333,0.6129629629629629],[0.07395833333333333,0.6129629629629629],[0.07395833333333333,0.6129629629629629],[0.07395833333333333,0.6129629629629629],[0.07395833333333333,0.6129629629629629],[0.07395833333333333,0.6129629629629629],[0.07395833333333333,0.6129629629629629],[0.07395833333333333,0.6129629629629629],[0.07395833333333333,0.6129629629629629],[0.07395833333333333,0.6129629629629629],[0.07395833333333333,0.6129629629629629],[0.07395833333333333,0.6129629629629629],[0.07395833333333333,0.6129629629629629],[0.07395833333333333,0.6129629629629629],[0.07395833333333333,0.6129629629629629],[0.07395833333333333,0.6129629629629629],[0.07395833333333333,0.6129629629629629],[0.07395833333333333,0.6129629629629629],[0.07395833333333333,0.6129629629629629],[0.07395833333333333,0.6129629629629629],[0.07395833333333333,0.6129629629629629],[0.07395833333333333,0.6129629629629629],[0.07395833333333333,0.6129629629629629],[0.07395833333333333,0.6129629629629629],[0.07395833333333333,0.6129629629629629],[0.07395833333333333,0.6129629629629629],[0.07395833333333333,0.6129629629629629],[0.07395833333333333,0.6129629629629629],[0.07395833333333333,0.6129629629629629],[0.07395833333333333,0.6129629629629629],[0.07395833333333333,0.6129629629629629],[0.07395833333333333,0.6129629629629629],[0.07395833333333333,0.6129629629629629],[0.07395833333333333,0.6129629629629629],[0.07395833333333333,0.6129629629629629],[0.07395833333333333,0.6129629629629629],[0.07395833333333333,0.6129629629629629],[0.07395833333333333,0.6129629629629629],[0.07395833333333333,0.6129629629629629],[0.07395833333333333,0.6129629629629629],[0.07291666666666667,0.6129629629629629],[0.07291666666666667,0.6129629629629629],[0.07291666666666667,0.6129629629629629]]","[[-0.13968750000000002,0.3672222222222221],[-0.13968750000000002,0.3672222222222221],[-0.10427083333333335,0.3205555555555556],[-0.10427083333333335,0.3205555555555556],[-0.06885416666666669,0.29499999999999993],[-0.06885416666666669,0.29499999999999993],[-0.035416666666666666,0.23592592592592587],[-0.035416666666666666,0.23592592592592587],[-0.014583333333333334,0.13259259259259262],[-0.014583333333333334,0.13259259259259262],[0.009687499999999953,0.06222222222222226],[0.009687499999999953,0.06222222222222226],[0.009687499999999953,0.06222222222222226],[0.009687499999999953,0.06222222222222226],[0.04562499999999995,0.01185185185185181],[0.04562499999999995,0.01185185185185181],[0.04562499999999995,0.01185185185185181],[0.04562499999999995,0.01185185185185181],[0.042812500000000024,-0.036666666666666584],[0.042812500000000024,-0.036666666666666584],[0.08677083333333328,-0.06185185185185181],[0.08677083333333328,-0.06185185185185181],[0.07604166666666666,-0.08944444444444447],[0.07604166666666666,-0.08944444444444447],[0.08937499999999995,-0.1727777777777778],[0.08937499999999995,-0.1727777777777778],[0.08729166666666661,-0.2544444444444444],[0.08729166666666661,-0.2544444444444444],[0.09302083333333329,-0.34981481481481475],[0.09302083333333329,-0.34981481481481475],[0.09302083333333329,-0.34981481481481475],[0.09302083333333329,-0.34981481481481475],[0.12156250000000005,-0.4033333333333334],[0.12156250000000005,-0.4033333333333334],[0.11791666666666671,-0.41740740740740734],[0.11791666666666671,-0.41740740740740734],[0.13093750000000004,-0.475],[0.13093750000000004,-0.475],[0.12687499999999996,-0.5305555555555556],[0.12687499999999996,-0.5305555555555556],[0.08145833333333338,-0.5637037037037037],[0.08145833333333338,-0.5637037037037037],[0.019583333333333286,-0.6309259259259259],[0.019583333333333286,-0.6309259259259259],[-0.024791666666666618,-0.5977777777777779],[-0.024791666666666618,-0.5977777777777779],[-0.08416666666666663,-0.5237037037037037],[-0.08416666666666663,-0.5237037037037037],[-0.1388541666666666,-0.38351851851851854],[-0.1388541666666666,-0.38351851851851854],[-0.22041666666666668,-0.21666666666666667],[-0.22041666666666668,-0.21666666666666667],[-0.2738541666666666,-0.08499999999999996],[-0.2738541666666666,-0.08499999999999996],[-0.2851041666666667,-0.03555555555555564],[-0.2851041666666667,-0.03555555555555564],[-0.33135416666666667,0.0025925925925925505],[-0.33135416666666667,0.0025925925925925505],[-0.4158333333333334,0.09537037037037037],[-0.4158333333333334,0.09537037037037037],[-0.39781249999999996,0.16518518518518527],[-0.39781249999999996,0.16518518518518527],[-0.39375,0.2655555555555555],[-0.39375,0.2655555555555555],[-0.36593749999999997,0.25314814814814823],[-0.36593749999999997,0.25314814814814823],[-0.3459375,0.17796296296296302],[-0.3459375,0.17796296296296302],[-0.3012500000000001,0.07537037037037045],[-0.3012500000000001,0.07537037037037045],[-0.3012500000000001,0.07537037037037045],[-0.3012500000000001,0.07537037037037045],[-0.20239583333333327,-0.034999999999999955],[-0.20239583333333327,-0.034999999999999955],[-0.14593750000000003,-0.14370370370370375],[-0.14593750000000003,-0.14370370370370375],[-0.12312500000000005,-0.11981481481481479],[-0.12312500000000005,-0.11981481481481479],[-0.06489583333333329,-0.1175925925925926],[-0.06489583333333329,-0.1175925925925926],[0.01229166666666662,-0.15870370370370368],[0.01229166666666662,-0.15870370370370368],[0.08718750000000004,-0.1838888888888889],[0.08718750000000004,-0.1838888888888889],[0.1056250000000001,-0.14296296296296293],[0.1056250000000001,-0.14296296296296293],[0.13468749999999996,-0.12018518518518514],[0.13468749999999996,-0.12018518518518514],[0.1453125,-0.08462962962962961],[0.1453125,-0.08462962962962961],[0.1271874999999999,-0.04666666666666675],[0.1271874999999999,-0.04666666666666675],[0.09927083333333328,-0.022222222222222223],[0.09927083333333328,-0.022222222222222223],[0.051770833333333384,0.049629629629629544],[0.051770833333333384,0.049629629629629544],[0.014791666666666713,0.08462962962962971],[0.014791666666666713,0.08462962962962971],[-0.04458333333333329,0.15629629629629627],[-0.04458333333333329,0.15629629629629627],[-0.08791666666666664,0.24092592592592596],[-0.08791666666666664,0.24092592592592596],[-0.14708333333333337,0.31851851851851853],[-0.14708333333333337,0.31851851851851853],[-0.18364583333333329,0.327962962962963],[-0.18364583333333329,0.327962962962963],[-0.2741666666666667,0.35703703703703693],[-0.2741666666666667,0.35703703703703693],[-0.2921875,0.4014814814814814],[-0.2921875,0.4014814814814814],[-0.28552083333333333,0.465],[-0.28552083333333333,0.465],[-0.32937500000000003,0.5042592592592592],[-0.32937500000000003,0.5042592592592592],[-0.33864583333333337,0.5331481481481481],[-0.33864583333333337,0.5331481481481481],[-0.36604166666666665,0.5468518518518518],[-0.36604166666666665,0.5468518518518518],[-0.3697916666666667,0.5287037037037037],[-0.3697916666666667,0.5287037037037037],[-0.36260416666666667,0.5396296296296296],[-0.36260416666666667,0.5396296296296296],[-0.3771875,0.5768518518518518],[-0.3771875,0.5768518518518518],[-0.36447916666666663,0.581111111111111],[-0.36447916666666663,0.581111111111111],[-0.3126041666666667,0.594074074074074],[-0.3126041666666667,0.594074074074074],[-0.28572916666666665,0.5583333333333333],[-0.28572916666666665,0.5583333333333333],[-0.28458333333333335,0.5118518518518518],[-0.28458333333333335,0.5118518518518518],[-0.30281250000000004,0.49314814814814806],[-0.30281250000000004,0.49314814814814806],[-0.305625,0.43703703703703706],[-0.305625,0.43703703703703706],[-0.3051041666666666,0.4300000000000001],[-0.3051041666666666,0.4300000000000001],[-0.30270833333333336,0.443888888888889],[-0.30270833333333336,0.443888888888889],[-0.2960416666666667,0.3790740740740742],[-0.2960416666666667,0.3790740740740742],[-0.27458333333333335,0.34333333333333327],[-0.27458333333333335,0.34333333333333327],[-0.2700000000000001,0.30388888888888893],[-0.2700000000000001,0.30388888888888893],[-0.2700000000000001,0.30388888888888893],[-0.2700000000000001,0.30388888888888893],[-0.27583333333333326,0.2553703703703703],[-0.27583333333333326,0.2553703703703703],[-0.2735416666666667,0.23481481481481473],[-0.2735416666666667,0.23481481481481473],[-0.2233333333333333,0.244074074074074],[-0.2233333333333333,0.244074074074074],[-0.18916666666666668,0.22074074074074082],[-0.18916666666666668,0.22074074074074082],[-0.17937500000000003,0.19425925925925921],[-0.17937500000000003,0.19425925925925921],[-0.15572916666666667,0.20796296296296288],[-0.15572916666666667,0.20796296296296288],[-0.12468750000000005,0.22777777777777777],[-0.12468750000000005,0.22777777777777777],[-0.0967708333333333,0.2222222222222222],[-0.0967708333333333,0.2222222222222222],[-0.10302083333333331,0.19277777777777783],[-0.10302083333333331,0.19277777777777783],[-0.07708333333333334,0.17222222222222222],[-0.07708333333333334,0.17222222222222222],[-0.03958333333333333,0.18629629629629635],[-0.03958333333333333,0.18629629629629635],[-0.0140625,0.19203703703703712],[-0.0140625,0.19203703703703712],[-0.025312499999999953,0.13574074074074066],[-0.025312499999999953,0.13574074074074066],[-0.025312499999999953,0.13574074074074066],[-0.025312499999999953,0.13574074074074066],[0.01395833333333331,0.16166666666666657],[0.01395833333333331,0.16166666666666657],[0.07958333333333342,0.1307407407407408],[0.07958333333333342,0.1307407407407408],[0.1053124999999999,0.07444444444444454],[0.1053124999999999,0.07444444444444454],[0.13729166666666662,0.07148148148148152],[0.13729166666666662,0.07148148148148152],[0.16395833333333343,0.03925925925925934],[0.16395833333333343,0.03925925925925934],[0.22156250000000005,0.08814814814814818],[0.22156250000000005,0.08814814814814818],[0.3017708333333334,0.10425925925925918],[0.3017708333333334,0.10425925925925918],[0.3662499999999999,0.08462962962962971],[0.3662499999999999,0.08462962962962971],[0.4570833333333333,0.12259259259259268],[0.4570833333333333,0.12259259259259268],[0.4820833333333333,0.2603703703703704],[0.4820833333333333,0.2603703703703704],[0.5036458333333333,0.2742592592592593],[0.5036458333333333,0.2742592592592593],[0.5041666666666667,0.3738888888888888],[0.5041666666666667,0.3738888888888888],[0.5677083333333334,0.42240740740740745],[0.5677083333333334,0.42240740740740745],[0.5924999999999999,0.39537037037037037],[0.5924999999999999,0.39537037037037037],[0.6421875,0.46333333333333343],[0.6421875,0.46333333333333343],[0.6435416666666666,0.38944444444444437],[0.6435416666666666,0.38944444444444437],[0.6347916666666668,0.3683333333333333],[0.6347916666666668,0.3683333333333333],[0.6509375000000001,0.3425925925925926],[0.6509375000000001,0.3425925925925926],[0.6185416666666667,0.297037037037037],[0.6185416666666667,0.297037037037037],[0.6502083333333334,0.18333333333333332],[0.6502083333333334,0.18333333333333332],[0.6715625000000001,0.17222222222222222],[0.6715625000000001,0.17222222222222222],[0.6839583333333332,0.14166666666666666],[0.6839583333333332,0.14166666666666666],[0.6714583333333333,0.052407407407407326],[0.6714583333333333,0.052407407407407326],[0.658125,0.016111111111111194],[0.658125,0.016111111111111194],[0.6240624999999999,-0.04203703703703712],[0.6240624999999999,-0.04203703703703712],[0.6308333333333332,-0.03685185185185181],[0.6308333333333332,-0.03685185185185181],[0.5976041666666667,-0.03425925925925926],[0.5976041666666667,-0.03425925925925926],[0.5441666666666668,-0.014259259259259343],[0.5441666666666668,-0.014259259259259343],[0.4901041666666667,0.002962962962963005],[0.4901041666666667,0.002962962962963005],[0.4228125000000001,-0.014629629629629588],[0.4228125000000001,-0.014629629629629588],[0.3771874999999999,-0.0485185185185186],[0.3771874999999999,-0.0485185185185186],[0.34437499999999993,-0.075],[0.34437499999999993,-0.075],[0.34437499999999993,-0.075],[0.34437499999999993,-0.075],[0.30343749999999997,-0.04759259259259268],[0.30343749999999997,-0.04759259259259268],[0.2752083333333334,-0.03222222222222218],[0.2752083333333334,-0.03222222222222218],[0.23552083333333323,-0.024814814814814772],[0.23552083333333323,-0.024814814814814772],[0.2146874999999999,-0.03092592592592601],[0.2146874999999999,-0.03092592592592601],[0.20322916666666657,-0.03777777777777774],[0.20322916666666657,-0.03777777777777774],[0.19572916666666676,-0.06259259259259262],[0.19572916666666676,-0.06259259259259262],[0.18708333333333324,-0.09740740740740746],[0.18708333333333324,-0.09740740740740746],[0.1883333333333333,-0.0868518518518518],[0.1883333333333333,-0.0868518518518518],[0.18697916666666667,-0.08777777777777773],[0.18697916666666667,-0.08777777777777773],[0.19031250000000005,-0.10833333333333334],[0.19031250000000005,-0.10833333333333334],[0.19072916666666656,-0.13629629629629633],[0.19072916666666656,-0.13629629629629633],[0.1765625,-0.14740740740740746],[0.1765625,-0.14740740740740746],[0.15833333333333333,-0.14777777777777779],[0.15833333333333333,-0.14777777777777779],[0.1209374999999999,-0.127962962962963],[0.1209374999999999,-0.127962962962963],[0.11072916666666661,-0.16166666666666668],[0.11072916666666661,-0.16166666666666668],[0.11812500000000009,-0.18499999999999997],[0.11812500000000009,-0.18499999999999997],[0.11760416666666676,-0.19944444444444442],[0.11760416666666676,-0.19944444444444442],[0.13562500000000005,-0.22407407407407406],[0.13562500000000005,-0.22407407407407406],[0.1538541666666667,-0.2581481481481481],[0.1538541666666667,-0.2581481481481481],[0.1538541666666667,-0.2581481481481481],[0.1538541666666667,-0.2581481481481481],[0.1538541666666667,-0.2581481481481481],[0.1538541666666667,-0.2581481481481481],[0.14177083333333323,-0.29814814814814816],[0.14177083333333323,-0.29814814814814816],[0.13583333333333342,-0.3272222222222222],[0.13583333333333342,-0.3272222222222222],[0.17135416666666667,-0.3557407407407408],[0.17135416666666667,-0.3557407407407408],[0.21624999999999991,-0.40907407407407403],[0.21624999999999991,-0.40907407407407403],[0.27010416666666665,-0.4762962962962963],[0.27010416666666665,-0.4762962962962963],[0.28145833333333337,-0.4933333333333333],[0.28145833333333337,-0.4933333333333333],[0.2607291666666666,-0.5112962962962964],[0.2607291666666666,-0.5112962962962964],[0.28156249999999994,-0.5409259259259259],[0.28156249999999994,-0.5409259259259259],[0.28156249999999994,-0.5409259259259259],[0.28156249999999994,-0.5409259259259259],[0.24864583333333337,-0.5551851851851852],[0.24864583333333337,-0.5551851851851852],[0.1944791666666667,-0.5464814814814816],[0.1944791666666667,-0.5464814814814816],[0.17625000000000005,-0.5231481481481481],[0.17625000000000005,-0.5231481481481481],[0.17999999999999997,-0.5164814814814814],[0.17999999999999997,-0.5164814814814814],[0.13927083333333337,-0.5355555555555556],[0.13927083333333337,-0.5355555555555556],[0.11697916666666662,-0.5364814814814814],[0.11697916666666662,-0.5364814814814814],[0.09833333333333343,-0.5479629629629629],[0.09833333333333343,-0.5479629629629629],[0.10239583333333328,-0.5718518518518518],[0.10239583333333328,-0.5718518518518518],[0.10864583333333329,-0.5772222222222222],[0.10864583333333329,-0.5772222222222222],[0.13010416666666677,-0.5824074074074074],[0.13010416666666677,-0.5824074074074074],[0.17114583333333327,-0.6318518518518518],[0.17114583333333327,-0.6318518518518518],[0.22447916666666667,-0.6268518518518519],[0.22447916666666667,-0.6268518518518519],[0.21291666666666675,-0.5940740740740741],[0.21291666666666675,-0.5940740740740741],[0.2078125,-0.6424074074074073],[0.2078125,-0.6424074074074073],[0.18947916666666675,-0.6027777777777777],[0.18947916666666675,-0.6027777777777777],[0.18604166666666658,-0.6011111111111112],[0.18604166666666658,-0.6011111111111112],[0.19322916666666667,-0.5944444444444444],[0.19322916666666667,-0.5944444444444444],[0.18395833333333325,-0.577962962962963],[0.18395833333333325,-0.577962962962963],[0.17958333333333343,-0.5372222222222223],[0.17958333333333343,-0.5372222222222223],[0.16416666666666657,-0.5575925925925926]]","[[-0.13968750000000002,0.3672222222222221,0.00029999999701857405],[-0.13968750000000002,0.3672222222222221,0.037799999997019995],[-0.10427083333333335,0.3205555555555556,0.05749999999999744],[-0.10427083333333335,0.3205555555555556,0.06550000000000011],[-0.06885416666666669,0.29499999999999993,0.09079999999701727],[-0.06885416666666669,0.29499999999999993,0.09899999999999665],[-0.035416666666666666,0.23592592592592587,0.12599999999999767],[-0.035416666666666666,0.23592592592592587,0.13459999999776784],[-0.014583333333333334,0.13259259259259262,0.15899999999999892],[-0.014583333333333334,0.13259259259259262,0.1661999999992574],[0.009687499999999953,0.06222222222222226,0.19200000000000017],[0.009687499999999953,0.06222222222222226,0.2001999999992563],[0.009687499999999953,0.06222222222222226,0.20659999999776346],[0.009687499999999953,0.06222222222222226,0.22569999999925727],[0.04562499999999995,0.01185185185185181,0.25989999999850966],[0.04562499999999995,0.01185185185185181,0.26889999999851],[0.04562499999999995,0.01185185185185181,0.2732999999970218],[0.04562499999999995,0.01185185185185181,0.2923999999985085],[0.042812500000000024,-0.036666666666666584,0.3256999999992516],[0.042812500000000024,-0.036666666666666584,0.33339999999851244],[0.08677083333333328,-0.06185185185185181,0.35879999999701795],[0.08677083333333328,-0.06185185185185181,0.36609999999776477],[0.07604166666666666,-0.08944444444444447,0.3906999999992564],[0.07604166666666666,-0.08944444444444447,0.399099999997766],[0.08937499999999995,-0.1727777777777778,0.42549999999999955],[0.08937499999999995,-0.1727777777777778,0.4328999999985115],[0.08729166666666661,-0.2544444444444444,0.4572999999970193],[0.08729166666666661,-0.2544444444444444,0.4649999999999963],[0.09302083333333329,-0.34981481481481475,0.492299999997023],[0.09302083333333329,-0.34981481481481475,0.5],[0.09302083333333329,-0.34981481481481475,0.5065999999977677],[0.09302083333333329,-0.34981481481481475,0.5257999999970195],[0.12156250000000005,-0.4033333333333334,0.5589999999999975],[0.12156250000000005,-0.4033333333333334,0.5673999999985071],[0.11791666666666671,-0.41740740740740734,0.5920999999977639],[0.11791666666666671,-0.41740740740740734,0.5990999999977618],[0.13093750000000004,-0.475,0.6255000000000024],[0.13093750000000004,-0.475,0.6330000000000027],[0.12687499999999996,-0.5305555555555556,0.6573999999985105],[0.12687499999999996,-0.5305555555555556,0.6648999999985108],[0.08145833333333338,-0.5637037037037037,0.6905999999977652],[0.08145833333333338,-0.5637037037037037,0.6980000000000004],[0.019583333333333286,-0.6309259259259259,0.7239999999999966],[0.019583333333333286,-0.6309259259259259,0.7327999999970203],[-0.024791666666666618,-0.5977777777777779,0.7573999999985119],[-0.024791666666666618,-0.5977777777777779,0.7652999999970191],[-0.08416666666666663,-0.5237037037037037,0.7905999999977666],[-0.08416666666666663,-0.5237037037037037,0.7997999999970204],[-0.1388541666666666,-0.38351851851851854,0.8256999999992516],[-0.1388541666666666,-0.38351851851851854,0.8331999999992519],[-0.22041666666666668,-0.21666666666666667,0.8586999999992528],[-0.22041666666666668,-0.21666666666666667,0.8663999999985066],[-0.2738541666666666,-0.08499999999999996,0.892099999997761],[-0.2738541666666666,-0.08499999999999996,0.9008999999985079],[-0.2851041666666667,-0.03555555555555564,0.9260000000000019],[-0.2851041666666667,-0.03555555555555564,0.9329999999999998],[-0.33135416666666667,0.0025925925925925505,0.9572999999970193],[-0.33135416666666667,0.0025925925925925505,0.9655999999977638],[-0.4158333333333334,0.09537037037037037,0.990799999997023],[-0.4158333333333334,0.09537037037037037,0.9981999999992581],[-0.39781249999999996,0.16518518518518527,1.024000000000001],[-0.39781249999999996,0.16518518518518527,1.0316999999992547],[-0.39375,0.2655555555555555,1.0587999999970208],[-0.39375,0.2655555555555555,1.0660000000000025],[-0.36593749999999997,0.25314814814814823,1.0920999999977639],[-0.36593749999999997,0.25314814814814823,1.0996999999992525],[-0.3459375,0.17796296296296302,1.1255000000000024],[-0.3459375,0.17796296296296302,1.1325999999977654],[-0.3012500000000001,0.07537037037037045,1.1588999999985106],[-0.3012500000000001,0.07537037037037045,1.1664999999999992],[-0.3012500000000001,0.07537037037037045,1.1732999999970204],[-0.3012500000000001,0.07537037037037045,1.192399999998507],[-0.20239583333333327,-0.034999999999999955,1.2254999999999967],[-0.20239583333333327,-0.034999999999999955,1.2326999999992552],[-0.14593750000000003,-0.14370370370370375,1.2572999999970165],[-0.14593750000000003,-0.14370370370370375,1.2656999999992564],[-0.12312500000000005,-0.11981481481481479,1.2920000000000016],[-0.12312500000000005,-0.11981481481481479,1.2996999999992553],[-0.06489583333333329,-0.1175925925925926,1.3260000000000005],[-0.06489583333333329,-0.1175925925925926,1.3327999999970217],[0.01229166666666662,-0.15870370370370368,1.3590000000000018],[0.01229166666666662,-0.15870370370370368,1.3660999999977648],[0.08718750000000004,-0.1838888888888889,1.3945000000000007],[0.08718750000000004,-0.1838888888888889,1.401699999999252],[0.1056250000000001,-0.14296296296296293,1.4254999999999995],[0.1056250000000001,-0.14296296296296293,1.432699999999258],[0.13468749999999996,-0.12018518518518514,1.4609999999999985],[0.13468749999999996,-0.12018518518518514,1.4680999999977615],[0.1453125,-0.08462962962962961,1.490799999997023],[0.1453125,-0.08462962962962961,1.4976999999992557],[0.1271874999999999,-0.04666666666666675,1.5276999999992569],[0.1271874999999999,-0.04666666666666675,1.5364999999999966],[0.09927083333333328,-0.022222222222222223,1.5605999999977627],[0.09927083333333328,-0.022222222222222223,1.567699999999256],[0.051770833333333384,0.049629629629629544,1.5947999999970222],[0.051770833333333384,0.049629629629629544,1.6027999999970177],[0.014791666666666713,0.08462962962962971,1.6255000000000024],[0.014791666666666713,0.08462962962962971,1.6336999999992514],[-0.04458333333333329,0.15629629629629627,1.6613999999985083],[-0.04458333333333329,0.15629629629629627,1.6696999999992528],[-0.08791666666666664,0.24092592592592596,1.692399999998507],[-0.08791666666666664,0.24092592592592596,1.7001999999992563],[-0.14708333333333337,0.31851851851851853,1.7277999999970177],[-0.14708333333333337,0.31851851851851853,1.7350999999977645],[-0.18364583333333329,0.327962962962963,1.7590999999977655],[-0.18364583333333329,0.327962962962963,1.7665999999977657],[-0.2741666666666667,0.35703703703703693,1.794099999997762],[-0.2741666666666667,0.35703703703703693,1.8007999999970181],[-0.2921875,0.4014814814814814,1.8255999999977632],[-0.2921875,0.4014814814814814,1.8330999999977635],[-0.28552083333333333,0.465,1.8612999999970228],[-0.28552083333333333,0.465,1.868399999998509],[-0.32937500000000003,0.5042592592592592,1.8940999999977635],[-0.32937500000000003,0.5042592592592592,1.9013999999985103],[-0.33864583333333337,0.5331481481481481,1.930899999998509],[-0.33864583333333337,0.5331481481481481,1.9391999999992535],[-0.36604166666666665,0.5468518518518518,1.9616999999992544],[-0.36604166666666665,0.5468518518518518,1.9684999999999988],[-0.3697916666666667,0.5287037037037037,1.9971999999992534],[-0.3697916666666667,0.5287037037037037,2.005199999999256],[-0.36260416666666667,0.5396296296296296,2.026799999997017],[-0.36260416666666667,0.5396296296296296,2.0345000000000013],[-0.3771875,0.5768518518518518,2.0638999999985117],[-0.3771875,0.5768518518518518,2.070999999999998],[-0.36447916666666663,0.581111111111111,2.0942999999970198],[-0.36447916666666663,0.581111111111111,2.1015999999977666],[-0.3126041666666667,0.594074074074074,2.135799999997019],[-0.3126041666666667,0.594074074074074,2.1600999999977617],[-0.28572916666666665,0.5583333333333333,2.1739999999999995],[-0.28572916666666665,0.5583333333333333,2.194599999997763],[-0.28458333333333335,0.5118518518518518,2.2105000000000032],[-0.28458333333333335,0.5118518518518518,2.217199999999252],[-0.30281250000000004,0.49314814814814806,2.247899999998509],[-0.30281250000000004,0.49314814814814806,2.2545999999977653],[-0.305625,0.43703703703703706,2.277699999999257],[-0.305625,0.43703703703703706,2.2872999999970176],[-0.3051041666666666,0.4300000000000001,2.310699999999258],[-0.3051041666666666,0.4300000000000001,2.317399999998507],[-0.30270833333333336,0.443888888888889,2.343199999999257],[-0.30270833333333336,0.443888888888889,2.3503999999985083],[-0.2960416666666667,0.3790740740740742,2.3777999999970163],[-0.2960416666666667,0.3790740740740742,2.3843999999985073],[-0.27458333333333335,0.34333333333333327,2.40979999999702],[-0.27458333333333335,0.34333333333333327,2.4166999999992527],[-0.2700000000000001,0.30388888888888893,2.4431999999992513],[-0.2700000000000001,0.30388888888888893,2.4501999999992563],[-0.2700000000000001,0.30388888888888893,2.4565999999977635],[-0.2700000000000001,0.30388888888888893,2.4757999999970224],[-0.27583333333333326,0.2553703703703703,2.511499999999998],[-0.27583333333333326,0.2553703703703703,2.51889999999851],[-0.2735416666666667,0.23481481481481473,2.5420000000000016],[-0.2735416666666667,0.23481481481481473,2.548799999997023],[-0.2233333333333333,0.244074074074074,2.5782999999970215],[-0.2233333333333333,0.244074074074074,2.5882999999970195],[-0.18916666666666668,0.22074074074074082,2.6090000000000018],[-0.18916666666666668,0.22074074074074082,2.615699999999258],[-0.17937500000000003,0.19425925925925921,2.6436999999992565],[-0.17937500000000003,0.19425925925925921,2.6499999999999986],[-0.15572916666666667,0.20796296296296288,2.6751999999992577],[-0.15572916666666667,0.20796296296296288,2.6817999999970183],[-0.12468750000000005,0.22777777777777777,2.7106999999992567],[-0.12468750000000005,0.22777777777777777,2.7177999999970197],[-0.0967708333333333,0.2222222222222222,2.7423999999985114],[-0.0967708333333333,0.2222222222222222,2.750099999997765],[-0.10302083333333331,0.19277777777777783,2.7774999999999963],[-0.10302083333333331,0.19277777777777783,2.7846999999992548],[-0.07708333333333334,0.17222222222222222,2.808799999997021],[-0.07708333333333334,0.17222222222222222,2.8153999999985118],[-0.03958333333333333,0.18629629629629635,2.8441999999992547],[-0.03958333333333333,0.18629629629629635,2.8518999999985084],[-0.0140625,0.19203703703703712,2.8755000000000024],[-0.0140625,0.19203703703703712,2.882399999998512],[-0.025312499999999953,0.13574074074074066,2.9107999999970176],[-0.025312499999999953,0.13574074074074066,2.91729999999702],[-0.025312499999999953,0.13574074074074066,2.9231999999992553],[-0.025312499999999953,0.13574074074074066,2.942399999998507],[0.01395833333333331,0.16166666666666657,2.979399999998506],[0.01395833333333331,0.16166666666666657,2.986299999997023],[0.07958333333333342,0.1307407407407408,3.008899999998512],[0.07958333333333342,0.1307407407407408,3.0153999999985075],[0.1053124999999999,0.07444444444444454,3.043299999997018],[0.1053124999999999,0.07444444444444454,3.049999999999997],[0.13729166666666662,0.07148148148148152,3.075499999999998],[0.13729166666666662,0.07148148148148152,3.083599999997766],[0.16395833333333343,0.03925925925925934,3.110500000000002],[0.16395833333333343,0.03925925925925934,3.1178999999985066],[0.22156250000000005,0.08814814814814818,3.142000000000003],[0.22156250000000005,0.08814814814814818,3.1485999999977636],[0.3017708333333334,0.10425925925925918,3.175299999997023],[0.3017708333333334,0.10425925925925918,3.1818999999985067],[0.3662499999999999,0.08462962962962971,3.2073999999985077],[0.3662499999999999,0.08462962962962971,3.214899999998508],[0.4570833333333333,0.12259259259259268,3.2419999999999973],[0.4570833333333333,0.12259259259259268,3.2485],[0.4820833333333333,0.2603703703703704,3.274000000000001],[0.4820833333333333,0.2603703703703704,3.281500000000001],[0.5036458333333333,0.2742592592592593,3.3085999999977673],[0.5036458333333333,0.2742592592592593,3.315199999999251],[0.5041666666666667,0.3738888888888888,3.340599999997764],[0.5041666666666667,0.3738888888888888,3.3477999999970223],[0.5677083333333334,0.42240740740740745,3.3763999999985117],[0.5677083333333334,0.42240740740740745,3.383199999999256],[0.5924999999999999,0.39537037037037037,3.408999999999999],[0.5924999999999999,0.39537037037037037,3.4155000000000015],[0.6421875,0.46333333333333343,3.4406999999992536],[0.6421875,0.46333333333333343,3.448999999999998],[0.6435416666666666,0.38944444444444437,3.4768999999985084],[0.6435416666666666,0.38944444444444437,3.4831999999992576],[0.6347916666666668,0.3683333333333333,3.5075000000000003],[0.6347916666666668,0.3683333333333333,3.51439999999851],[0.6509375000000001,0.3425925925925926,3.5430999999977644],[0.6509375000000001,0.3425925925925926,3.5515999999977623],[0.6185416666666667,0.297037037037037,3.5751999999992563],[0.6185416666666667,0.297037037037037,3.5818999999985124],[0.6502083333333334,0.18333333333333332,3.6106999999992553],[0.6502083333333334,0.18333333333333332,3.617299999997023],[0.6715625000000001,0.17222222222222222,3.642099999997761],[0.6715625000000001,0.17222222222222222,3.6492999999970195],[0.6839583333333332,0.14166666666666666,3.6770999999977647],[0.6839583333333332,0.14166666666666666,3.683799999997021],[0.6714583333333333,0.052407407407407326,3.708599999997766],[0.6714583333333333,0.052407407407407326,3.715299999997022],[0.658125,0.016111111111111194,3.7438999999985114],[0.658125,0.016111111111111194,3.7505000000000024],[0.6240624999999999,-0.04203703703703712,3.775299999997017],[0.6240624999999999,-0.04203703703703712,3.781899999998508],[0.6308333333333332,-0.03685185185185181,3.8108999999985116],[0.6308333333333332,-0.03685185185185181,3.817999999999998],[0.5976041666666667,-0.03425925925925926,3.842099999997764],[0.5976041666666667,-0.03425925925925926,3.8488999999985083],[0.5441666666666668,-0.014259259259259343,3.8770000000000024],[0.5441666666666668,-0.014259259259259343,3.8848999999985097],[0.4901041666666667,0.002962962962963005,3.9084999999999965],[0.4901041666666667,0.002962962962963005,3.916099999997762],[0.4228125000000001,-0.014629629629629588,3.9435000000000002],[0.4228125000000001,-0.014629629629629588,3.9506999999992516],[0.3771874999999999,-0.0485185185185186,3.975199999999255],[0.3771874999999999,-0.0485185185185186,3.9817999999970226],[0.34437499999999993,-0.075,4.0075],[0.34437499999999993,-0.075,4.01439999999851],[0.34437499999999993,-0.075,4.025599999997766],[0.34437499999999993,-0.075,4.0423999999985085],[0.30343749999999997,-0.04759259259259268,4.073999999999998],[0.30343749999999997,-0.04759259259259268,4.081099999997761],[0.2752083333333334,-0.03222222222222218,4.107299999997018],[0.2752083333333334,-0.03222222222222218,4.114399999998511],[0.23552083333333323,-0.024814814814814772,4.143500000000003],[0.23552083333333323,-0.024814814814814772,4.149699999999257],[0.2146874999999999,-0.03092592592592601,4.175299999997023],[0.2146874999999999,-0.03092592592592601,4.182000000000002],[0.20322916666666657,-0.03777777777777774,4.208599999997766],[0.20322916666666657,-0.03777777777777774,4.21539999999851],[0.19572916666666676,-0.06259259259259262,4.240699999999258],[0.19572916666666676,-0.06259259259259262,4.248199999999258],[0.18708333333333324,-0.09740740740740746,4.279299999997022],[0.18708333333333324,-0.09740740740740746,4.2871999999992525],[0.1883333333333333,-0.0868518518518518,4.310899999998512],[0.1883333333333333,-0.0868518518518518,4.318099999997763],[0.18697916666666667,-0.08777777777777773,4.343299999997022],[0.18697916666666667,-0.08777777777777773,4.350699999999257],[0.19031250000000005,-0.10833333333333334,4.3765],[0.19031250000000005,-0.10833333333333334,4.3855999999977655],[0.19072916666666656,-0.13629629629629633,4.411799999997022],[0.19072916666666656,-0.13629629629629633,4.4191999999992575],[0.1765625,-0.14740740740740746,4.445199999999254],[0.1765625,-0.14740740740740746,4.458599999997766],[0.15833333333333333,-0.14777777777777779,4.478499999999997],[0.15833333333333333,-0.14777777777777779,4.485899999998509],[0.1209374999999999,-0.127962962962963,4.514199999999256],[0.1209374999999999,-0.127962962962963,4.521500000000003],[0.11072916666666661,-0.16166666666666668,4.545599999997762],[0.11072916666666661,-0.16166666666666668,4.553099999997762],[0.11812500000000009,-0.18499999999999997,4.580599999997766],[0.11812500000000009,-0.18499999999999997,4.588099999997766],[0.11760416666666676,-0.19944444444444442,4.611199999999258],[0.11760416666666676,-0.19944444444444442,4.618199999999256],[0.13562500000000005,-0.22407407407407406,4.646099999997766],[0.13562500000000005,-0.22407407407407406,4.6540999999977615],[0.1538541666666667,-0.2581481481481481,4.6758999999985065],[0.1538541666666667,-0.2581481481481481,4.682499999999997],[0.1538541666666667,-0.2581481481481481,4.692500000000003],[0.1538541666666667,-0.2581481481481481,4.709000000000003],[0.1538541666666667,-0.2581481481481481,4.725699999999257],[0.1538541666666667,-0.2581481481481481,4.742299999997023],[0.14177083333333323,-0.29814814814814816,4.774000000000001],[0.14177083333333323,-0.29814814814814816,4.781399999998513],[0.13583333333333342,-0.3272222222222222,4.810299999997021],[0.13583333333333342,-0.3272222222222222,4.817599999997768],[0.17135416666666667,-0.3557407407407408,4.842399999998513],[0.17135416666666667,-0.3557407407407408,4.84879999999702],[0.21624999999999991,-0.40907407407407403,4.873899999998507],[0.21624999999999991,-0.40907407407407403,4.881099999997765],[0.27010416666666665,-0.4762962962962963,4.907299999997022],[0.27010416666666665,-0.4762962962962963,4.914399999998508],[0.28145833333333337,-0.4933333333333333,4.940699999999254],[0.28145833333333337,-0.4933333333333333,4.947499999999998],[0.2607291666666666,-0.5112962962962964,4.973999999999997],[0.2607291666666666,-0.5112962962962964,4.981599999997762],[0.28156249999999994,-0.5409259259259259,5.009799999997021],[0.28156249999999994,-0.5409259259259259,5.016500000000001],[0.28156249999999994,-0.5409259259259259,5.023199999999257],[0.28156249999999994,-0.5409259259259259,5.04229999999702],[0.24864583333333337,-0.5551851851851852,5.075499999999998],[0.24864583333333337,-0.5551851851851852,5.082099999997766],[0.1944791666666667,-0.5464814814814816,5.107299999997018],[0.1944791666666667,-0.5464814814814816,5.114799999997018],[0.17625000000000005,-0.5231481481481481,5.142299999997022],[0.17625000000000005,-0.5231481481481481,5.148799999997017],[0.17999999999999997,-0.5164814814814814,5.175399999998511],[0.17999999999999997,-0.5164814814814814,5.182099999997767],[0.13927083333333337,-0.5355555555555556,5.208799999997019],[0.13927083333333337,-0.5355555555555556,5.215099999997761],[0.11697916666666662,-0.5364814814814814,5.240699999999258],[0.11697916666666662,-0.5364814814814814,5.247699999999256],[0.09833333333333343,-0.5479629629629629,5.274000000000001],[0.09833333333333343,-0.5479629629629629,5.281299999997017],[0.10239583333333328,-0.5718518518518518,5.307199999999256],[0.10239583333333328,-0.5718518518518518,5.314299999997019],[0.10864583333333329,-0.5772222222222222,5.340499999999999],[0.10864583333333329,-0.5772222222222222,5.3485999999977665],[0.13010416666666677,-0.5824074074074074,5.375299999997019],[0.13010416666666677,-0.5824074074074074,5.381799999997021],[0.17114583333333327,-0.6318518518518518,5.407299999997022],[0.17114583333333327,-0.6318518518518518,5.414499999999997],[0.22447916666666667,-0.6268518518518519,5.440599999997765],[0.22447916666666667,-0.6268518518518519,5.447799999997017],[0.21291666666666675,-0.5940740740740741,5.473999999999997],[0.21291666666666675,-0.5940740740740741,5.482099999997764],[0.2078125,-0.6424074074074073,5.508699999999251],[0.2078125,-0.6424074074074073,5.515500000000003],[0.18947916666666675,-0.6027777777777777,5.540599999997767],[0.18947916666666675,-0.6027777777777777,5.548099999997767],[0.18604166666666658,-0.6011111111111112,5.573999999999998],[0.18604166666666658,-0.6011111111111112,5.581299999997022],[0.19322916666666667,-0.5944444444444444,5.607199999999253],[0.19322916666666667,-0.5944444444444444,5.614599999997765],[0.18395833333333325,-0.577962962962963,5.640599999997768],[0.18395833333333325,-0.577962962962963,5.647599999997766],[0.17958333333333343,-0.5372222222222223,5.676699999999258],[0.17958333333333343,-0.5372222222222223,5.684099999997763],[0.16416666666666657,-0.5575925925925926,5.708699999999254]]","[0.00029999999701857405,0.037799999997019995,0.05749999999999744,0.06550000000000011,0.09079999999701727,0.09899999999999665,0.12599999999999767,0.13459999999776784,0.15899999999999892,0.1661999999992574,0.19200000000000017,0.2001999999992563,0.20659999999776346,0.22569999999925727,0.25989999999850966,0.26889999999851,0.2732999999970218,0.2923999999985085,0.3256999999992516,0.33339999999851244,0.35879999999701795,0.36609999999776477,0.3906999999992564,0.399099999997766,0.42549999999999955,0.4328999999985115,0.4572999999970193,0.4649999999999963,0.492299999997023,0.5,0.5065999999977677,0.5257999999970195,0.5589999999999975,0.5673999999985071,0.5920999999977639,0.5990999999977618,0.6255000000000024,0.6330000000000027,0.6573999999985105,0.6648999999985108,0.6905999999977652,0.6980000000000004,0.7239999999999966,0.7327999999970203,0.7573999999985119,0.7652999999970191,0.7905999999977666,0.7997999999970204,0.8256999999992516,0.8331999999992519,0.8586999999992528,0.8663999999985066,0.892099999997761,0.9008999999985079,0.9260000000000019,0.9329999999999998,0.9572999999970193,0.9655999999977638,0.990799999997023,0.9981999999992581,1.024000000000001,1.0316999999992547,1.0587999999970208,1.0660000000000025,1.0920999999977639,1.0996999999992525,1.1255000000000024,1.1325999999977654,1.1588999999985106,1.1664999999999992,1.1732999999970204,1.192399999998507,1.2254999999999967,1.2326999999992552,1.2572999999970165,1.2656999999992564,1.2920000000000016,1.2996999999992553,1.3260000000000005,1.3327999999970217,1.3590000000000018,1.3660999999977648,1.3945000000000007,1.401699999999252,1.4254999999999995,1.432699999999258,1.4609999999999985,1.4680999999977615,1.490799999997023,1.4976999999992557,1.5276999999992569,1.5364999999999966,1.5605999999977627,1.567699999999256,1.5947999999970222,1.6027999999970177,1.6255000000000024,1.6336999999992514,1.6613999999985083,1.6696999999992528,1.692399999998507,1.7001999999992563,1.7277999999970177,1.7350999999977645,1.7590999999977655,1.7665999999977657,1.794099999997762,1.8007999999970181,1.8255999999977632,1.8330999999977635,1.8612999999970228,1.868399999998509,1.8940999999977635,1.9013999999985103,1.930899999998509,1.9391999999992535,1.9616999999992544,1.9684999999999988,1.9971999999992534,2.005199999999256,2.026799999997017,2.0345000000000013,2.0638999999985117,2.070999999999998,2.0942999999970198,2.1015999999977666,2.135799999997019,2.1600999999977617,2.1739999999999995,2.194599999997763,2.2105000000000032,2.217199999999252,2.247899999998509,2.2545999999977653,2.277699999999257,2.2872999999970176,2.310699999999258,2.317399999998507,2.343199999999257,2.3503999999985083,2.3777999999970163,2.3843999999985073,2.40979999999702,2.4166999999992527,2.4431999999992513,2.4501999999992563,2.4565999999977635,2.4757999999970224,2.511499999999998,2.51889999999851,2.5420000000000016,2.548799999997023,2.5782999999970215,2.5882999999970195,2.6090000000000018,2.615699999999258,2.6436999999992565,2.6499999999999986,2.6751999999992577,2.6817999999970183,2.7106999999992567,2.7177999999970197,2.7423999999985114,2.750099999997765,2.7774999999999963,2.7846999999992548,2.808799999997021,2.8153999999985118,2.8441999999992547,2.8518999999985084,2.8755000000000024,2.882399999998512,2.9107999999970176,2.91729999999702,2.9231999999992553,2.942399999998507,2.979399999998506,2.986299999997023,3.008899999998512,3.0153999999985075,3.043299999997018,3.049999999999997,3.075499999999998,3.083599999997766,3.110500000000002,3.1178999999985066,3.142000000000003,3.1485999999977636,3.175299999997023,3.1818999999985067,3.2073999999985077,3.214899999998508,3.2419999999999973,3.2485,3.274000000000001,3.281500000000001,3.3085999999977673,3.315199999999251,3.340599999997764,3.3477999999970223,3.3763999999985117,3.383199999999256,3.408999999999999,3.4155000000000015,3.4406999999992536,3.448999999999998,3.4768999999985084,3.4831999999992576,3.5075000000000003,3.51439999999851,3.5430999999977644,3.5515999999977623,3.5751999999992563,3.5818999999985124,3.6106999999992553,3.617299999997023,3.642099999997761,3.6492999999970195,3.6770999999977647,3.683799999997021,3.708599999997766,3.715299999997022,3.7438999999985114,3.7505000000000024,3.775299999997017,3.781899999998508,3.8108999999985116,3.817999999999998,3.842099999997764,3.8488999999985083,3.8770000000000024,3.8848999999985097,3.9084999999999965,3.916099999997762,3.9435000000000002,3.9506999999992516,3.975199999999255,3.9817999999970226,4.0075,4.01439999999851,4.025599999997766,4.0423999999985085,4.073999999999998,4.081099999997761,4.107299999997018,4.114399999998511,4.143500000000003,4.149699999999257,4.175299999997023,4.182000000000002,4.208599999997766,4.21539999999851,4.240699999999258,4.248199999999258,4.279299999997022,4.2871999999992525,4.310899999998512,4.318099999997763,4.343299999997022,4.350699999999257,4.3765,4.3855999999977655,4.411799999997022,4.4191999999992575,4.445199999999254,4.458599999997766,4.478499999999997,4.485899999998509,4.514199999999256,4.521500000000003,4.545599999997762,4.553099999997762,4.580599999997766,4.588099999997766,4.611199999999258,4.618199999999256,4.646099999997766,4.6540999999977615,4.6758999999985065,4.682499999999997,4.692500000000003,4.709000000000003,4.725699999999257,4.742299999997023,4.774000000000001,4.781399999998513,4.810299999997021,4.817599999997768,4.842399999998513,4.84879999999702,4.873899999998507,4.881099999997765,4.907299999997022,4.914399999998508,4.940699999999254,4.947499999999998,4.973999999999997,4.981599999997762,5.009799999997021,5.016500000000001,5.023199999999257,5.04229999999702,5.075499999999998,5.082099999997766,5.107299999997018,5.114799999997018,5.142299999997022,5.148799999997017,5.175399999998511,5.182099999997767,5.208799999997019,5.215099999997761,5.240699999999258,5.247699999999256,5.274000000000001,5.281299999997017,5.307199999999256,5.314299999997019,5.340499999999999,5.3485999999977665,5.375299999997019,5.381799999997021,5.407299999997022,5.414499999999997,5.440599999997765,5.447799999997017,5.473999999999997,5.482099999997764,5.508699999999251,5.515500000000003,5.540599999997767,5.548099999997767,5.573999999999998,5.581299999997022,5.607199999999253,5.614599999997765,5.640599999997768,5.647599999997766,5.676699999999258,5.684099999997763,5.708699999999254]","[1733137668454,1733137668484,1733137668504,1733137668512,1733137668537,1733137668546,1733137668573,1733137668581,1733137668606,1733137668613,1733137668639,1733137668647,1733137668653,1733137668672,1733137668706,1733137668715,1733137668720,1733137668739,1733137668772,1733137668780,1733137668805,1733137668813,1733137668837,1733137668846,1733137668872,1733137668879,1733137668904,1733137668912,1733137668939,1733137668947,1733137668953,1733137668972,1733137669006,1733137669014,1733137669039,1733137669046,1733137669072,1733137669080,1733137669104,1733137669111,1733137669137,1733137669145,1733137669171,1733137669179,1733137669204,1733137669212,1733137669237,1733137669246,1733137669272,1733137669280,1733137669305,1733137669313,1733137669339,1733137669347,1733137669373,1733137669380,1733137669404,1733137669412,1733137669437,1733137669445,1733137669471,1733137669478,1733137669505,1733137669513,1733137669539,1733137669546,1733137669572,1733137669579,1733137669605,1733137669613,1733137669620,1733137669639,1733137669672,1733137669679,1733137669704,1733137669712,1733137669739,1733137669746,1733137669773,1733137669779,1733137669806,1733137669813,1733137669841,1733137669848,1733137669872,1733137669879,1733137669908,1733137669915,1733137669937,1733137669944,1733137669974,1733137669983,1733137670007,1733137670014,1733137670041,1733137670049,1733137670072,1733137670080,1733137670108,1733137670116,1733137670139,1733137670147,1733137670174,1733137670182,1733137670206,1733137670213,1733137670241,1733137670247,1733137670272,1733137670280,1733137670308,1733137670315,1733137670341,1733137670348,1733137670377,1733137670386,1733137670408,1733137670415,1733137670444,1733137670452,1733137670473,1733137670481,1733137670510,1733137670518,1733137670541,1733137670548,1733137670582,1733137670607,1733137670621,1733137670641,1733137670657,1733137670664,1733137670694,1733137670701,1733137670724,1733137670734,1733137670757,1733137670764,1733137670790,1733137670797,1733137670824,1733137670831,1733137670856,1733137670863,1733137670890,1733137670897,1733137670903,1733137670922,1733137670958,1733137670965,1733137670989,1733137670995,1733137671025,1733137671035,1733137671056,1733137671062,1733137671090,1733137671097,1733137671122,1733137671128,1733137671157,1733137671164,1733137671189,1733137671197,1733137671224,1733137671231,1733137671255,1733137671262,1733137671291,1733137671298,1733137671322,1733137671329,1733137671357,1733137671364,1733137671370,1733137671389,1733137671426,1733137671433,1733137671455,1733137671462,1733137671490,1733137671497,1733137671522,1733137671530,1733137671557,1733137671564,1733137671589,1733137671595,1733137671622,1733137671629,1733137671654,1733137671661,1733137671689,1733137671695,1733137671721,1733137671728,1733137671755,1733137671762,1733137671787,1733137671794,1733137671823,1733137671830,1733137671856,1733137671862,1733137671887,1733137671896,1733137671923,1733137671930,1733137671954,1733137671961,1733137671990,1733137671998,1733137672022,1733137672028,1733137672057,1733137672064,1733137672089,1733137672096,1733137672124,1733137672130,1733137672155,1733137672162,1733137672190,1733137672197,1733137672226,1733137672232,1733137672261,1733137672268,1733137672292,1733137672299,1733137672327,1733137672335,1733137672359,1733137672366,1733137672394,1733137672401,1733137672426,1733137672432,1733137672458,1733137672465,1733137672476,1733137672493,1733137672524,1733137672531,1733137672558,1733137672565,1733137672594,1733137672600,1733137672626,1733137672632,1733137672659,1733137672666,1733137672691,1733137672699,1733137672730,1733137672738,1733137672761,1733137672768,1733137672794,1733137672801,1733137672827,1733137672836,1733137672862,1733137672869,1733137672896,1733137672909,1733137672929,1733137672936,1733137672964,1733137672972,1733137672996,1733137673003,1733137673031,1733137673038,1733137673061,1733137673069,1733137673096,1733137673104,1733137673126,1733137673133,1733137673143,1733137673159,1733137673176,1733137673193,1733137673224,1733137673232,1733137673261,1733137673268,1733137673293,1733137673299,1733137673324,1733137673331,1733137673358,1733137673365,1733137673391,1733137673398,1733137673424,1733137673432,1733137673460,1733137673467,1733137673473,1733137673493,1733137673526,1733137673532,1733137673558,1733137673565,1733137673593,1733137673599,1733137673626,1733137673632,1733137673659,1733137673665,1733137673691,1733137673698,1733137673724,1733137673732,1733137673757,1733137673765,1733137673791,1733137673799,1733137673826,1733137673832,1733137673858,1733137673865,1733137673891,1733137673898,1733137673924,1733137673932,1733137673959,1733137673966,1733137673991,1733137673998,1733137674024,1733137674032,1733137674057,1733137674065,1733137674091,1733137674098,1733137674127,1733137674134,1733137674159]","[[825.9,738.3],[825.9,738.3],[859.9,713.1],[859.9,713.1],[893.9,699.3],[893.9,699.3],[926,667.4],[926,667.4],[946,611.6],[946,611.6],[969.3,573.6],[969.3,573.6],[969.3,573.6],[969.3,573.6],[1003.8,546.4],[1003.8,546.4],[1003.8,546.4],[1003.8,546.4],[1001.1,520.2],[1001.1,520.2],[1043.3,506.6],[1043.3,506.6],[1033,491.7],[1033,491.7],[1045.8,446.7],[1045.8,446.7],[1043.8,402.6],[1043.8,402.6],[1049.3,351.1],[1049.3,351.1],[1049.3,351.1],[1049.3,351.1],[1076.7,322.2],[1076.7,322.2],[1073.2,314.6],[1073.2,314.6],[1085.7,283.5],[1085.7,283.5],[1081.8,253.5],[1081.8,253.5],[1038.2,235.6],[1038.2,235.6],[978.8,199.3],[978.8,199.3],[936.2,217.2],[936.2,217.2],[879.2,257.2],[879.2,257.2],[826.7,332.9],[826.7,332.9],[748.4,423],[748.4,423],[697.1,494.1],[697.1,494.1],[686.3,520.8],[686.3,520.8],[641.9,541.4],[641.9,541.4],[560.8,591.5],[560.8,591.5],[578.1,629.2],[578.1,629.2],[582,683.4],[582,683.4],[608.7,676.7],[608.7,676.7],[627.9,636.1],[627.9,636.1],[670.8,580.7],[670.8,580.7],[670.8,580.7],[670.8,580.7],[765.7,521.1],[765.7,521.1],[819.9,462.4],[819.9,462.4],[841.8,475.3],[841.8,475.3],[897.7,476.5],[897.7,476.5],[971.8,454.3],[971.8,454.3],[1043.7,440.7],[1043.7,440.7],[1061.4,462.8],[1061.4,462.8],[1089.3,475.1],[1089.3,475.1],[1099.5,494.3],[1099.5,494.3],[1082.1,514.8],[1082.1,514.8],[1055.3,528],[1055.3,528],[1009.7,566.8],[1009.7,566.8],[974.2,585.7],[974.2,585.7],[917.2,624.4],[917.2,624.4],[875.6,670.1],[875.6,670.1],[818.8,712],[818.8,712],[783.7,717.1],[783.7,717.1],[696.8,732.8],[696.8,732.8],[679.5,756.8],[679.5,756.8],[685.9,791.1],[685.9,791.1],[643.8,812.3],[643.8,812.3],[634.9,827.9],[634.9,827.9],[608.6,835.3],[608.6,835.3],[605,825.5],[605,825.5],[611.9,831.4],[611.9,831.4],[597.9,851.5],[597.9,851.5],[610.1,853.8],[610.1,853.8],[659.9,860.8],[659.9,860.8],[685.7,841.5],[685.7,841.5],[686.8,816.4],[686.8,816.4],[669.3,806.3],[669.3,806.3],[666.6,776],[666.6,776],[667.1,772.2],[667.1,772.2],[669.4,779.7],[669.4,779.7],[675.8,744.7],[675.8,744.7],[696.4,725.4],[696.4,725.4],[700.8,704.1],[700.8,704.1],[700.8,704.1],[700.8,704.1],[695.2,677.9],[695.2,677.9],[697.4,666.8],[697.4,666.8],[745.6,671.8],[745.6,671.8],[778.4,659.2],[778.4,659.2],[787.8,644.9],[787.8,644.9],[810.5,652.3],[810.5,652.3],[840.3,663],[840.3,663],[867.1,660],[867.1,660],[861.1,644.1],[861.1,644.1],[886,633],[886,633],[922,640.6],[922,640.6],[946.5,643.7],[946.5,643.7],[935.7,613.3],[935.7,613.3],[935.7,613.3],[935.7,613.3],[973.4,627.3],[973.4,627.3],[1036.4,610.6],[1036.4,610.6],[1061.1,580.2],[1061.1,580.2],[1091.8,578.6],[1091.8,578.6],[1117.4,561.2],[1117.4,561.2],[1172.7,587.6],[1172.7,587.6],[1249.7,596.3],[1249.7,596.3],[1311.6,585.7],[1311.6,585.7],[1398.8,606.2],[1398.8,606.2],[1422.8,680.6],[1422.8,680.6],[1443.5,688.1],[1443.5,688.1],[1444,741.9],[1444,741.9],[1505,768.1],[1505,768.1],[1528.8,753.5],[1528.8,753.5],[1576.5,790.2],[1576.5,790.2],[1577.8,750.3],[1577.8,750.3],[1569.4,738.9],[1569.4,738.9],[1584.9,725],[1584.9,725],[1553.8,700.4],[1553.8,700.4],[1584.2,639],[1584.2,639],[1604.7,633],[1604.7,633],[1616.6,616.5],[1616.6,616.5],[1604.6,568.3],[1604.6,568.3],[1591.8,548.7],[1591.8,548.7],[1559.1,517.3],[1559.1,517.3],[1565.6,520.1],[1565.6,520.1],[1533.7,521.5],[1533.7,521.5],[1482.4,532.3],[1482.4,532.3],[1430.5,541.6],[1430.5,541.6],[1365.9,532.1],[1365.9,532.1],[1322.1,513.8],[1322.1,513.8],[1290.6,499.5],[1290.6,499.5],[1290.6,499.5],[1290.6,499.5],[1251.3,514.3],[1251.3,514.3],[1224.2,522.6],[1224.2,522.6],[1186.1,526.6],[1186.1,526.6],[1166.1,523.3],[1166.1,523.3],[1155.1,519.6],[1155.1,519.6],[1147.9,506.2],[1147.9,506.2],[1139.6,487.4],[1139.6,487.4],[1140.8,493.1],[1140.8,493.1],[1139.5,492.6],[1139.5,492.6],[1142.7,481.5],[1142.7,481.5],[1143.1,466.4],[1143.1,466.4],[1129.5,460.4],[1129.5,460.4],[1112,460.2],[1112,460.2],[1076.1,470.9],[1076.1,470.9],[1066.3,452.7],[1066.3,452.7],[1073.4,440.1],[1073.4,440.1],[1072.9,432.3],[1072.9,432.3],[1090.2,419],[1090.2,419],[1107.7,400.6],[1107.7,400.6],[1107.7,400.6],[1107.7,400.6],[1107.7,400.6],[1107.7,400.6],[1096.1,379],[1096.1,379],[1090.4,363.3],[1090.4,363.3],[1124.5,347.9],[1124.5,347.9],[1167.6,319.1],[1167.6,319.1],[1219.3,282.8],[1219.3,282.8],[1230.2,273.6],[1230.2,273.6],[1210.3,263.9],[1210.3,263.9],[1230.3,247.9],[1230.3,247.9],[1230.3,247.9],[1230.3,247.9],[1198.7,240.2],[1198.7,240.2],[1146.7,244.9],[1146.7,244.9],[1129.2,257.5],[1129.2,257.5],[1132.8,261.1],[1132.8,261.1],[1093.7,250.8],[1093.7,250.8],[1072.3,250.3],[1072.3,250.3],[1054.4,244.1],[1054.4,244.1],[1058.3,231.2],[1058.3,231.2],[1064.3,228.3],[1064.3,228.3],[1084.9,225.5],[1084.9,225.5],[1124.3,198.8],[1124.3,198.8],[1175.5,201.5],[1175.5,201.5],[1164.4,219.2],[1164.4,219.2],[1159.5,193.1],[1159.5,193.1],[1141.9,214.5],[1141.9,214.5],[1138.6,215.4],[1138.6,215.4],[1145.5,219],[1145.5,219],[1136.6,227.9],[1136.6,227.9],[1132.4,249.9],[1132.4,249.9],[1117.6,238.9]]","[0,0.5333]","[0.5333,0.5333]","[-0.5333,0]","[-0.5333,-0.5333]","[0,0]","[0.5333,0]","[0,-0.5333]","[0.5333,-0.5333]",0,0,0,0,1,3,Monitor,11,9,9,1
