inst1_resp.keys,inst1_resp.rt,calibrationMouse.x,calibrationMouse.y,calibrationMouse.leftButton,calibrationMouse.midButton,calibrationMouse.rightButton,calibrationClick.x,calibrationClick.y,calibrationClick.leftButton,calibrationClick.midButton,calibrationClick.rightButton,calibrationClick.clicked_name,trialsc.thisRepN,trialsc.thisTrialN,trialsc.thisN,trialsc.thisIndex,trialsc.ran,calibration_x,calibration_y,participant,session,date,expName,psychopyVersion,OS,frameRate,ScreenRes_pixels,Camera_pixels,mouse_2.x,mouse_2.y,mouse_2.leftButton,mouse_2.midButton,mouse_2.rightButton,mouse_2.time,mouse_2.clicked_name,mouse.x,mouse.y,mouse.leftButton,mouse.midButton,mouse.rightButton,mouse.time,mouse.clicked_name,Choice,Trial,TrialDuration,MOUSE_GAZE,ET_GAZE,ET_GAZE_x_T,time,unixTime,ET_GAZE_NF,Loc_Option1_label,Loc_Option2_label,Loc_Cost_label,Loc_Qual_label,Loc_Option1_cost,Loc_Option2_cost,Loc_Option1_quality,Loc_Option2_quality,trials.thisRepN,trials.thisTrialN,trials.thisN,trials.thisIndex,trials.ran,Block,Device,cost1,qual1,cost2,qual2
space,2.6166,0.053125,-0.301851852,1,0,0,0.338541667,-0.67037037,1,0,0,calibration_square,0,0,0,14,1,0.33,-0.67,09,001,2024-12-02_17h19.30.910,Attention_exp_legacy,2023.1.0,Win32,59.88023952,,,,,,,,,,,,,,,,,,,,,,,,,,,,,,,,,,,,,,,,,,,,
,,,,,,,0.325,-0.009259259,1,0,0,calibration_square,0,1,1,16,1,0.33,0,09,001,2024-12-02_17h19.30.910,Attention_exp_legacy,2023.1.0,Win32,59.88023952,,,,,,,,,,,,,,,,,,,,,,,,,,,,,,,,,,,,,,,,,,,,
,,,,,,,-0.329166667,-0.674074074,1,0,0,calibration_square,0,2,2,4,1,-0.33,-0.67,09,001,2024-12-02_17h19.30.910,Attention_exp_legacy,2023.1.0,Win32,59.88023952,,,,,,,,,,,,,,,,,,,,,,,,,,,,,,,,,,,,,,,,,,,,
,,,,,,,-0.68125,-0.337037037,1,0,0,,0,3,3,1,1,-0.67,-0.33,09,001,2024-12-02_17h19.30.910,Attention_exp_legacy,2023.1.0,Win32,59.88023952,,,,,,,,,,,,,,,,,,,,,,,,,,,,,,,,,,,,,,,,,,,,
,,,,,,,0.661458333,0.67962963,1,0,0,calibration_square,0,4,4,19,1,0.67,0.67,09,001,2024-12-02_17h19.30.910,Attention_exp_legacy,2023.1.0,Win32,59.88023952,,,,,,,,,,,,,,,,,,,,,,,,,,,,,,,,,,,,,,,,,,,,
,,,,,,,-0.680208333,0.333333333,1,0,0,,0,5,5,3,1,-0.67,0.33,09,001,2024-12-02_17h19.30.910,Attention_exp_legacy,2023.1.0,Win32,59.88023952,,,,,,,,,,,,,,,,,,,,,,,,,,,,,,,,,,,,,,,,,,,,
,,,,,,,0.004166667,0.009259259,1,0,0,calibration_square,0,6,6,11,1,0,0,09,001,2024-12-02_17h19.30.910,Attention_exp_legacy,2023.1.0,Win32,59.88023952,,,,,,,,,,,,,,,,,,,,,,,,,,,,,,,,,,,,,,,,,,,,
,,,,,,,-0.005208333,0.668518519,1,0,0,calibration_square,0,7,7,13,1,0,0.67,09,001,2024-12-02_17h19.30.910,Attention_exp_legacy,2023.1.0,Win32,59.88023952,,,,,,,,,,,,,,,,,,,,,,,,,,,,,,,,,,,,,,,,,,,,
,,,,,,,-0.001041667,-0.688888889,1,0,0,,0,8,8,9,1,0,-0.67,09,001,2024-12-02_17h19.30.910,Attention_exp_legacy,2023.1.0,Win32,59.88023952,,,,,,,,,,,,,,,,,,,,,,,,,,,,,,,,,,,,,,,,,,,,
,,,,,,,-0.663541667,-0.005555556,1,0,0,calibration_square,0,9,9,2,1,-0.67,0,09,001,2024-12-02_17h19.30.910,Attention_exp_legacy,2023.1.0,Win32,59.88023952,,,,,,,,,,,,,,,,,,,,,,,,,,,,,,,,,,,,,,,,,,,,
,,,,,,,-0.336458333,0.67962963,1,0,0,calibration_square,0,10,10,8,1,-0.33,0.67,09,001,2024-12-02_17h19.30.910,Attention_exp_legacy,2023.1.0,Win32,59.88023952,,,,,,,,,,,,,,,,,,,,,,,,,,,,,,,,,,,,,,,,,,,,
,,,,,,,0.3375,-0.331481481,1,0,0,calibration_square,0,11,11,15,1,0.33,-0.33,09,001,2024-12-02_17h19.30.910,Attention_exp_legacy,2023.1.0,Win32,59.88023952,,,,,,,,,,,,,,,,,,,,,,,,,,,,,,,,,,,,,,,,,,,,
,,,,,,,-0.334375,0.005555556,1,0,0,calibration_square,0,12,12,6,1,-0.33,0,09,001,2024-12-02_17h19.30.910,Attention_exp_legacy,2023.1.0,Win32,59.88023952,,,,,,,,,,,,,,,,,,,,,,,,,,,,,,,,,,,,,,,,,,,,
,,,,,,,0.33125,0.333333333,1,0,0,calibration_square,0,13,13,17,1,0.33,0.33,09,001,2024-12-02_17h19.30.910,Attention_exp_legacy,2023.1.0,Win32,59.88023952,,,,,,,,,,,,,,,,,,,,,,,,,,,,,,,,,,,,,,,,,,,,
,,,,,,,0.673958333,-0.65,1,0,0,,0,14,14,20,1,0.67,-0.67,09,001,2024-12-02_17h19.30.910,Attention_exp_legacy,2023.1.0,Win32,59.88023952,,,,,,,,,,,,,,,,,,,,,,,,,,,,,,,,,,,,,,,,,,,,
,,,,,,,-0.325,-0.331481481,1,0,0,calibration_square,0,15,15,5,1,-0.33,-0.33,09,001,2024-12-02_17h19.30.910,Attention_exp_legacy,2023.1.0,Win32,59.88023952,,,,,,,,,,,,,,,,,,,,,,,,,,,,,,,,,,,,,,,,,,,,
,,,,,,,-0.326041667,0.324074074,1,0,0,calibration_square,0,16,16,7,1,-0.33,0.33,09,001,2024-12-02_17h19.30.910,Attention_exp_legacy,2023.1.0,Win32,59.88023952,,,,,,,,,,,,,,,,,,,,,,,,,,,,,,,,,,,,,,,,,,,,
,,,,,,,0.004166667,0.340740741,1,0,0,,0,17,17,12,1,0,0.33,09,001,2024-12-02_17h19.30.910,Attention_exp_legacy,2023.1.0,Win32,59.88023952,,,,,,,,,,,,,,,,,,,,,,,,,,,,,,,,,,,,,,,,,,,,
,,,,,,,-0.665625,-0.668518519,1,0,0,calibration_square,0,18,18,0,1,-0.67,-0.67,09,001,2024-12-02_17h19.30.910,Attention_exp_legacy,2023.1.0,Win32,59.88023952,,,,,,,,,,,,,,,,,,,,,,,,,,,,,,,,,,,,,,,,,,,,
,,,,,,,0.004166667,-0.331481481,1,0,0,calibration_square,0,19,19,10,1,0,-0.33,09,001,2024-12-02_17h19.30.910,Attention_exp_legacy,2023.1.0,Win32,59.88023952,,,,,,,,,,,,,,,,,,,,,,,,,,,,,,,,,,,,,,,,,,,,
,,,,,,,0.322916667,0.668518519,1,0,0,calibration_square,0,20,20,18,1,0.33,0.67,09,001,2024-12-02_17h19.30.910,Attention_exp_legacy,2023.1.0,Win32,59.88023952,,,,,,,,,,,,,,,,,,,,,,,,,,,,,,,,,,,,,,,,,,,,
,,,,,,,,,,,,,,,,,,,,09,001,2024-12-02_17h19.30.910,Attention_exp_legacy,2023.1.0,Win32,59.88023952,"[1920,1080]","[640,480]","[0.396875,0.019791666666666666]","[0.7574074074074074,-0.4888888888888889]","[1,1]","[0,0]","[0,0]","[35.688199999999256,45.530199999999255]","[""StartButton""]",[0.035416666666666666],[0.387037037037037],[1],[0],[0],[5.67160000000149],"[""Option1_label""]",Option1_label,1,6.6786,"[[0.228125,0.022222222222222223],[0.228125,0.022222222222222223],[0.228125,0.022222222222222223],[0.228125,0.022222222222222223],[0.228125,0.022222222222222223],[0.228125,0.022222222222222223],[0.228125,0.022222222222222223],[0.228125,0.022222222222222223],[0.228125,0.022222222222222223],[0.228125,0.022222222222222223],[0.228125,0.022222222222222223],[0.228125,0.022222222222222223],[0.228125,0.022222222222222223],[0.228125,0.022222222222222223],[0.228125,0.022222222222222223],[0.228125,0.022222222222222223],[0.228125,0.022222222222222223],[0.228125,0.022222222222222223],[0.228125,0.022222222222222223],[0.228125,0.022222222222222223],[0.228125,0.022222222222222223],[0.228125,0.022222222222222223],[0.228125,0.022222222222222223],[0.228125,0.022222222222222223],[0.228125,0.022222222222222223],[0.228125,0.022222222222222223],[0.228125,0.022222222222222223],[0.228125,0.022222222222222223],[0.228125,0.022222222222222223],[0.228125,0.022222222222222223],[0.228125,0.022222222222222223],[0.228125,0.022222222222222223],[0.228125,0.022222222222222223],[0.228125,0.022222222222222223],[0.228125,0.022222222222222223],[0.228125,0.022222222222222223],[0.228125,0.022222222222222223],[0.228125,0.022222222222222223],[0.228125,0.022222222222222223],[0.228125,0.022222222222222223],[0.228125,0.022222222222222223],[0.228125,0.022222222222222223],[0.228125,0.022222222222222223],[0.228125,0.022222222222222223],[0.228125,0.022222222222222223],[0.228125,0.022222222222222223],[0.228125,0.022222222222222223],[0.228125,0.022222222222222223],[0.228125,0.022222222222222223],[0.228125,0.022222222222222223],[0.228125,0.022222222222222223],[0.228125,0.022222222222222223],[0.228125,0.022222222222222223],[0.228125,0.022222222222222223],[0.228125,0.022222222222222223],[0.228125,0.022222222222222223],[0.228125,0.022222222222222223],[0.228125,0.022222222222222223],[0.228125,0.022222222222222223],[0.228125,0.022222222222222223],[0.228125,0.022222222222222223],[0.228125,0.022222222222222223],[0.228125,0.022222222222222223],[0.228125,0.022222222222222223],[0.228125,0.022222222222222223],[0.228125,0.022222222222222223],[0.228125,0.022222222222222223],[0.228125,0.022222222222222223],[0.228125,0.022222222222222223],[0.228125,0.022222222222222223],[0.228125,0.022222222222222223],[0.228125,0.022222222222222223],[0.228125,0.022222222222222223],[0.228125,0.022222222222222223],[0.228125,0.022222222222222223],[0.228125,0.022222222222222223],[0.228125,0.022222222222222223],[0.228125,0.022222222222222223],[0.228125,0.022222222222222223],[0.228125,0.022222222222222223],[0.228125,0.022222222222222223],[0.228125,0.022222222222222223],[0.228125,0.022222222222222223],[0.228125,0.022222222222222223],[0.228125,0.022222222222222223],[0.228125,0.022222222222222223],[0.228125,0.022222222222222223],[0.228125,0.022222222222222223],[0.228125,0.022222222222222223],[0.228125,0.022222222222222223],[0.228125,0.022222222222222223],[0.228125,0.022222222222222223],[0.228125,0.022222222222222223],[0.228125,0.022222222222222223],[0.228125,0.022222222222222223],[0.228125,0.022222222222222223],[0.228125,0.022222222222222223],[0.228125,0.022222222222222223],[0.228125,0.022222222222222223],[0.228125,0.022222222222222223],[0.228125,0.022222222222222223],[0.228125,0.022222222222222223],[0.228125,0.022222222222222223],[0.228125,0.022222222222222223],[0.228125,0.022222222222222223],[0.228125,0.022222222222222223],[0.228125,0.022222222222222223],[0.228125,0.022222222222222223],[0.228125,0.022222222222222223],[0.228125,0.022222222222222223],[0.228125,0.022222222222222223],[0.228125,0.022222222222222223],[0.228125,0.022222222222222223],[0.228125,0.022222222222222223],[0.228125,0.022222222222222223],[0.228125,0.022222222222222223],[0.228125,0.022222222222222223],[0.228125,0.022222222222222223],[0.228125,0.022222222222222223],[0.228125,0.022222222222222223],[0.228125,0.022222222222222223],[0.228125,0.022222222222222223],[0.228125,0.022222222222222223],[0.228125,0.022222222222222223],[0.228125,0.022222222222222223],[0.228125,0.022222222222222223],[0.228125,0.022222222222222223],[0.228125,0.022222222222222223],[0.228125,0.022222222222222223],[0.228125,0.022222222222222223],[0.228125,0.022222222222222223],[0.228125,0.022222222222222223],[0.228125,0.022222222222222223],[0.228125,0.022222222222222223],[0.228125,0.022222222222222223],[0.228125,0.022222222222222223],[0.228125,0.022222222222222223],[0.228125,0.022222222222222223],[0.228125,0.022222222222222223],[0.228125,0.022222222222222223],[0.228125,0.022222222222222223],[0.228125,0.022222222222222223],[0.228125,0.022222222222222223],[0.228125,0.022222222222222223],[0.228125,0.022222222222222223],[0.228125,0.022222222222222223],[0.228125,0.022222222222222223],[0.228125,0.022222222222222223],[0.228125,0.022222222222222223],[0.228125,0.022222222222222223],[0.228125,0.022222222222222223],[0.228125,0.022222222222222223],[0.228125,0.022222222222222223],[0.228125,0.022222222222222223],[0.228125,0.022222222222222223],[0.228125,0.022222222222222223],[0.228125,0.022222222222222223],[0.228125,0.022222222222222223],[0.228125,0.022222222222222223],[0.228125,0.022222222222222223],[0.228125,0.022222222222222223],[0.228125,0.022222222222222223],[0.228125,0.022222222222222223],[0.228125,0.022222222222222223],[0.228125,0.022222222222222223],[0.228125,0.022222222222222223],[0.228125,0.022222222222222223],[0.228125,0.022222222222222223],[0.228125,0.022222222222222223],[0.228125,0.022222222222222223],[0.228125,0.022222222222222223],[0.228125,0.022222222222222223],[0.228125,0.03518518518518519],[0.23229166666666667,0.05740740740740741],[0.234375,0.08333333333333333],[0.23541666666666666,0.1037037037037037],[0.23541666666666666,0.12407407407407407],[0.23541666666666666,0.14074074074074075],[0.23541666666666666,0.15925925925925927],[0.23541666666666666,0.18518518518518517],[0.23229166666666667,0.20925925925925926],[0.23020833333333332,0.2222222222222222],[0.228125,0.23333333333333334],[0.22708333333333333,0.23703703703703705],[0.22604166666666667,0.24074074074074073],[0.22604166666666667,0.24074074074074073],[0.22604166666666667,0.24074074074074073],[0.225,0.24259259259259258],[0.225,0.24444444444444444],[0.22395833333333334,0.24444444444444444],[0.22291666666666668,0.24814814814814815],[0.22291666666666668,0.24814814814814815],[0.22291666666666668,0.24814814814814815],[0.22291666666666668,0.24814814814814815],[0.22291666666666668,0.25],[0.22291666666666668,0.25],[0.22291666666666668,0.2518518518518518],[0.22291666666666668,0.25555555555555554],[0.221875,0.25925925925925924],[0.21979166666666666,0.2611111111111111],[0.21875,0.26481481481481484],[0.21666666666666667,0.26666666666666666],[0.215625,0.27037037037037037],[0.21458333333333332,0.2722222222222222],[0.21354166666666666,0.2740740740740741],[0.2125,0.2759259259259259],[0.21041666666666667,0.2796296296296296],[0.20833333333333334,0.2796296296296296],[0.20520833333333333,0.2796296296296296],[0.20416666666666666,0.2814814814814815],[0.20416666666666666,0.2814814814814815],[0.203125,0.2814814814814815],[0.203125,0.2814814814814815],[0.20104166666666667,0.2814814814814815],[0.20104166666666667,0.2814814814814815],[0.20104166666666667,0.2814814814814815],[0.20104166666666667,0.2814814814814815],[0.20104166666666667,0.2814814814814815],[0.20104166666666667,0.2814814814814815],[0.20104166666666667,0.2814814814814815],[0.20104166666666667,0.2814814814814815],[0.20104166666666667,0.2814814814814815],[0.20104166666666667,0.2814814814814815],[0.20104166666666667,0.2814814814814815],[0.20104166666666667,0.2814814814814815],[0.20104166666666667,0.2814814814814815],[0.20104166666666667,0.2814814814814815],[0.20104166666666667,0.2814814814814815],[0.20104166666666667,0.2814814814814815],[0.20104166666666667,0.2814814814814815],[0.20104166666666667,0.2814814814814815],[0.20104166666666667,0.2814814814814815],[0.20104166666666667,0.2814814814814815],[0.20104166666666667,0.2814814814814815],[0.20104166666666667,0.2814814814814815],[0.20104166666666667,0.2814814814814815],[0.20104166666666667,0.2814814814814815],[0.20104166666666667,0.2814814814814815],[0.20104166666666667,0.2814814814814815],[0.20104166666666667,0.2814814814814815],[0.20104166666666667,0.2814814814814815],[0.20104166666666667,0.2814814814814815],[0.20104166666666667,0.2814814814814815],[0.20104166666666667,0.2814814814814815],[0.20104166666666667,0.2814814814814815],[0.20104166666666667,0.2814814814814815],[0.20104166666666667,0.2814814814814815],[0.20104166666666667,0.2814814814814815],[0.20104166666666667,0.2814814814814815],[0.20104166666666667,0.2814814814814815],[0.20104166666666667,0.2814814814814815],[0.20104166666666667,0.2814814814814815],[0.20104166666666667,0.2814814814814815],[0.20104166666666667,0.2814814814814815],[0.20104166666666667,0.2814814814814815],[0.20104166666666667,0.2814814814814815],[0.20104166666666667,0.2814814814814815],[0.20104166666666667,0.2814814814814815],[0.20104166666666667,0.2814814814814815],[0.20104166666666667,0.2814814814814815],[0.20104166666666667,0.2814814814814815],[0.20104166666666667,0.2814814814814815],[0.20104166666666667,0.2814814814814815],[0.20104166666666667,0.2814814814814815],[0.20104166666666667,0.2814814814814815],[0.20104166666666667,0.2814814814814815],[0.20104166666666667,0.2814814814814815],[0.20104166666666667,0.2814814814814815],[0.20104166666666667,0.2814814814814815],[0.20104166666666667,0.2814814814814815],[0.20104166666666667,0.2814814814814815],[0.20104166666666667,0.2814814814814815],[0.20104166666666667,0.2814814814814815],[0.20104166666666667,0.2814814814814815],[0.20104166666666667,0.2814814814814815],[0.20104166666666667,0.2814814814814815],[0.20104166666666667,0.2814814814814815],[0.20104166666666667,0.2814814814814815],[0.20104166666666667,0.2814814814814815],[0.20104166666666667,0.2814814814814815],[0.20104166666666667,0.2814814814814815],[0.20104166666666667,0.2814814814814815],[0.20104166666666667,0.2814814814814815],[0.20104166666666667,0.2814814814814815],[0.20104166666666667,0.2814814814814815],[0.20104166666666667,0.2814814814814815],[0.2,0.2814814814814815],[0.2,0.2814814814814815],[0.19895833333333332,0.2814814814814815],[0.19791666666666666,0.2833333333333333],[0.196875,0.2833333333333333],[0.19583333333333333,0.2833333333333333],[0.19375,0.2851851851851852],[0.18854166666666666,0.28703703703703703],[0.18229166666666666,0.29259259259259257],[0.17604166666666668,0.29444444444444445],[0.16770833333333332,0.30185185185185187],[0.15833333333333333,0.3055555555555556],[0.15,0.30925925925925923],[0.14270833333333333,0.31666666666666665],[0.13854166666666667,0.32222222222222224],[0.13020833333333334,0.32592592592592595],[0.11979166666666667,0.3351851851851852],[0.103125,0.34629629629629627],[0.08854166666666667,0.3574074074074074],[0.07083333333333333,0.36666666666666664],[0.06145833333333333,0.37037037037037035],[0.05520833333333333,0.37407407407407406],[0.05,0.37777777777777777],[0.04791666666666667,0.37777777777777777],[0.04375,0.3814814814814815],[0.041666666666666664,0.38333333333333336],[0.0375,0.3851851851851852],[0.036458333333333336,0.3851851851851852],[0.035416666666666666,0.387037037037037],[0.035416666666666666,0.387037037037037],[0.035416666666666666,0.387037037037037],[0.035416666666666666,0.387037037037037],[0.035416666666666666,0.387037037037037],[0.035416666666666666,0.387037037037037],[0.035416666666666666,0.387037037037037],[0.035416666666666666,0.387037037037037],[0.035416666666666666,0.387037037037037],[0.035416666666666666,0.387037037037037],[0.035416666666666666,0.387037037037037],[0.035416666666666666,0.387037037037037],[0.035416666666666666,0.387037037037037],[0.035416666666666666,0.387037037037037],[0.035416666666666666,0.387037037037037],[0.035416666666666666,0.387037037037037],[0.035416666666666666,0.387037037037037],[0.035416666666666666,0.387037037037037],[0.035416666666666666,0.387037037037037],[0.035416666666666666,0.387037037037037],[0.035416666666666666,0.387037037037037],[0.035416666666666666,0.387037037037037],[0.035416666666666666,0.387037037037037],[0.035416666666666666,0.387037037037037],[0.035416666666666666,0.387037037037037],[0.035416666666666666,0.387037037037037],[0.035416666666666666,0.387037037037037],[0.035416666666666666,0.387037037037037],[0.035416666666666666,0.387037037037037],[0.035416666666666666,0.387037037037037],[0.035416666666666666,0.387037037037037],[0.035416666666666666,0.387037037037037],[0.035416666666666666,0.387037037037037],[0.035416666666666666,0.387037037037037],[0.035416666666666666,0.387037037037037],[0.035416666666666666,0.387037037037037],[0.035416666666666666,0.387037037037037],[0.035416666666666666,0.387037037037037],[0.035416666666666666,0.387037037037037],[0.035416666666666666,0.387037037037037],[0.035416666666666666,0.387037037037037],[0.035416666666666666,0.387037037037037],[0.035416666666666666,0.387037037037037],[0.035416666666666666,0.387037037037037],[0.035416666666666666,0.387037037037037],[0.035416666666666666,0.387037037037037],[0.035416666666666666,0.387037037037037],[0.035416666666666666,0.387037037037037],[0.035416666666666666,0.387037037037037],[0.035416666666666666,0.387037037037037],[0.035416666666666666,0.387037037037037],[0.035416666666666666,0.387037037037037],[0.035416666666666666,0.387037037037037],[0.035416666666666666,0.387037037037037],[0.035416666666666666,0.387037037037037],[0.035416666666666666,0.387037037037037],[0.035416666666666666,0.387037037037037],[0.035416666666666666,0.387037037037037],[0.035416666666666666,0.387037037037037],[0.035416666666666666,0.387037037037037],[0.035416666666666666,0.387037037037037],[0.035416666666666666,0.387037037037037],[0.035416666666666666,0.387037037037037],[0.035416666666666666,0.387037037037037],[0.035416666666666666,0.387037037037037],[0.035416666666666666,0.387037037037037],[0.035416666666666666,0.387037037037037],[0.035416666666666666,0.387037037037037],[0.035416666666666666,0.387037037037037],[0.035416666666666666,0.387037037037037],[0.035416666666666666,0.387037037037037],[0.035416666666666666,0.387037037037037],[0.035416666666666666,0.387037037037037],[0.035416666666666666,0.387037037037037],[0.035416666666666666,0.387037037037037],[0.035416666666666666,0.387037037037037],[0.035416666666666666,0.387037037037037],[0.035416666666666666,0.387037037037037],[0.035416666666666666,0.387037037037037],[0.035416666666666666,0.387037037037037],[0.035416666666666666,0.387037037037037],[0.035416666666666666,0.387037037037037],[0.035416666666666666,0.387037037037037],[0.035416666666666666,0.387037037037037],[0.035416666666666666,0.387037037037037],[0.035416666666666666,0.387037037037037],[0.035416666666666666,0.387037037037037]]","[[1.2632291666666664,-0.1714814814814815],[1.2632291666666664,-0.1714814814814815],[1.2737500000000002,-0.16370370370370366],[1.2856249999999998,-0.1727777777777778],[1.2914583333333336,-0.14444444444444443],[1.286145833333333,-0.175],[1.2832291666666669,-0.22999999999999998],[1.2770833333333333,-0.24759259259259256],[1.2862500000000001,-0.27759259259259256],[1.3178124999999998,-0.2783333333333334],[1.3295833333333333,-0.2874074074074074],[1.3267708333333332,-0.29000000000000004],[1.2829166666666665,-0.2916666666666667],[1.2377083333333332,-0.2764814814814815],[1.2233333333333334,-0.25407407407407406],[1.2114583333333333,-0.18611111111111112],[1.1952083333333334,-0.12537037037037035],[1.2347916666666667,-0.07185185185185188],[1.2583333333333333,-0.0727777777777778],[1.2362500000000003,-0.072037037037037],[1.2282291666666665,-0.07462962962962966],[1.2179166666666665,-0.06462962962962959],[1.2703125,-0.09666666666666665],[1.3227083333333336,-0.1287037037037037],[1.3442708333333333,-0.16796296296296295],[1.3609375,-0.19981481481481478],[1.3807291666666666,-0.24222222222222226],[1.3711458333333335,-0.29388888888888887],[1.3776041666666667,-0.2911111111111111],[1.4121874999999997,-0.3181481481481482],[1.4445833333333336,-0.3218518518518519],[1.4571875,-0.305],[1.4322916666666667,-0.2948148148148148],[1.3772916666666666,-0.24611111111111106],[1.2958333333333334,-0.19129629629629633],[1.300625,-0.1801851851851852],[1.256041666666667,-0.15185185185185185],[1.2069791666666665,-0.12388888888888884],[1.2260416666666667,-0.0787037037037037],[1.2402083333333331,-0.03462962962962971],[1.2402083333333331,-0.03462962962962971],[1.17875,0.034999999999999955],[1.1161458333333334,0.07796296296296301],[1.1333333333333333,0.10981481481481473],[1.0807291666666667,0.09759259259259268],[1.0517708333333333,0.08000000000000008],[0.9735416666666665,0.12851851851851848],[0.9459374999999999,0.17759259259259255],[0.9183333333333332,0.22666666666666663],[0.83875,0.26370370370370366],[0.7660416666666667,0.2824074074074074],[0.7714583333333332,0.2977777777777777],[0.7890625,0.29222222222222216],[0.7059375,0.3162962962962962],[0.7227083333333333,0.34592592592592586],[0.7662499999999999,0.4553703703703703],[0.7777083333333332,0.5349999999999999],[0.8253125,0.557037037037037],[0.8397916666666667,0.5942592592592593],[0.8381249999999999,0.6262962962962964],[0.8881249999999999,0.668148148148148],[0.925,0.6916666666666667],[0.9239583333333333,0.7140740740740741],[0.9538541666666667,0.7359259259259259],[0.9362499999999999,0.7364814814814815],[0.9230208333333333,0.6725925925925926],[0.9230208333333333,0.6725925925925926],[0.8567708333333334,0.5996296296296295],[0.8567708333333334,0.5996296296296295],[0.7503124999999999,0.6124074074074075],[0.7503124999999999,0.6124074074074075],[0.6852083333333333,0.5937037037037037],[0.6852083333333333,0.5937037037037037],[0.5945833333333332,0.594074074074074],[0.5945833333333332,0.594074074074074],[0.440625,0.6025925925925926],[0.440625,0.6025925925925926],[0.35666666666666674,0.5657407407407408],[0.30364583333333334,0.5477777777777777],[0.2703125,0.5401851851851853],[0.28447916666666656,0.553888888888889],[0.2397916666666667,0.5505555555555555],[0.24812500000000004,0.5562962962962963],[0.2548958333333334,0.4925925925925926],[0.21906249999999997,0.4842592592592593],[0.23156249999999995,0.4703703703703704],[0.22270833333333329,0.4714814814814815],[0.17218749999999997,0.5122222222222222],[0.1892708333333334,0.4788888888888889],[0.16520833333333323,0.4631481481481482],[0.15239583333333329,0.4535185185185185],[0.16572916666666657,0.4270370370370371],[0.17552083333333332,0.4137037037037037],[0.19572916666666676,0.44722222222222224],[0.2539583333333333,0.41166666666666657],[0.28937499999999994,0.3625925925925925],[0.35093750000000007,0.29888888888888887],[0.38614583333333335,0.2351851851851852],[0.35125000000000006,0.24981481481481477],[0.3572916666666667,0.23777777777777773],[0.3622916666666666,0.21518518518518526],[0.3622916666666666,0.21518518518518526],[0.36864583333333345,0.19092592592592597],[0.35947916666666657,0.15037037037037046],[0.3519791666666668,0.10574074074074079],[0.3544791666666666,0.0955555555555556],[0.33864583333333326,0.10907407407407403],[0.34260416666666677,0.11018518518518519],[0.328125,0.12314814814814815],[0.31531250000000005,0.11944444444444445],[0.2938541666666666,0.11462962962962958],[0.2743750000000001,0.12666666666666662],[0.2557291666666667,0.172037037037037],[0.23687500000000009,0.20425925925925917],[0.23229166666666667,0.19537037037037036],[0.1984375,0.22518518518518524],[0.20833333333333334,0.1814814814814815],[0.19010416666666666,0.16444444444444437],[0.18072916666666666,0.18425925925925926],[0.19020833333333323,0.2131481481481482],[0.18885416666666663,0.2418518518518519],[0.15750000000000006,0.21444444444444435],[0.12833333333333338,0.17314814814814813],[0.1290625000000001,0.17037037037037037],[0.10052083333333334,0.21999999999999992],[0.07208333333333337,0.22185185185185177],[0.02510416666666669,0.287962962962963],[-0.050625000000000024,0.35407407407407415],[-0.11208333333333335,0.36944444444444446],[-0.1580208333333334,0.3314814814814815],[-0.16958333333333328,0.30537037037037035],[-0.16614583333333333,0.322037037037037],[-0.14197916666666663,0.3218518518518518],[-0.14479166666666668,0.32092592592592584],[-0.09291666666666672,0.29314814814814805],[-0.04093749999999995,0.24981481481481477],[0.07708333333333334,0.1925925925925926],[0.1828125,0.11796296296296305],[0.2849999999999999,0.044999999999999915],[0.37166666666666665,0.025370370370370456],[0.43854166666666666,-0.034074074074074034],[0.4986458333333334,-0.09944444444444442],[0.5830208333333334,-0.1537037037037037],[0.6568749999999999,-0.22907407407407404],[0.6845833333333334,-0.2903703703703704],[0.745,-0.3138888888888889],[0.7411458333333333,-0.34314814814814815],[0.7925,-0.37666666666666665],[0.8473958333333333,-0.4118518518518518],[0.8989583333333333,-0.4757407407407407],[0.9183333333333332,-0.5005555555555555],[0.9558333333333332,-0.5003703703703704],[0.9483333333333335,-0.49444444444444446],[0.9580208333333334,-0.46870370370370373],[0.9686458333333334,-0.4542592592592593],[0.9619791666666667,-0.45740740740740743],[0.9946875000000001,-0.4546296296296296],[1.0215625000000002,-0.4444444444444444],[1.0847916666666668,-0.44370370370370377],[1.1289583333333333,-0.402962962962963],[1.1771874999999998,-0.3774074074074074],[1.2168749999999997,-0.37],[1.2736458333333331,-0.3888888888888889],[1.3638541666666668,-0.40555555555555556],[1.4101041666666665,-0.4053703703703703],[1.4101041666666665,-0.4053703703703703],[1.451354166666667,-0.4125925925925926],[1.448229166666667,-0.4337037037037037],[1.4451041666666669,-0.45481481481481484],[1.4025,-0.4257407407407407],[1.3822916666666667,-0.40796296296296297],[1.4119791666666666,-0.402962962962963],[1.4277083333333331,-0.4014814814814815],[1.4277083333333331,-0.4014814814814815],[1.25375,-0.30925925925925923],[1.0878124999999998,-0.2796296296296296],[0.9564583333333334,-0.25462962962962965],[0.8552083333333333,-0.23444444444444448],[0.7139583333333335,-0.17925925925925928],[0.5727083333333333,-0.12407407407407407],[0.4210416666666667,-0.11666666666666667],[0.3029166666666666,-0.12740740740740744],[0.18718750000000003,-0.09222222222222225],[-0.001145833333333357,-0.07629629629629628],[0.06135416666666664,-0.14962962962962964],[0.09208333333333343,-0.18277777777777776],[0.09208333333333343,-0.18277777777777776],[0.09354166666666662,-0.21703703703703703],[0.09354166666666662,-0.21703703703703703],[0.10395833333333329,-0.21888888888888886],[0.15,-0.24055555555555552],[0.15,-0.24055555555555552],[0.12062499999999995,-0.26666666666666666],[0.12062499999999995,-0.26666666666666666],[0.14770833333333327,-0.2992592592592593],[0.14770833333333327,-0.2992592592592593],[0.1319791666666667,-0.2809259259259259],[0.08208333333333329,-0.3190740740740741],[0.08208333333333329,-0.3190740740740741],[0.12270833333333328,-0.33185185185185184],[0.09739583333333333,-0.2898148148148148],[0.07843749999999995,-0.252962962962963],[0.12374999999999996,-0.2264814814814815],[0.10635416666666657,-0.2146296296296296],[0.10635416666666657,-0.2146296296296296],[0.11020833333333328,-0.19944444444444442],[0.16604166666666675,-0.19222222222222224],[0.20677083333333332,-0.15962962962962962],[0.23270833333333343,-0.19148148148148145],[0.26749999999999996,-0.1881481481481482],[0.30593750000000003,-0.16296296296296298],[0.3320833333333333,-0.16777777777777783],[0.35906250000000006,-0.17388888888888884],[0.35041666666666677,-0.15333333333333335],[0.3445833333333333,-0.14444444444444443],[0.30520833333333336,-0.17407407407407408],[0.29656250000000006,-0.16148148148148145],[0.27489583333333345,-0.18370370370370367],[0.27291666666666664,-0.17314814814814813],[0.2777083333333332,-0.1794444444444444],[0.27489583333333345,-0.2101851851851852],[0.275,-0.21222222222222226],[0.25062499999999993,-0.23018518518518521],[0.22916666666666666,-0.28777777777777774],[0.27291666666666664,-0.31444444444444447],[0.3296875,-0.307962962962963],[0.36385416666666665,-0.327962962962963],[0.3832291666666668,-0.325],[0.36708333333333343,-0.31666666666666665],[0.32708333333333334,-0.2935185185185185],[0.3185416666666666,-0.3085185185185186],[0.30708333333333326,-0.3522222222222222],[0.31791666666666674,-0.3448148148148148],[0.34500000000000003,-0.3127777777777777],[0.31354166666666666,-0.29518518518518516],[0.2820833333333333,-0.27759259259259256],[0.26708333333333345,-0.2722222222222222],[0.2556250000000001,-0.2681481481481482],[0.26447916666666677,-0.27907407407407403],[0.2695833333333333,-0.2837037037037037],[0.24322916666666666,-0.25018518518518523],[0.23093750000000005,-0.20981481481481484],[0.21364583333333323,-0.19814814814814816],[0.2127083333333334,-0.1655555555555555],[0.22729166666666673,-0.14629629629629629],[0.20677083333333332,-0.1514814814814815],[0.1851041666666667,-0.14777777777777779],[0.16395833333333343,-0.11185185185185181],[0.15760416666666663,-0.07018518518518514],[0.1912499999999999,-0.0772222222222222],[0.18302083333333338,-0.06407407407407412],[0.16072916666666662,-0.057777777777777754],[0.15187499999999995,-0.06796296296296295],[0.1165625000000001,-0.10018518518518522],[0.09364583333333343,-0.13796296296296295],[0.10697916666666671,-0.16222222222222227],[0.14885416666666676,-0.17555555555555558],[0.1866666666666667,-0.2198148148148148],[0.21124999999999997,-0.25555555555555554],[0.20302083333333343,-0.2577777777777778],[0.2211458333333333,-0.27925925925925926],[0.25718750000000007,-0.2868518518518518],[0.24947916666666667,-0.31129629629629635],[0.24729166666666677,-0.33851851851851855],[0.23083333333333325,-0.3544444444444444],[0.2513541666666666,-0.3635185185185185],[0.24333333333333323,-0.38351851851851854],[0.2165625000000001,-0.38685185185185184],[0.2068749999999999,-0.3962962962962963],[0.2055208333333333,-0.37777777777777777],[0.22447916666666667,-0.4027777777777778],[0.22406249999999991,-0.3937037037037037],[0.2263541666666666,-0.37666666666666665],[0.2319791666666667,-0.3264814814814815],[0.23489583333333333,-0.26777777777777784],[0.184375,-0.20722222222222217],[0.1462500000000001,-0.1881481481481482],[0.10750000000000005,-0.2235185185185185],[0.08104166666666662,-0.21777777777777782],[0.04895833333333333,-0.2390740740740741],[-0.016875000000000046,-0.20574074074074078],[-0.06270833333333338,-0.255],[-0.07124999999999998,-0.29203703703703704],[-0.08864583333333335,-0.3594444444444445],[-0.09333333333333335,-0.43388888888888894],[-0.08270833333333331,-0.5061111111111112],[-0.08270833333333331,-0.5061111111111112],[-0.07270833333333329,-0.5038888888888889],[-0.07270833333333329,-0.5038888888888889],[-0.04729166666666664,-0.4564814814814815],[-0.03322916666666664,-0.4498148148148148],[-0.00614583333333331,-0.4396296296296296],[0.05239583333333329,-0.41814814814814816],[0.06708333333333343,-0.37592592592592594],[0.09177083333333323,-0.3248148148148148],[0.10166666666666657,-0.26370370370370366],[0.0875,-0.2022222222222222],[0.07364583333333338,-0.1359259259259259],[0.012083333333333357,-0.12259259259259257],[0.00791666666666669,-0.1259259259259259],[0.06177083333333329,-0.16166666666666668],[0.059791666666666646,-0.17388888888888884],[0.08427083333333343,-0.22148148148148153],[0.13729166666666662,-0.24611111111111106],[0.15916666666666662,-0.277962962962963],[0.19583333333333333,-0.3198148148148148],[0.20385416666666673,-0.3531481481481481],[0.20385416666666673,-0.3531481481481481],[0.2196875000000001,-0.3803703703703703],[0.2196875000000001,-0.3803703703703703],[0.2855208333333332,-0.4101851851851852],[0.2855208333333332,-0.4101851851851852],[0.25750000000000006,-0.43555555555555553],[0.25750000000000006,-0.43555555555555553],[0.1944791666666667,-0.4038888888888889],[0.1944791666666667,-0.4038888888888889],[0.17479166666666662,-0.3987037037037037],[0.17479166666666662,-0.3987037037037037],[0.12645833333333342,-0.3948148148148148],[0.09656250000000005,-0.4053703703703703],[0.022708333333333285,-0.41388888888888886],[-0.026041666666666668,-0.4140740740740741],[-0.05010416666666669,-0.40666666666666673],[-0.08229166666666667,-0.4101851851851852],[-0.12239583333333333,-0.4262962962962963],[-0.12208333333333338,-0.4375925925925926],[-0.12364583333333339,-0.47833333333333333],[-0.13895833333333332,-0.4794444444444444],[-0.12604166666666666,-0.4781481481481481],[-0.13479166666666664,-0.4714814814814815],[-0.12406250000000002,-0.4624074074074074],[-0.12177083333333331,-0.46833333333333327],[-0.1125,-0.48629629629629634],[-0.10208333333333333,-0.512962962962963],[-0.08916666666666669,-0.5162962962962964],[-0.08552083333333335,-0.4955555555555556],[-0.10260416666666666,-0.4853703703703704],[-0.109375,-0.5048148148148148],[-0.14468749999999997,-0.5133333333333333],[-0.20812499999999995,-0.5062962962962962],[-0.20385416666666673,-0.4955555555555556],[-0.2594791666666667,-0.4759259259259259],[-0.2985416666666667,-0.465],[-0.3126041666666667,-0.44111111111111106],[-0.29104166666666664,-0.43499999999999994],[-0.29885416666666664,-0.4514814814814815],[-0.2934375000000001,-0.4844444444444445],[-0.286875,-0.5361111111111111],[-0.28666666666666674,-0.5846296296296296],[-0.2747916666666666,-0.6394444444444445],[-0.2859375,-0.6798148148148149],[-0.2311458333333333,-0.7051851851851852],[-0.18322916666666664,-0.7601851851851852],[-0.19020833333333337,-0.804074074074074],[-0.23406250000000003,-0.7709259259259259],[-0.2407291666666667,-0.7355555555555555],[-0.21885416666666668,-0.7242592592592593],[-0.23697916666666666,-0.7338888888888889],[-0.25375000000000003,-0.7314814814814815],[-0.21885416666666668,-0.7335185185185186],[-0.21885416666666668,-0.7335185185185186],[-0.21687500000000004,-0.7566666666666667],[-0.18374999999999997,-0.8107407407407408],[-0.2117708333333333,-0.7662962962962964],[-0.21104166666666668,-0.7372222222222222],[-0.21822916666666667,-0.7735185185185185],[-0.16760416666666664,-0.8257407407407407],[-0.1907291666666667,-0.8294444444444444],[-0.19697916666666668,-0.7998148148148148],[-0.17895833333333327,-0.7412962962962963],[-0.19781249999999997,-0.6698148148148148],[-0.17697916666666663,-0.6174074074074074],[-0.215625,-0.571111111111111],[-0.18947916666666664,-0.5914814814814814],[-0.14406249999999995,-0.6053703703703703],[-0.09812500000000005,-0.6012962962962963],[-0.11312500000000002,-0.5572222222222222],[-0.06843750000000005,-0.5559259259259259],[0.0018749999999999527,-0.5751851851851852],[0.05291666666666662,-0.6385185185185185],[0.10395833333333329,-0.7161111111111111],[0.11375000000000005,-0.7553703703703704],[0.11624999999999991,-0.7390740740740741],[0.12197916666666657,-0.725],[0.10843749999999991,-0.7174074074074074],[0.12770833333333323,-0.7325925925925927],[0.13093750000000004,-0.7824074074074074],[0.1546875,-0.8016666666666666],[0.1609375,-0.8012962962962963],[0.12750000000000009,-0.7661111111111111],[0.11156249999999991,-0.7544444444444444],[0.0984375,-0.7861111111111111],[0.1021874999999999,-0.8183333333333332],[0.08583333333333343,-0.825],[0.08624999999999995,-0.8568518518518519],[0.04864583333333338,-0.875],[0.03947916666666664,-0.8538888888888889],[-0.009895833333333333,-0.8355555555555555],[-0.044375000000000026,-0.8112962962962963],[-0.051041666666666666,-0.8070370370370371],[-0.04375,-0.7712962962962963]]","[[1.2632291666666664,-0.1714814814814815,0.0002999999970256795],[1.2632291666666664,-0.1714814814814815,0.037500000000008527],[1.2737500000000002,-0.16370370370370366,0.048799999997029886],[1.2856249999999998,-0.1727777777777778,0.06289999999850693],[1.2914583333333336,-0.14444444444444443,0.07859999999776335],[1.286145833333333,-0.175,0.09609999999776164],[1.2832291666666669,-0.22999999999999998,0.11189999999851352],[1.2770833333333333,-0.24759259259259256,0.12859999999777472],[1.2862500000000001,-0.27759259259259256,0.14539999999851716],[1.3178124999999998,-0.2783333333333334,0.16200000000000614],[1.3295833333333333,-0.2874074074074074,0.18139999999851852],[1.3267708333333332,-0.29000000000000004,0.19529999999701886],[1.2829166666666665,-0.2916666666666667,0.2120000000000033],[1.2377083333333332,-0.2764814814814815,0.23109999999776676],[1.2233333333333334,-0.25407407407407406,0.24529999999703023],[1.2114583333333333,-0.18611111111111112,0.26200000000000045],[1.1952083333333334,-0.12537037037037035,0.2785999999977662],[1.2347916666666667,-0.07185185185185188,0.2952999999970274],[1.2583333333333333,-0.0727777777777778,0.31189999999851636],[1.2362500000000003,-0.072037037037037,0.32859999999776335],[1.2282291666666665,-0.07462962962962966,0.3451999999992523],[1.2179166666666665,-0.06462962962962959,0.3618999999985135],[1.2703125,-0.09666666666666665,0.3785999999977747],[1.3227083333333336,-0.1287037037037037,0.39539999999851716],[1.3442708333333333,-0.16796296296296295,0.4118999999985107],[1.3609375,-0.19981481481481478,0.42950000000000443],[1.3807291666666666,-0.24222222222222226,0.44529999999701886],[1.3711458333333335,-0.29388888888888887,0.4620000000000033],[1.3776041666666667,-0.2911111111111111,0.47859999999776903],[1.4121874999999997,-0.3181481481481482,0.4952999999970302],[1.4445833333333336,-0.3218518518518519,0.5118999999985192],[1.4571875,-0.305,0.5286999999992616],[1.4322916666666667,-0.2948148148148148,0.5452999999970274],[1.3772916666666666,-0.24611111111111106,0.5667999999970164],[1.2958333333333334,-0.19129629629629633,0.5821999999992613],[1.300625,-0.1801851851851852,0.5963999999985106],[1.256041666666667,-0.15185185185185185,0.6118999999985135],[1.2069791666666665,-0.12388888888888884,0.6285000000000025],[1.2260416666666667,-0.0787037037037037,0.6463999999985077],[1.2402083333333331,-0.03462962962962971,0.6673999999985085],[1.2402083333333331,-0.03462962962962971,0.6850000000000023],[1.17875,0.034999999999999955,0.7019999999999982],[1.1161458333333334,0.07796296296296301,0.7150999999977614],[1.1333333333333333,0.10981481481481473,0.7287999999970225],[1.0807291666666667,0.09759259259259268,0.7452999999970302],[1.0517708333333333,0.08000000000000008,0.7618999999985192],[0.9735416666666665,0.12851851851851848,0.7785999999977662],[0.9459374999999999,0.17759259259259255,0.7952999999970274],[0.9183333333333332,0.22666666666666663,0.8118999999985164],[0.83875,0.26370370370370366,0.8285999999977633],[0.7660416666666667,0.2824074074074074,0.848799999997027],[0.7714583333333332,0.2977777777777777,0.8621999999992624],[0.7890625,0.29222222222222216,0.8785999999977747],[0.7059375,0.3162962962962962,0.8952999999970217],[0.7227083333333333,0.34592592592592586,0.9120000000000061],[0.7662499999999999,0.4553703703703703,0.9285999999977719],[0.7777083333333332,0.5349999999999999,0.9452999999970189],[0.8253125,0.557037037037037,0.9618999999985078],[0.8397916666666667,0.5942592592592593,0.978599999997769],[0.8381249999999999,0.6262962962962964,0.9952999999970302],[0.8881249999999999,0.668148148148148,1.0118999999985192],[0.925,0.6916666666666667,1.0285999999977662],[0.9239583333333333,0.7140740740740741,1.0451999999992552],[0.9538541666666667,0.7359259259259259,1.0618999999985164],[0.9362499999999999,0.7364814814814815,1.0785999999977633],[0.9230208333333333,0.6725925925925926,1.0952999999970245],[0.9230208333333333,0.6725925925925926,1.1118999999985135],[0.8567708333333334,0.5996296296296295,1.1285999999977747],[0.8567708333333334,0.5996296296296295,1.1452999999970217],[0.7503124999999999,0.6124074074074075,1.1618999999985107],[0.7503124999999999,0.6124074074074075,1.1785999999977719],[0.6852083333333333,0.5937037037037037,1.1952999999970189],[0.6852083333333333,0.5937037037037037,1.2118999999985078],[0.5945833333333332,0.594074074074074,1.228599999997769],[0.5945833333333332,0.594074074074074,1.2452999999970302],[0.440625,0.6025925925925926,1.2618999999985192],[0.440625,0.6025925925925926,1.2785999999977662],[0.35666666666666674,0.5657407407407408,1.2952999999970274],[0.30364583333333334,0.5477777777777777,1.3145999999977676],[0.2703125,0.5401851851851853,1.3285999999977633],[0.28447916666666656,0.553888888888889,1.3451999999992523],[0.2397916666666667,0.5505555555555555,1.362099999997767],[0.24812500000000004,0.5562962962962963,1.3785999999977747],[0.2548958333333334,0.4925925925925926,1.3952999999970217],[0.21906249999999997,0.4842592592592593,1.4120000000000061],[0.23156249999999995,0.4703703703703704,1.4285999999977719],[0.22270833333333329,0.4714814814814815,1.4451999999992609],[0.17218749999999997,0.5122222222222222,1.4618999999985078],[0.1892708333333334,0.4788888888888889,1.4784999999999968],[0.16520833333333323,0.4631481481481482,1.495199999999258],[0.15239583333333329,0.4535185185185185,1.5118999999985192],[0.16572916666666657,0.4270370370370371,1.529299999997022],[0.17552083333333332,0.4137037037037037,1.5452999999970274],[0.19572916666666676,0.44722222222222224,1.5655999999977723],[0.2539583333333333,0.41166666666666657,1.5810999999977753],[0.28937499999999994,0.3625925925925925,1.5951999999992523],[0.35093750000000007,0.29888888888888887,1.615699999999265],[0.38614583333333335,0.2351851851851852,1.6315000000000026],[0.35125000000000006,0.24981481481481477,1.6458999999985195],[0.3572916666666667,0.23777777777777773,1.6620999999977641],[0.3622916666666666,0.21518518518518526,1.6785999999977719],[0.3622916666666666,0.21518518518518526,1.6952999999970189],[0.36864583333333345,0.19092592592592597,1.7118999999985078],[0.35947916666666657,0.15037037037037046,1.728599999997769],[0.3519791666666668,0.10574074074074079,1.7452999999970302],[0.3544791666666666,0.0955555555555556,1.7618999999985192],[0.33864583333333326,0.10907407407407403,1.7793999999985175],[0.34260416666666677,0.11018518518518519,1.7953999999985086],[0.328125,0.12314814814814815,1.8118999999985164],[0.31531250000000005,0.11944444444444445,1.8285999999977633],[0.2938541666666666,0.11462962962962958,1.8463999999985106],[0.2743750000000001,0.12666666666666662,1.8618999999985135],[0.2557291666666667,0.172037037037037,1.8785999999977747],[0.23687500000000009,0.20425925925925917,1.8976999999992614],[0.23229166666666667,0.19537037037037036,1.9118999999985107],[0.1984375,0.22518518518518524,1.9284999999999997],[0.20833333333333334,0.1814814814814815,1.9451999999992609],[0.19010416666666666,0.16444444444444437,1.9618999999985078],[0.18072916666666666,0.18425925925925926,1.978599999997769],[0.19020833333333323,0.2131481481481482,1.995199999999258],[0.18885416666666663,0.2418518518518519,2.011899999998519],[0.15750000000000006,0.21444444444444435,2.028599999997766],[0.12833333333333338,0.17314814814814813,2.0452999999970274],[0.1290625000000001,0.17037037037037037,2.0618999999985164],[0.10052083333333334,0.21999999999999992,2.0785000000000053],[0.07208333333333337,0.22185185185185177,2.0951999999992523],[0.02510416666666669,0.287962962962963,2.1118999999985135],[-0.050625000000000024,0.35407407407407415,2.1285999999977747],[-0.11208333333333335,0.36944444444444446,2.145799999997024],[-0.1580208333333334,0.3314814814814815,2.1618999999985107],[-0.16958333333333328,0.30537037037037035,2.178599999997772],[-0.16614583333333333,0.322037037037037,2.195199999999261],[-0.14197916666666663,0.3218518518518518,2.2120000000000033],[-0.14479166666666668,0.32092592592592584,2.228499999999997],[-0.09291666666666672,0.29314814814814805,2.2452999999970302],[-0.04093749999999995,0.24981481481481477,2.2617999999970237],[0.07708333333333334,0.1925925925925926,2.278599999997766],[0.1828125,0.11796296296296305,2.295199999999255],[0.2849999999999999,0.044999999999999915,2.3118999999985164],[0.37166666666666665,0.025370370370370456,2.3285999999977633],[0.43854166666666666,-0.034074074074074034,2.3451999999992523],[0.4986458333333334,-0.09944444444444442,2.3618999999985135],[0.5830208333333334,-0.1537037037037037,2.3785999999977747],[0.6568749999999999,-0.22907407407407404,2.3951999999992637],[0.6845833333333334,-0.2903703703703704,2.4155999999977666],[0.745,-0.3138888888888889,2.428599999997772],[0.7411458333333333,-0.34314814814814815,2.445299999997019],[0.7925,-0.37666666666666665,2.461899999998508],[0.8473958333333333,-0.4118518518518518,2.4786999999992645],[0.8989583333333333,-0.4757407407407407,2.4952999999970302],[0.9183333333333332,-0.5005555555555555,2.511899999998519],[0.9558333333333332,-0.5003703703703704,2.528599999997766],[0.9483333333333335,-0.49444444444444446,2.545599999997762],[0.9580208333333334,-0.46870370370370373,2.561799999997021],[0.9686458333333334,-0.4542592592592593,2.5825999999977682],[0.9619791666666667,-0.45740740740740743,2.5993999999985107],[0.9946875000000001,-0.4546296296296296,2.6125999999977694],[1.0215625000000002,-0.4444444444444444,2.6285999999977747],[1.0847916666666668,-0.44370370370370377,2.6451999999992637],[1.1289583333333333,-0.402962962962963,2.6618999999985107],[1.1771874999999998,-0.3774074074074074,2.678599999997772],[1.2168749999999997,-0.37,2.695199999999261],[1.2736458333333331,-0.3888888888888889,2.7117999999970266],[1.3638541666666668,-0.40555555555555556,2.7325000000000017],[1.4101041666666665,-0.4053703703703703,2.7482999999970303],[1.4101041666666665,-0.4053703703703703,2.761899999998519],[1.451354166666667,-0.4125925925925926,2.778599999997766],[1.448229166666667,-0.4337037037037037,2.795199999999255],[1.4451041666666669,-0.45481481481481484,2.8118999999985164],[1.4025,-0.4257407407407407,2.829299999997019],[1.3822916666666667,-0.40796296296296297,2.8452999999970245],[1.4119791666666666,-0.402962962962963,2.8618999999985135],[1.4277083333333331,-0.4014814814814815,2.8825000000000074],[1.4277083333333331,-0.4014814814814815,2.895399999998517],[1.25375,-0.30925925925925923,2.912000000000006],[1.0878124999999998,-0.2796296296296296,2.928699999999253],[0.9564583333333334,-0.25462962962962965,2.9495000000000005],[0.8552083333333333,-0.23444444444444448,2.962699999999259],[0.7139583333333335,-0.17925925925925928,2.978899999998518],[0.5727083333333333,-0.12407407407407407,2.9953999999985115],[0.4210416666666667,-0.11666666666666667,3.0145999999977704],[0.3029166666666666,-0.12740740740740744,3.0286999999992616],[0.18718750000000003,-0.09222222222222225,3.045500000000004],[-0.001145833333333357,-0.07629629629629628,3.065799999997026],[0.06135416666666664,-0.14962962962962964,3.0793999999985147],[0.09208333333333343,-0.18277777777777776,3.0990999999977618],[0.09208333333333343,-0.18277777777777776,3.1118999999985135],[0.09354166666666662,-0.21703703703703703,3.132099999997763],[0.09354166666666662,-0.21703703703703703,3.1452999999970217],[0.10395833333333329,-0.21888888888888886,3.162000000000006],[0.15,-0.24055555555555552,3.178699999999253],[0.15,-0.24055555555555552,3.195199999999261],[0.12062499999999995,-0.26666666666666666,3.211899999998508],[0.12062499999999995,-0.26666666666666666,3.228599999997769],[0.14770833333333327,-0.2992592592592593,3.24959999999777],[0.14770833333333327,-0.2992592592592593,3.261899999998519],[0.1319791666666667,-0.2809259259259259,3.278899999998515],[0.08208333333333329,-0.3190740740740741,3.2953999999985086],[0.08208333333333329,-0.3190740740740741,3.314699999999263],[0.12270833333333328,-0.33185185185185184,3.328799999997017],[0.09739583333333333,-0.2898148148148148,3.34729999999702],[0.07843749999999995,-0.252962962962963,3.365099999997767],[0.12374999999999996,-0.2264814814814815,3.3792999999970164],[0.10635416666666657,-0.2146296296296296,3.395399999998517],[0.10635416666666657,-0.2146296296296296,3.4146999999992573],[0.11020833333333328,-0.19944444444444442,3.428699999999253],[0.16604166666666675,-0.19222222222222224,3.445299999997019],[0.20677083333333332,-0.15962962962962962,3.466099999997766],[0.23270833333333343,-0.19148148148148145,3.481199999999262],[0.26749999999999996,-0.1881481481481482,3.4960999999977673],[0.30593750000000003,-0.16296296296296298,3.511899999998519],[0.3320833333333333,-0.16777777777777783,3.531399999998513],[0.35906250000000006,-0.17388888888888884,3.5452999999970274],[0.35041666666666677,-0.15333333333333335,3.5625],[0.3445833333333333,-0.14444444444444443,3.5808999999985076],[0.30520833333333336,-0.17407407407407408,3.5981999999992524],[0.29656250000000006,-0.16148148148148145,3.612000000000009],[0.27489583333333345,-0.18370370370370367,3.6317999999970283],[0.27291666666666664,-0.17314814814814813,3.6470999999977636],[0.2777083333333332,-0.1794444444444444,3.66279999999702],[0.27489583333333345,-0.2101851851851852,3.679399999998509],[0.275,-0.21222222222222226,3.69609999999777],[0.25062499999999993,-0.23018518518518521,3.7117999999970266],[0.22916666666666666,-0.28777777777777774,3.728499999999997],[0.27291666666666664,-0.31444444444444447,3.745899999998514],[0.3296875,-0.307962962962963,3.7617999999970237],[0.36385416666666665,-0.327962962962963,3.778500000000008],[0.3832291666666668,-0.325,3.7952999999970274],[0.36708333333333343,-0.31666666666666665,3.811799999997021],[0.32708333333333334,-0.2935185185185185,3.8285000000000053],[0.3185416666666666,-0.3085185185185186,3.8451999999992523],[0.30708333333333326,-0.3522222222222222,3.8618999999985135],[0.31791666666666674,-0.3448148148148148,3.8785000000000025],[0.34500000000000003,-0.3127777777777777,3.8951999999992637],[0.31354166666666666,-0.29518518518518516,3.9118999999985107],[0.2820833333333333,-0.27759259259259256,3.928599999997772],[0.26708333333333345,-0.2722222222222222,3.945199999999261],[0.2556250000000001,-0.2681481481481482,3.9625000000000057],[0.26447916666666677,-0.27907407407407403,3.978599999997769],[0.2695833333333333,-0.2837037037037037,3.995199999999258],[0.24322916666666666,-0.25018518518518523,4.011799999997024],[0.23093750000000005,-0.20981481481481484,4.028899999998515],[0.21364583333333323,-0.19814814814814816,4.047699999999253],[0.2127083333333334,-0.1655555555555555,4.0625],[0.22729166666666673,-0.14629629629629629,4.078500000000005],[0.20677083333333332,-0.1514814814814815,4.097999999999999],[0.1851041666666667,-0.14777777777777779,4.112399999998516],[0.16395833333333343,-0.11185185185185181,4.1285000000000025],[0.15760416666666663,-0.07018518518518514,4.145199999999264],[0.1912499999999999,-0.0772222222222222,4.161899999998511],[0.18302083333333338,-0.06407407407407412,4.178599999997772],[0.16072916666666662,-0.057777777777777754,4.195199999999261],[0.15187499999999995,-0.06796296296296295,4.211899999998508],[0.1165625000000001,-0.10018518518518522,4.228499999999997],[0.09364583333333343,-0.13796296296296295,4.245199999999258],[0.10697916666666671,-0.16222222222222227,4.261799999997024],[0.14885416666666676,-0.17555555555555558,4.278500000000008],[0.1866666666666667,-0.2198148148148148,4.2960000000000065],[0.21124999999999997,-0.25555555555555554,4.311899999998516],[0.20302083333333343,-0.2577777777777778,4.328699999999259],[0.2211458333333333,-0.27925925925925926,4.3452999999970245],[0.25718750000000007,-0.2868518518518518,4.3618999999985135],[0.24947916666666667,-0.31129629629629635,4.3785000000000025],[0.24729166666666677,-0.33851851851851855,4.395399999998517],[0.23083333333333325,-0.3544444444444444,4.415999999999997],[0.2513541666666666,-0.3635185185185185,4.4325999999977626],[0.24333333333333323,-0.38351851851851854,4.448199999999261],[0.2165625000000001,-0.38685185185185184,4.464199999999252],[0.2068749999999999,-0.3962962962962963,4.478599999997769],[0.2055208333333333,-0.37777777777777777,4.495199999999258],[0.22447916666666667,-0.4027777777777778,4.511799999997024],[0.22406249999999991,-0.3937037037037037,4.529499999999999],[0.2263541666666666,-0.37666666666666665,4.5493999999985135],[0.2319791666666667,-0.3264814814814815,4.564699999999263],[0.23489583333333333,-0.26777777777777784,4.5815000000000055],[0.184375,-0.20722222222222217,4.597799999997022],[0.1462500000000001,-0.1881481481481482,4.612000000000009],[0.10750000000000005,-0.2235185185185185,4.6285000000000025],[0.08104166666666662,-0.21777777777777782,4.645299999997022],[0.04895833333333333,-0.2390740740740741,4.661799999997029],[-0.016875000000000046,-0.20574074074074078,4.678599999997772],[-0.06270833333333338,-0.255,4.695199999999261],[-0.07124999999999998,-0.29203703703703704,4.711799999997027],[-0.08864583333333335,-0.3594444444444445,4.728499999999997],[-0.09333333333333335,-0.43388888888888894,4.745199999999258],[-0.08270833333333331,-0.5061111111111112,4.765699999999256],[-0.08270833333333331,-0.5061111111111112,4.798500000000004],[-0.07270833333333329,-0.5038888888888889,4.805399999998514],[-0.07270833333333329,-0.5038888888888889,4.813099999997775],[-0.04729166666666664,-0.4564814814814815,4.828799999997017],[-0.03322916666666664,-0.4498148148148148,4.847399999998515],[-0.00614583333333331,-0.4396296296296296,4.862000000000009],[0.05239583333333329,-0.41814814814814816,4.878699999999256],[0.06708333333333343,-0.37592592592592594,4.895299999997022],[0.09177083333333323,-0.3248148148148148,4.914599999997762],[0.10166666666666657,-0.26370370370370366,4.928699999999253],[0.0875,-0.2022222222222222,4.945399999998514],[0.07364583333333338,-0.1359259259259259,4.962000000000003],[0.012083333333333357,-0.12259259259259257,4.981099999997767],[0.00791666666666669,-0.1259259259259259,4.995500000000007],[0.06177083333333329,-0.16166666666666668,5.0120000000000005],[0.059791666666666646,-0.17388888888888884,5.030299999997027],[0.08427083333333343,-0.22148148148148153,5.045299999997027],[0.13729166666666662,-0.24611111111111106,5.061999999999998],[0.15916666666666662,-0.277962962962963,5.078799999997017],[0.19583333333333333,-0.3198148148148148,5.097000000000008],[0.20385416666666673,-0.3531481481481481,5.11859999999777],[0.20385416666666673,-0.3531481481481481,5.128799999997028],[0.2196875000000001,-0.3803703703703703,5.14989999999851],[0.2196875000000001,-0.3803703703703703,5.161899999998511],[0.2855208333333332,-0.4101851851851852,5.178699999999253],[0.2855208333333332,-0.4101851851851852,5.195299999997019],[0.25750000000000006,-0.43555555555555553,5.216500000000011],[0.25750000000000006,-0.43555555555555553,5.2287999999970225],[0.1944791666666667,-0.4038888888888889,5.2453999999985115],[0.1944791666666667,-0.4038888888888889,5.261899999998519],[0.17479166666666662,-0.3987037037037037,5.278599999997766],[0.17479166666666662,-0.3987037037037037,5.295299999997027],[0.12645833333333342,-0.3948148148148148,5.311799999997021],[0.09656250000000005,-0.4053703703703703,5.328500000000005],[0.022708333333333285,-0.41388888888888886,5.3452999999970245],[-0.026041666666666668,-0.4140740740740741,5.366],[-0.05010416666666669,-0.40666666666666673,5.379299999997016],[-0.08229166666666667,-0.4101851851851852,5.395199999999264],[-0.12239583333333333,-0.4262962962962963,5.411899999998511],[-0.12208333333333338,-0.4375925925925926,5.4285],[-0.12364583333333339,-0.47833333333333333,5.445199999999261],[-0.13895833333333332,-0.4794444444444444,5.461899999998508],[-0.12604166666666666,-0.4781481481481481,5.478499999999997],[-0.13479166666666664,-0.4714814814814815,5.495199999999258],[-0.12406250000000002,-0.4624074074074074,5.511899999998519],[-0.12177083333333331,-0.46833333333333327,5.528599999997766],[-0.1125,-0.48629629629629634,5.545199999999255],[-0.10208333333333333,-0.512962962962963,5.561799999997021],[-0.08916666666666669,-0.5162962962962964,5.578500000000005],[-0.08552083333333335,-0.4955555555555556,5.597599999997769],[-0.10260416666666666,-0.4853703703703704,5.6118999999985135],[-0.109375,-0.5048148148148148,5.6285000000000025],[-0.14468749999999997,-0.5133333333333333,5.645199999999264],[-0.20812499999999995,-0.5062962962962962,5.661899999998511],[-0.20385416666666673,-0.4955555555555556,5.6785],[-0.2594791666666667,-0.4759259259259259,5.695199999999261],[-0.2985416666666667,-0.465,5.711899999998508],[-0.3126041666666667,-0.44111111111111106,5.729299999997025],[-0.29104166666666664,-0.43499999999999994,5.747399999998507],[-0.29885416666666664,-0.4514814814814815,5.761899999998519],[-0.2934375000000001,-0.4844444444444445,5.778500000000008],[-0.286875,-0.5361111111111111,5.795199999999255],[-0.28666666666666674,-0.5846296296296296,5.811799999997021],[-0.2747916666666666,-0.6394444444444445,5.828500000000005],[-0.2859375,-0.6798148148148149,5.845199999999252],[-0.2311458333333333,-0.7051851851851852,5.861799999997018],[-0.18322916666666664,-0.7601851851851852,5.8785000000000025],[-0.19020833333333337,-0.804074074074074,5.895299999997022],[-0.23406250000000003,-0.7709259259259259,5.911799999997029],[-0.2407291666666667,-0.7355555555555555,5.9285],[-0.21885416666666668,-0.7242592592592593,5.945199999999261],[-0.23697916666666666,-0.7338888888888889,5.961799999997027],[-0.25375000000000003,-0.7314814814814815,5.978499999999997],[-0.21885416666666668,-0.7335185185185186,5.9950999999977626],[-0.21885416666666668,-0.7335185185185186,6.011799999997024],[-0.21687500000000004,-0.7566666666666667,6.028599999997766],[-0.18374999999999997,-0.8107407407407408,6.045099999997774],[-0.2117708333333333,-0.7662962962962964,6.061799999997021],[-0.21104166666666668,-0.7372222222222222,6.078500000000005],[-0.21822916666666667,-0.7735185185185185,6.095099999997771],[-0.16760416666666664,-0.8257407407407407,6.111799999997018],[-0.1907291666666667,-0.8294444444444444,6.1285000000000025],[-0.19697916666666668,-0.7998148148148148,6.145199999999264],[-0.17895833333333327,-0.7412962962962963,6.161899999998511],[-0.19781249999999997,-0.6698148148148148,6.1785],[-0.17697916666666663,-0.6174074074074074,6.195199999999261],[-0.215625,-0.571111111111111,6.211899999998508],[-0.18947916666666664,-0.5914814814814814,6.228499999999997],[-0.14406249999999995,-0.6053703703703703,6.24529999999703],[-0.09812500000000005,-0.6012962962962963,6.261799999997024],[-0.11312500000000002,-0.5572222222222222,6.278500000000008],[-0.06843750000000005,-0.5559259259259259,6.295099999997774],[0.0018749999999999527,-0.5751851851851852,6.311799999997021],[0.05291666666666662,-0.6385185185185185,6.329299999997019],[0.10395833333333329,-0.7161111111111111,6.345199999999252],[0.11375000000000005,-0.7553703703703704,6.3618999999985135],[0.11624999999999991,-0.7390740740740741,6.3785000000000025],[0.12197916666666657,-0.725,6.395099999997768],[0.10843749999999991,-0.7174074074074074,6.411899999998511],[0.12770833333333323,-0.7325925925925927,6.428399999998518],[0.13093750000000004,-0.7824074074074074,6.445199999999261],[0.1546875,-0.8016666666666666,6.461799999997027],[0.1609375,-0.8012962962962963,6.478399999998516],[0.12750000000000009,-0.7661111111111111,6.495199999999258],[0.11156249999999991,-0.7544444444444444,6.511799999997024],[0.0984375,-0.7861111111111111,6.528500000000008],[0.1021874999999999,-0.8183333333333332,6.54579999999703],[0.08583333333333343,-0.825,6.561799999997021],[0.08624999999999995,-0.8568518518518519,6.578500000000005],[0.04864583333333338,-0.875,6.595199999999252],[0.03947916666666664,-0.8538888888888889,6.611799999997018],[-0.009895833333333333,-0.8355555555555555,6.63300000000001],[-0.044375000000000026,-0.8112962962962963,6.648199999999264],[-0.051041666666666666,-0.8070370370370371,6.661799999997029],[-0.04375,-0.7712962962962963,6.678599999997772]]","[0.0002999999970256795,0.037500000000008527,0.048799999997029886,0.06289999999850693,0.07859999999776335,0.09609999999776164,0.11189999999851352,0.12859999999777472,0.14539999999851716,0.16200000000000614,0.18139999999851852,0.19529999999701886,0.2120000000000033,0.23109999999776676,0.24529999999703023,0.26200000000000045,0.2785999999977662,0.2952999999970274,0.31189999999851636,0.32859999999776335,0.3451999999992523,0.3618999999985135,0.3785999999977747,0.39539999999851716,0.4118999999985107,0.42950000000000443,0.44529999999701886,0.4620000000000033,0.47859999999776903,0.4952999999970302,0.5118999999985192,0.5286999999992616,0.5452999999970274,0.5667999999970164,0.5821999999992613,0.5963999999985106,0.6118999999985135,0.6285000000000025,0.6463999999985077,0.6673999999985085,0.6850000000000023,0.7019999999999982,0.7150999999977614,0.7287999999970225,0.7452999999970302,0.7618999999985192,0.7785999999977662,0.7952999999970274,0.8118999999985164,0.8285999999977633,0.848799999997027,0.8621999999992624,0.8785999999977747,0.8952999999970217,0.9120000000000061,0.9285999999977719,0.9452999999970189,0.9618999999985078,0.978599999997769,0.9952999999970302,1.0118999999985192,1.0285999999977662,1.0451999999992552,1.0618999999985164,1.0785999999977633,1.0952999999970245,1.1118999999985135,1.1285999999977747,1.1452999999970217,1.1618999999985107,1.1785999999977719,1.1952999999970189,1.2118999999985078,1.228599999997769,1.2452999999970302,1.2618999999985192,1.2785999999977662,1.2952999999970274,1.3145999999977676,1.3285999999977633,1.3451999999992523,1.362099999997767,1.3785999999977747,1.3952999999970217,1.4120000000000061,1.4285999999977719,1.4451999999992609,1.4618999999985078,1.4784999999999968,1.495199999999258,1.5118999999985192,1.529299999997022,1.5452999999970274,1.5655999999977723,1.5810999999977753,1.5951999999992523,1.615699999999265,1.6315000000000026,1.6458999999985195,1.6620999999977641,1.6785999999977719,1.6952999999970189,1.7118999999985078,1.728599999997769,1.7452999999970302,1.7618999999985192,1.7793999999985175,1.7953999999985086,1.8118999999985164,1.8285999999977633,1.8463999999985106,1.8618999999985135,1.8785999999977747,1.8976999999992614,1.9118999999985107,1.9284999999999997,1.9451999999992609,1.9618999999985078,1.978599999997769,1.995199999999258,2.011899999998519,2.028599999997766,2.0452999999970274,2.0618999999985164,2.0785000000000053,2.0951999999992523,2.1118999999985135,2.1285999999977747,2.145799999997024,2.1618999999985107,2.178599999997772,2.195199999999261,2.2120000000000033,2.228499999999997,2.2452999999970302,2.2617999999970237,2.278599999997766,2.295199999999255,2.3118999999985164,2.3285999999977633,2.3451999999992523,2.3618999999985135,2.3785999999977747,2.3951999999992637,2.4155999999977666,2.428599999997772,2.445299999997019,2.461899999998508,2.4786999999992645,2.4952999999970302,2.511899999998519,2.528599999997766,2.545599999997762,2.561799999997021,2.5825999999977682,2.5993999999985107,2.6125999999977694,2.6285999999977747,2.6451999999992637,2.6618999999985107,2.678599999997772,2.695199999999261,2.7117999999970266,2.7325000000000017,2.7482999999970303,2.761899999998519,2.778599999997766,2.795199999999255,2.8118999999985164,2.829299999997019,2.8452999999970245,2.8618999999985135,2.8825000000000074,2.895399999998517,2.912000000000006,2.928699999999253,2.9495000000000005,2.962699999999259,2.978899999998518,2.9953999999985115,3.0145999999977704,3.0286999999992616,3.045500000000004,3.065799999997026,3.0793999999985147,3.0990999999977618,3.1118999999985135,3.132099999997763,3.1452999999970217,3.162000000000006,3.178699999999253,3.195199999999261,3.211899999998508,3.228599999997769,3.24959999999777,3.261899999998519,3.278899999998515,3.2953999999985086,3.314699999999263,3.328799999997017,3.34729999999702,3.365099999997767,3.3792999999970164,3.395399999998517,3.4146999999992573,3.428699999999253,3.445299999997019,3.466099999997766,3.481199999999262,3.4960999999977673,3.511899999998519,3.531399999998513,3.5452999999970274,3.5625,3.5808999999985076,3.5981999999992524,3.612000000000009,3.6317999999970283,3.6470999999977636,3.66279999999702,3.679399999998509,3.69609999999777,3.7117999999970266,3.728499999999997,3.745899999998514,3.7617999999970237,3.778500000000008,3.7952999999970274,3.811799999997021,3.8285000000000053,3.8451999999992523,3.8618999999985135,3.8785000000000025,3.8951999999992637,3.9118999999985107,3.928599999997772,3.945199999999261,3.9625000000000057,3.978599999997769,3.995199999999258,4.011799999997024,4.028899999998515,4.047699999999253,4.0625,4.078500000000005,4.097999999999999,4.112399999998516,4.1285000000000025,4.145199999999264,4.161899999998511,4.178599999997772,4.195199999999261,4.211899999998508,4.228499999999997,4.245199999999258,4.261799999997024,4.278500000000008,4.2960000000000065,4.311899999998516,4.328699999999259,4.3452999999970245,4.3618999999985135,4.3785000000000025,4.395399999998517,4.415999999999997,4.4325999999977626,4.448199999999261,4.464199999999252,4.478599999997769,4.495199999999258,4.511799999997024,4.529499999999999,4.5493999999985135,4.564699999999263,4.5815000000000055,4.597799999997022,4.612000000000009,4.6285000000000025,4.645299999997022,4.661799999997029,4.678599999997772,4.695199999999261,4.711799999997027,4.728499999999997,4.745199999999258,4.765699999999256,4.798500000000004,4.805399999998514,4.813099999997775,4.828799999997017,4.847399999998515,4.862000000000009,4.878699999999256,4.895299999997022,4.914599999997762,4.928699999999253,4.945399999998514,4.962000000000003,4.981099999997767,4.995500000000007,5.0120000000000005,5.030299999997027,5.045299999997027,5.061999999999998,5.078799999997017,5.097000000000008,5.11859999999777,5.128799999997028,5.14989999999851,5.161899999998511,5.178699999999253,5.195299999997019,5.216500000000011,5.2287999999970225,5.2453999999985115,5.261899999998519,5.278599999997766,5.295299999997027,5.311799999997021,5.328500000000005,5.3452999999970245,5.366,5.379299999997016,5.395199999999264,5.411899999998511,5.4285,5.445199999999261,5.461899999998508,5.478499999999997,5.495199999999258,5.511899999998519,5.528599999997766,5.545199999999255,5.561799999997021,5.578500000000005,5.597599999997769,5.6118999999985135,5.6285000000000025,5.645199999999264,5.661899999998511,5.6785,5.695199999999261,5.711899999998508,5.729299999997025,5.747399999998507,5.761899999998519,5.778500000000008,5.795199999999255,5.811799999997021,5.828500000000005,5.845199999999252,5.861799999997018,5.8785000000000025,5.895299999997022,5.911799999997029,5.9285,5.945199999999261,5.961799999997027,5.978499999999997,5.9950999999977626,6.011799999997024,6.028599999997766,6.045099999997774,6.061799999997021,6.078500000000005,6.095099999997771,6.111799999997018,6.1285000000000025,6.145199999999264,6.161899999998511,6.1785,6.195199999999261,6.211899999998508,6.228499999999997,6.24529999999703,6.261799999997024,6.278500000000008,6.295099999997774,6.311799999997021,6.329299999997019,6.345199999999252,6.3618999999985135,6.3785000000000025,6.395099999997768,6.411899999998511,6.428399999998518,6.445199999999261,6.461799999997027,6.478399999998516,6.495199999999258,6.511799999997024,6.528500000000008,6.54579999999703,6.561799999997021,6.578500000000005,6.595199999999252,6.611799999997018,6.63300000000001,6.648199999999264,6.661799999997029,6.678599999997772]","[1733131261219,1733131261249,1733131261260,1733131261275,1733131261290,1733131261308,1733131261324,1733131261340,1733131261357,1733131261374,1733131261393,1733131261407,1733131261424,1733131261443,1733131261457,1733131261474,1733131261490,1733131261507,1733131261524,1733131261540,1733131261557,1733131261574,1733131261590,1733131261607,1733131261624,1733131261641,1733131261657,1733131261674,1733131261690,1733131261707,1733131261724,1733131261740,1733131261757,1733131261778,1733131261794,1733131261808,1733131261824,1733131261840,1733131261858,1733131261879,1733131261897,1733131261914,1733131261927,1733131261940,1733131261957,1733131261974,1733131261990,1733131262007,1733131262024,1733131262040,1733131262060,1733131262074,1733131262090,1733131262107,1733131262124,1733131262140,1733131262157,1733131262174,1733131262190,1733131262207,1733131262224,1733131262240,1733131262257,1733131262274,1733131262290,1733131262307,1733131262324,1733131262340,1733131262357,1733131262374,1733131262390,1733131262407,1733131262424,1733131262440,1733131262457,1733131262474,1733131262490,1733131262507,1733131262526,1733131262540,1733131262557,1733131262574,1733131262590,1733131262607,1733131262624,1733131262640,1733131262657,1733131262674,1733131262690,1733131262707,1733131262723,1733131262741,1733131262757,1733131262777,1733131262793,1733131262807,1733131262827,1733131262843,1733131262857,1733131262874,1733131262890,1733131262907,1733131262924,1733131262940,1733131262957,1733131262974,1733131262991,1733131263007,1733131263024,1733131263040,1733131263058,1733131263074,1733131263090,1733131263109,1733131263124,1733131263140,1733131263157,1733131263173,1733131263190,1733131263207,1733131263224,1733131263240,1733131263257,1733131263273,1733131263290,1733131263307,1733131263324,1733131263340,1733131263357,1733131263374,1733131263390,1733131263407,1733131263424,1733131263440,1733131263457,1733131263473,1733131263490,1733131263507,1733131263523,1733131263540,1733131263557,1733131263574,1733131263590,1733131263607,1733131263627,1733131263640,1733131263657,1733131263674,1733131263690,1733131263707,1733131263723,1733131263740,1733131263757,1733131263773,1733131263794,1733131263811,1733131263824,1733131263840,1733131263857,1733131263873,1733131263890,1733131263907,1733131263923,1733131263944,1733131263960,1733131263974,1733131263990,1733131264007,1733131264023,1733131264041,1733131264057,1733131264073,1733131264094,1733131264107,1733131264124,1733131264140,1733131264161,1733131264174,1733131264191,1733131264207,1733131264226,1733131264240,1733131264257,1733131264277,1733131264291,1733131264311,1733131264323,1733131264344,1733131264357,1733131264374,1733131264390,1733131264407,1733131264423,1733131264440,1733131264461,1733131264473,1733131264490,1733131264507,1733131264526,1733131264540,1733131264559,1733131264577,1733131264591,1733131264607,1733131264626,1733131264640,1733131264657,1733131264678,1733131264693,1733131264708,1733131264723,1733131264743,1733131264757,1733131264774,1733131264793,1733131264810,1733131264824,1733131264843,1733131264859,1733131264874,1733131264891,1733131264908,1733131264923,1733131264940,1733131264957,1733131264973,1733131264990,1733131265007,1733131265023,1733131265040,1733131265057,1733131265073,1733131265090,1733131265107,1733131265123,1733131265140,1733131265157,1733131265174,1733131265190,1733131265207,1733131265223,1733131265241,1733131265259,1733131265274,1733131265290,1733131265310,1733131265324,1733131265340,1733131265357,1733131265373,1733131265390,1733131265407,1733131265424,1733131265440,1733131265457,1733131265473,1733131265490,1733131265508,1733131265523,1733131265540,1733131265557,1733131265573,1733131265590,1733131265607,1733131265628,1733131265644,1733131265660,1733131265676,1733131265690,1733131265707,1733131265723,1733131265741,1733131265761,1733131265776,1733131265793,1733131265809,1733131265824,1733131265840,1733131265857,1733131265873,1733131265890,1733131265907,1733131265923,1733131265940,1733131265957,1733131265977,1733131266010,1733131266017,1733131266025,1733131266040,1733131266059,1733131266074,1733131266090,1733131266107,1733131266126,1733131266140,1733131266157,1733131266174,1733131266193,1733131266207,1733131266224,1733131266242,1733131266257,1733131266274,1733131266290,1733131266309,1733131266330,1733131266340,1733131266362,1733131266374,1733131266390,1733131266407,1733131266428,1733131266440,1733131266457,1733131266473,1733131266490,1733131266507,1733131266523,1733131266540,1733131266557,1733131266578,1733131266591,1733131266607,1733131266623,1733131266640,1733131266657,1733131266673,1733131266690,1733131266707,1733131266723,1733131266740,1733131266757,1733131266773,1733131266790,1733131266809,1733131266824,1733131266840,1733131266857,1733131266873,1733131266890,1733131266907,1733131266924,1733131266941,1733131266959,1733131266973,1733131266990,1733131267007,1733131267023,1733131267040,1733131267057,1733131267073,1733131267090,1733131267107,1733131267123,1733131267140,1733131267157,1733131267173,1733131267190,1733131267207,1733131267223,1733131267240,1733131267257,1733131267273,1733131267290,1733131267307,1733131267323,1733131267340,1733131267357,1733131267373,1733131267390,1733131267407,1733131267423,1733131267440,1733131267457,1733131267473,1733131267490,1733131267507,1733131267523,1733131267541,1733131267557,1733131267573,1733131267590,1733131267607,1733131267623,1733131267640,1733131267657,1733131267673,1733131267690,1733131267707,1733131267723,1733131267740,1733131267757,1733131267773,1733131267790,1733131267807,1733131267823,1733131267845,1733131267860,1733131267873,1733131267890]","[[2172.7,447.4],[2172.7,447.4],[2182.8,451.6],[2194.2,446.7],[2199.8,462],[2194.7,445.5],[2191.9,415.8],[2186,406.3],[2194.8,390.1],[2225.1,389.7],[2236.4,384.8],[2233.7,383.4],[2191.6,382.5],[2148.2,390.7],[2134.4,402.8],[2123,439.5],[2107.4,472.3],[2145.4,501.2],[2168,500.7],[2146.8,501.1],[2139.1,499.7],[2129.2,505.1],[2179.5,487.8],[2229.8,470.5],[2250.5,449.3],[2266.5,432.1],[2285.5,409.2],[2276.3,381.3],[2282.5,382.8],[2315.7,368.2],[2346.8,366.2],[2358.9,375.3],[2335,380.8],[2282.2,407.1],[2204,436.7],[2208.6,442.7],[2165.8,458],[2118.7,473.1],[2137,497.5],[2150.6,521.3],[2150.6,521.3],[2091.6,558.9],[2031.5,582.1],[2048,599.3],[1997.5,592.7],[1969.7,583.2],[1894.6,609.4],[1868.1,635.9],[1841.6,662.4],[1765.2,682.4],[1695.4,692.5],[1700.6,700.8],[1717.5,697.8],[1637.7,710.8],[1653.8,726.8],[1695.6,785.9],[1706.6,828.9],[1752.3,840.8],[1766.2,860.9],[1764.6,878.2],[1812.6,900.8],[1848,913.5],[1847,925.6],[1875.7,937.4],[1858.8,937.7],[1846.1,903.2],[1846.1,903.2],[1782.5,863.8],[1782.5,863.8],[1680.3,870.7],[1680.3,870.7],[1617.8,860.6],[1617.8,860.6],[1530.8,860.8],[1530.8,860.8],[1383,865.4],[1383,865.4],[1302.4,845.5],[1251.5,835.8],[1219.5,831.7],[1233.1,839.1],[1190.2,837.3],[1198.2,840.4],[1204.7,806],[1170.3,801.5],[1182.3,794],[1173.8,794.6],[1125.3,816.6],[1141.7,798.6],[1118.6,790.1],[1106.3,784.9],[1119.1,770.6],[1128.5,763.4],[1147.9,781.5],[1203.8,762.3],[1237.8,735.8],[1296.9,701.4],[1330.7,667],[1297.2,674.9],[1303,668.4],[1307.8,656.2],[1307.8,656.2],[1313.9,643.1],[1305.1,621.2],[1297.9,597.1],[1300.3,591.6],[1285.1,598.9],[1288.9,599.5],[1275,606.5],[1262.7,604.5],[1242.1,601.9],[1223.4,608.4],[1205.5,632.9],[1187.4,650.3],[1183,645.5],[1150.5,661.6],[1160,638],[1142.5,628.8],[1133.5,639.5],[1142.6,655.1],[1141.3,670.6],[1111.2,655.8],[1083.2,633.5],[1083.9,632],[1056.5,658.8],[1029.2,659.8],[984.1,695.5],[911.4,731.2],[852.4,739.5],[808.3,719],[797.2,704.9],[800.5,713.9],[823.7,713.8],[821,713.3],[870.8,698.3],[920.7,674.9],[1034,644],[1135.5,603.7],[1233.6,564.3],[1316.8,553.7],[1381,521.6],[1438.7,486.3],[1519.7,457],[1590.6,416.3],[1617.2,383.2],[1675.2,370.5],[1671.5,354.7],[1720.8,336.6],[1773.5,317.6],[1823,283.1],[1841.6,269.7],[1877.6,269.8],[1870.4,273],[1879.7,286.9],[1889.9,294.7],[1883.5,293],[1914.9,294.5],[1940.7,300],[2001.4,300.4],[2043.8,322.4],[2090.1,336.2],[2128.2,340.2],[2182.7,330],[2269.3,321],[2313.7,321.1],[2313.7,321.1],[2353.3,317.2],[2350.3,305.8],[2347.3,294.4],[2306.4,310.1],[2287,319.7],[2315.5,322.4],[2330.6,323.2],[2330.6,323.2],[2163.6,373],[2004.3,389],[1878.2,402.5],[1781,413.4],[1645.4,443.2],[1509.8,473],[1364.2,477],[1250.8,471.2],[1139.7,490.2],[958.9,498.8],[1018.9,459.2],[1048.4,441.3],[1048.4,441.3],[1049.8,422.8],[1049.8,422.8],[1059.8,421.8],[1104,410.1],[1104,410.1],[1075.8,396],[1075.8,396],[1101.8,378.4],[1101.8,378.4],[1086.7,388.3],[1038.8,367.7],[1038.8,367.7],[1077.8,360.8],[1053.5,383.5],[1035.3,403.4],[1078.8,417.7],[1062.1,424.1],[1062.1,424.1],[1065.8,432.3],[1119.4,436.2],[1158.5,453.8],[1183.4,436.6],[1216.8,438.4],[1253.7,452],[1278.8,449.4],[1304.7,446.1],[1296.4,457.2],[1290.8,462],[1253,446],[1244.7,452.8],[1223.9,440.8],[1222,446.5],[1226.6,443.1],[1223.9,426.5],[1224,425.4],[1200.6,415.7],[1180,384.6],[1222,370.2],[1276.5,373.7],[1309.3,362.9],[1327.9,364.5],[1312.4,369],[1274,381.5],[1265.8,373.4],[1254.8,349.8],[1265.2,353.8],[1291.2,371.1],[1261,380.6],[1230.8,390.1],[1216.4,393],[1205.4,395.2],[1213.9,389.3],[1218.8,386.8],[1193.5,404.9],[1181.7,426.7],[1165.1,433],[1164.2,450.6],[1178.2,461],[1158.5,458.2],[1137.7,460.2],[1117.4,479.6],[1111.3,502.1],[1143.6,498.3],[1135.7,505.4],[1114.3,508.8],[1105.8,503.3],[1071.9,485.9],[1049.9,465.5],[1062.7,452.4],[1102.9,445.2],[1139.2,421.3],[1162.8,402],[1154.9,400.8],[1172.3,389.2],[1206.9,385.1],[1199.5,371.9],[1197.4,357.2],[1181.6,348.6],[1201.3,343.7],[1193.6,332.9],[1167.9,331.1],[1158.6,326],[1157.3,336],[1175.5,322.5],[1175.1,327.4],[1177.3,336.6],[1182.7,363.7],[1185.5,395.4],[1137,428.1],[1100.4,438.4],[1063.2,419.3],[1037.8,422.4],[1007,410.9],[943.8,428.9],[899.8,402.3],[891.6,382.3],[874.9,345.9],[870.4,305.7],[880.6,266.7],[880.6,266.7],[890.2,267.9],[890.2,267.9],[914.6,293.5],[928.1,297.1],[954.1,302.6],[1010.3,314.2],[1024.4,337],[1048.1,364.6],[1057.6,397.6],[1044,430.8],[1030.7,466.6],[971.6,473.8],[967.6,472],[1019.3,452.7],[1017.4,446.1],[1040.9,420.4],[1091.8,407.1],[1112.8,389.9],[1148,367.3],[1155.7,349.3],[1155.7,349.3],[1170.9,334.6],[1170.9,334.6],[1234.1,318.5],[1234.1,318.5],[1207.2,304.8],[1207.2,304.8],[1146.7,321.9],[1146.7,321.9],[1127.8,324.7],[1127.8,324.7],[1081.4,326.8],[1052.7,321.1],[981.8,316.5],[935,316.4],[911.9,320.4],[881,318.5],[842.5,309.8],[842.8,303.7],[841.3,281.7],[826.6,281.1],[839,281.8],[830.6,285.4],[840.9,290.3],[843.1,287.1],[852,277.4],[862,263],[874.4,261.2],[877.9,272.4],[861.5,277.9],[855,267.4],[821.1,262.8],[760.2,266.6],[764.3,272.4],[710.9,283],[673.4,288.9],[659.9,301.8],[680.6,305.1],[673.1,296.2],[678.3,278.4],[684.6,250.5],[684.8,224.3],[696.2,194.7],[685.5,172.9],[738.1,159.2],[784.1,129.5],[777.4,105.8],[735.3,123.7],[728.9,142.8],[749.9,148.9],[732.5,143.7],[716.4,145],[749.9,143.9],[749.9,143.9],[751.8,131.4],[783.6,102.2],[756.7,126.2],[757.4,141.9],[750.5,122.3],[799.1,94.1],[776.9,92.1],[770.9,108.1],[788.2,139.7],[770.1,178.3],[790.1,206.6],[753,231.6],[778.1,220.6],[821.7,213.1],[865.8,215.3],[851.4,239.1],[894.3,239.8],[961.8,229.4],[1010.8,195.2],[1059.8,153.3],[1069.2,132.1],[1071.6,140.9],[1077.1,148.5],[1064.1,152.6],[1082.6,144.4],[1085.7,117.5],[1108.5,107.1],[1114.5,107.3],[1082.4,126.3],[1067.1,132.6],[1054.5,115.5],[1058.1,98.1],[1042.4,94.5],[1042.8,77.3],[1006.7,67.5],[997.9,78.9],[950.5,88.8],[917.4,101.9],[911,104.2],[918,123.5]]","[0,0.37864299999999995]","[0.37864299999999995,0.37864299999999995]","[-0.37864299999999995,0]","[-0.37864299999999995,-0.37864299999999995]","[0,0]","[0.37864299999999995,0]","[0,-0.37864299999999995]","[0.37864299999999995,-0.37864299999999995]",0,0,0,0,1,3,Laptop,11,9,9,1
