inst1_resp.keys,inst1_resp.rt,calibrationMouse.x,calibrationMouse.y,calibrationMouse.leftButton,calibrationMouse.midButton,calibrationMouse.rightButton,calibrationClick.x,calibrationClick.y,calibrationClick.leftButton,calibrationClick.midButton,calibrationClick.rightButton,trialsc.thisRepN,trialsc.thisTrialN,trialsc.thisN,trialsc.thisIndex,trialsc.ran,calibration_x,calibration_y,participant,session,date,expName,psychopyVersion,OS,frameRate,calibrationClick.clicked_name,ScreenRes_pixels,Camera_pixels,mouse_2.x,mouse_2.y,mouse_2.leftButton,mouse_2.midButton,mouse_2.rightButton,mouse_2.time,mouse_2.clicked_name,mouse.x,mouse.y,mouse.leftButton,mouse.midButton,mouse.rightButton,mouse.time,mouse.clicked_name,Choice,Trial,TrialDuration,MOUSE_GAZE,ET_GAZE,ET_GAZE_x_T,time,unixTime,ET_GAZE_NF,Loc_Option1_label,Loc_Option2_label,Loc_Cost_label,Loc_Qual_label,Loc_Option1_cost,Loc_Option2_cost,Loc_Option1_quality,Loc_Option2_quality,trials.thisRepN,trials.thisTrialN,trials.thisN,trials.thisIndex,trials.ran,Block,Device,cost1,qual1,cost2,qual2
space,3.3494,-0.0125,-0.088888889,1,0,0,-0.680208333,0.014814815,1,0,0,0,0,0,2,1,-0.67,0,14,001,2024-12-03_10h42.36.593,Attention_exp_legacy,2023.1.0,Win32,59.88023952,,,,,,,,,,,,,,,,,,,,,,,,,,,,,,,,,,,,,,,,,,,,,
,,,,,,,-0.333333333,0.353703704,1,0,0,0,1,1,7,1,-0.33,0.33,14,001,2024-12-03_10h42.36.593,Attention_exp_legacy,2023.1.0,Win32,59.88023952,,,,,,,,,,,,,,,,,,,,,,,,,,,,,,,,,,,,,,,,,,,,,
,,,,,,,0.667708333,0.687037037,1,0,0,0,2,2,19,1,0.67,0.67,14,001,2024-12-03_10h42.36.593,Attention_exp_legacy,2023.1.0,Win32,59.88023952,,,,,,,,,,,,,,,,,,,,,,,,,,,,,,,,,,,,,,,,,,,,,
,,,,,,,0.005208333,-0.331481481,1,0,0,0,3,3,10,1,0,-0.33,14,001,2024-12-03_10h42.36.593,Attention_exp_legacy,2023.1.0,Win32,59.88023952,calibration_square,,,,,,,,,,,,,,,,,,,,,,,,,,,,,,,,,,,,,,,,,,,,
,,,,,,,0.33125,-0.662962963,1,0,0,0,4,4,14,1,0.33,-0.67,14,001,2024-12-03_10h42.36.593,Attention_exp_legacy,2023.1.0,Win32,59.88023952,calibration_square,,,,,,,,,,,,,,,,,,,,,,,,,,,,,,,,,,,,,,,,,,,,
,,,,,,,-0.003125,0.331481481,1,0,0,0,5,5,12,1,0,0.33,14,001,2024-12-03_10h42.36.593,Attention_exp_legacy,2023.1.0,Win32,59.88023952,calibration_square,,,,,,,,,,,,,,,,,,,,,,,,,,,,,,,,,,,,,,,,,,,,
,,,,,,,0.327083333,0,1,0,0,0,6,6,16,1,0.33,0,14,001,2024-12-03_10h42.36.593,Attention_exp_legacy,2023.1.0,Win32,59.88023952,calibration_square,,,,,,,,,,,,,,,,,,,,,,,,,,,,,,,,,,,,,,,,,,,,
,,,,,,,-0.333333333,-0.014814815,1,0,0,0,7,7,6,1,-0.33,0,14,001,2024-12-03_10h42.36.593,Attention_exp_legacy,2023.1.0,Win32,59.88023952,,,,,,,,,,,,,,,,,,,,,,,,,,,,,,,,,,,,,,,,,,,,,
,,,,,,,-0.673958333,0.327777778,1,0,0,0,8,8,3,1,-0.67,0.33,14,001,2024-12-03_10h42.36.593,Attention_exp_legacy,2023.1.0,Win32,59.88023952,calibration_square,,,,,,,,,,,,,,,,,,,,,,,,,,,,,,,,,,,,,,,,,,,,
,,,,,,,0.676041667,-0.672222222,1,0,0,0,9,9,20,1,0.67,-0.67,14,001,2024-12-03_10h42.36.593,Attention_exp_legacy,2023.1.0,Win32,59.88023952,calibration_square,,,,,,,,,,,,,,,,,,,,,,,,,,,,,,,,,,,,,,,,,,,,
,,,,,,,-0.33125,0.67962963,1,0,0,0,10,10,8,1,-0.33,0.67,14,001,2024-12-03_10h42.36.593,Attention_exp_legacy,2023.1.0,Win32,59.88023952,calibration_square,,,,,,,,,,,,,,,,,,,,,,,,,,,,,,,,,,,,,,,,,,,,
,,,,,,,-0.001041667,0.67037037,1,0,0,0,11,11,13,1,0,0.67,14,001,2024-12-03_10h42.36.593,Attention_exp_legacy,2023.1.0,Win32,59.88023952,calibration_square,,,,,,,,,,,,,,,,,,,,,,,,,,,,,,,,,,,,,,,,,,,,
,,,,,,,0.330208333,0.324074074,1,0,0,0,12,12,17,1,0.33,0.33,14,001,2024-12-03_10h42.36.593,Attention_exp_legacy,2023.1.0,Win32,59.88023952,calibration_square,,,,,,,,,,,,,,,,,,,,,,,,,,,,,,,,,,,,,,,,,,,,
,,,,,,,-0.325,-0.325925926,1,0,0,0,13,13,5,1,-0.33,-0.33,14,001,2024-12-03_10h42.36.593,Attention_exp_legacy,2023.1.0,Win32,59.88023952,calibration_square,,,,,,,,,,,,,,,,,,,,,,,,,,,,,,,,,,,,,,,,,,,,
,,,,,,,-0.338541667,-0.67037037,1,0,0,0,14,14,4,1,-0.33,-0.67,14,001,2024-12-03_10h42.36.593,Attention_exp_legacy,2023.1.0,Win32,59.88023952,calibration_square,,,,,,,,,,,,,,,,,,,,,,,,,,,,,,,,,,,,,,,,,,,,
,,,,,,,-0.666666667,-0.666666667,1,0,0,0,15,15,0,1,-0.67,-0.67,14,001,2024-12-03_10h42.36.593,Attention_exp_legacy,2023.1.0,Win32,59.88023952,calibration_square,,,,,,,,,,,,,,,,,,,,,,,,,,,,,,,,,,,,,,,,,,,,
,,,,,,,-0.664583333,-0.301851852,1,0,0,0,16,16,1,1,-0.67,-0.33,14,001,2024-12-03_10h42.36.593,Attention_exp_legacy,2023.1.0,Win32,59.88023952,,,,,,,,,,,,,,,,,,,,,,,,,,,,,,,,,,,,,,,,,,,,,
,,,,,,,0.007291667,-0.67037037,1,0,0,0,17,17,9,1,0,-0.67,14,001,2024-12-03_10h42.36.593,Attention_exp_legacy,2023.1.0,Win32,59.88023952,calibration_square,,,,,,,,,,,,,,,,,,,,,,,,,,,,,,,,,,,,,,,,,,,,
,,,,,,,-0.010416667,0.02037037,1,0,0,0,18,18,11,1,0,0,14,001,2024-12-03_10h42.36.593,Attention_exp_legacy,2023.1.0,Win32,59.88023952,,,,,,,,,,,,,,,,,,,,,,,,,,,,,,,,,,,,,,,,,,,,,
,,,,,,,0.327083333,0.666666667,1,0,0,0,19,19,18,1,0.33,0.67,14,001,2024-12-03_10h42.36.593,Attention_exp_legacy,2023.1.0,Win32,59.88023952,calibration_square,,,,,,,,,,,,,,,,,,,,,,,,,,,,,,,,,,,,,,,,,,,,
,,,,,,,0.332291667,-0.346296296,1,0,0,0,20,20,15,1,0.33,-0.33,14,001,2024-12-03_10h42.36.593,Attention_exp_legacy,2023.1.0,Win32,59.88023952,,,,,,,,,,,,,,,,,,,,,,,,,,,,,,,,,,,,,,,,,,,,,
,,,,,,,,,,,,,,,,,,,14,001,2024-12-03_10h42.36.593,Attention_exp_legacy,2023.1.0,Win32,59.88023952,,"[1920,1080]","[640,480]",[0.052083333333333336],[-0.5370370370370371],[1],[0],[0],[3.0004000000059605],"[""StartButton""]",[-0.03854166666666667],[0.4148148148148148],[1],[0],[0],[3.1392000000029796],"[""Option1_label""]",Option1_label,1,4.1616,"[[0.059375,-0.37777777777777777],[0.059375,-0.37222222222222223],[0.059375,-0.37222222222222223],[0.059375,-0.37222222222222223],[0.059375,-0.37222222222222223],[0.059375,-0.37222222222222223],[0.059375,-0.37222222222222223],[0.059375,-0.37222222222222223],[0.059375,-0.37222222222222223],[0.059375,-0.37222222222222223],[0.059375,-0.37222222222222223],[0.059375,-0.37222222222222223],[0.059375,-0.37222222222222223],[0.059375,-0.37222222222222223],[0.059375,-0.37037037037037035],[0.058333333333333334,-0.37037037037037035],[0.058333333333333334,-0.36666666666666664],[0.058333333333333334,-0.3648148148148148],[0.057291666666666664,-0.362962962962963],[0.057291666666666664,-0.362962962962963],[0.05625,-0.3592592592592593],[0.05625,-0.3592592592592593],[0.05625,-0.3592592592592593],[0.05625,-0.3574074074074074],[0.05625,-0.35555555555555557],[0.05625,-0.35555555555555557],[0.05625,-0.35555555555555557],[0.05625,-0.35555555555555557],[0.05625,-0.35555555555555557],[0.05625,-0.35555555555555557],[0.05625,-0.35555555555555557],[0.05625,-0.35555555555555557],[0.05625,-0.35555555555555557],[0.05625,-0.35555555555555557],[0.05625,-0.35555555555555557],[0.05625,-0.35555555555555557],[0.05625,-0.35555555555555557],[0.05625,-0.35555555555555557],[0.05625,-0.35555555555555557],[0.05625,-0.35555555555555557],[0.05625,-0.35555555555555557],[0.05625,-0.35555555555555557],[0.05625,-0.35555555555555557],[0.05625,-0.35555555555555557],[0.05625,-0.35555555555555557],[0.05625,-0.35555555555555557],[0.05625,-0.35555555555555557],[0.05625,-0.35555555555555557],[0.05625,-0.35555555555555557],[0.05625,-0.35555555555555557],[0.05625,-0.35555555555555557],[0.05625,-0.35555555555555557],[0.05625,-0.35555555555555557],[0.05625,-0.35555555555555557],[0.05625,-0.35555555555555557],[0.05625,-0.35555555555555557],[0.05625,-0.35555555555555557],[0.05520833333333333,-0.3537037037037037],[0.05416666666666667,-0.35],[0.05416666666666667,-0.35],[0.053125,-0.34629629629629627],[0.053125,-0.34444444444444444],[0.053125,-0.3425925925925926],[0.053125,-0.34074074074074073],[0.052083333333333336,-0.337037037037037],[0.052083333333333336,-0.337037037037037],[0.052083333333333336,-0.337037037037037],[0.051041666666666666,-0.3351851851851852],[0.05,-0.3314814814814815],[0.05,-0.3296296296296296],[0.05,-0.3277777777777778],[0.04791666666666667,-0.32222222222222224],[0.046875,-0.31851851851851853],[0.04583333333333333,-0.31296296296296294],[0.04583333333333333,-0.3037037037037037],[0.042708333333333334,-0.28703703703703703],[0.03854166666666667,-0.26296296296296295],[0.0375,-0.2388888888888889],[0.034375,-0.22407407407407406],[0.03229166666666667,-0.2111111111111111],[0.029166666666666667,-0.18888888888888888],[0.028125,-0.16666666666666666],[0.023958333333333335,-0.14074074074074075],[0.020833333333333332,-0.11481481481481481],[0.017708333333333333,-0.08888888888888889],[0.013541666666666667,-0.06851851851851852],[0.011458333333333333,-0.05185185185185185],[0.008333333333333333,-0.03888888888888889],[0.008333333333333333,-0.03148148148148148],[0.007291666666666667,-0.02962962962962963],[0.00625,-0.025925925925925925],[0.00625,-0.025925925925925925],[0.005208333333333333,-0.024074074074074074],[0.005208333333333333,-0.020370370370370372],[0.005208333333333333,-0.020370370370370372],[0.005208333333333333,-0.020370370370370372],[0.004166666666666667,-0.018518518518518517],[0.004166666666666667,-0.018518518518518517],[0.004166666666666667,-0.018518518518518517],[0.004166666666666667,-0.018518518518518517],[0.004166666666666667,-0.018518518518518517],[0.004166666666666667,-0.018518518518518517],[0.004166666666666667,-0.018518518518518517],[0.004166666666666667,-0.018518518518518517],[0.004166666666666667,-0.018518518518518517],[0.004166666666666667,-0.018518518518518517],[0.004166666666666667,-0.018518518518518517],[0.004166666666666667,-0.018518518518518517],[0.004166666666666667,-0.018518518518518517],[0.004166666666666667,-0.018518518518518517],[0.004166666666666667,-0.014814814814814815],[0.009375,-0.012962962962962963],[0.025,-0.003703703703703704],[0.041666666666666664,0.003703703703703704],[0.06979166666666667,0.007407407407407408],[0.09791666666666667,0.012962962962962963],[0.128125,0.012962962962962963],[0.1625,0.012962962962962963],[0.19479166666666667,0.016666666666666666],[0.221875,0.016666666666666666],[0.24583333333333332,0.016666666666666666],[0.2677083333333333,0.016666666666666666],[0.2875,0.016666666666666666],[0.30416666666666664,0.016666666666666666],[0.32395833333333335,0.016666666666666666],[0.32916666666666666,0.016666666666666666],[0.33229166666666665,0.016666666666666666],[0.334375,0.016666666666666666],[0.33541666666666664,0.018518518518518517],[0.3375,0.018518518518518517],[0.3375,0.018518518518518517],[0.3385416666666667,0.020370370370370372],[0.3385416666666667,0.020370370370370372],[0.3385416666666667,0.020370370370370372],[0.3385416666666667,0.020370370370370372],[0.3385416666666667,0.020370370370370372],[0.3385416666666667,0.020370370370370372],[0.3385416666666667,0.020370370370370372],[0.3385416666666667,0.020370370370370372],[0.3385416666666667,0.020370370370370372],[0.3385416666666667,0.020370370370370372],[0.3385416666666667,0.020370370370370372],[0.3385416666666667,0.020370370370370372],[0.3385416666666667,0.020370370370370372],[0.3385416666666667,0.020370370370370372],[0.3385416666666667,0.020370370370370372],[0.3385416666666667,0.020370370370370372],[0.3385416666666667,0.020370370370370372],[0.3385416666666667,0.020370370370370372],[0.3385416666666667,0.024074074074074074],[0.3385416666666667,0.025925925925925925],[0.3385416666666667,0.03333333333333333],[0.3385416666666667,0.046296296296296294],[0.3385416666666667,0.06111111111111111],[0.3375,0.07777777777777778],[0.33645833333333336,0.09074074074074075],[0.33541666666666664,0.10555555555555556],[0.334375,0.12407407407407407],[0.3333333333333333,0.12962962962962962],[0.33229166666666665,0.1425925925925926],[0.33229166666666665,0.15185185185185185],[0.33125,0.16111111111111112],[0.3302083333333333,0.16666666666666666],[0.32916666666666666,0.17777777777777778],[0.32916666666666666,0.1814814814814815],[0.328125,0.18888888888888888],[0.328125,0.1962962962962963],[0.328125,0.2074074074074074],[0.3260416666666667,0.21666666666666667],[0.325,0.22777777777777777],[0.321875,0.2388888888888889],[0.3177083333333333,0.2518518518518518],[0.2947916666666667,0.28703703703703703],[0.26145833333333335,0.30925925925925923],[0.18854166666666666,0.34629629629629627],[0.128125,0.36666666666666664],[0.078125,0.387037037037037],[0.03229166666666667,0.39814814814814814],[0.007291666666666667,0.40555555555555556],[-0.0125,0.40925925925925927],[-0.023958333333333335,0.4111111111111111],[-0.030208333333333334,0.4148148148148148],[-0.035416666666666666,0.4148148148148148],[-0.0375,0.4148148148148148],[-0.03854166666666667,0.4148148148148148],[-0.03854166666666667,0.4148148148148148],[-0.03854166666666667,0.4148148148148148],[-0.03854166666666667,0.4148148148148148],[-0.03854166666666667,0.4148148148148148],[-0.03854166666666667,0.4148148148148148],[-0.03854166666666667,0.4148148148148148],[-0.03854166666666667,0.4148148148148148],[-0.03854166666666667,0.4148148148148148],[-0.03854166666666667,0.4148148148148148],[-0.03854166666666667,0.4148148148148148],[-0.03854166666666667,0.4148148148148148],[-0.03854166666666667,0.4148148148148148],[-0.03854166666666667,0.4148148148148148],[-0.03854166666666667,0.4148148148148148],[-0.03854166666666667,0.4148148148148148],[-0.03854166666666667,0.4148148148148148],[-0.03854166666666667,0.4148148148148148],[-0.03854166666666667,0.4148148148148148],[-0.03854166666666667,0.4148148148148148],[-0.03854166666666667,0.4148148148148148],[-0.03854166666666667,0.4148148148148148],[-0.03854166666666667,0.4148148148148148],[-0.03854166666666667,0.4148148148148148],[-0.03854166666666667,0.4148148148148148],[-0.03854166666666667,0.4148148148148148],[-0.03854166666666667,0.4148148148148148],[-0.03854166666666667,0.4148148148148148],[-0.03854166666666667,0.4148148148148148],[-0.03854166666666667,0.4148148148148148],[-0.03854166666666667,0.4148148148148148],[-0.03854166666666667,0.4148148148148148],[-0.03854166666666667,0.4148148148148148],[-0.03854166666666667,0.4148148148148148],[-0.03958333333333333,0.4148148148148148],[-0.03958333333333333,0.4148148148148148],[-0.03958333333333333,0.4111111111111111],[-0.03958333333333333,0.40555555555555556],[-0.03854166666666667,0.40370370370370373],[-0.03854166666666667,0.4],[-0.03854166666666667,0.39814814814814814],[-0.0375,0.39444444444444443],[-0.036458333333333336,0.3907407407407407],[-0.035416666666666666,0.38333333333333336],[-0.034375,0.3814814814814815],[-0.034375,0.3814814814814815],[-0.034375,0.37407407407407406],[-0.03333333333333333,0.37037037037037035],[-0.03125,0.362962962962963],[-0.030208333333333334,0.3592592592592593],[-0.028125,0.35185185185185186],[-0.027083333333333334,0.34814814814814815],[-0.026041666666666668,0.34444444444444444],[-0.026041666666666668,0.3425925925925926],[-0.025,0.3388888888888889],[-0.023958333333333335,0.3388888888888889],[-0.023958333333333335,0.337037037037037],[-0.023958333333333335,0.3333333333333333],[-0.023958333333333335,0.3333333333333333],[-0.022916666666666665,0.3314814814814815],[-0.022916666666666665,0.3296296296296296],[-0.022916666666666665,0.3277777777777778],[-0.022916666666666665,0.3277777777777778],[-0.022916666666666665,0.3277777777777778],[-0.022916666666666665,0.3277777777777778],[-0.021875,0.32592592592592595]]","[[0.03093750000000005,0.1685185185185185],[0.03093750000000005,0.1685185185185185],[0.04093749999999995,0.20555555555555555],[0.05531250000000002,0.20574074074074078],[0.040625,0.2948148148148149],[0.025937499999999978,0.3838888888888888],[0.013229166666666714,0.3787037037037037],[0.021875,0.32018518518518513],[0.022395833333333334,0.282037037037037],[0.014687500000000023,0.2264814814814814],[0.007500000000000047,0.12888888888888894],[-0.0009374999999999763,0.08796296296296297],[-0.006666666666666643,0.08962962962962959],[0.0009374999999999763,0.08203703703703695],[0.026041666666666668,0.046296296296296294],[0.026041666666666668,-0.0025925925925925505],[0.026041666666666668,-0.0025925925925925505],[0.01885416666666669,-0.043703703703703745],[0.01885416666666669,-0.043703703703703745],[-0.0006250000000000236,-0.007407407407407408],[-0.01739583333333338,0.02962962962962963],[-0.030208333333333334,0.05611111111111103],[-0.03125,0.10925925925925926],[-0.03104166666666662,0.10574074074074079],[-0.015416666666666618,0.12685185185185185],[-0.013125000000000024,0.15722222222222218],[-0.027499999999999976,0.18518518518518517],[-0.016770833333333356,0.22629629629629638],[-0.00635416666666669,0.25555555555555554],[0.0078125,0.25314814814814823],[0.019895833333333356,0.277962962962963],[0.03885416666666662,0.2957407407407408],[0.04604166666666672,0.2868518518518518],[0.04770833333333328,0.30574074074074076],[0.03739583333333331,0.28296296296296286],[0.041666666666666664,0.2759259259259259],[0.06468750000000002,0.2638888888888889],[0.08479166666666677,0.24444444444444444],[0.1109375,0.2603703703703704],[0.12864583333333332,0.25277777777777777],[0.14833333333333343,0.2192592592592592],[0.1642708333333334,0.1992592592592593],[0.16218750000000004,0.152962962962963],[0.17437500000000009,0.08537037037037042],[0.1984375,0.06629629629629621],[0.203125,0.018703703703703747],[0.1962500000000001,-0.02962962962962963],[0.19229166666666658,-0.0705555555555556],[0.18864583333333323,-0.09833333333333337],[0.18458333333333338,-0.13092592592592592],[0.18718750000000003,-0.13925925925925925],[0.19093749999999995,-0.12611111111111115],[0.21802083333333327,-0.05870370370370368],[0.21802083333333327,-0.05870370370370368],[0.23770833333333338,-0.004074074074074159],[0.21906249999999997,0.027037037037037078],[0.20520833333333333,0.07092592592592584],[0.18791666666666676,0.11444444444444436],[0.17739583333333328,0.127962962962963],[0.1616666666666667,0.12111111111111107],[0.17760416666666667,0.10629629629629625],[0.17760416666666667,0.10629629629629625],[0.15479166666666658,0.11370370370370367],[0.10791666666666658,0.14166666666666666],[0.06739583333333338,0.13870370370370366],[0.026041666666666668,0.14814814814814814],[0.019895833333333356,0.1609259259259259],[0.009791666666666643,0.16500000000000004],[0.011458333333333333,0.1757407407407407],[0.00635416666666669,0.21648148148148144],[0.00635416666666669,0.23870370370370367],[-0.016458333333333287,0.2972222222222222],[-0.0003124999999999526,0.32407407407407407],[0.03989583333333328,0.3303703703703703],[0.06531250000000005,0.3509259259259259],[0.09229166666666658,0.36129629629629634],[0.10187499999999995,0.36870370370370376],[0.1224999999999999,0.3725925925925927],[0.13875000000000004,0.36370370370370364],[0.15052083333333333,0.3774074074074073],[0.1486458333333334,0.4044444444444444],[0.15458333333333343,0.4462962962962963],[0.15104166666666666,0.47129629629629627],[0.1622916666666666,0.4890740740740741],[0.14010416666666667,0.43407407407407406],[0.11020833333333328,0.418888888888889],[0.08499999999999991,0.40185185185185185],[0.08322916666666676,0.362962962962963],[0.06239583333333331,0.3394444444444444],[0.04604166666666672,0.2933333333333333],[0.03864583333333336,0.2972222222222222],[0.024583333333333356,0.24944444444444452],[0.025729166666666713,0.19888888888888884],[0.012083333333333357,0.15555555555555556],[0.024374999999999977,0.15222222222222231],[0.04229166666666669,0.11314814814814819],[0.058749999999999976,0.09870370370370361],[0.042812500000000024,0.12611111111111115],[0.042812500000000024,0.12611111111111115],[0.03770833333333338,0.12092592592592584],[0.03770833333333338,0.12092592592592584],[0.04458333333333329,0.15481481481481485],[0.04562499999999995,0.15851851851851856],[0.05531250000000002,0.1853703703703704],[0.05531250000000002,0.1853703703703704],[0.049791666666666616,0.21500000000000005],[0.049791666666666616,0.21500000000000005],[0.022500000000000023,0.25999999999999995],[0.022500000000000023,0.25999999999999995],[0.01906249999999995,0.3274074074074073],[0.011666666666666714,0.352962962962963],[-0.00635416666666669,0.3485185185185186],[-0.022500000000000023,0.3362962962962963],[-0.022500000000000023,0.3362962962962963],[-0.01416666666666669,0.3374074074074075],[-0.007395833333333357,0.2983333333333334],[-0.022187499999999954,0.26222222222222225],[0.004479166666666619,0.2192592592592592],[0.02635416666666662,0.1911111111111112],[0.07000000000000005,0.14759259259259266],[0.08395833333333323,0.1198148148148149],[0.11145833333333334,0.10092592592592593],[0.12052083333333338,0.10425925925925918],[0.12958333333333344,0.10759259259259263],[0.13125,0.13962962962962958],[0.13125,0.13962962962962958],[0.1540625000000001,0.1557407407407408],[0.2289583333333333,0.14333333333333328],[0.2365624999999999,0.1581481481481481],[0.26510416666666664,0.15185185185185185],[0.2947916666666667,0.12111111111111107],[0.31270833333333337,0.08203703703703695],[0.3220833333333334,0.08148148148148149],[0.3623958333333334,0.09574074074074082],[0.4079166666666666,0.1346296296296297],[0.4344791666666666,0.0977777777777777],[0.42947916666666663,0.07796296296296301],[0.4019791666666668,0.06481481481481481],[0.39249999999999996,0.05351851851851848],[0.37302083333333325,0.06074074074074066],[0.3651041666666667,0.05481481481481486],[0.3854166666666667,0.04055555555555551],[0.4013541666666666,0.03037037037037033],[0.40177083333333335,-0.0235185185185186],[0.3997916666666666,-0.10092592592592593],[0.40499999999999997,-0.1190740740740741],[0.41854166666666665,-0.13370370370370369],[0.4461458333333333,-0.1479629629629629],[0.4808333333333332,-0.20537037037037034],[0.5010416666666667,-0.2722222222222222],[0.4878124999999999,-0.2455555555555556],[0.4508333333333333,-0.2577777777777778],[0.43083333333333323,-0.28277777777777774],[0.4331249999999999,-0.2740740740740741],[0.4432291666666667,-0.25981481481481483],[0.43947916666666675,-0.27814814814814814],[0.42729166666666674,-0.2675925925925926],[0.4122916666666666,-0.24759259259259256],[0.38822916666666674,-0.19296296296296295],[0.3740624999999999,-0.14481481481481479],[0.3806250000000001,-0.15259259259259256],[0.4109375,-0.12148148148148152],[0.43072916666666666,-0.10499999999999998],[0.44333333333333325,-0.11018518518518519],[0.4133333333333333,-0.14148148148148143],[0.39718749999999997,-0.14018518518518516],[0.3897916666666667,-0.15203703703703708],[0.3711458333333333,-0.17370370370370372],[0.3619791666666667,-0.1801851851851852],[0.35125000000000006,-0.182962962962963],[0.3195833333333333,-0.17333333333333337],[0.28791666666666677,-0.16370370370370366],[0.259375,-0.14425925925925923],[0.259375,-0.14425925925925923],[0.2367708333333333,-0.1507407407407407],[0.2415625000000001,-0.13777777777777775],[0.2367708333333333,-0.13407407407407404],[0.2267708333333334,-0.14518518518518514],[0.21520833333333325,-0.1425925925925926],[0.20270833333333324,-0.17999999999999997],[0.1638541666666666,-0.2242592592592593],[0.1586458333333333,-0.25833333333333336],[0.15635416666666657,-0.28166666666666673],[0.12291666666666666,-0.3257407407407407],[0.10812499999999996,-0.3598148148148148],[0.09791666666666667,-0.39388888888888884],[0.0890625,-0.3618518518518518],[0.06437499999999995,-0.33796296296296297],[0.057083333333333285,-0.3609259259259259],[0.04125000000000002,-0.35907407407407405],[0.04677083333333331,-0.327962962962963],[0.03958333333333333,-0.3194444444444444],[0.03843749999999998,-0.35259259259259257],[0.06218750000000005,-0.35703703703703704],[0.051770833333333384,-0.3181481481481482],[0.03572916666666662,-0.29814814814814816],[0.035416666666666666,-0.30925925925925923],[0.04750000000000002,-0.31666666666666665],[0.044062499999999956,-0.31962962962962965],[0.05531250000000002,-0.28648148148148145],[0.05145833333333331,-0.27999999999999997],[0.057187499999999974,-0.32166666666666666],[0.05562499999999997,-0.31555555555555553],[0.05291666666666662,-0.2874074074074074],[0.059791666666666646,-0.2866666666666667],[0.06895833333333339,-0.25870370370370366],[0.07062499999999995,-0.2564814814814815],[0.08635416666666676,-0.3103703703703704],[0.10177083333333338,-0.33555555555555555],[0.10250000000000009,-0.3968518518518519],[0.12260416666666671,-0.427962962962963],[0.13166666666666677,-0.382962962962963],[0.11749999999999995,-0.36370370370370364],[0.10208333333333333,-0.36203703703703705],[0.07302083333333324,-0.36518518518518517],[0.07947916666666661,-0.3387037037037037],[0.06875,-0.3801851851851852],[0.043958333333333384,-0.3655555555555555],[0.028541666666666642,-0.3177777777777778],[0.028541666666666642,-0.3177777777777778],[0.016354166666666715,-0.2983333333333334],[0.016354166666666715,-0.2983333333333334],[-0.005624999999999976,-0.32314814814814813],[-0.005624999999999976,-0.32314814814814813],[-0.021562500000000047,-0.32611111111111113],[-0.02333333333333331,-0.3111111111111111],[-0.02333333333333331,-0.3111111111111111],[-0.020937500000000022,-0.30925925925925923],[-0.020937500000000022,-0.30925925925925923],[0.0005208333333333333,-0.2448148148148148],[-0.024374999999999977,-0.21148148148148146],[-0.034791666666666644,-0.1388888888888889],[-0.05270833333333336,-0.07037037037037037],[-0.05270833333333336,-0.07037037037037037],[-0.05635416666666669,-0.07185185185185188],[-0.09239583333333339,-0.05407407407407405],[-0.08947916666666664,-0.03981481481481482],[-0.09333333333333335,-0.055740740740740785],[-0.09645833333333335,-0.08574074074074076],[-0.09645833333333335,-0.08574074074074076],[-0.09458333333333328,-0.1014814814814815],[-0.10364583333333334,-0.1905555555555555],[-0.10604166666666662,-0.2698148148148148],[-0.10572916666666667,-0.32037037037037036],[-0.07718750000000002,-0.34814814814814815],[-0.07583333333333328,-0.322037037037037],[-0.05343749999999995,-0.28166666666666673],[-0.05447916666666662,-0.20129629629629628],[-0.029791666666666692,-0.12240740740740745],[-0.005416666666666714,-0.08314814814814811]]","[[0.03093750000000005,0.1685185185185185,0.00029999999701857405],[0.03093750000000005,0.1685185185185185,0.040100000008941095],[0.04093749999999995,0.20555555555555555,0.04429999999702261],[0.05531250000000002,0.20574074074074078,0.05979999999701846],[0.040625,0.2948148148148149,0.07660000000893774],[0.025937499999999978,0.3838888888888888,0.09570000000297796],[0.013229166666666714,0.3787037037037037,0.11010000000894138],[0.021875,0.32018518518518513,0.12760000000893967],[0.022395833333333334,0.282037037037037,0.14310000000894263],[0.014687500000000023,0.2264814814814814,0.15979999999701988],[0.007500000000000047,0.12888888888888894,0.17640000000596245],[-0.0009374999999999763,0.08796296296296297,0.19320000000298165],[-0.006666666666666643,0.08962962962962959,0.20979999999701704],[0.0009374999999999763,0.08203703703703695,0.22650000000000148],[0.026041666666666668,0.046296296296296294,0.24640000000596274],[0.026041666666666668,-0.0025925925925925505,0.26410000000893774],[0.026041666666666668,-0.0025925925925925505,0.2815000000000012],[0.01885416666666669,-0.043703703703703745,0.29940000000596],[0.01885416666666669,-0.043703703703703745,0.3099000000059604],[-0.0006250000000000236,-0.007407407407407408,0.3265000000000029],[-0.01739583333333338,0.02962962962962963,0.3432999999970221],[-0.030208333333333334,0.05611111111111103,0.3597999999970227],[-0.03125,0.10925925925925926,0.3764000000059582],[-0.03104166666666662,0.10574074074074079,0.39629999999701937],[-0.015416666666666618,0.12685185185185185,0.4099999999999966],[-0.013125000000000024,0.15722222222222218,0.4264999999999972],[-0.027499999999999976,0.18518518518518517,0.44320000000298165],[-0.016770833333333356,0.22629629629629638,0.45979999999701704],[-0.00635416666666669,0.25555555555555554,0.4765000000000015],[0.0078125,0.25314814814814823,0.4932000000029788],[0.019895833333333356,0.277962962962963,0.509999999999998],[0.03885416666666662,0.2957407407407408,0.5264999999999986],[0.04604166666666672,0.2868518518518518,0.5431000000089412],[0.04770833333333328,0.30574074074074076,0.5597999999970185],[0.03739583333333331,0.28296296296296286,0.5765000000000029],[0.041666666666666664,0.2759259259259259,0.5931000000089384],[0.06468750000000002,0.2638888888888889,0.6097000000029809],[0.08479166666666677,0.24444444444444444,0.6264000000059582],[0.1109375,0.2603703703703704,0.6432000000029774],[0.12864583333333332,0.25277777777777777,0.6597999999970199],[0.14833333333333343,0.2192592592592592,0.6764999999999972],[0.1642708333333334,0.1992592592592593,0.6931000000089398],[0.16218750000000004,0.152962962962963,0.709799999997017],[0.17437500000000009,0.08537037037037042,0.7265000000000015],[0.1984375,0.06629629629629621,0.743100000008937],[0.203125,0.018703703703703747,0.7599000000059632],[0.1962500000000001,-0.02962962962962963,0.7764999999999986],[0.19229166666666658,-0.0705555555555556,0.7932000000029831],[0.18864583333333323,-0.09833333333333337,0.8097999999970185],[0.18458333333333338,-0.13092592592592592,0.8265000000000029],[0.18718750000000003,-0.13925925925925925,0.8431000000089384],[0.19093749999999995,-0.12611111111111115,0.8597999999970227],[0.21802083333333327,-0.05870370370370368,0.8765000000000001],[0.21802083333333327,-0.05870370370370368,0.8942000000029822],[0.23770833333333338,-0.004074074074074159,0.9101000000089385],[0.21906249999999997,0.027037037037037078,0.9266000000089392],[0.20520833333333333,0.07092592592592584,0.9431000000089398],[0.18791666666666676,0.11444444444444436,0.9619000000059614],[0.17739583333333328,0.127962962962963,0.97679999999702],[0.1616666666666667,0.12111111111111107,0.993799999997016],[0.17760416666666667,0.10629629629629625,1.0167999999970192],[0.17760416666666667,0.10629629629629625,1.0266000000089406],[0.15479166666666658,0.11370370370370367,1.0435000000000016],[0.10791666666666658,0.14166666666666666,1.0600000000000023],[0.06739583333333338,0.13870370370370366,1.0789000000059588],[0.026041666666666668,0.14814814814814814,1.093299999997022],[0.019895833333333356,0.1609259259259259,1.1097999999970227],[0.009791666666666643,0.16500000000000004,1.1309000000059584],[0.011458333333333333,0.1757407407407407,1.1464000000059613],[0.00635416666666669,0.21648148148148144,1.1601000000089385],[0.00635416666666669,0.23870370370370367,1.1766000000089392],[-0.016458333333333287,0.2972222222222222,1.1952999999970189],[-0.0003124999999999526,0.32407407407407407,1.209900000005959],[0.03989583333333328,0.3303703703703703,1.2267000000029782],[0.06531250000000005,0.3509259259259259,1.2432999999970207],[0.09229166666666658,0.36129629629629634,1.262400000005961],[0.10187499999999995,0.36870370370370376,1.2769000000059592],[0.1224999999999999,0.3725925925925927,1.296299999997018],[0.13875000000000004,0.36370370370370364,1.3100000000000023],[0.15052083333333333,0.3774074074074073,1.3296000000089379],[0.1486458333333334,0.4044444444444444,1.3437999999970174],[0.15458333333333343,0.4462962962962963,1.3599999999999994],[0.15104166666666666,0.47129629629629627,1.376600000008942],[0.1622916666666666,0.4890740740740741,1.3964000000059613],[0.14010416666666667,0.43407407407407406,1.4099999999999966],[0.11020833333333328,0.418888888888889,1.426799999997023],[0.08499999999999991,0.40185185185185185,1.4432999999970164],[0.08322916666666676,0.362962962962963,1.4621000000089381],[0.06239583333333331,0.3394444444444444,1.4767000000029782],[0.04604166666666672,0.2933333333333333,1.493900000005958],[0.03864583333333336,0.2972222222222222,1.512400000005961],[0.024583333333333356,0.24944444444444452,1.5264999999999986],[0.025729166666666713,0.19888888888888884,1.5434000000059598],[0.012083333333333357,0.15555555555555556,1.5600000000000023],[0.024374999999999977,0.15222222222222231,1.576400000005961],[0.04229166666666669,0.11314814814814819,1.5932000000029802],[0.058749999999999976,0.09870370370370361,1.611799999997018],[0.042812500000000024,0.12611111111111115,1.6264000000059582],[0.042812500000000024,0.12611111111111115,1.6431000000089426],[0.03770833333333338,0.12092592592592584,1.659700000002978],[0.03770833333333338,0.12092592592592584,1.6764999999999972],[0.04458333333333329,0.15481481481481485,1.6932999999970164],[0.04562499999999995,0.15851851851851856,1.712900000005959],[0.05531250000000002,0.1853703703703704,1.7304000000059574],[0.05531250000000002,0.1853703703703704,1.7432000000029788],[0.049791666666666616,0.21500000000000005,1.7597999999970213],[0.049791666666666616,0.21500000000000005,1.7764999999999986],[0.022500000000000023,0.25999999999999995,1.7934000000059598],[0.022500000000000023,0.25999999999999995,1.8097999999970185],[0.01906249999999995,0.3274074074074073,1.826500000000003],[0.011666666666666714,0.352962962962963,1.8452999999970174],[-0.00635416666666669,0.3485185185185186,1.8599000000059576],[-0.022500000000000023,0.3362962962962963,1.8767999999970186],[-0.022500000000000023,0.3362962962962963,1.8977000000029776],[-0.01416666666666669,0.3374074074074075,1.9102000000029804],[-0.007395833333333357,0.2983333333333334,1.9266000000089392],[-0.022187499999999954,0.26222222222222225,1.9464000000059585],[0.004479166666666619,0.2192592592592592,1.9600000000000009],[0.02635416666666662,0.1911111111111112,1.9767000000029782],[0.07000000000000005,0.14759259259259266,1.9934999999999974],[0.08395833333333323,0.1198148148148149,2.0126000000089377],[0.11145833333333334,0.10092592592592593,2.0266000000089406],[0.12052083333333338,0.10425925925925918,2.043299999997018],[0.12958333333333344,0.10759259259259263,2.0600000000000023],[0.13125,0.13962962962962958,2.0792000000029773],[0.13125,0.13962962962962958,2.093499999999999],[0.1540625000000001,0.1557407407407408,2.1101000000089414],[0.2289583333333333,0.14333333333333328,2.129700000002977],[0.2365624999999999,0.1581481481481481,2.145799999997017],[0.26510416666666664,0.15185185185185185,2.159900000005962],[0.2947916666666667,0.12111111111111107,2.176499999999997],[0.31270833333333337,0.08203703703703695,2.1956000000089375],[0.3220833333333334,0.08148148148148149,2.209799999997017],[0.3623958333333334,0.09574074074074082,2.2265000000000015],[0.4079166666666666,0.1346296296296297,2.243100000008937],[0.4344791666666666,0.0977777777777777,2.2597999999970213],[0.42947916666666663,0.07796296296296301,2.2764999999999986],[0.4019791666666668,0.06481481481481481,2.2944000000059575],[0.39249999999999996,0.05351851851851848,2.3097000000029766],[0.37302083333333325,0.06074074074074066,2.326500000000003],[0.3651041666666667,0.05481481481481486,2.3431000000089384],[0.3854166666666667,0.04055555555555551,2.3597999999970227],[0.4013541666666666,0.03037037037037033,2.376400000005958],[0.40177083333333335,-0.0235185185185186,2.394400000005959],[0.3997916666666666,-0.10092592592592593,2.409700000002978],[0.40499999999999997,-0.1190740740740741,2.4264000000059625],[0.41854166666666665,-0.13370370370370369,2.44310000000894],[0.4461458333333333,-0.1479629629629629,2.4611000000089405],[0.4808333333333332,-0.20537037037037034,2.4765000000000015],[0.5010416666666667,-0.2722222222222222,2.496000000000002],[0.4878124999999999,-0.2455555555555556,2.5104000000059585],[0.4508333333333333,-0.2577777777777778,2.5267000000029824],[0.43083333333333323,-0.28277777777777774,2.5459999999999994],[0.4331249999999999,-0.2740740740740741,2.560100000008937],[0.4432291666666667,-0.25981481481481483,2.5766000000089377],[0.43947916666666675,-0.27814814814814814,2.5961000000089385],[0.42729166666666674,-0.2675925925925926,2.6099999999999994],[0.4122916666666666,-0.24759259259259256,2.6292000000029816],[0.38822916666666674,-0.19296296296296295,2.6467999999970218],[0.3740624999999999,-0.14481481481481479,2.6611000000089433],[0.3806250000000001,-0.15259259259259256,2.676600000008939],[0.4109375,-0.12148148148148152,2.6974000000059632],[0.43072916666666666,-0.10499999999999998,2.7127000000029824],[0.44333333333333325,-0.11018518518518519,2.7272999999970224],[0.4133333333333333,-0.14148148148148143,2.7432999999970207],[0.39718749999999997,-0.14018518518518516,2.762400000005961],[0.3897916666666667,-0.15203703703703708,2.7764999999999986],[0.3711458333333333,-0.17370370370370372,2.79340000000596],[0.3619791666666667,-0.1801851851851852,2.8099000000059604],[0.35125000000000006,-0.182962962962963,2.828799999997017],[0.3195833333333333,-0.17333333333333337,2.8432000000029802],[0.28791666666666677,-0.16370370370370366,2.8601000000089414],[0.259375,-0.14425925925925923,2.8816000000089375],[0.259375,-0.14425925925925923,2.8961000000089427],[0.2367708333333333,-0.1507407407407407,2.9099999999999966],[0.2415625000000001,-0.13777777777777775,2.9287999999970182],[0.2367708333333333,-0.13407407407407404,2.9432999999970164],[0.2267708333333334,-0.14518518518518514,2.959900000005959],[0.21520833333333325,-0.1425925925925926,2.9766000000089434],[0.20270833333333324,-0.17999999999999997,2.996299999997021],[0.1638541666666666,-0.2242592592592593,3.0099000000059632],[0.1586458333333333,-0.25833333333333336,3.0267000000029824],[0.15635416666666657,-0.28166666666666673,3.043200000002983],[0.12291666666666666,-0.3257407407407407,3.0625],[0.10812499999999996,-0.3598148148148148,3.0766000000089377],[0.09791666666666667,-0.39388888888888884,3.0932000000029802],[0.0890625,-0.3618518518518518,3.109700000002981],[0.06437499999999995,-0.33796296296296297,3.129700000002977],[0.057083333333333285,-0.3609259259259259,3.146500000000003],[0.04125000000000002,-0.35907407407407405,3.159900000005962],[0.04677083333333331,-0.327962962962963,3.1764000000059625],[0.03958333333333333,-0.3194444444444444,3.1932000000029817],[0.03843749999999998,-0.35259259259259257,3.2097000000029823],[0.06218750000000005,-0.35703703703703704,3.2265000000000015],[0.051770833333333384,-0.3181481481481482,3.243100000008937],[0.03572916666666662,-0.29814814814814816,3.2597999999970213],[0.035416666666666666,-0.30925925925925923,3.2764000000059568],[0.04750000000000002,-0.31666666666666665,3.293100000008941],[0.044062499999999956,-0.31962962962962965,3.3097999999970185],[0.05531250000000002,-0.28648148148148145,3.326400000005961],[0.05145833333333331,-0.27999999999999997,3.3431000000089384],[0.057187499999999974,-0.32166666666666666,3.3597999999970227],[0.05562499999999997,-0.31555555555555553,3.376400000005958],[0.05291666666666662,-0.2874074074074074,3.3932000000029774],[0.059791666666666646,-0.2866666666666667,3.40979999999702],[0.06895833333333339,-0.25870370370370366,3.4264000000059625],[0.07062499999999995,-0.2564814814814815,3.44310000000894],[0.08635416666666676,-0.3103703703703704,3.4597000000029823],[0.10177083333333338,-0.33555555555555555,3.4765000000000015],[0.10250000000000009,-0.3968518518518519,3.493100000008937],[0.12260416666666671,-0.427962962962963,3.5097000000029794],[0.13166666666666677,-0.382962962962963,3.5264000000059568],[0.11749999999999995,-0.36370370370370364,3.543200000002983],[0.10208333333333333,-0.36203703703703705,3.5597000000029766],[0.07302083333333324,-0.36518518518518517,3.576999999999998],[0.07947916666666661,-0.3387037037037037,3.5932000000029802],[0.06875,-0.3801851851851852,3.609700000002981],[0.043958333333333384,-0.3655555555555555,3.6310000000000002],[0.028541666666666642,-0.3177777777777778,3.6494000000059614],[0.028541666666666642,-0.3177777777777778,3.659900000005962],[0.016354166666666715,-0.2983333333333334,3.676799999997023],[0.016354166666666715,-0.2983333333333334,3.6934000000059584],[-0.005624999999999976,-0.32314814814814813,3.7149000000059615],[-0.005624999999999976,-0.32314814814814813,3.7266000000089434],[-0.021562500000000047,-0.32611111111111113,3.7432999999970207],[-0.02333333333333331,-0.3111111111111111,3.767100000008938],[-0.02333333333333331,-0.3111111111111111,3.7884000000059572],[-0.020937500000000022,-0.30925925925925923,3.8084000000059604],[-0.020937500000000022,-0.30925925925925923,3.821799999997019],[0.0005208333333333333,-0.2448148148148148,3.826500000000003],[-0.024374999999999977,-0.21148148148148146,3.843400000005957],[-0.034791666666666644,-0.1388888888888889,3.8599000000059576],[-0.05270833333333336,-0.07037037037037037,3.8810000000000002],[-0.05270833333333336,-0.07037037037037037,3.8939999999999984],[-0.05635416666666669,-0.07185185185185188,3.9099999999999966],[-0.09239583333333339,-0.05407407407407405,3.926600000008939],[-0.08947916666666664,-0.03981481481481482,3.945299999997019],[-0.09333333333333335,-0.055740740740740785,3.960100000008943],[-0.09645833333333335,-0.08574074074074076,3.9766000000089434],[-0.09645833333333335,-0.08574074074074076,3.9957000000029765],[-0.09458333333333328,-0.1014814814814815,4.009999999999998],[-0.10364583333333334,-0.1905555555555555,4.0267000000029824],[-0.10604166666666662,-0.2698148148148148,4.043100000008941],[-0.10572916666666667,-0.32037037037037036,4.061600000008937],[-0.07718750000000002,-0.34814814814814815,4.076500000000003],[-0.07583333333333328,-0.322037037037037,4.093499999999999],[-0.05343749999999995,-0.28166666666666673,4.109700000002981],[-0.05447916666666662,-0.20129629629629628,4.1265],[-0.029791666666666692,-0.12240740740740745,4.143100000008943],[-0.005416666666666714,-0.08314814814814811,4.161600000008939]]","[0.00029999999701857405,0.040100000008941095,0.04429999999702261,0.05979999999701846,0.07660000000893774,0.09570000000297796,0.11010000000894138,0.12760000000893967,0.14310000000894263,0.15979999999701988,0.17640000000596245,0.19320000000298165,0.20979999999701704,0.22650000000000148,0.24640000000596274,0.26410000000893774,0.2815000000000012,0.29940000000596,0.3099000000059604,0.3265000000000029,0.3432999999970221,0.3597999999970227,0.3764000000059582,0.39629999999701937,0.4099999999999966,0.4264999999999972,0.44320000000298165,0.45979999999701704,0.4765000000000015,0.4932000000029788,0.509999999999998,0.5264999999999986,0.5431000000089412,0.5597999999970185,0.5765000000000029,0.5931000000089384,0.6097000000029809,0.6264000000059582,0.6432000000029774,0.6597999999970199,0.6764999999999972,0.6931000000089398,0.709799999997017,0.7265000000000015,0.743100000008937,0.7599000000059632,0.7764999999999986,0.7932000000029831,0.8097999999970185,0.8265000000000029,0.8431000000089384,0.8597999999970227,0.8765000000000001,0.8942000000029822,0.9101000000089385,0.9266000000089392,0.9431000000089398,0.9619000000059614,0.97679999999702,0.993799999997016,1.0167999999970192,1.0266000000089406,1.0435000000000016,1.0600000000000023,1.0789000000059588,1.093299999997022,1.1097999999970227,1.1309000000059584,1.1464000000059613,1.1601000000089385,1.1766000000089392,1.1952999999970189,1.209900000005959,1.2267000000029782,1.2432999999970207,1.262400000005961,1.2769000000059592,1.296299999997018,1.3100000000000023,1.3296000000089379,1.3437999999970174,1.3599999999999994,1.376600000008942,1.3964000000059613,1.4099999999999966,1.426799999997023,1.4432999999970164,1.4621000000089381,1.4767000000029782,1.493900000005958,1.512400000005961,1.5264999999999986,1.5434000000059598,1.5600000000000023,1.576400000005961,1.5932000000029802,1.611799999997018,1.6264000000059582,1.6431000000089426,1.659700000002978,1.6764999999999972,1.6932999999970164,1.712900000005959,1.7304000000059574,1.7432000000029788,1.7597999999970213,1.7764999999999986,1.7934000000059598,1.8097999999970185,1.826500000000003,1.8452999999970174,1.8599000000059576,1.8767999999970186,1.8977000000029776,1.9102000000029804,1.9266000000089392,1.9464000000059585,1.9600000000000009,1.9767000000029782,1.9934999999999974,2.0126000000089377,2.0266000000089406,2.043299999997018,2.0600000000000023,2.0792000000029773,2.093499999999999,2.1101000000089414,2.129700000002977,2.145799999997017,2.159900000005962,2.176499999999997,2.1956000000089375,2.209799999997017,2.2265000000000015,2.243100000008937,2.2597999999970213,2.2764999999999986,2.2944000000059575,2.3097000000029766,2.326500000000003,2.3431000000089384,2.3597999999970227,2.376400000005958,2.394400000005959,2.409700000002978,2.4264000000059625,2.44310000000894,2.4611000000089405,2.4765000000000015,2.496000000000002,2.5104000000059585,2.5267000000029824,2.5459999999999994,2.560100000008937,2.5766000000089377,2.5961000000089385,2.6099999999999994,2.6292000000029816,2.6467999999970218,2.6611000000089433,2.676600000008939,2.6974000000059632,2.7127000000029824,2.7272999999970224,2.7432999999970207,2.762400000005961,2.7764999999999986,2.79340000000596,2.8099000000059604,2.828799999997017,2.8432000000029802,2.8601000000089414,2.8816000000089375,2.8961000000089427,2.9099999999999966,2.9287999999970182,2.9432999999970164,2.959900000005959,2.9766000000089434,2.996299999997021,3.0099000000059632,3.0267000000029824,3.043200000002983,3.0625,3.0766000000089377,3.0932000000029802,3.109700000002981,3.129700000002977,3.146500000000003,3.159900000005962,3.1764000000059625,3.1932000000029817,3.2097000000029823,3.2265000000000015,3.243100000008937,3.2597999999970213,3.2764000000059568,3.293100000008941,3.3097999999970185,3.326400000005961,3.3431000000089384,3.3597999999970227,3.376400000005958,3.3932000000029774,3.40979999999702,3.4264000000059625,3.44310000000894,3.4597000000029823,3.4765000000000015,3.493100000008937,3.5097000000029794,3.5264000000059568,3.543200000002983,3.5597000000029766,3.576999999999998,3.5932000000029802,3.609700000002981,3.6310000000000002,3.6494000000059614,3.659900000005962,3.676799999997023,3.6934000000059584,3.7149000000059615,3.7266000000089434,3.7432999999970207,3.767100000008938,3.7884000000059572,3.8084000000059604,3.821799999997019,3.826500000000003,3.843400000005957,3.8599000000059576,3.8810000000000002,3.8939999999999984,3.9099999999999966,3.926600000008939,3.945299999997019,3.960100000008943,3.9766000000089434,3.9957000000029765,4.009999999999998,4.0267000000029824,4.043100000008941,4.061600000008937,4.076500000000003,4.093499999999999,4.109700000002981,4.1265,4.143100000008943,4.161600000008939]","[1733193804240,1733193804273,1733193804277,1733193804293,1733193804310,1733193804329,1733193804343,1733193804361,1733193804376,1733193804393,1733193804409,1733193804426,1733193804443,1733193804459,1733193804479,1733193804497,1733193804515,1733193804532,1733193804543,1733193804559,1733193804576,1733193804593,1733193804609,1733193804629,1733193804643,1733193804659,1733193804676,1733193804693,1733193804709,1733193804726,1733193804743,1733193804759,1733193804776,1733193804793,1733193804809,1733193804826,1733193804843,1733193804859,1733193804876,1733193804893,1733193804909,1733193804926,1733193804943,1733193804959,1733193804976,1733193804993,1733193805009,1733193805026,1733193805043,1733193805059,1733193805076,1733193805093,1733193805109,1733193805127,1733193805143,1733193805160,1733193805176,1733193805195,1733193805210,1733193805227,1733193805250,1733193805260,1733193805276,1733193805293,1733193805312,1733193805326,1733193805343,1733193805364,1733193805379,1733193805393,1733193805410,1733193805428,1733193805443,1733193805460,1733193805476,1733193805495,1733193805510,1733193805529,1733193805543,1733193805563,1733193805577,1733193805593,1733193805610,1733193805629,1733193805643,1733193805660,1733193805676,1733193805695,1733193805710,1733193805727,1733193805745,1733193805759,1733193805776,1733193805793,1733193805809,1733193805826,1733193805845,1733193805859,1733193805876,1733193805893,1733193805909,1733193805926,1733193805946,1733193805963,1733193805976,1733193805993,1733193806009,1733193806026,1733193806043,1733193806059,1733193806078,1733193806093,1733193806110,1733193806131,1733193806143,1733193806160,1733193806179,1733193806193,1733193806210,1733193806227,1733193806245,1733193806260,1733193806276,1733193806293,1733193806312,1733193806326,1733193806343,1733193806363,1733193806379,1733193806393,1733193806409,1733193806429,1733193806443,1733193806459,1733193806476,1733193806493,1733193806509,1733193806527,1733193806543,1733193806559,1733193806576,1733193806593,1733193806609,1733193806627,1733193806643,1733193806659,1733193806676,1733193806694,1733193806709,1733193806729,1733193806743,1733193806760,1733193806779,1733193806793,1733193806810,1733193806829,1733193806843,1733193806862,1733193806880,1733193806894,1733193806910,1733193806930,1733193806946,1733193806960,1733193806976,1733193806995,1733193807009,1733193807026,1733193807043,1733193807062,1733193807076,1733193807093,1733193807115,1733193807129,1733193807143,1733193807162,1733193807176,1733193807193,1733193807210,1733193807229,1733193807243,1733193807260,1733193807276,1733193807295,1733193807310,1733193807326,1733193807343,1733193807363,1733193807380,1733193807393,1733193807409,1733193807426,1733193807443,1733193807459,1733193807476,1733193807493,1733193807509,1733193807526,1733193807543,1733193807559,1733193807576,1733193807593,1733193807609,1733193807626,1733193807643,1733193807659,1733193807676,1733193807693,1733193807709,1733193807726,1733193807743,1733193807759,1733193807776,1733193807793,1733193807810,1733193807826,1733193807843,1733193807864,1733193807882,1733193807893,1733193807910,1733193807926,1733193807948,1733193807960,1733193807976,1733193808000,1733193808021,1733193808041,1733193808055,1733193808059,1733193808076,1733193808093,1733193808114,1733193808127,1733193808143,1733193808160,1733193808178,1733193808193,1733193808210,1733193808229,1733193808243,1733193808260,1733193808276,1733193808295,1733193808309,1733193808326,1733193808343,1733193808359,1733193808376,1733193808394]","[[989.7,631],[989.7,631],[999.3,651],[1013.1,651.1],[999,699.2],[984.9,747.3],[972.7,744.5],[981,712.9],[981.5,692.3],[974.1,662.3],[967.2,609.6],[959.1,587.5],[953.6,588.4],[960.9,584.3],[985,565],[985,538.6],[985,538.6],[978.1,516.4],[978.1,516.4],[959.4,536],[943.3,556],[931,570.3],[930,599],[930.2,597.1],[945.2,608.5],[947.4,624.9],[933.6,640],[943.9,662.2],[953.9,678],[967.5,676.7],[979.1,690.1],[997.3,699.7],[1004.2,694.9],[1005.8,705.1],[995.9,692.8],[1000,689],[1022.1,682.5],[1041.4,672],[1066.5,680.6],[1083.5,676.5],[1102.4,658.4],[1117.7,647.6],[1115.7,622.6],[1127.4,586.1],[1150.5,575.8],[1155,550.1],[1148.4,524],[1144.6,501.9],[1141.1,486.9],[1137.2,469.3],[1139.7,464.8],[1143.3,471.9],[1169.3,508.3],[1169.3,508.3],[1188.2,537.8],[1170.3,554.6],[1157,578.3],[1140.4,601.8],[1130.3,609.1],[1115.2,605.4],[1130.5,597.4],[1130.5,597.4],[1108.6,601.4],[1063.6,616.5],[1024.7,614.9],[985,620],[979.1,626.9],[969.4,629.1],[971,634.9],[966.1,656.9],[966.1,668.9],[944.2,700.5],[959.7,715],[998.3,718.4],[1022.7,729.5],[1048.6,735.1],[1057.8,739.1],[1077.6,741.2],[1093.2,736.4],[1104.5,743.8],[1102.7,758.4],[1108.4,781],[1105,794.5],[1115.8,804.1],[1094.5,774.4],[1065.8,766.2],[1041.6,757],[1039.9,736],[1019.9,723.3],[1004.2,698.4],[997.1,700.5],[983.6,674.7],[984.7,647.4],[971.6,624],[983.4,622.2],[1000.6,601.1],[1016.4,593.3],[1001.1,608.1],[1001.1,608.1],[996.2,605.3],[996.2,605.3],[1002.8,623.6],[1003.8,625.6],[1013.1,640.1],[1013.1,640.1],[1007.8,656.1],[1007.8,656.1],[981.6,680.4],[981.6,680.4],[978.3,716.8],[971.2,730.6],[953.9,728.2],[938.4,721.6],[938.4,721.6],[946.4,722.2],[952.9,701.1],[938.7,681.6],[964.3,658.4],[985.3,643.2],[1027.2,619.7],[1040.6,604.7],[1067,594.5],[1075.7,596.3],[1084.4,598.1],[1086,615.4],[1086,615.4],[1107.9,624.1],[1179.8,617.4],[1187.1,625.4],[1214.5,622],[1243,605.4],[1260.2,584.3],[1269.2,584],[1307.9,591.7],[1351.6,612.7],[1377.1,592.8],[1372.3,582.1],[1345.9,575],[1336.8,568.9],[1318.1,572.8],[1310.5,569.6],[1330,561.9],[1345.3,556.4],[1345.7,527.3],[1343.8,485.5],[1348.8,475.7],[1361.8,467.8],[1388.3,460.1],[1421.6,429.1],[1441,393],[1428.3,407.4],[1392.8,400.8],[1373.6,387.3],[1375.8,392],[1385.5,399.7],[1381.9,389.8],[1370.2,395.5],[1355.8,406.3],[1332.7,435.8],[1319.1,461.8],[1325.4,457.6],[1354.5,474.4],[1373.5,483.3],[1385.6,480.5],[1356.8,463.6],[1341.3,464.3],[1334.2,457.9],[1316.3,446.2],[1307.5,442.7],[1297.2,441.2],[1266.8,446.4],[1236.4,451.6],[1209,462.1],[1209,462.1],[1187.3,458.6],[1191.9,465.6],[1187.3,467.6],[1177.7,461.6],[1166.6,463],[1154.6,442.8],[1117.3,418.9],[1112.3,400.5],[1110.1,387.9],[1078,364.1],[1063.8,345.7],[1054,327.3],[1045.5,344.6],[1021.8,357.5],[1014.8,345.1],[999.6,346.1],[1004.9,362.9],[998,367.5],[996.9,349.6],[1019.7,347.2],[1009.7,368.2],[994.3,379],[994,373],[1005.6,369],[1002.3,367.4],[1013.1,385.3],[1009.4,388.8],[1014.9,366.3],[1013.4,369.6],[1010.8,384.8],[1017.4,385.2],[1026.2,400.3],[1027.8,401.5],[1042.9,372.4],[1057.7,358.8],[1058.4,325.7],[1077.7,308.9],[1086.4,333.2],[1072.8,343.6],[1058,344.5],[1030.1,342.8],[1036.3,357.1],[1026,334.7],[1002.2,342.6],[987.4,368.4],[987.4,368.4],[975.7,378.9],[975.7,378.9],[954.6,365.5],[954.6,365.5],[939.3,363.9],[937.6,372],[937.6,372],[939.9,373],[939.9,373],[960.5,407.8],[936.6,425.8],[926.6,465],[909.4,502],[909.4,502],[905.9,501.2],[871.3,510.8],[874.1,518.5],[870.4,509.9],[867.4,493.7],[867.4,493.7],[869.2,485.2],[860.5,437.1],[858.2,394.3],[858.5,367],[885.9,352],[887.2,366.1],[908.7,387.9],[907.7,431.3],[931.4,473.9],[954.8,495.1]]","[0,0.3527331528]","[0.3527331528,0.3527331528]","[-0.3527331528,-0.3527331528]","[-0.3527331528,0]","[0,-0.3527331528]","[0.3527331528,-0.3527331528]","[0,0]","[0.3527331528,0]",0,0,0,0,1,3,Tablet,11,9,9,1
,,,,,,,,,,,,,,,,,,,14,001,2024-12-03_10h42.36.593,Attention_exp_legacy,2023.1.0,Win32,59.88023952,,,,,,,,,,,[0.07291666666666667],[0.3037037037037037],[1],[0],[0],[2.732100000008934],"[""Option1_label""]",Option1_label,2,3.7369,"[[-0.020833333333333332,0.31296296296296294],[-0.020833333333333332,0.31296296296296294],[-0.020833333333333332,0.31296296296296294],[-0.020833333333333332,0.31296296296296294],[-0.020833333333333332,0.31296296296296294],[-0.020833333333333332,0.31296296296296294],[-0.020833333333333332,0.31296296296296294],[-0.020833333333333332,0.31296296296296294],[-0.020833333333333332,0.31296296296296294],[-0.020833333333333332,0.31296296296296294],[-0.020833333333333332,0.31296296296296294],[-0.020833333333333332,0.31296296296296294],[-0.020833333333333332,0.31296296296296294],[-0.020833333333333332,0.31296296296296294],[-0.020833333333333332,0.31296296296296294],[-0.020833333333333332,0.31296296296296294],[-0.020833333333333332,0.31296296296296294],[-0.020833333333333332,0.31296296296296294],[-0.020833333333333332,0.31296296296296294],[-0.020833333333333332,0.31296296296296294],[-0.020833333333333332,0.31296296296296294],[-0.020833333333333332,0.31296296296296294],[-0.020833333333333332,0.31296296296296294],[-0.020833333333333332,0.31296296296296294],[-0.020833333333333332,0.31296296296296294],[-0.020833333333333332,0.31296296296296294],[-0.020833333333333332,0.3111111111111111],[-0.020833333333333332,0.3111111111111111],[-0.020833333333333332,0.3111111111111111],[-0.020833333333333332,0.3111111111111111],[-0.020833333333333332,0.3111111111111111],[-0.020833333333333332,0.3111111111111111],[-0.020833333333333332,0.30925925925925923],[-0.020833333333333332,0.30925925925925923],[-0.020833333333333332,0.30925925925925923],[-0.020833333333333332,0.30925925925925923],[-0.020833333333333332,0.30925925925925923],[-0.020833333333333332,0.3074074074074074],[-0.020833333333333332,0.3074074074074074],[-0.020833333333333332,0.3074074074074074],[-0.020833333333333332,0.3074074074074074],[-0.020833333333333332,0.3074074074074074],[-0.020833333333333332,0.3074074074074074],[-0.020833333333333332,0.3074074074074074],[-0.020833333333333332,0.3074074074074074],[-0.020833333333333332,0.3055555555555556],[-0.020833333333333332,0.3055555555555556],[-0.020833333333333332,0.3055555555555556],[-0.020833333333333332,0.3055555555555556],[-0.020833333333333332,0.3055555555555556],[-0.020833333333333332,0.3055555555555556],[-0.020833333333333332,0.3055555555555556],[-0.020833333333333332,0.3055555555555556],[-0.020833333333333332,0.3055555555555556],[-0.020833333333333332,0.3055555555555556],[-0.020833333333333332,0.3055555555555556],[-0.020833333333333332,0.3055555555555556],[-0.020833333333333332,0.3055555555555556],[-0.020833333333333332,0.3055555555555556],[-0.020833333333333332,0.3055555555555556],[-0.020833333333333332,0.3055555555555556],[-0.020833333333333332,0.3055555555555556],[-0.020833333333333332,0.3055555555555556],[-0.020833333333333332,0.3055555555555556],[-0.020833333333333332,0.3055555555555556],[-0.020833333333333332,0.3055555555555556],[-0.020833333333333332,0.3055555555555556],[-0.020833333333333332,0.3055555555555556],[-0.020833333333333332,0.3055555555555556],[-0.020833333333333332,0.3055555555555556],[-0.020833333333333332,0.3055555555555556],[-0.020833333333333332,0.3055555555555556],[-0.020833333333333332,0.3055555555555556],[-0.020833333333333332,0.3055555555555556],[-0.020833333333333332,0.3055555555555556],[-0.020833333333333332,0.3055555555555556],[-0.020833333333333332,0.3055555555555556],[-0.020833333333333332,0.3055555555555556],[-0.020833333333333332,0.3055555555555556],[-0.020833333333333332,0.3055555555555556],[-0.01875,0.3055555555555556],[-0.011458333333333333,0.3055555555555556],[0,0.3074074074074074],[0.01875,0.31851851851851853],[0.04375,0.32222222222222224],[0.084375,0.3314814814814815],[0.09583333333333334,0.3388888888888889],[0.11979166666666667,0.3425925925925926],[0.13645833333333332,0.34814814814814815],[0.15208333333333332,0.35],[0.165625,0.35555555555555557],[0.18020833333333333,0.3592592592592593],[0.190625,0.3611111111111111],[0.19791666666666666,0.362962962962963],[0.20625,0.3648148148148148],[0.21666666666666667,0.36666666666666664],[0.228125,0.3685185185185185],[0.240625,0.37407407407407406],[0.24895833333333334,0.37592592592592594],[0.25625,0.37592592592592594],[0.2604166666666667,0.37592592592592594],[0.265625,0.37592592592592594],[0.2708333333333333,0.37592592592592594],[0.27708333333333335,0.37962962962962965],[0.28229166666666666,0.3814814814814815],[0.284375,0.3814814814814815],[0.28541666666666665,0.3814814814814815],[0.28541666666666665,0.3814814814814815],[0.28541666666666665,0.3814814814814815],[0.28541666666666665,0.3814814814814815],[0.28541666666666665,0.3814814814814815],[0.28541666666666665,0.3814814814814815],[0.28541666666666665,0.3814814814814815],[0.28541666666666665,0.3814814814814815],[0.28541666666666665,0.3814814814814815],[0.28541666666666665,0.3814814814814815],[0.28541666666666665,0.3814814814814815],[0.28541666666666665,0.3814814814814815],[0.28541666666666665,0.3814814814814815],[0.28541666666666665,0.3814814814814815],[0.28541666666666665,0.3814814814814815],[0.284375,0.3814814814814815],[0.28229166666666666,0.37962962962962965],[0.28125,0.37777777777777777],[0.2791666666666667,0.37777777777777777],[0.2791666666666667,0.37777777777777777],[0.2791666666666667,0.37592592592592594],[0.2791666666666667,0.37592592592592594],[0.2791666666666667,0.37592592592592594],[0.2791666666666667,0.37592592592592594],[0.2791666666666667,0.37592592592592594],[0.2791666666666667,0.37592592592592594],[0.2791666666666667,0.37592592592592594],[0.2791666666666667,0.37592592592592594],[0.2791666666666667,0.37592592592592594],[0.278125,0.37407407407407406],[0.26145833333333335,0.36666666666666664],[0.23854166666666668,0.35555555555555557],[0.21041666666666667,0.3425925925925926],[0.18125,0.3333333333333333],[0.15833333333333333,0.32592592592592595],[0.14479166666666668,0.31851851851851853],[0.13854166666666667,0.3148148148148148],[0.1375,0.3148148148148148],[0.1375,0.3148148148148148],[0.13645833333333332,0.3148148148148148],[0.134375,0.3148148148148148],[0.13125,0.3148148148148148],[0.125,0.3148148148148148],[0.11770833333333333,0.3111111111111111],[0.11041666666666666,0.3074074074074074],[0.10104166666666667,0.3055555555555556],[0.096875,0.3037037037037037],[0.09479166666666666,0.3037037037037037],[0.08958333333333333,0.3037037037037037],[0.084375,0.3037037037037037],[0.078125,0.3037037037037037],[0.07395833333333333,0.3037037037037037],[0.07291666666666667,0.3037037037037037],[0.07291666666666667,0.3037037037037037],[0.07291666666666667,0.3037037037037037],[0.07291666666666667,0.3037037037037037],[0.07291666666666667,0.3037037037037037],[0.07291666666666667,0.3037037037037037],[0.07291666666666667,0.3037037037037037],[0.07291666666666667,0.3037037037037037],[0.07291666666666667,0.3037037037037037],[0.07291666666666667,0.3037037037037037],[0.07291666666666667,0.3037037037037037],[0.07291666666666667,0.3037037037037037],[0.07291666666666667,0.3037037037037037],[0.07291666666666667,0.3037037037037037],[0.07291666666666667,0.3037037037037037],[0.07291666666666667,0.3037037037037037],[0.07291666666666667,0.3037037037037037],[0.07291666666666667,0.3037037037037037],[0.07291666666666667,0.3037037037037037],[0.07291666666666667,0.3037037037037037],[0.07291666666666667,0.3037037037037037],[0.07291666666666667,0.3037037037037037],[0.07291666666666667,0.3037037037037037],[0.07291666666666667,0.3037037037037037],[0.07291666666666667,0.3037037037037037],[0.07291666666666667,0.3037037037037037],[0.07291666666666667,0.3037037037037037],[0.07291666666666667,0.3037037037037037],[0.07291666666666667,0.3037037037037037],[0.07291666666666667,0.3037037037037037],[0.07291666666666667,0.3037037037037037],[0.07291666666666667,0.3037037037037037],[0.07291666666666667,0.3037037037037037],[0.07291666666666667,0.3037037037037037],[0.07291666666666667,0.3037037037037037],[0.07291666666666667,0.3037037037037037],[0.07291666666666667,0.3037037037037037],[0.07291666666666667,0.3037037037037037],[0.07291666666666667,0.3037037037037037],[0.07291666666666667,0.3037037037037037],[0.07291666666666667,0.3037037037037037],[0.07291666666666667,0.3037037037037037],[0.07291666666666667,0.3037037037037037],[0.07291666666666667,0.3037037037037037],[0.07291666666666667,0.3037037037037037],[0.07291666666666667,0.3037037037037037],[0.07291666666666667,0.3037037037037037],[0.07291666666666667,0.3037037037037037],[0.07291666666666667,0.3037037037037037],[0.07291666666666667,0.3037037037037037],[0.07291666666666667,0.3037037037037037],[0.07291666666666667,0.3037037037037037],[0.07291666666666667,0.3037037037037037],[0.07291666666666667,0.3037037037037037],[0.07291666666666667,0.3037037037037037],[0.07291666666666667,0.3037037037037037],[0.07291666666666667,0.3037037037037037],[0.07291666666666667,0.3037037037037037],[0.07291666666666667,0.3037037037037037],[0.07291666666666667,0.3037037037037037],[0.07291666666666667,0.3037037037037037],[0.07291666666666667,0.3037037037037037],[0.07291666666666667,0.3037037037037037],[0.07291666666666667,0.3037037037037037],[0.07291666666666667,0.3037037037037037],[0.07291666666666667,0.3037037037037037],[0.07291666666666667,0.3037037037037037]]","[[0.03427083333333331,-0.00722222222222218],[0.015312500000000047,-0.05648148148148148],[-0.00791666666666669,-0.10981481481481484],[-0.019791666666666666,-0.1814814814814815],[-0.02010416666666662,-0.24592592592592594],[-0.02041666666666669,-0.3103703703703704],[-0.01885416666666669,-0.36740740740740735],[-0.012812499999999952,-0.42388888888888887],[-0.024479166666666666,-0.4381481481481482],[-0.04833333333333331,-0.4155555555555555],[-0.06364583333333336,-0.41703703703703704],[-0.07916666666666666,-0.42851851851851847],[-0.09041666666666662,-0.4359259259259259],[-0.07687499999999996,-0.4612962962962963],[-0.07104166666666671,-0.4938888888888889],[-0.05437500000000005,-0.5066666666666667],[-0.04510416666666662,-0.5011111111111112],[-0.041562499999999974,-0.492037037037037],[-0.035000000000000024,-0.504074074074074],[-0.014374999999999952,-0.5062962962962962],[-0.0020833333333333333,-0.4777777777777778],[0.00947916666666669,-0.4572222222222222],[0.013541666666666667,-0.4564814814814815],[0.00635416666666669,-0.4396296296296296],[0.011979166666666667,-0.3955555555555556],[0.011979166666666667,-0.3955555555555556],[-0.006666666666666643,-0.37648148148148153],[-0.006666666666666643,-0.37648148148148153],[-0.016979166666666618,-0.3696296296296297],[-0.016979166666666618,-0.3696296296296297],[-0.022187499999999954,-0.3551851851851852],[-0.022187499999999954,-0.3551851851851852],[-0.043333333333333356,-0.3648148148148148],[-0.043333333333333356,-0.3648148148148148],[-0.050312499999999954,-0.3624074074074074],[-0.050312499999999954,-0.3624074074074074],[-0.04125000000000002,-0.36148148148148146],[-0.04125000000000002,-0.36148148148148146],[-0.04052083333333331,-0.3522222222222222],[-0.024583333333333356,-0.30092592592592593],[-0.008645833333333287,-0.24962962962962965],[-0.0012500000000000473,-0.23037037037037034],[0.019583333333333286,-0.2059259259259259],[0.019583333333333286,-0.2059259259259259],[0.03208333333333328,-0.16148148148148145],[0.05395833333333329,-0.14870370370370373],[0.07010416666666662,-0.11796296296296294],[0.07208333333333337,-0.0992592592592593],[0.05416666666666667,-0.10759259259259263],[0.04552083333333338,-0.10629629629629625],[-0.008124999999999953,-0.1440740740740741],[-0.06177083333333329,-0.18185185185185182],[-0.11614583333333334,-0.19703703703703698],[-0.16354166666666667,-0.22740740740740742],[-0.19583333333333333,-0.26222222222222225],[-0.22239583333333332,-0.24500000000000002],[-0.2328125,-0.2548148148148149],[-0.2539583333333333,-0.2625925925925926],[-0.26291666666666663,-0.27259259259259255],[-0.3126041666666667,-0.2718518518518519],[-0.325,-0.2542592592592593],[-0.3228125,-0.24351851851851852],[-0.31062500000000004,-0.26185185185185184],[-0.30802083333333335,-0.22888888888888892],[-0.3182291666666667,-0.2035185185185185],[-0.3572916666666667,-0.24648148148148152],[-0.39083333333333337,-0.25629629629629624],[-0.4136458333333334,-0.2681481481481482],[-0.4319791666666667,-0.29148148148148145],[-0.40958333333333335,-0.3255555555555556],[-0.38999999999999996,-0.3646296296296296],[-0.385,-0.3968518518518519],[-0.37916666666666665,-0.4083333333333333],[-0.3828125,-0.4179629629629629],[-0.3807291666666667,-0.4287037037037037],[-0.36875,-0.40314814814814814],[-0.34791666666666665,-0.37592592592592594],[-0.32708333333333334,-0.34870370370370374],[-0.30041666666666667,-0.32],[-0.2772916666666667,-0.28944444444444445],[-0.24635416666666668,-0.255],[-0.20979166666666665,-0.2366666666666667],[-0.18760416666666668,-0.22777777777777777],[-0.14500000000000005,-0.23574074074074075],[-0.11041666666666666,-0.2383333333333333],[-0.0704166666666667,-0.2566666666666667],[-0.03927083333333338,-0.2766666666666666],[0.0015625,-0.29611111111111105],[0.03208333333333328,-0.3055555555555556],[0.04510416666666662,-0.325],[0.04760416666666671,-0.34518518518518515],[0.059375,-0.32111111111111107],[0.07312500000000005,-0.33499999999999996],[0.09104166666666676,-0.36629629629629634],[0.1165625000000001,-0.3905555555555555],[0.12322916666666663,-0.39166666666666666],[0.13666666666666671,-0.3888888888888889],[0.13583333333333342,-0.3912962962962963],[0.13145833333333337,-0.38740740740740737],[0.15812499999999996,-0.3824074074074074],[0.18250000000000005,-0.36574074074074076],[0.19239583333333338,-0.37092592592592594],[0.19958333333333325,-0.3461111111111111],[0.19958333333333325,-0.3461111111111111],[0.1898958333333333,-0.36666666666666664],[0.1881249999999999,-0.375],[0.20031249999999995,-0.3772222222222222],[0.19135416666666671,-0.40111111111111114],[0.1921875,-0.43037037037037035],[0.2131249999999999,-0.42962962962962964],[0.22468750000000004,-0.43148148148148147],[0.23666666666666672,-0.4890740740740741],[0.23781249999999995,-0.549074074074074],[0.24416666666666675,-0.5690740740740741],[0.2548958333333334,-0.5474074074074075],[0.25010416666666657,-0.545],[0.2508333333333333,-0.5650000000000001],[0.2613541666666668,-0.562037037037037],[0.2709374999999999,-0.5542592592592592],[0.2639583333333334,-0.5827777777777777],[0.25281250000000005,-0.6133333333333333],[0.2490624999999999,-0.5979629629629629],[0.2615624999999999,-0.5698148148148148],[0.2543750000000001,-0.5648148148148148],[0.23020833333333332,-0.58],[0.20604166666666662,-0.5951851851851852],[0.18614583333333337,-0.5894444444444444],[0.18614583333333337,-0.5894444444444444],[0.16927083333333334,-0.5968518518518519],[0.1493750000000001,-0.6011111111111112],[0.14093749999999997,-0.6383333333333333],[0.140625,-0.6275925925925926],[0.14031250000000003,-0.6168518518518519],[0.12781250000000005,-0.6262962962962962],[0.13052083333333328,-0.6446296296296297],[0.15822916666666675,-0.6307407407407408],[0.18395833333333325,-0.6568518518518518],[0.18395833333333325,-0.6568518518518518],[0.18614583333333337,-0.6570370370370371],[0.18614583333333337,-0.6570370370370371],[0.19947916666666668,-0.6309259259259259],[0.19718749999999996,-0.5837037037037037],[0.19270833333333334,-0.5177777777777778],[0.18166666666666675,-0.49000000000000005],[0.16270833333333337,-0.4816666666666667],[0.15010416666666657,-0.4698148148148148],[0.1544791666666666,-0.45092592592592595],[0.1544791666666666,-0.45092592592592595],[0.1508333333333333,-0.4440740740740741],[0.1508333333333333,-0.4440740740740741],[0.13854166666666667,-0.372037037037037],[0.13854166666666667,-0.372037037037037],[0.13052083333333328,-0.327962962962963],[0.13052083333333328,-0.327962962962963],[0.12260416666666671,-0.3194444444444444],[0.12260416666666671,-0.3194444444444444],[0.11802083333333328,-0.34333333333333327],[0.11802083333333328,-0.34333333333333327],[0.09156250000000009,-0.35333333333333333],[0.08937499999999995,-0.3374074074074074],[0.09510416666666661,-0.3020370370370371],[0.10427083333333324,-0.25703703703703706],[0.09645833333333324,-0.2190740740740741],[0.09645833333333324,-0.2190740740740741],[0.08864583333333324,-0.18111111111111114],[0.07937500000000004,-0.18555555555555553],[0.08135416666666657,-0.19500000000000003],[0.07364583333333338,-0.18722222222222226],[0.0834374999999999,-0.1653703703703704],[0.10583333333333324,-0.14314814814814816],[0.11166666666666672,-0.16574074074074074],[0.11749999999999995,-0.18833333333333332],[0.07104166666666671,-0.20537037037037034],[0.08406250000000005,-0.25999999999999995],[0.07260416666666672,-0.2992592592592593],[0.07260416666666672,-0.2992592592592593],[0.08645833333333333,-0.32166666666666666],[0.07510416666666657,-0.3331481481481481],[0.06375000000000004,-0.3446296296296297],[0.05239583333333329,-0.34370370370370373],[0.04104166666666664,-0.3427777777777778],[0.03250000000000005,-0.33240740740740743],[0.02354166666666669,-0.32148148148148153],[0.0609375,-0.32092592592592595],[0.03885416666666662,-0.28277777777777774],[0.02312500000000005,-0.28851851851851856],[-0.005833333333333357,-0.29388888888888887],[-0.01395833333333331,-0.31351851851851853],[0.00947916666666669,-0.3207407407407407],[0.021458333333333357,-0.3588888888888889],[0.03260416666666662,-0.3672222222222222],[0.035208333333333286,-0.3642592592592592],[0.04916666666666671,-0.3642592592592592],[0.065625,-0.3690740740740741],[0.06281249999999995,-0.36666666666666664],[0.0931250000000001,-0.31740740740740736],[0.09947916666666666,-0.29685185185185187],[0.10791666666666658,-0.277962962962963],[0.09656250000000005,-0.25629629629629624],[0.08624999999999995,-0.21796296296296294],[0.07354166666666657,-0.21814814814814817],[0.05666666666666664,-0.2014814814814815],[0.028854166666666715,-0.1824074074074074],[0.004166666666666667,-0.1838888888888889],[0.0013541666666666192,-0.1940740740740741],[-0.029166666666666667,-0.19888888888888884],[-0.03739583333333331,-0.17481481481481478],[-0.05770833333333331,-0.14981481481481476],[-0.06749999999999995,-0.14981481481481476],[-0.09208333333333331,-0.13259259259259262],[-0.11124999999999995,-0.11203703703703703],[-0.12625000000000006,-0.10833333333333334],[-0.11906249999999995,-0.13796296296296295],[-0.11499999999999998,-0.147037037037037],[-0.14333333333333337,-0.12666666666666662],[-0.15895833333333337,-0.12999999999999998],[-0.18062499999999998,-0.14962962962962964],[-0.19093749999999995,-0.16574074074074074],[-0.2001041666666667,-0.1881481481481482],[-0.1905208333333333,-0.22666666666666663],[-0.17749999999999996,-0.2596296296296296],[-0.16447916666666665,-0.29259259259259257],[-0.1625,-0.275],[-0.16114583333333338,-0.2690740740740741],[-0.13802083333333334,-0.28703703703703703]]","[[0.03427083333333331,-0.00722222222222218,0.0000999999940418661],[0.015312500000000047,-0.05648148148148148,0.017099999994037773],[-0.00791666666666669,-0.10981481481481484,0.03300000000000125],[-0.019791666666666666,-0.1814814814814815,0.049700000002978584],[-0.02010416666666662,-0.24592592592592594,0.06629999999702108],[-0.02041666666666669,-0.3103703703703704,0.08299999999999841],[-0.01885416666666669,-0.36740740740740735,0.09970000000297574],[-0.012812499999999952,-0.42388888888888887,0.11640000000596018],[-0.024479166666666666,-0.4381481481481482,0.13309999999403743],[-0.04833333333333331,-0.4155555555555555,0.14970000000298],[-0.06364583333333336,-0.41703703703703704,0.16640000000595734],[-0.07916666666666666,-0.42851851851851847,0.18299999999999983],[-0.09041666666666662,-0.4359259259259259,0.19970000000297716],[-0.07687499999999996,-0.4612962962962963,0.21649999999999636],[-0.07104166666666671,-0.4938888888888889,0.232999999999997],[-0.05437500000000005,-0.5066666666666667,0.24970000000298143],[-0.04510416666666662,-0.5011111111111112,0.26640000000595876],[-0.041562499999999974,-0.492037037037037,0.28300000000000125],[-0.035000000000000024,-0.504074074074074,0.2997000000029786],[-0.014374999999999952,-0.5062962962962962,0.3164999999999978],[-0.0020833333333333333,-0.4777777777777778,0.3329999999999984],[0.00947916666666669,-0.4572222222222222,0.34970000000297574],[0.013541666666666667,-0.4564814814814815,0.3664000000059602],[0.00635416666666669,-0.4396296296296296,0.38309999999403743],[0.011979166666666667,-0.3955555555555556,0.39970000000298],[0.011979166666666667,-0.3955555555555556,0.4164999999999992],[-0.006666666666666643,-0.37648148148148153,0.43599999999999994],[-0.006666666666666643,-0.37648148148148153,0.44970000000297716],[-0.016979166666666618,-0.3696296296296297,0.4664000000059616],[-0.016979166666666618,-0.3696296296296297,0.482999999999997],[-0.022187499999999954,-0.3551851851851852,0.4997999999970162],[-0.022187499999999954,-0.3551851851851852,0.5165000000000006],[-0.043333333333333356,-0.3648148148148148,0.5384999999999991],[-0.043333333333333356,-0.3648148148148148,0.5497000000029786],[-0.050312499999999954,-0.3624074074074074,0.5664000000059559],[-0.050312499999999954,-0.3624074074074074,0.5829999999999984],[-0.04125000000000002,-0.36148148148148146,0.5997000000029757],[-0.04125000000000002,-0.36148148148148146,0.622599999994037],[-0.04052083333333331,-0.3522222222222222,0.6329999999999956],[-0.024583333333333356,-0.30092592592592593,0.6514000000059568],[-0.008645833333333287,-0.24962962962962965,0.6664000000059573],[-0.0012500000000000473,-0.23037037037037034,0.6830999999940417],[0.019583333333333286,-0.2059259259259259,0.6997000000029772],[0.019583333333333286,-0.2059259259259259,0.7164000000059616],[0.03208333333333328,-0.16148148148148145,0.7332000000029808],[0.05395833333333329,-0.14870370370370373,0.7547000000029769],[0.07010416666666662,-0.11796296296296294,0.7690999999940402],[0.07208333333333337,-0.0992592592592593,0.783200000002978],[0.05416666666666667,-0.10759259259259263,0.8014000000059625],[0.04552083333333338,-0.10629629629629625,0.8167000000029816],[-0.008124999999999953,-0.1440740740740741,0.8342999999970218],[-0.06177083333333329,-0.18185185185185182,0.8497000000029757],[-0.11614583333333334,-0.19703703703703698,0.8662999999970182],[-0.16354166666666667,-0.22740740740740742,0.8829999999999956],[-0.19583333333333333,-0.26222222222222225,0.8995999999940381],[-0.22239583333333332,-0.24500000000000002,0.9164999999999992],[-0.2328125,-0.2548148148148149,0.9330999999940417],[-0.2539583333333333,-0.2625925925925926,0.9514999999999958],[-0.26291666666666663,-0.27259259259259255,0.9662999999970197],[-0.3126041666666667,-0.2718518518518519,0.9830999999940389],[-0.325,-0.2542592592592593,0.9997000000029814],[-0.3228125,-0.24351851851851852,1.0164000000059588],[-0.31062500000000004,-0.26185185185185184,1.033099999994036],[-0.30802083333333335,-0.22888888888888892,1.0497000000029786],[-0.3182291666666667,-0.2035185185185185,1.0664999999999978],[-0.3572916666666667,-0.24648148148148152,1.0829999999999984],[-0.39083333333333337,-0.25629629629629624,1.0997000000029757],[-0.4136458333333334,-0.2681481481481482,1.1164000000059602],[-0.4319791666666667,-0.29148148148148145,1.1329999999999956],[-0.40958333333333335,-0.3255555555555556,1.152799999997022],[-0.38999999999999996,-0.3646296296296296,1.166599999994041],[-0.385,-0.3968518518518519,1.1829999999999998],[-0.37916666666666665,-0.4083333333333333,1.1997000000029772],[-0.3828125,-0.4179629629629629,1.2164999999999964],[-0.3807291666666667,-0.4287037037037037,1.232999999999997],[-0.36875,-0.40314814814814814,1.2495999999940395],[-0.34791666666666665,-0.37592592592592594,1.2662999999970168],[-0.32708333333333334,-0.34870370370370374,1.2830000000000013],[-0.30041666666666667,-0.32,1.2997000000029786],[-0.2772916666666667,-0.28944444444444445,1.316400000005956],[-0.24635416666666668,-0.255,1.3375999999940404],[-0.20979166666666665,-0.2366666666666667,1.352599999994041],[-0.18760416666666668,-0.22777777777777777,1.366500000000002],[-0.14500000000000005,-0.23574074074074075,1.3832000000029794],[-0.11041666666666666,-0.2383333333333333,1.4044000000059569],[-0.0704166666666667,-0.2566666666666667,1.4202000000029784],[-0.03927083333333338,-0.2766666666666666,1.4350000000000023],[0.0015625,-0.29611111111111105,1.449900000005961],[0.03208333333333328,-0.3055555555555556,1.4695999999940383],[0.04510416666666662,-0.325,1.4834000000059575],[0.04760416666666671,-0.34518518518518515,1.5],[0.059375,-0.32111111111111107,1.5199000000059613],[0.07312500000000005,-0.33499999999999996,1.5349000000059618],[0.09104166666666676,-0.36629629629629634,1.5534000000059578],[0.1165625000000001,-0.3905555555555555,1.5699000000059584],[0.12322916666666663,-0.39166666666666666,1.5850999999940356],[0.13666666666666671,-0.3888888888888889,1.6012999999970177],[0.13583333333333342,-0.3912962962962963,1.6165999999940368],[0.13145833333333337,-0.38740740740740737,1.6362999999970214],[0.15812499999999996,-0.3824074074074074,1.6499000000059567],[0.18250000000000005,-0.36574074074074076,1.6664999999999992],[0.19239583333333338,-0.37092592592592594,1.6832000000029765],[0.19958333333333325,-0.3461111111111111,1.705200000002982],[0.19958333333333325,-0.3461111111111111,1.7202000000029827],[0.1898958333333333,-0.36666666666666664,1.7334000000059575],[0.1881249999999999,-0.375,1.7532999999970187],[0.20031249999999995,-0.3772222222222222,1.768499999999996],[0.19135416666666671,-0.40111111111111114,1.7830000000000013],[0.1921875,-0.43037037037037035,1.7997000000029786],[0.2131249999999999,-0.42962962962962964,1.8167999999970164],[0.22468750000000004,-0.43148148148148147,1.8329999999999984],[0.23666666666666672,-0.4890740740740741,1.849599999994041],[0.23781249999999995,-0.549074074074074,1.8662999999970182],[0.24416666666666675,-0.5690740740740741,1.8829000000059608],[0.2548958333333334,-0.5474074074074075,1.89970000000298],[0.25010416666666657,-0.545,1.9164999999999992],[0.2508333333333333,-0.5650000000000001,1.9329999999999998],[0.2613541666666668,-0.562037037037037,1.9497000000029772],[0.2709374999999999,-0.5542592592592592,1.9662999999970197],[0.2639583333333334,-0.5827777777777777,1.982999999999997],[0.25281250000000005,-0.6133333333333333,1.9997000000029814],[0.2490624999999999,-0.5979629629629629,2.020099999994038],[0.2615624999999999,-0.5698148148148148,2.0352000000029804],[0.2543750000000001,-0.5648148148148148,2.049999999999997],[0.23020833333333332,-0.58,2.066499999999998],[0.20604166666666662,-0.5951851851851852,2.0829999999999984],[0.18614583333333337,-0.5894444444444444,2.103299999997013],[0.18614583333333337,-0.5894444444444444,2.116499999999995],[0.16927083333333334,-0.5968518518518519,2.1330999999940374],[0.1493750000000001,-0.6011111111111112,2.1499999999999986],[0.14093749999999997,-0.6383333333333333,2.1664000000059573],[0.140625,-0.6275925925925926,2.183],[0.14031250000000003,-0.6168518518518519,2.1995999999940423],[0.12781250000000005,-0.6262962962962962,2.2164000000059545],[0.13052083333333328,-0.6446296296296297,2.2334000000059646],[0.15822916666666675,-0.6307407407407408,2.2527999999970163],[0.18395833333333325,-0.6568518518518518,2.2729000000059543],[0.18395833333333325,-0.6568518518518518,2.2907000000029782],[0.18614583333333337,-0.6570370370370371,2.308500000000002],[0.18614583333333337,-0.6570370370370371,2.3167000000029745],[0.19947916666666668,-0.6309259259259259,2.333200000002982],[0.19718749999999996,-0.5837037037037037,2.3500000000000014],[0.19270833333333334,-0.5177777777777778,2.368700000002981],[0.18166666666666675,-0.49000000000000005,2.3832000000029794],[0.16270833333333337,-0.4816666666666667,2.399700000002973],[0.15010416666666657,-0.4698148148148148,2.4185000000000016],[0.1544791666666666,-0.45092592592592595,2.4330999999940346],[0.1544791666666666,-0.45092592592592595,2.449799999997019],[0.1508333333333333,-0.4440740740740741,2.46670000000298],[0.1508333333333333,-0.4440740740740741,2.4872999999970133],[0.13854166666666667,-0.372037037037037,2.499900000005958],[0.13854166666666667,-0.372037037037037,2.5167000000029773],[0.13052083333333328,-0.327962962962963,2.533200000002985],[0.13052083333333328,-0.327962962962963,2.5537999999970182],[0.12260416666666671,-0.3194444444444444,2.566499999999998],[0.12260416666666671,-0.3194444444444444,2.583200000002982],[0.11802083333333328,-0.34333333333333327,2.5997999999970247],[0.11802083333333328,-0.34333333333333327,2.621200000002979],[0.09156250000000009,-0.35333333333333333,2.633299999997014],[0.08937499999999995,-0.3374074074074074,2.649900000005964],[0.09510416666666661,-0.3020370370370371,2.6662999999970154],[0.10427083333333324,-0.25703703703703706,2.683],[0.09645833333333324,-0.2190740740740741,2.6995999999940423],[0.09645833333333324,-0.2190740740740741,2.7165000000000035],[0.08864583333333324,-0.18111111111111114,2.7330999999940317],[0.07937500000000004,-0.18555555555555553,2.7497000000029814],[0.08135416666666657,-0.19500000000000003,2.766299999997024],[0.07364583333333338,-0.18722222222222226,2.782999999999994],[0.0834374999999999,-0.1653703703703704,2.7995999999940366],[0.10583333333333324,-0.14314814814814816,2.8195999999940327],[0.11166666666666672,-0.16574074074074074,2.8329000000059565],[0.11749999999999995,-0.18833333333333332,2.8497000000029757],[0.07104166666666671,-0.20537037037037034,2.8662999999970182],[0.08406250000000005,-0.25999999999999995,2.8830000000000027],[0.07260416666666672,-0.2992592592592593,2.899599999994045],[0.07260416666666672,-0.2992592592592593,2.9164000000059573],[0.08645833333333333,-0.32166666666666666,2.9330999999940346],[0.07510416666666657,-0.3331481481481481,2.949900000005961],[0.06375000000000004,-0.3446296296296297,2.9662999999970125],[0.05239583333333329,-0.34370370370370373,2.9830999999940317],[0.04104166666666664,-0.3427777777777778,2.9995999999940395],[0.03250000000000005,-0.33240740740740743,3.016299999997024],[0.02354166666666669,-0.32148148148148153,3.033099999994043],[0.0609375,-0.32092592592592595,3.0497000000029786],[0.03885416666666662,-0.28277777777777774,3.066299999997021],[0.02312500000000005,-0.28851851851851856,3.0830000000000055],[-0.005833333333333357,-0.29388888888888887,3.099599999994034],[-0.01395833333333331,-0.31351851851851853,3.11640000000596],[0.00947916666666669,-0.3207407407407407,3.1330999999940374],[0.021458333333333357,-0.3588888888888889,3.149700000002973],[0.03260416666666662,-0.3672222222222222,3.1662999999970154],[0.035208333333333286,-0.3642592592592592,3.1855999999940323],[0.04916666666666671,-0.3642592592592592,3.1995999999940423],[0.065625,-0.3690740740740741,3.2165999999940382],[0.06281249999999995,-0.36666666666666664,3.232999999999997],[0.0931250000000001,-0.31740740740740736,3.2497000000029814],[0.09947916666666666,-0.29685185185185187,3.266299999997024],[0.10791666666666658,-0.277962962962963,3.282999999999994],[0.09656250000000005,-0.25629629629629624,3.2997000000029786],[0.08624999999999995,-0.21796296296296294,3.316400000005963],[0.07354166666666657,-0.21814814814814817,3.3329000000059565],[0.05666666666666664,-0.2014814814814815,3.349599999994034],[0.028854166666666715,-0.1824074074074074,3.3662999999970182],[0.004166666666666667,-0.1838888888888889,3.3830000000000027],[0.0013541666666666192,-0.1940740740740741,3.399599999994045],[-0.029166666666666667,-0.19888888888888884,3.4164000000059573],[-0.03739583333333331,-0.17481481481481478,3.433],[-0.05770833333333331,-0.14981481481481476,3.4495999999940423],[-0.06749999999999995,-0.14981481481481476,3.4664000000059545],[-0.09208333333333331,-0.13259259259259262,3.482999999999997],[-0.11124999999999995,-0.11203703703703703,3.500799999997021],[-0.12625000000000006,-0.10833333333333334,3.516400000005966],[-0.11906249999999995,-0.13796296296296295,3.532999999999994],[-0.11499999999999998,-0.147037037037037,3.5527000000029787],[-0.14333333333333337,-0.12666666666666662,3.566299999997021],[-0.15895833333333337,-0.12999999999999998,3.5830000000000055],[-0.18062499999999998,-0.14962962962962964,3.5997000000029757],[-0.19093749999999995,-0.16574074074074074,3.616499999999995],[-0.2001041666666667,-0.1881481481481482,3.6329000000059537],[-0.1905208333333333,-0.22666666666666663,3.6530999999940335],[-0.17749999999999996,-0.2596296296296296,3.6662999999970154],[-0.16447916666666665,-0.29259259259259257,3.683],[-0.1625,-0.275,3.6995999999940423],[-0.16114583333333338,-0.2690740740740741,3.7164000000059545],[-0.13802083333333334,-0.28703703703703703,3.736900000005953]]","[0.0000999999940418661,0.017099999994037773,0.03300000000000125,0.049700000002978584,0.06629999999702108,0.08299999999999841,0.09970000000297574,0.11640000000596018,0.13309999999403743,0.14970000000298,0.16640000000595734,0.18299999999999983,0.19970000000297716,0.21649999999999636,0.232999999999997,0.24970000000298143,0.26640000000595876,0.28300000000000125,0.2997000000029786,0.3164999999999978,0.3329999999999984,0.34970000000297574,0.3664000000059602,0.38309999999403743,0.39970000000298,0.4164999999999992,0.43599999999999994,0.44970000000297716,0.4664000000059616,0.482999999999997,0.4997999999970162,0.5165000000000006,0.5384999999999991,0.5497000000029786,0.5664000000059559,0.5829999999999984,0.5997000000029757,0.622599999994037,0.6329999999999956,0.6514000000059568,0.6664000000059573,0.6830999999940417,0.6997000000029772,0.7164000000059616,0.7332000000029808,0.7547000000029769,0.7690999999940402,0.783200000002978,0.8014000000059625,0.8167000000029816,0.8342999999970218,0.8497000000029757,0.8662999999970182,0.8829999999999956,0.8995999999940381,0.9164999999999992,0.9330999999940417,0.9514999999999958,0.9662999999970197,0.9830999999940389,0.9997000000029814,1.0164000000059588,1.033099999994036,1.0497000000029786,1.0664999999999978,1.0829999999999984,1.0997000000029757,1.1164000000059602,1.1329999999999956,1.152799999997022,1.166599999994041,1.1829999999999998,1.1997000000029772,1.2164999999999964,1.232999999999997,1.2495999999940395,1.2662999999970168,1.2830000000000013,1.2997000000029786,1.316400000005956,1.3375999999940404,1.352599999994041,1.366500000000002,1.3832000000029794,1.4044000000059569,1.4202000000029784,1.4350000000000023,1.449900000005961,1.4695999999940383,1.4834000000059575,1.5,1.5199000000059613,1.5349000000059618,1.5534000000059578,1.5699000000059584,1.5850999999940356,1.6012999999970177,1.6165999999940368,1.6362999999970214,1.6499000000059567,1.6664999999999992,1.6832000000029765,1.705200000002982,1.7202000000029827,1.7334000000059575,1.7532999999970187,1.768499999999996,1.7830000000000013,1.7997000000029786,1.8167999999970164,1.8329999999999984,1.849599999994041,1.8662999999970182,1.8829000000059608,1.89970000000298,1.9164999999999992,1.9329999999999998,1.9497000000029772,1.9662999999970197,1.982999999999997,1.9997000000029814,2.020099999994038,2.0352000000029804,2.049999999999997,2.066499999999998,2.0829999999999984,2.103299999997013,2.116499999999995,2.1330999999940374,2.1499999999999986,2.1664000000059573,2.183,2.1995999999940423,2.2164000000059545,2.2334000000059646,2.2527999999970163,2.2729000000059543,2.2907000000029782,2.308500000000002,2.3167000000029745,2.333200000002982,2.3500000000000014,2.368700000002981,2.3832000000029794,2.399700000002973,2.4185000000000016,2.4330999999940346,2.449799999997019,2.46670000000298,2.4872999999970133,2.499900000005958,2.5167000000029773,2.533200000002985,2.5537999999970182,2.566499999999998,2.583200000002982,2.5997999999970247,2.621200000002979,2.633299999997014,2.649900000005964,2.6662999999970154,2.683,2.6995999999940423,2.7165000000000035,2.7330999999940317,2.7497000000029814,2.766299999997024,2.782999999999994,2.7995999999940366,2.8195999999940327,2.8329000000059565,2.8497000000029757,2.8662999999970182,2.8830000000000027,2.899599999994045,2.9164000000059573,2.9330999999940346,2.949900000005961,2.9662999999970125,2.9830999999940317,2.9995999999940395,3.016299999997024,3.033099999994043,3.0497000000029786,3.066299999997021,3.0830000000000055,3.099599999994034,3.11640000000596,3.1330999999940374,3.149700000002973,3.1662999999970154,3.1855999999940323,3.1995999999940423,3.2165999999940382,3.232999999999997,3.2497000000029814,3.266299999997024,3.282999999999994,3.2997000000029786,3.316400000005963,3.3329000000059565,3.349599999994034,3.3662999999970182,3.3830000000000027,3.399599999994045,3.4164000000059573,3.433,3.4495999999940423,3.4664000000059545,3.482999999999997,3.500799999997021,3.516400000005966,3.532999999999994,3.5527000000029787,3.566299999997021,3.5830000000000055,3.5997000000029757,3.616499999999995,3.6329000000059537,3.6530999999940335,3.6662999999970154,3.683,3.6995999999940423,3.7164000000059545,3.736900000005953]","[1733193809411,1733193809427,1733193809443,1733193809459,1733193809476,1733193809493,1733193809509,1733193809526,1733193809543,1733193809559,1733193809576,1733193809593,1733193809609,1733193809626,1733193809643,1733193809659,1733193809676,1733193809693,1733193809709,1733193809726,1733193809743,1733193809759,1733193809776,1733193809793,1733193809809,1733193809826,1733193809846,1733193809859,1733193809876,1733193809893,1733193809909,1733193809926,1733193809948,1733193809959,1733193809976,1733193809993,1733193810009,1733193810032,1733193810043,1733193810061,1733193810076,1733193810093,1733193810109,1733193810126,1733193810143,1733193810164,1733193810179,1733193810193,1733193810211,1733193810226,1733193810244,1733193810259,1733193810276,1733193810293,1733193810309,1733193810326,1733193810343,1733193810361,1733193810376,1733193810393,1733193810409,1733193810426,1733193810443,1733193810459,1733193810476,1733193810493,1733193810509,1733193810526,1733193810543,1733193810562,1733193810576,1733193810593,1733193810609,1733193810626,1733193810643,1733193810659,1733193810676,1733193810693,1733193810709,1733193810726,1733193810747,1733193810762,1733193810776,1733193810793,1733193810814,1733193810830,1733193810845,1733193810860,1733193810879,1733193810893,1733193810910,1733193810930,1733193810945,1733193810963,1733193810980,1733193810995,1733193811011,1733193811026,1733193811046,1733193811059,1733193811076,1733193811093,1733193811115,1733193811130,1733193811143,1733193811163,1733193811178,1733193811193,1733193811209,1733193811226,1733193811243,1733193811259,1733193811276,1733193811293,1733193811309,1733193811326,1733193811343,1733193811359,1733193811376,1733193811393,1733193811409,1733193811430,1733193811445,1733193811460,1733193811476,1733193811493,1733193811513,1733193811526,1733193811543,1733193811560,1733193811576,1733193811593,1733193811609,1733193811626,1733193811643,1733193811663,1733193811683,1733193811700,1733193811718,1733193811726,1733193811743,1733193811760,1733193811778,1733193811793,1733193811809,1733193811828,1733193811843,1733193811860,1733193811876,1733193811897,1733193811910,1733193811926,1733193811943,1733193811964,1733193811976,1733193811993,1733193812010,1733193812031,1733193812043,1733193812060,1733193812076,1733193812093,1733193812109,1733193812126,1733193812143,1733193812159,1733193812176,1733193812193,1733193812209,1733193812229,1733193812243,1733193812259,1733193812276,1733193812293,1733193812309,1733193812326,1733193812343,1733193812360,1733193812376,1733193812393,1733193812409,1733193812426,1733193812443,1733193812459,1733193812476,1733193812493,1733193812509,1733193812526,1733193812543,1733193812559,1733193812576,1733193812595,1733193812609,1733193812626,1733193812643,1733193812659,1733193812676,1733193812693,1733193812709,1733193812726,1733193812743,1733193812759,1733193812776,1733193812793,1733193812809,1733193812826,1733193812843,1733193812859,1733193812876,1733193812893,1733193812910,1733193812926,1733193812943,1733193812962,1733193812976,1733193812993,1733193813009,1733193813026,1733193813043,1733193813063,1733193813076,1733193813093,1733193813109,1733193813126,1733193813147]","[[992.9,536.1],[974.7,509.5],[952.4,480.7],[941,442],[940.7,407.2],[940.4,372.4],[941.9,341.6],[947.7,311.1],[936.5,303.4],[913.6,315.6],[898.9,314.8],[884,308.6],[873.2,304.6],[886.2,290.9],[891.8,273.3],[907.8,266.4],[916.7,269.4],[920.1,274.3],[926.4,267.8],[946.2,266.6],[958,282],[969.1,293.1],[973,293.5],[966.1,302.6],[971.5,326.4],[971.5,326.4],[953.6,336.7],[953.6,336.7],[943.7,340.4],[943.7,340.4],[938.7,348.2],[938.7,348.2],[918.4,343],[918.4,343],[911.7,344.3],[911.7,344.3],[920.4,344.8],[920.4,344.8],[921.1,349.8],[936.4,377.5],[951.7,405.2],[958.8,415.6],[978.8,428.8],[978.8,428.8],[990.8,452.8],[1011.8,459.7],[1027.3,476.3],[1029.2,486.4],[1012,481.9],[1003.7,482.6],[952.2,462.2],[900.7,441.8],[848.5,433.6],[803,417.2],[772,398.4],[746.5,407.7],[736.5,402.4],[716.2,398.2],[707.6,392.8],[659.9,393.2],[648,402.7],[650.1,408.5],[661.8,398.6],[664.3,416.4],[654.5,430.1],[617,406.9],[584.8,401.6],[562.9,395.2],[545.3,382.6],[566.8,364.2],[585.6,343.1],[590.4,325.7],[596,319.5],[592.5,314.3],[594.5,308.5],[606,322.3],[626,337],[646,351.7],[671.6,367.2],[693.8,383.7],[723.5,402.3],[758.6,412.2],[779.9,417],[820.8,412.7],[854,411.3],[892.4,401.4],[922.3,390.6],[961.5,380.1],[990.8,375],[1003.3,364.5],[1005.7,353.6],[1017,366.6],[1030.2,359.1],[1047.4,342.2],[1071.9,329.1],[1078.3,328.5],[1091.2,330],[1090.4,328.7],[1086.2,330.8],[1111.8,333.5],[1135.2,342.5],[1144.7,339.7],[1151.6,353.1],[1151.6,353.1],[1142.3,342],[1140.6,337.5],[1152.3,336.3],[1143.7,323.4],[1144.5,307.6],[1164.6,308],[1175.7,307],[1187.2,275.9],[1188.3,243.5],[1194.4,232.7],[1204.7,244.4],[1200.1,245.7],[1200.8,234.9],[1210.9,236.5],[1220.1,240.7],[1213.4,225.3],[1202.7,208.8],[1199.1,217.1],[1211.1,232.3],[1204.2,235],[1181,226.8],[1157.8,218.6],[1138.7,221.7],[1138.7,221.7],[1122.5,217.7],[1103.4,215.4],[1095.3,195.3],[1095,201.1],[1094.7,206.9],[1082.7,201.8],[1085.3,191.9],[1111.9,199.4],[1136.6,185.3],[1136.6,185.3],[1138.7,185.2],[1138.7,185.2],[1151.5,199.3],[1149.3,224.8],[1145,260.4],[1134.4,275.4],[1116.2,279.9],[1104.1,286.3],[1108.3,296.5],[1108.3,296.5],[1104.8,300.2],[1104.8,300.2],[1093,339.1],[1093,339.1],[1085.3,362.9],[1085.3,362.9],[1077.7,367.5],[1077.7,367.5],[1073.3,354.6],[1073.3,354.6],[1047.9,349.2],[1045.8,357.8],[1051.3,376.9],[1060.1,401.2],[1052.6,421.7],[1052.6,421.7],[1045.1,442.2],[1036.2,439.8],[1038.1,434.7],[1030.7,438.9],[1040.1,450.7],[1061.6,462.7],[1067.2,450.5],[1072.8,438.3],[1028.2,429.1],[1040.7,399.6],[1029.7,378.4],[1029.7,378.4],[1043,366.3],[1032.1,360.1],[1021.2,353.9],[1010.3,354.4],[999.4,354.9],[991.2,360.5],[982.6,366.4],[1018.5,366.7],[997.3,387.3],[982.2,384.2],[954.4,381.3],[946.6,370.7],[969.1,366.8],[980.6,346.2],[991.3,341.7],[993.8,343.3],[1007.2,343.3],[1023,340.7],[1020.3,342],[1049.4,368.6],[1055.5,379.7],[1063.6,389.9],[1052.7,401.6],[1042.8,422.3],[1030.6,422.2],[1014.4,431.2],[987.7,441.5],[964,440.7],[961.3,435.2],[932,432.6],[924.1,445.6],[904.6,459.1],[895.2,459.1],[871.6,468.4],[853.2,479.5],[838.8,481.5],[845.7,465.5],[849.6,460.6],[822.4,471.6],[807.4,469.8],[786.6,459.2],[776.7,450.5],[767.9,438.4],[777.1,417.6],[789.6,399.8],[802.1,382],[804,391.5],[805.3,394.7],[827.5,385]]","[0,0.3527331528]","[0.3527331528,0.3527331528]","[-0.3527331528,-0.3527331528]","[-0.3527331528,0]","[0,-0.3527331528]","[0.3527331528,-0.3527331528]","[0,0]","[0.3527331528,0]",0,1,1,1,1,3,Tablet,5,5,13,7
