inst1_resp.keys,inst1_resp.rt,calibrationMouse.x,calibrationMouse.y,calibrationMouse.leftButton,calibrationMouse.midButton,calibrationMouse.rightButton,calibrationClick.x,calibrationClick.y,calibrationClick.leftButton,calibrationClick.midButton,calibrationClick.rightButton,calibrationClick.clicked_name,trialsc.thisRepN,trialsc.thisTrialN,trialsc.thisN,trialsc.thisIndex,trialsc.ran,calibration_x,calibration_y,participant,session,date,expName,psychopyVersion,OS,frameRate,ScreenRes_pixels,Camera_pixels,mouse_2.x,mouse_2.y,mouse_2.leftButton,mouse_2.midButton,mouse_2.rightButton,mouse_2.time,mouse_2.clicked_name,mouse.x,mouse.y,mouse.leftButton,mouse.midButton,mouse.rightButton,mouse.time,mouse.clicked_name,Choice,Trial,TrialDuration,MOUSE_GAZE,ET_GAZE,ET_GAZE_x_T,time,unixTime,ET_GAZE_NF,Loc_Option1_label,Loc_Option2_label,Loc_Cost_label,Loc_Qual_label,Loc_Option1_cost,Loc_Option2_cost,Loc_Option1_quality,Loc_Option2_quality,trials.thisRepN,trials.thisTrialN,trials.thisN,trials.thisIndex,trials.ran,Block,Device,cost1,qual1,cost2,qual2
space,0.9763,0.147916667,-0.127777778,1,0,0,-0.329166667,-0.677777778,1,0,0,calibration_square,0,0,0,4,1,-0.33,-0.67,43,001,2024-12-03_12h21.20.123,Attention_exp_legacy,2023.1.0,Win32,59.88023952,,,,,,,,,,,,,,,,,,,,,,,,,,,,,,,,,,,,,,,,,,,,
,,,,,,,0.002083333,-0.325925926,1,0,0,calibration_square,0,1,1,10,1,0,-0.33,43,001,2024-12-03_12h21.20.123,Attention_exp_legacy,2023.1.0,Win32,59.88023952,,,,,,,,,,,,,,,,,,,,,,,,,,,,,,,,,,,,,,,,,,,,
,,,,,,,-0.326041667,0.677777778,1,0,0,calibration_square,0,2,2,8,1,-0.33,0.67,43,001,2024-12-03_12h21.20.123,Attention_exp_legacy,2023.1.0,Win32,59.88023952,,,,,,,,,,,,,,,,,,,,,,,,,,,,,,,,,,,,,,,,,,,,
,,,,,,,0.007291667,-0.664814815,1,0,0,calibration_square,0,3,3,9,1,0,-0.67,43,001,2024-12-03_12h21.20.123,Attention_exp_legacy,2023.1.0,Win32,59.88023952,,,,,,,,,,,,,,,,,,,,,,,,,,,,,,,,,,,,,,,,,,,,
,,,,,,,-0.328125,-0.32037037,1,0,0,calibration_square,0,4,4,5,1,-0.33,-0.33,43,001,2024-12-03_12h21.20.123,Attention_exp_legacy,2023.1.0,Win32,59.88023952,,,,,,,,,,,,,,,,,,,,,,,,,,,,,,,,,,,,,,,,,,,,
,,,,,,,0.675,-0.685185185,1,0,0,,0,5,5,20,1,0.67,-0.67,43,001,2024-12-03_12h21.20.123,Attention_exp_legacy,2023.1.0,Win32,59.88023952,,,,,,,,,,,,,,,,,,,,,,,,,,,,,,,,,,,,,,,,,,,,
,,,,,,,0.327083333,0.011111111,1,0,0,,0,6,6,16,1,0.33,0,43,001,2024-12-03_12h21.20.123,Attention_exp_legacy,2023.1.0,Win32,59.88023952,,,,,,,,,,,,,,,,,,,,,,,,,,,,,,,,,,,,,,,,,,,,
,,,,,,,0.338541667,0.325925926,1,0,0,calibration_square,0,7,7,17,1,0.33,0.33,43,001,2024-12-03_12h21.20.123,Attention_exp_legacy,2023.1.0,Win32,59.88023952,,,,,,,,,,,,,,,,,,,,,,,,,,,,,,,,,,,,,,,,,,,,
,,,,,,,0.003125,0.32962963,1,0,0,calibration_square,0,8,8,12,1,0,0.33,43,001,2024-12-03_12h21.20.123,Attention_exp_legacy,2023.1.0,Win32,59.88023952,,,,,,,,,,,,,,,,,,,,,,,,,,,,,,,,,,,,,,,,,,,,
,,,,,,,-0.68125,-0.331481481,1,0,0,,0,9,9,1,1,-0.67,-0.33,43,001,2024-12-03_12h21.20.123,Attention_exp_legacy,2023.1.0,Win32,59.88023952,,,,,,,,,,,,,,,,,,,,,,,,,,,,,,,,,,,,,,,,,,,,
,,,,,,,-0.004166667,-0.001851852,1,0,0,calibration_square,0,10,10,11,1,0,0,43,001,2024-12-03_12h21.20.123,Attention_exp_legacy,2023.1.0,Win32,59.88023952,,,,,,,,,,,,,,,,,,,,,,,,,,,,,,,,,,,,,,,,,,,,
,,,,,,,-0.676041667,0.324074074,1,0,0,calibration_square,0,11,11,3,1,-0.67,0.33,43,001,2024-12-03_12h21.20.123,Attention_exp_legacy,2023.1.0,Win32,59.88023952,,,,,,,,,,,,,,,,,,,,,,,,,,,,,,,,,,,,,,,,,,,,
,,,,,,,-0.325,0.331481481,1,0,0,calibration_square,0,12,12,7,1,-0.33,0.33,43,001,2024-12-03_12h21.20.123,Attention_exp_legacy,2023.1.0,Win32,59.88023952,,,,,,,,,,,,,,,,,,,,,,,,,,,,,,,,,,,,,,,,,,,,
,,,,,,,-0.673958333,-0.67962963,1,0,0,calibration_square,0,13,13,0,1,-0.67,-0.67,43,001,2024-12-03_12h21.20.123,Attention_exp_legacy,2023.1.0,Win32,59.88023952,,,,,,,,,,,,,,,,,,,,,,,,,,,,,,,,,,,,,,,,,,,,
,,,,,,,0.333333333,-0.327777778,1,0,0,calibration_square,0,14,14,15,1,0.33,-0.33,43,001,2024-12-03_12h21.20.123,Attention_exp_legacy,2023.1.0,Win32,59.88023952,,,,,,,,,,,,,,,,,,,,,,,,,,,,,,,,,,,,,,,,,,,,
,,,,,,,-0.323958333,-0.001851852,1,0,0,calibration_square,0,15,15,6,1,-0.33,0,43,001,2024-12-03_12h21.20.123,Attention_exp_legacy,2023.1.0,Win32,59.88023952,,,,,,,,,,,,,,,,,,,,,,,,,,,,,,,,,,,,,,,,,,,,
,,,,,,,-0.676041667,0.007407407,1,0,0,calibration_square,0,16,16,2,1,-0.67,0,43,001,2024-12-03_12h21.20.123,Attention_exp_legacy,2023.1.0,Win32,59.88023952,,,,,,,,,,,,,,,,,,,,,,,,,,,,,,,,,,,,,,,,,,,,
,,,,,,,0.675,0.666666667,1,0,0,calibration_square,0,17,17,19,1,0.67,0.67,43,001,2024-12-03_12h21.20.123,Attention_exp_legacy,2023.1.0,Win32,59.88023952,,,,,,,,,,,,,,,,,,,,,,,,,,,,,,,,,,,,,,,,,,,,
,,,,,,,0.321875,-0.674074074,1,0,0,calibration_square,0,18,18,14,1,0.33,-0.67,43,001,2024-12-03_12h21.20.123,Attention_exp_legacy,2023.1.0,Win32,59.88023952,,,,,,,,,,,,,,,,,,,,,,,,,,,,,,,,,,,,,,,,,,,,
,,,,,,,-0.010416667,0.675925926,1,0,0,,0,19,19,13,1,0,0.67,43,001,2024-12-03_12h21.20.123,Attention_exp_legacy,2023.1.0,Win32,59.88023952,,,,,,,,,,,,,,,,,,,,,,,,,,,,,,,,,,,,,,,,,,,,
,,,,,,,0.317708333,0.674074074,1,0,0,,0,20,20,18,1,0.33,0.67,43,001,2024-12-03_12h21.20.123,Attention_exp_legacy,2023.1.0,Win32,59.88023952,,,,,,,,,,,,,,,,,,,,,,,,,,,,,,,,,,,,,,,,,,,,
,,,,,,,,,,,,,,,,,,,,43,001,2024-12-03_12h21.20.123,Attention_exp_legacy,2023.1.0,Win32,59.88023952,"[1920,1080]","[640,480]",[0.06354166666666666],[-0.5074074074074074],[1],[0],[0],[1.7969000000059623],"[""StartButton""]",[0.05520833333333333],[0.38333333333333336],[1],[0],[0],[3.0240999999940357],"[""Option1_label""]",Option1_label,1,4.0453,"[[0.07916666666666666,-0.4462962962962963],[0.07916666666666666,-0.4462962962962963],[0.07916666666666666,-0.4462962962962963],[0.07916666666666666,-0.4462962962962963],[0.07916666666666666,-0.4462962962962963],[0.07916666666666666,-0.4462962962962963],[0.07916666666666666,-0.4462962962962963],[0.07916666666666666,-0.4462962962962963],[0.07916666666666666,-0.4462962962962963],[0.07916666666666666,-0.4462962962962963],[0.07916666666666666,-0.4462962962962963],[0.07916666666666666,-0.4462962962962963],[0.07916666666666666,-0.4462962962962963],[0.07916666666666666,-0.4462962962962963],[0.07916666666666666,-0.4462962962962963],[0.07916666666666666,-0.4462962962962963],[0.07916666666666666,-0.4462962962962963],[0.07916666666666666,-0.4462962962962963],[0.07916666666666666,-0.4462962962962963],[0.07916666666666666,-0.4462962962962963],[0.07916666666666666,-0.4462962962962963],[0.07916666666666666,-0.4462962962962963],[0.07916666666666666,-0.4462962962962963],[0.07916666666666666,-0.4462962962962963],[0.07916666666666666,-0.4462962962962963],[0.07916666666666666,-0.4462962962962963],[0.07916666666666666,-0.4462962962962963],[0.07916666666666666,-0.4462962962962963],[0.07916666666666666,-0.4462962962962963],[0.07916666666666666,-0.4462962962962963],[0.07916666666666666,-0.4462962962962963],[0.07916666666666666,-0.4462962962962963],[0.07916666666666666,-0.4462962962962963],[0.07916666666666666,-0.4462962962962963],[0.07916666666666666,-0.4462962962962963],[0.07916666666666666,-0.4462962962962963],[0.07916666666666666,-0.4462962962962963],[0.07916666666666666,-0.4462962962962963],[0.07916666666666666,-0.4462962962962963],[0.07916666666666666,-0.4462962962962963],[0.07916666666666666,-0.4462962962962963],[0.07916666666666666,-0.4462962962962963],[0.07916666666666666,-0.4462962962962963],[0.07916666666666666,-0.4462962962962963],[0.07916666666666666,-0.4462962962962963],[0.07916666666666666,-0.4462962962962963],[0.07916666666666666,-0.4462962962962963],[0.07916666666666666,-0.4462962962962963],[0.07916666666666666,-0.4462962962962963],[0.07916666666666666,-0.4462962962962963],[0.07916666666666666,-0.4462962962962963],[0.07916666666666666,-0.4462962962962963],[0.07916666666666666,-0.4462962962962963],[0.07916666666666666,-0.4462962962962963],[0.07916666666666666,-0.4462962962962963],[0.07916666666666666,-0.4462962962962963],[0.07916666666666666,-0.4462962962962963],[0.07916666666666666,-0.4462962962962963],[0.07916666666666666,-0.4462962962962963],[0.07916666666666666,-0.4462962962962963],[0.07916666666666666,-0.4462962962962963],[0.07916666666666666,-0.4462962962962963],[0.07916666666666666,-0.4462962962962963],[0.07916666666666666,-0.4462962962962963],[0.07916666666666666,-0.4462962962962963],[0.07916666666666666,-0.4462962962962963],[0.07916666666666666,-0.4462962962962963],[0.07916666666666666,-0.4462962962962963],[0.07916666666666666,-0.4462962962962963],[0.07916666666666666,-0.4462962962962963],[0.07916666666666666,-0.4462962962962963],[0.07916666666666666,-0.4462962962962963],[0.07916666666666666,-0.4462962962962963],[0.07916666666666666,-0.4462962962962963],[0.07916666666666666,-0.4462962962962963],[0.07916666666666666,-0.4462962962962963],[0.07916666666666666,-0.4462962962962963],[0.07916666666666666,-0.4462962962962963],[0.07916666666666666,-0.4462962962962963],[0.07916666666666666,-0.4462962962962963],[0.07916666666666666,-0.4462962962962963],[0.07916666666666666,-0.4462962962962963],[0.07916666666666666,-0.4462962962962963],[0.07916666666666666,-0.4462962962962963],[0.07916666666666666,-0.4462962962962963],[0.07916666666666666,-0.4462962962962963],[0.07916666666666666,-0.4462962962962963],[0.07916666666666666,-0.4462962962962963],[0.07916666666666666,-0.4462962962962963],[0.07916666666666666,-0.4462962962962963],[0.07916666666666666,-0.4462962962962963],[0.07916666666666666,-0.4462962962962963],[0.07916666666666666,-0.4462962962962963],[0.07916666666666666,-0.4462962962962963],[0.07916666666666666,-0.4462962962962963],[0.07916666666666666,-0.4462962962962963],[0.07916666666666666,-0.4462962962962963],[0.07916666666666666,-0.4462962962962963],[0.07916666666666666,-0.4462962962962963],[0.07916666666666666,-0.4462962962962963],[0.07916666666666666,-0.4462962962962963],[0.07916666666666666,-0.4462962962962963],[0.07916666666666666,-0.4462962962962963],[0.07916666666666666,-0.4462962962962963],[0.07916666666666666,-0.4462962962962963],[0.07916666666666666,-0.4462962962962963],[0.07916666666666666,-0.4462962962962963],[0.07916666666666666,-0.4462962962962963],[0.07916666666666666,-0.4462962962962963],[0.07916666666666666,-0.4462962962962963],[0.07916666666666666,-0.4462962962962963],[0.07916666666666666,-0.4462962962962963],[0.07916666666666666,-0.4462962962962963],[0.07916666666666666,-0.4462962962962963],[0.07916666666666666,-0.4462962962962963],[0.07916666666666666,-0.4462962962962963],[0.07916666666666666,-0.4462962962962963],[0.07916666666666666,-0.4462962962962963],[0.07916666666666666,-0.4462962962962963],[0.07916666666666666,-0.4462962962962963],[0.07916666666666666,-0.4462962962962963],[0.07916666666666666,-0.4462962962962963],[0.07916666666666666,-0.4462962962962963],[0.07916666666666666,-0.4462962962962963],[0.07916666666666666,-0.4462962962962963],[0.07916666666666666,-0.4462962962962963],[0.07916666666666666,-0.4462962962962963],[0.07916666666666666,-0.4462962962962963],[0.07916666666666666,-0.4462962962962963],[0.07916666666666666,-0.4462962962962963],[0.07916666666666666,-0.4462962962962963],[0.07916666666666666,-0.4462962962962963],[0.07916666666666666,-0.4462962962962963],[0.07916666666666666,-0.4462962962962963],[0.07916666666666666,-0.4462962962962963],[0.07916666666666666,-0.4462962962962963],[0.07916666666666666,-0.4462962962962963],[0.07916666666666666,-0.4462962962962963],[0.07916666666666666,-0.4462962962962963],[0.07916666666666666,-0.4462962962962963],[0.07916666666666666,-0.4462962962962963],[0.07916666666666666,-0.4462962962962963],[0.07916666666666666,-0.4462962962962963],[0.07916666666666666,-0.4462962962962963],[0.07916666666666666,-0.4462962962962963],[0.07916666666666666,-0.4462962962962963],[0.07916666666666666,-0.4462962962962963],[0.07916666666666666,-0.4462962962962963],[0.07916666666666666,-0.4462962962962963],[0.07916666666666666,-0.4462962962962963],[0.07916666666666666,-0.4462962962962963],[0.07916666666666666,-0.4462962962962963],[0.07916666666666666,-0.4462962962962963],[0.07916666666666666,-0.4462962962962963],[0.07916666666666666,-0.4462962962962963],[0.07916666666666666,-0.4462962962962963],[0.07916666666666666,-0.4462962962962963],[0.07916666666666666,-0.4462962962962963],[0.084375,-0.40185185185185185],[0.08958333333333333,-0.3425925925925926],[0.09270833333333334,-0.22407407407407406],[0.09270833333333334,-0.1537037037037037],[0.09270833333333334,0.040740740740740744],[0.09270833333333334,0.1111111111111111],[0.09166666666666666,0.15555555555555556],[0.08229166666666667,0.20555555555555555],[0.07708333333333334,0.24259259259259258],[0.07291666666666667,0.27037037037037037],[0.06875,0.29074074074074074],[0.065625,0.3148148148148148],[0.06041666666666667,0.34814814814814815],[0.059375,0.3537037037037037],[0.057291666666666664,0.37037037037037035],[0.05520833333333333,0.38333333333333336],[0.05520833333333333,0.38333333333333336],[0.05520833333333333,0.38333333333333336],[0.05520833333333333,0.38333333333333336],[0.05520833333333333,0.38333333333333336],[0.05520833333333333,0.38333333333333336],[0.05520833333333333,0.38333333333333336],[0.05520833333333333,0.38333333333333336],[0.05520833333333333,0.38333333333333336],[0.05520833333333333,0.38333333333333336],[0.05520833333333333,0.38333333333333336],[0.05520833333333333,0.38333333333333336],[0.05520833333333333,0.38333333333333336],[0.05520833333333333,0.38333333333333336],[0.05520833333333333,0.38333333333333336],[0.05520833333333333,0.38333333333333336],[0.05520833333333333,0.38333333333333336],[0.05520833333333333,0.38333333333333336],[0.05520833333333333,0.3851851851851852],[0.05520833333333333,0.3851851851851852],[0.05520833333333333,0.3851851851851852],[0.05520833333333333,0.3851851851851852],[0.05520833333333333,0.3851851851851852],[0.05520833333333333,0.3851851851851852],[0.05520833333333333,0.3851851851851852],[0.05520833333333333,0.3851851851851852],[0.05520833333333333,0.3851851851851852],[0.05520833333333333,0.3851851851851852],[0.05520833333333333,0.3851851851851852],[0.05520833333333333,0.3851851851851852],[0.05520833333333333,0.3851851851851852],[0.05520833333333333,0.3851851851851852],[0.05520833333333333,0.3851851851851852],[0.05520833333333333,0.3851851851851852],[0.05520833333333333,0.3851851851851852],[0.05520833333333333,0.3851851851851852],[0.05520833333333333,0.3851851851851852],[0.05520833333333333,0.3851851851851852],[0.05520833333333333,0.3851851851851852],[0.05520833333333333,0.3851851851851852],[0.05520833333333333,0.3851851851851852],[0.05520833333333333,0.3851851851851852],[0.05520833333333333,0.3851851851851852],[0.05520833333333333,0.3851851851851852],[0.05520833333333333,0.3851851851851852],[0.05520833333333333,0.3851851851851852],[0.05520833333333333,0.3851851851851852],[0.05520833333333333,0.3851851851851852],[0.05520833333333333,0.3851851851851852],[0.05520833333333333,0.3851851851851852],[0.05520833333333333,0.3851851851851852],[0.05520833333333333,0.3851851851851852],[0.05520833333333333,0.3851851851851852],[0.05520833333333333,0.3851851851851852],[0.05520833333333333,0.3851851851851852],[0.05520833333333333,0.3851851851851852],[0.05520833333333333,0.3851851851851852],[0.05520833333333333,0.3851851851851852],[0.05520833333333333,0.3851851851851852],[0.05520833333333333,0.3851851851851852],[0.05520833333333333,0.3851851851851852],[0.05520833333333333,0.3851851851851852],[0.05520833333333333,0.3851851851851852],[0.05520833333333333,0.3851851851851852],[0.05520833333333333,0.3851851851851852],[0.05520833333333333,0.3851851851851852],[0.05520833333333333,0.3851851851851852],[0.05520833333333333,0.3851851851851852],[0.05520833333333333,0.3851851851851852],[0.05520833333333333,0.3851851851851852]]","[[0.3696875000000001,-0.013703703703703662],[0.3696875000000001,-0.013703703703703662],[0.3696875000000001,-0.013703703703703662],[0.38260416666666663,-0.018333333333333292],[0.3641666666666666,-0.02444444444444453],[0.35604166666666665,-0.02111111111111107],[0.3766666666666666,-0.0455555555555556],[0.36208333333333326,-0.015000000000000043],[0.3474999999999999,0.015555555555555513],[0.30625,0.07037037037037037],[0.27927083333333325,0.09129629629629621],[0.26593749999999994,0.11888888888888897],[0.2635416666666667,0.1242592592592593],[0.2686458333333334,0.09740740740740746],[0.29791666666666666,0.08296296296296288],[0.31302083333333336,0.09518518518518514],[0.328125,0.10740740740740741],[0.35093750000000007,0.08333333333333333],[0.35093750000000007,0.08333333333333333],[0.3664583333333333,0.06925925925925921],[0.3784374999999999,0.06629629629629621],[0.39041666666666663,0.06333333333333342],[0.3889583333333334,0.06425925925925935],[0.390625,0.07925925925925917],[0.38520833333333326,0.10055555555555547],[0.38270833333333343,0.11722222222222214],[0.38270833333333343,0.11722222222222214],[0.3680208333333333,0.11685185185185189],[0.35031249999999997,0.09055555555555551],[0.3407291666666666,0.09648148148148153],[0.3384375000000001,0.09240740740740737],[0.35927083333333343,0.07166666666666675],[0.38010416666666674,0.05092592592592592],[0.3841666666666666,0.032407407407407406],[0.38822916666666674,0.013888888888888888],[0.3615624999999999,-0.007037037037036953],[0.32000000000000006,-0.024629629629629547],[0.32000000000000006,-0.024629629629629547],[0.3064583333333334,-0.03129629629629625],[0.3064583333333334,-0.03129629629629625],[0.2947916666666667,-0.03092592592592601],[0.28322916666666675,-0.03425925925925926],[0.28322916666666675,-0.03425925925925926],[0.2601041666666667,-0.05796296296296299],[0.22458333333333325,-0.07092592592592595],[0.22458333333333325,-0.07092592592592595],[0.1890625,-0.08388888888888892],[0.1554166666666667,-0.0772222222222222],[0.12177083333333343,-0.0705555555555556],[0.13572916666666662,-0.06944444444444445],[0.1622916666666666,-0.07592592592592592],[0.14697916666666658,-0.11240740740740739],[0.1328125,-0.12999999999999998],[0.12822916666666656,-0.14351851851851852],[0.1352083333333333,-0.1366666666666667],[0.1556250000000001,-0.14018518518518516],[0.17604166666666668,-0.14370370370370375],[0.18020833333333333,-0.17074074074074072],[0.184375,-0.1977777777777778],[0.15989583333333332,-0.2014814814814815],[0.13479166666666675,-0.1962962962962963],[0.13552083333333323,-0.11703703703703702],[0.13927083333333337,-0.06666666666666667],[0.1318749999999999,-0.018888888888888972],[0.12447916666666667,0.028888888888888933],[0.12374999999999996,0.06666666666666667],[0.11145833333333334,0.11407407407407412],[0.11875,0.1544444444444444],[0.12947916666666662,0.19759259259259268],[0.15197916666666675,0.22537037037037044],[0.1890625,0.27462962962962956],[0.21416666666666656,0.26888888888888896],[0.23624999999999996,0.2920370370370371],[0.2517708333333334,0.28944444444444434],[0.2672916666666666,0.2868518518518518],[0.27239583333333334,0.3172222222222221],[0.2890625,0.33796296296296297],[0.31906249999999997,0.35833333333333334],[0.34562499999999996,0.37592592592592594],[0.340625,0.3864814814814816],[0.3210416666666667,0.3755555555555555],[0.3210416666666667,0.3755555555555555],[0.3159374999999999,0.3587037037037038],[0.2939583333333334,0.34629629629629627],[0.2764583333333334,0.34814814814814815],[0.24083333333333337,0.377962962962963],[0.24083333333333337,0.377962962962963],[0.2203125,0.36055555555555563],[0.19854166666666656,0.3368518518518518],[0.15489583333333337,0.3131481481481482],[0.11124999999999995,0.28944444444444434],[0.10135416666666662,0.2772222222222223],[0.09177083333333323,0.26370370370370366],[0.06770833333333333,0.256111111111111],[0.07062499999999995,0.2609259259259259],[0.0703125,0.2807407407407408],[0.09135416666666671,0.25759259259259265],[0.10760416666666663,0.23203703703703696],[0.12510416666666657,0.21277777777777773],[0.12510416666666657,0.21277777777777773],[0.14249999999999996,0.1911111111111112],[0.16291666666666677,0.18777777777777774],[0.18114583333333342,0.18000000000000008],[0.19000000000000009,0.2111111111111111],[0.22072916666666675,0.27444444444444455],[0.2679166666666667,0.26592592592592595],[0.31833333333333325,0.24240740740740738],[0.3349999999999999,0.21999999999999992],[0.3382291666666667,0.23648148148148157],[0.35343749999999996,0.3133333333333334],[0.36177083333333326,0.36129629629629634],[0.38520833333333326,0.3794444444444444],[0.40864583333333326,0.39759259259259266],[0.4292708333333332,0.3768518518518518],[0.42197916666666657,0.30185185185185187],[0.3881249999999999,0.2818518518518519],[0.35145833333333343,0.2609259259259259],[0.3453125,0.25388888888888894],[0.33958333333333335,0.24592592592592585],[0.321875,0.17759259259259255],[0.31968750000000007,0.14092592592592595],[0.29447916666666674,0.12333333333333338],[0.26927083333333335,0.10574074074074079],[0.26687500000000003,0.09944444444444453],[0.2705208333333334,0.11518518518518527],[0.2894791666666668,0.15777777777777785],[0.31124999999999997,0.2012962962962964],[0.3568749999999999,0.26425925925925936],[0.40208333333333335,0.32814814814814824],[0.43562500000000004,0.37759259259259254],[0.4857291666666666,0.412962962962963],[0.5283333333333334,0.4292592592592592],[0.5709374999999999,0.4455555555555556],[0.5868750000000001,0.4675925925925926],[0.6028125000000001,0.4896296296296296],[0.5890625,0.5005555555555554],[0.5852083333333333,0.5140740740740741],[0.5511458333333332,0.49907407407407406],[0.5254166666666668,0.47462962962962957],[0.5117708333333333,0.459074074074074],[0.48468749999999994,0.44092592592592594],[0.4803124999999999,0.4666666666666667],[0.4695833333333333,0.48925925925925934],[0.47458333333333325,0.49611111111111106],[0.4795833333333334,0.5029629629629631],[0.4873958333333334,0.5137037037037037],[0.4873958333333334,0.5137037037037037],[0.4853125000000001,0.5218518518518518],[0.5033333333333334,0.519074074074074],[0.5027083333333332,0.5292592592592592],[0.5023958333333333,0.5488888888888889],[0.49489583333333326,0.5674074074074074],[0.47708333333333336,0.5535185185185185],[0.4721874999999999,0.5494444444444445],[0.46729166666666655,0.5453703703703704],[0.46875,0.5466666666666667],[0.4817708333333333,0.5283333333333332],[0.5122916666666666,0.5485185185185186],[0.49874999999999997,0.5812962962962962],[0.4591666666666666,0.5555555555555556],[0.41989583333333325,0.5218518518518518],[0.38468749999999996,0.505925925925926],[0.36124999999999996,0.5233333333333334],[0.32177083333333345,0.47074074074074085],[0.2730208333333332,0.37888888888888894],[0.22354166666666658,0.26296296296296295],[0.1382291666666667,0.14518518518518514],[0.07322916666666662,0.02833333333333325],[0.03854166666666667,-0.08111111111111113],[0.04489583333333336,-0.1264814814814815],[0.044479166666666715,-0.1838888888888889],[0.044479166666666715,-0.1838888888888889],[0.05947916666666669,-0.2564814814814815],[0.05239583333333329,-0.37777777777777777],[0.05479166666666669,-0.43574074074074076],[0.04739583333333333,-0.45481481481481484],[0.035625000000000046,-0.44462962962962965],[0.07781250000000005,-0.4625925925925926],[0.0821875000000001,-0.52],[0.06114583333333338,-0.5531481481481482],[0.05375000000000003,-0.5966666666666667],[0.019791666666666666,-0.6440740740740741],[0.004375000000000047,-0.6427777777777778],[-0.0007291666666667141,-0.6261111111111112],[-0.004062499999999977,-0.6172222222222222],[0.011666666666666714,-0.607962962962963],[0.029895833333333382,-0.6033333333333334],[0.0234375,-0.5599999999999999],[0.04208333333333331,-0.5281481481481481],[0.06489583333333329,-0.5007407407407407],[0.07010416666666662,-0.5168518518518519],[0.07010416666666662,-0.5168518518518519],[0.10302083333333342,-0.4766666666666666],[0.10364583333333334,-0.4940740740740741],[0.10479166666666657,-0.5412962962962963],[0.11218750000000005,-0.5690740740740741],[0.10854166666666672,-0.575],[0.10916666666666662,-0.5546296296296296],[0.11635416666666672,-0.542962962962963],[0.0921875,-0.508888888888889],[0.08927083333333338,-0.4946296296296297],[0.0990624999999999,-0.45611111111111113],[0.1134375000000001,-0.45388888888888895],[0.0984375,-0.4359259259259259],[0.0984375,-0.4359259259259259],[0.10718750000000009,-0.3388888888888889],[0.10791666666666658,-0.2535185185185185],[0.10791666666666658,-0.2535185185185185],[0.09354166666666662,-0.23296296296296298],[0.10291666666666661,-0.29907407407407405],[0.10291666666666661,-0.29907407407407405],[0.10479166666666657,-0.32537037037037037],[0.10479166666666657,-0.32537037037037037],[0.07083333333333333,-0.36629629629629634],[0.07083333333333333,-0.36629629629629634],[0.04208333333333331,-0.4038888888888889],[-0.00010416666666669035,-0.4209259259259259],[-0.04812500000000005,-0.39462962962962966],[-0.057187499999999974,-0.40555555555555556],[-0.10739583333333336,-0.3987037037037037],[-0.15760416666666663,-0.3918518518518519],[-0.1877083333333334,-0.3485185185185185],[-0.24958333333333335,-0.2507407407407407],[-0.309375,-0.1940740740740741],[-0.32708333333333334,-0.13370370370370369],[-0.32833333333333337,-0.07685185185185185],[-0.3295833333333333,-0.019999999999999917],[-0.3085416666666667,-0.020740740740740823],[-0.29874999999999996,0.024074074074074074],[-0.2929166666666667,-0.0257407407407407],[-0.28968750000000004,-0.06870370370370374],[-0.3003124999999999,-0.11333333333333331],[-0.3109375,-0.15796296296296297],[-0.2908333333333334,-0.18425925925925926],[-0.27072916666666663,-0.21055555555555552],[-0.29,-0.2542592592592593],[-0.2764583333333333,-0.2479629629629629],[-0.27937500000000004,-0.22740740740740742],[-0.25906250000000003,-0.21518518518518517],[-0.2195833333333333,-0.2044444444444444],[-0.17749999999999996,-0.20055555555555557],[-0.11552083333333331,-0.21185185185185182],[-0.05656249999999995,-0.2103703703703704]]","[[0.3696875000000001,-0.013703703703703662,0.0002999999970114686],[0.3696875000000001,-0.013703703703703662,0.03839999999105714],[0.3696875000000001,-0.013703703703703662,0.045399999991047935],[0.38260416666666663,-0.018333333333333292,0.06209999999403237],[0.3641666666666666,-0.02444444444444453,0.08099999999998886],[0.35604166666666665,-0.02111111111111107,0.09820000000297568],[0.3766666666666666,-0.0455555555555556,0.11249999999999716],[0.36208333333333326,-0.015000000000000043,0.1287000000029792],[0.3474999999999999,0.015555555555555513,0.14849999999999852],[0.30625,0.07037037037037037,0.16429999999701295],[0.27927083333333325,0.09129629629629621,0.17870000000297637],[0.26593749999999994,0.11888888888888897,0.19539999999105362],[0.2635416666666667,0.1242592592592593,0.21209999999403806],[0.2686458333333334,0.09740740740740746,0.22889999999105726],[0.29791666666666666,0.08296296296296288,0.24539999999105078],[0.31302083333333336,0.09518518518518514,0.26220000000297716],[0.328125,0.10740740740740741,0.27879999999701965],[0.35093750000000007,0.08333333333333333,0.2993999999910528],[0.35093750000000007,0.08333333333333333,0.3120999999940324],[0.3664583333333333,0.06925925925925921,0.3287999999970168],[0.3784374999999999,0.06629629629629621,0.34899999999998954],[0.39041666666666663,0.06333333333333342,0.3642999999970158],[0.3889583333333334,0.06425925925925935,0.3793999999910511],[0.390625,0.07925925925925917,0.39539999999105646],[0.38520833333333326,0.10055555555555547,0.41199999999999193],[0.38270833333333343,0.11722222222222214,0.42870000000297637],[0.38270833333333343,0.11722222222222214,0.4453999999910536],[0.3680208333333333,0.11685185185185189,0.46220000000298],[0.35031249999999997,0.09055555555555551,0.4787000000029735],[0.3407291666666666,0.09648148148148153,0.4953999999910508],[0.3384375000000001,0.09240740740740737,0.5120999999940352],[0.35927083333333343,0.07166666666666675,0.5287000000029707],[0.38010416666666674,0.05092592592592592,0.5453999999910479],[0.3841666666666666,0.032407407407407406,0.5620999999940324],[0.38822916666666674,0.013888888888888888,0.578700000002982],[0.3615624999999999,-0.007037037037036953,0.595599999994036],[0.32000000000000006,-0.024629629629629547,0.615599999994032],[0.32000000000000006,-0.024629629629629547,0.6287000000029792],[0.3064583333333334,-0.03129629629629625,0.6454999999999984],[0.3064583333333334,-0.03129629629629625,0.6620999999940409],[0.2947916666666667,-0.03092592592592601,0.6787000000029764],[0.28322916666666675,-0.03425925925925926,0.7010999999940282],[0.28322916666666675,-0.03425925925925926,0.71220000000298],[0.2601041666666667,-0.05796296296296299,0.7288999999910573],[0.22458333333333325,-0.07092592592592595,0.7543999999910511],[0.22458333333333325,-0.07092592592592595,0.7620000000000005],[0.1890625,-0.08388888888888892,0.7787999999970197],[0.1554166666666667,-0.0772222222222222,0.7972999999970085],[0.12177083333333343,-0.0705555555555556,0.8120999999940324],[0.13572916666666662,-0.06944444444444445,0.8287999999970168],[0.1622916666666666,-0.07592592592592592,0.8453999999910593],[0.14697916666666658,-0.11240740740740739,0.8620999999940295],[0.1328125,-0.12999999999999998,0.878799999997014],[0.12822916666666656,-0.14351851851851852,0.8953999999910565],[0.1352083333333333,-0.1366666666666667,0.9119999999999919],[0.1556250000000001,-0.14018518518518516,0.9287999999970111],[0.17604166666666668,-0.14370370370370375,0.9453999999910536],[0.18020833333333333,-0.17074074074074072,0.9627999999970172],[0.184375,-0.1977777777777778,0.9787000000029735],[0.15989583333333332,-0.2014814814814815,0.9953999999910508],[0.13479166666666675,-0.1962962962962963,1.0122000000029772],[0.13552083333333323,-0.11703703703703702,1.0287000000029707],[0.13927083333333337,-0.06666666666666667,1.045399999991048],[0.1318749999999999,-0.018888888888888972,1.0628999999910604],[0.12447916666666667,0.028888888888888933,1.0787999999970168],[0.12374999999999996,0.06666666666666667,1.0953999999910593],[0.11145833333333334,0.11407407407407412,1.1120999999940295],[0.11875,0.1544444444444444,1.128799999997014],[0.12947916666666662,0.19759259259259268,1.1453999999910565],[0.15197916666666675,0.22537037037037044,1.1622999999970176],[0.1890625,0.27462962962962956,1.1787999999970111],[0.21416666666666656,0.26888888888888896,1.1953999999910536],[0.23624999999999996,0.2920370370370371,1.211999999999989],[0.2517708333333334,0.28944444444444434,1.2287000000029735],[0.2672916666666666,0.2868518518518518,1.2453999999910508],[0.27239583333333334,0.3172222222222221,1.262299999997012],[0.2890625,0.33796296296296297,1.2787000000029707],[0.31906249999999997,0.35833333333333334,1.295399999991048],[0.34562499999999996,0.37592592592592594,1.3119999999999976],[0.340625,0.3864814814814816,1.3287999999970168],[0.3210416666666667,0.3755555555555555,1.3465999999940408],[0.3210416666666667,0.3755555555555555,1.3652000000029716],[0.3159374999999999,0.3587037037037038,1.3823999999910512],[0.2939583333333334,0.34629629629629627,1.3977999999970194],[0.2764583333333334,0.34814814814814815,1.412099999994041],[0.24083333333333337,0.377962962962963,1.4287999999970111],[0.24083333333333337,0.377962962962963,1.4453999999910536],[0.2203125,0.36055555555555563,1.46220000000298],[0.19854166666666656,0.3368518518518518,1.4787000000029735],[0.15489583333333337,0.3131481481481482,1.4953999999910508],[0.11124999999999995,0.28944444444444434,1.5120999999940352],[0.10135416666666662,0.2772222222222223,1.5288999999910544],[0.09177083333333323,0.26370370370370366,1.545399999991048],[0.06770833333333333,0.256111111111111,1.5620999999940324],[0.07062499999999995,0.2609259259259259,1.578700000002982],[0.0703125,0.2807407407407408,1.5953999999910593],[0.09135416666666671,0.25759259259259265,1.6120999999940295],[0.10760416666666663,0.23203703703703696,1.6287000000029792],[0.12510416666666657,0.21277777777777773,1.6453999999910565],[0.12510416666666657,0.21277777777777773,1.662099999994041],[0.14249999999999996,0.1911111111111112,1.6787000000029764],[0.16291666666666677,0.18777777777777774,1.6954999999999956],[0.18114583333333342,0.18000000000000008,1.711999999999989],[0.19000000000000009,0.2111111111111111,1.7287000000029735],[0.22072916666666675,0.27444444444444455,1.7453999999910508],[0.2679166666666667,0.26592592592592595,1.7620999999940352],[0.31833333333333325,0.24240740740740738,1.7787000000029707],[0.3349999999999999,0.21999999999999992,1.7954999999999899],[0.3382291666666667,0.23648148148148157,1.8120999999940324],[0.35343749999999996,0.3133333333333334,1.8287999999970168],[0.36177083333333326,0.36129629629629634,1.8453999999910593],[0.38520833333333326,0.3794444444444444,1.8620999999940295],[0.40864583333333326,0.39759259259259266,1.8788999999910487],[0.4292708333333332,0.3768518518518518,1.8953999999910565],[0.42197916666666657,0.30185185185185187,1.912099999994041],[0.3881249999999999,0.2818518518518519,1.9287999999970111],[0.35145833333333343,0.2609259259259259,1.9453999999910536],[0.3453125,0.25388888888888894,1.962099999994038],[0.33958333333333335,0.24592592592592585,1.9787000000029735],[0.321875,0.17759259259259255,1.9953999999910508],[0.31968750000000007,0.14092592592592595,2.012399999991061],[0.29447916666666674,0.12333333333333338,2.0287000000029707],[0.26927083333333335,0.10574074074074079,2.045399999991048],[0.26687500000000003,0.09944444444444453,2.0620999999940324],[0.2705208333333334,0.11518518518518527,2.078799999997017],[0.2894791666666668,0.15777777777777785,2.0953999999910593],[0.31124999999999997,0.2012962962962964,2.1120999999940295],[0.3568749999999999,0.26425925925925936,2.128700000002979],[0.40208333333333335,0.32814814814814824,2.1453999999910565],[0.43562500000000004,0.37759259259259254,2.162099999994041],[0.4857291666666666,0.412962962962963,2.1787000000029764],[0.5283333333333334,0.4292592592592592,2.1953999999910536],[0.5709374999999999,0.4455555555555556,2.2124999999999915],[0.5868750000000001,0.4675925925925926,2.2287999999970083],[0.6028125000000001,0.4896296296296296,2.2453999999910508],[0.5890625,0.5005555555555554,2.2625999999940376],[0.5852083333333333,0.5140740740740741,2.2787000000029707],[0.5511458333333332,0.49907407407407406,2.295399999991048],[0.5254166666666668,0.47462962962962957,2.3119999999999976],[0.5117708333333333,0.459074074074074,2.328700000002982],[0.48468749999999994,0.44092592592592594,2.3453999999910593],[0.4803124999999999,0.4666666666666667,2.3620999999940295],[0.4695833333333333,0.48925925925925934,2.378799999997014],[0.47458333333333325,0.49611111111111106,2.3954999999999984],[0.4795833333333334,0.5029629629629631,2.412700000002971],[0.4873958333333334,0.5137037037037037,2.4287000000029764],[0.4873958333333334,0.5137037037037037,2.4453999999910536],[0.4853125000000001,0.5218518518518518,2.462099999994038],[0.5033333333333334,0.519074074074074,2.4787999999970083],[0.5027083333333332,0.5292592592592592,2.4953999999910508],[0.5023958333333333,0.5488888888888889,2.512099999994035],[0.49489583333333326,0.5674074074074074,2.5287000000029707],[0.47708333333333336,0.5535185185185185,2.545399999991048],[0.4721874999999999,0.5494444444444445,2.5619999999999976],[0.46729166666666655,0.5453703703703704,2.578799999997017],[0.46875,0.5466666666666667,2.5953999999910593],[0.4817708333333333,0.5283333333333332,2.6119999999999948],[0.5122916666666666,0.5485185185185186,2.631899999991049],[0.49874999999999997,0.5812962962962962,2.6502000000029824],[0.4591666666666666,0.5555555555555556,2.6660999999940316],[0.41989583333333325,0.5218518518518518,2.682000000000002],[0.38468749999999996,0.505925925925926,2.6957000000029723],[0.36124999999999996,0.5233333333333334,2.7164999999999964],[0.32177083333333345,0.47074074074074085,2.7317999999970084],[0.2730208333333332,0.37888888888888894,2.7478999999910485],[0.22354166666666658,0.26296296296296295,2.762999999999991],[0.1382291666666667,0.14518518518518514,2.7812999999970174],[0.07322916666666662,0.02833333333333325,2.795599999994039],[0.03854166666666667,-0.08111111111111113,2.8122000000029743],[0.04489583333333336,-0.1264814814814815,2.8327000000029727],[0.044479166666666715,-0.1838888888888889,2.849499999999992],[0.044479166666666715,-0.1838888888888889,2.862399999991055],[0.05947916666666669,-0.2564814814814815,2.8822999999970165],[0.05239583333333329,-0.37777777777777777,2.897399999991052],[0.05479166666666669,-0.43574074074074076,2.912700000002971],[0.04739583333333333,-0.45481481481481484,2.9287000000029764],[0.035625000000000046,-0.44462962962962965,2.9453999999910536],[0.07781250000000005,-0.4625925925925926,2.96429999999701],[0.0821875000000001,-0.52,2.9787000000029735],[0.06114583333333338,-0.5531481481481482,2.9953999999910508],[0.05375000000000003,-0.5966666666666667,3.012099999994035],[0.019791666666666666,-0.6440740740740741,3.0317999999970198],[0.004375000000000047,-0.6427777777777778,3.049299999997018],[-0.0007291666666667141,-0.6261111111111112,3.0660999999940373],[-0.004062499999999977,-0.6172222222222222,3.081799999997017],[0.011666666666666714,-0.607962962962963,3.0975999999940314],[0.029895833333333382,-0.6033333333333334,3.1150999999940296],[0.0234375,-0.5599999999999999,3.128799999997014],[0.04208333333333331,-0.5281481481481481,3.1452999999970217],[0.06489583333333329,-0.5007407407407407,3.164299999997013],[0.07010416666666662,-0.5168518518518519,3.178799999997011],[0.07010416666666662,-0.5168518518518519,3.198099999994028],[0.10302083333333342,-0.4766666666666666,3.212099999994038],[0.10364583333333334,-0.4940740740740741,3.2287999999970083],[0.10479166666666657,-0.5412962962962963,3.247],[0.11218750000000005,-0.5690740740740741,3.264599999994033],[0.10854166666666672,-0.575,3.2802999999970126],[0.10916666666666662,-0.5546296296296296,3.2957999999970156],[0.11635416666666672,-0.542962962962963,3.3119999999999976],[0.0921875,-0.508888888888889,3.328700000002982],[0.08927083333333338,-0.4946296296296297,3.3458999999910475],[0.0990624999999999,-0.45611111111111113,3.364999999999995],[0.1134375000000001,-0.45388888888888895,3.3810000000000002],[0.0984375,-0.4359259259259259,3.4000999999940404],[0.0984375,-0.4359259259259259,3.411999999999992],[0.10718750000000009,-0.3388888888888889,3.4287000000029764],[0.10791666666666658,-0.2535185185185185,3.4547000000029726],[0.10791666666666658,-0.2535185185185185,3.4624999999999915],[0.09354166666666662,-0.23296296296296298,3.482200000002976],[0.10291666666666661,-0.29907407407407405,3.503200000002977],[0.10291666666666661,-0.29907407407407405,3.512099999994035],[0.10479166666666657,-0.32537037037037037,3.5289999999999964],[0.10479166666666657,-0.32537037037037037,3.545399999991048],[0.07083333333333333,-0.36629629629629634,3.5620999999940324],[0.07083333333333333,-0.36629629629629634,3.578799999997017],[0.04208333333333331,-0.4038888888888889,3.5953999999910593],[-0.00010416666666669035,-0.4209259259259259,3.6119999999999948],[-0.04812500000000005,-0.39462962962962966,3.628799999997014],[-0.057187499999999974,-0.40555555555555556,3.6453999999910565],[-0.10739583333333336,-0.3987037037037037,3.662099999994041],[-0.15760416666666663,-0.3918518518518519,3.6787000000029764],[-0.1877083333333334,-0.3485185185185185,3.6953999999910536],[-0.24958333333333335,-0.2507407407407407,3.711999999999989],[-0.309375,-0.1940740740740741,3.7287999999970083],[-0.32708333333333334,-0.13370370370370369,3.745299999997016],[-0.32833333333333337,-0.07685185185185185,3.762200000002977],[-0.3295833333333333,-0.019999999999999917,3.7787000000029707],[-0.3085416666666667,-0.020740740740740823,3.795399999991048],[-0.29874999999999996,0.024074074074074074,3.8119999999999976],[-0.2929166666666667,-0.0257407407407407,3.828700000002982],[-0.28968750000000004,-0.06870370370370374,3.8453999999910593],[-0.3003124999999999,-0.11333333333333331,3.8620999999940295],[-0.3109375,-0.15796296296296297,3.878700000002979],[-0.2908333333333334,-0.18425925925925926,3.8953999999910565],[-0.27072916666666663,-0.21055555555555552,3.911999999999992],[-0.29,-0.2542592592592593,3.9287000000029764],[-0.2764583333333333,-0.2479629629629629,3.9453999999910536],[-0.27937500000000004,-0.22740740740740742,3.963799999997022],[-0.25906250000000003,-0.21518518518518517,3.9787000000029735],[-0.2195833333333333,-0.2044444444444444,3.9953999999910508],[-0.17749999999999996,-0.20055555555555557,4.0120000000000005],[-0.11552083333333331,-0.21185185185185182,4.028700000002971],[-0.05656249999999995,-0.2103703703703704,4.045299999997013]]","[0.0002999999970114686,0.03839999999105714,0.045399999991047935,0.06209999999403237,0.08099999999998886,0.09820000000297568,0.11249999999999716,0.1287000000029792,0.14849999999999852,0.16429999999701295,0.17870000000297637,0.19539999999105362,0.21209999999403806,0.22889999999105726,0.24539999999105078,0.26220000000297716,0.27879999999701965,0.2993999999910528,0.3120999999940324,0.3287999999970168,0.34899999999998954,0.3642999999970158,0.3793999999910511,0.39539999999105646,0.41199999999999193,0.42870000000297637,0.4453999999910536,0.46220000000298,0.4787000000029735,0.4953999999910508,0.5120999999940352,0.5287000000029707,0.5453999999910479,0.5620999999940324,0.578700000002982,0.595599999994036,0.615599999994032,0.6287000000029792,0.6454999999999984,0.6620999999940409,0.6787000000029764,0.7010999999940282,0.71220000000298,0.7288999999910573,0.7543999999910511,0.7620000000000005,0.7787999999970197,0.7972999999970085,0.8120999999940324,0.8287999999970168,0.8453999999910593,0.8620999999940295,0.878799999997014,0.8953999999910565,0.9119999999999919,0.9287999999970111,0.9453999999910536,0.9627999999970172,0.9787000000029735,0.9953999999910508,1.0122000000029772,1.0287000000029707,1.045399999991048,1.0628999999910604,1.0787999999970168,1.0953999999910593,1.1120999999940295,1.128799999997014,1.1453999999910565,1.1622999999970176,1.1787999999970111,1.1953999999910536,1.211999999999989,1.2287000000029735,1.2453999999910508,1.262299999997012,1.2787000000029707,1.295399999991048,1.3119999999999976,1.3287999999970168,1.3465999999940408,1.3652000000029716,1.3823999999910512,1.3977999999970194,1.412099999994041,1.4287999999970111,1.4453999999910536,1.46220000000298,1.4787000000029735,1.4953999999910508,1.5120999999940352,1.5288999999910544,1.545399999991048,1.5620999999940324,1.578700000002982,1.5953999999910593,1.6120999999940295,1.6287000000029792,1.6453999999910565,1.662099999994041,1.6787000000029764,1.6954999999999956,1.711999999999989,1.7287000000029735,1.7453999999910508,1.7620999999940352,1.7787000000029707,1.7954999999999899,1.8120999999940324,1.8287999999970168,1.8453999999910593,1.8620999999940295,1.8788999999910487,1.8953999999910565,1.912099999994041,1.9287999999970111,1.9453999999910536,1.962099999994038,1.9787000000029735,1.9953999999910508,2.012399999991061,2.0287000000029707,2.045399999991048,2.0620999999940324,2.078799999997017,2.0953999999910593,2.1120999999940295,2.128700000002979,2.1453999999910565,2.162099999994041,2.1787000000029764,2.1953999999910536,2.2124999999999915,2.2287999999970083,2.2453999999910508,2.2625999999940376,2.2787000000029707,2.295399999991048,2.3119999999999976,2.328700000002982,2.3453999999910593,2.3620999999940295,2.378799999997014,2.3954999999999984,2.412700000002971,2.4287000000029764,2.4453999999910536,2.462099999994038,2.4787999999970083,2.4953999999910508,2.512099999994035,2.5287000000029707,2.545399999991048,2.5619999999999976,2.578799999997017,2.5953999999910593,2.6119999999999948,2.631899999991049,2.6502000000029824,2.6660999999940316,2.682000000000002,2.6957000000029723,2.7164999999999964,2.7317999999970084,2.7478999999910485,2.762999999999991,2.7812999999970174,2.795599999994039,2.8122000000029743,2.8327000000029727,2.849499999999992,2.862399999991055,2.8822999999970165,2.897399999991052,2.912700000002971,2.9287000000029764,2.9453999999910536,2.96429999999701,2.9787000000029735,2.9953999999910508,3.012099999994035,3.0317999999970198,3.049299999997018,3.0660999999940373,3.081799999997017,3.0975999999940314,3.1150999999940296,3.128799999997014,3.1452999999970217,3.164299999997013,3.178799999997011,3.198099999994028,3.212099999994038,3.2287999999970083,3.247,3.264599999994033,3.2802999999970126,3.2957999999970156,3.3119999999999976,3.328700000002982,3.3458999999910475,3.364999999999995,3.3810000000000002,3.4000999999940404,3.411999999999992,3.4287000000029764,3.4547000000029726,3.4624999999999915,3.482200000002976,3.503200000002977,3.512099999994035,3.5289999999999964,3.545399999991048,3.5620999999940324,3.578799999997017,3.5953999999910593,3.6119999999999948,3.628799999997014,3.6453999999910565,3.662099999994041,3.6787000000029764,3.6953999999910536,3.711999999999989,3.7287999999970083,3.745299999997016,3.762200000002977,3.7787000000029707,3.795399999991048,3.8119999999999976,3.828700000002982,3.8453999999910593,3.8620999999940295,3.878700000002979,3.8953999999910565,3.911999999999992,3.9287000000029764,3.9453999999910536,3.963799999997022,3.9787000000029735,3.9953999999910508,4.0120000000000005,4.028700000002971,4.045299999997013]","[1733199723967,1733199723997,1733199724005,1733199724021,1733199724040,1733199724057,1733199724072,1733199724088,1733199724108,1733199724123,1733199724138,1733199724154,1733199724171,1733199724188,1733199724204,1733199724221,1733199724238,1733199724258,1733199724271,1733199724288,1733199724308,1733199724324,1733199724339,1733199724355,1733199724372,1733199724388,1733199724405,1733199724422,1733199724438,1733199724455,1733199724472,1733199724488,1733199724505,1733199724522,1733199724538,1733199724555,1733199724575,1733199724588,1733199724605,1733199724622,1733199724638,1733199724661,1733199724672,1733199724688,1733199724714,1733199724722,1733199724738,1733199724757,1733199724772,1733199724788,1733199724805,1733199724822,1733199724838,1733199724855,1733199724872,1733199724888,1733199724905,1733199724922,1733199724938,1733199724955,1733199724972,1733199724988,1733199725005,1733199725023,1733199725038,1733199725055,1733199725072,1733199725088,1733199725105,1733199725122,1733199725138,1733199725155,1733199725172,1733199725188,1733199725205,1733199725222,1733199725238,1733199725255,1733199725272,1733199725288,1733199725306,1733199725325,1733199725342,1733199725357,1733199725372,1733199725388,1733199725405,1733199725422,1733199725438,1733199725455,1733199725472,1733199725488,1733199725505,1733199725522,1733199725538,1733199725555,1733199725572,1733199725588,1733199725605,1733199725622,1733199725638,1733199725655,1733199725672,1733199725688,1733199725705,1733199725722,1733199725738,1733199725755,1733199725772,1733199725788,1733199725805,1733199725822,1733199725838,1733199725855,1733199725872,1733199725888,1733199725905,1733199725922,1733199725938,1733199725955,1733199725972,1733199725988,1733199726005,1733199726022,1733199726038,1733199726055,1733199726072,1733199726088,1733199726105,1733199726122,1733199726138,1733199726155,1733199726172,1733199726188,1733199726205,1733199726222,1733199726238,1733199726255,1733199726272,1733199726288,1733199726305,1733199726322,1733199726338,1733199726355,1733199726372,1733199726388,1733199726405,1733199726422,1733199726439,1733199726455,1733199726472,1733199726488,1733199726505,1733199726522,1733199726538,1733199726555,1733199726572,1733199726592,1733199726610,1733199726626,1733199726642,1733199726655,1733199726676,1733199726691,1733199726708,1733199726723,1733199726741,1733199726755,1733199726772,1733199726792,1733199726809,1733199726822,1733199726842,1733199726857,1733199726872,1733199726888,1733199726905,1733199726924,1733199726938,1733199726955,1733199726972,1733199726992,1733199727009,1733199727026,1733199727041,1733199727057,1733199727075,1733199727088,1733199727105,1733199727124,1733199727138,1733199727158,1733199727172,1733199727188,1733199727207,1733199727224,1733199727240,1733199727255,1733199727272,1733199727288,1733199727306,1733199727325,1733199727341,1733199727360,1733199727372,1733199727388,1733199727414,1733199727422,1733199727442,1733199727463,1733199727472,1733199727489,1733199727505,1733199727522,1733199727538,1733199727555,1733199727572,1733199727588,1733199727605,1733199727622,1733199727638,1733199727655,1733199727672,1733199727688,1733199727705,1733199727722,1733199727738,1733199727755,1733199727772,1733199727788,1733199727805,1733199727822,1733199727838,1733199727855,1733199727872,1733199727888,1733199727905,1733199727923,1733199727938,1733199727955,1733199727972,1733199727988,1733199728005]","[[1314.9,532.6],[1314.9,532.6],[1314.9,532.6],[1327.3,530.1],[1309.6,526.8],[1301.8,528.6],[1321.6,515.4],[1307.6,531.9],[1293.6,548.4],[1254,578],[1228.1,589.3],[1215.3,604.2],[1213,607.1],[1217.9,592.6],[1246,584.8],[1260.5,591.4],[1275,598],[1296.9,585],[1296.9,585],[1311.8,577.4],[1323.3,575.8],[1334.8,574.2],[1333.4,574.7],[1335,582.8],[1329.8,594.3],[1327.4,603.3],[1327.4,603.3],[1313.3,603.1],[1296.3,588.9],[1287.1,592.1],[1284.9,589.9],[1304.9,578.7],[1324.9,567.5],[1328.8,557.5],[1332.7,547.5],[1307.1,536.2],[1267.2,526.7],[1267.2,526.7],[1254.2,523.1],[1254.2,523.1],[1243,523.3],[1231.9,521.5],[1231.9,521.5],[1209.7,508.7],[1175.6,501.7],[1175.6,501.7],[1141.5,494.7],[1109.2,498.3],[1076.9,501.9],[1090.3,502.5],[1115.8,499],[1101.1,479.3],[1087.5,469.8],[1083.1,462.5],[1089.8,466.2],[1109.4,464.3],[1129,462.4],[1133,447.8],[1137,433.2],[1113.5,431.2],[1089.4,434],[1090.1,476.8],[1093.7,504],[1086.6,529.8],[1079.5,555.6],[1078.8,576],[1067,601.6],[1074,623.4],[1084.3,646.7],[1105.9,661.7],[1141.5,688.3],[1165.6,685.2],[1186.8,697.7],[1201.7,696.3],[1216.6,694.9],[1221.5,711.3],[1237.5,722.5],[1266.3,733.5],[1291.8,743],[1287,748.7],[1268.2,742.8],[1268.2,742.8],[1263.3,733.7],[1242.2,727],[1225.4,728],[1191.2,744.1],[1191.2,744.1],[1171.5,734.7],[1150.6,721.9],[1108.7,709.1],[1066.8,696.3],[1057.3,689.7],[1048.1,682.4],[1025,678.3],[1027.8,680.9],[1027.5,691.6],[1047.7,679.1],[1063.3,665.3],[1080.1,654.9],[1080.1,654.9],[1096.8,643.2],[1116.4,641.4],[1133.9,637.2],[1142.4,654],[1171.9,688.2],[1217.2,683.6],[1265.6,670.9],[1281.6,658.8],[1284.7,667.7],[1299.3,709.2],[1307.3,735.1],[1329.8,744.9],[1352.3,754.7],[1372.1,743.5],[1365.1,703],[1332.6,692.2],[1297.4,680.9],[1291.5,677.1],[1286,672.8],[1269,635.9],[1266.9,616.1],[1242.7,606.6],[1218.5,597.1],[1216.2,593.7],[1219.7,602.2],[1237.9,625.2],[1258.8,648.7],[1302.6,682.7],[1346,717.2],[1378.2,743.9],[1426.3,763],[1467.2,771.8],[1508.1,780.6],[1523.4,792.5],[1538.7,804.4],[1525.5,810.3],[1521.8,817.6],[1489.1,809.5],[1464.4,796.3],[1451.3,787.9],[1425.3,778.1],[1421.1,792],[1410.8,804.2],[1415.6,807.9],[1420.4,811.6],[1427.9,817.4],[1427.9,817.4],[1425.9,821.8],[1443.2,820.3],[1442.6,825.8],[1442.3,836.4],[1435.1,846.4],[1418,838.9],[1413.3,836.7],[1408.6,834.5],[1410,835.2],[1422.5,825.3],[1451.8,836.2],[1438.8,853.9],[1400.8,840],[1363.1,821.8],[1329.3,813.2],[1306.8,822.6],[1268.9,794.2],[1222.1,744.6],[1174.6,682],[1092.7,618.4],[1030.3,555.3],[997,496.2],[1003.1,471.7],[1002.7,440.7],[1002.7,440.7],[1017.1,401.5],[1010.3,336],[1012.6,304.7],[1005.5,294.4],[994.2,299.9],[1034.7,290.2],[1038.9,259.2],[1018.7,241.3],[1011.6,217.8],[979,192.2],[964.2,192.9],[959.3,201.9],[956.1,206.7],[971.2,211.7],[988.7,214.2],[982.5,237.6],[1000.4,254.8],[1022.3,269.6],[1027.3,260.9],[1027.3,260.9],[1058.9,282.6],[1059.5,273.2],[1060.6,247.7],[1067.7,232.7],[1064.2,229.5],[1064.8,240.5],[1071.7,246.8],[1048.5,265.2],[1045.7,272.9],[1055.1,293.7],[1068.9,294.9],[1054.5,304.6],[1054.5,304.6],[1062.9,357],[1063.6,403.1],[1063.6,403.1],[1049.8,414.2],[1058.8,378.5],[1058.8,378.5],[1060.6,364.3],[1060.6,364.3],[1028,342.2],[1028,342.2],[1000.4,321.9],[959.9,312.7],[913.8,326.9],[905.1,321],[856.9,324.7],[808.7,328.4],[779.8,351.8],[720.4,404.6],[663,435.2],[646,467.8],[644.8,498.5],[643.6,529.2],[663.8,528.8],[673.2,553],[678.8,526.1],[681.9,502.9],[671.7,478.8],[661.5,454.7],[680.8,440.5],[700.1,426.3],[681.6,402.7],[694.6,406.1],[691.8,417.2],[711.3,423.8],[749.2,429.6],[789.6,431.7],[849.1,425.6],[905.7,426.4]]","[0,0.37864299999999995]","[0.37864299999999995,0.37864299999999995]","[-0.37864299999999995,0]","[-0.37864299999999995,-0.37864299999999995]","[0,0]","[0.37864299999999995,0]","[0,-0.37864299999999995]","[0.37864299999999995,-0.37864299999999995]",0,0,0,0,1,3,Laptop,11,9,9,1
,,,,,,,,,,,,,,,,,,,,43,001,2024-12-03_12h21.20.123,Attention_exp_legacy,2023.1.0,Win32,59.88023952,,,,,,,,,,[0.11666666666666667],[0.39444444444444443],[1],[0],[0],[2.799400000005974],"[""Option1_label""]",Option1_label,2,3.8163,"[[0.05520833333333333,0.3851851851851852],[0.05520833333333333,0.3851851851851852],[0.05520833333333333,0.3851851851851852],[0.05520833333333333,0.3851851851851852],[0.05520833333333333,0.3851851851851852],[0.05520833333333333,0.3851851851851852],[0.05520833333333333,0.3851851851851852],[0.05520833333333333,0.3851851851851852],[0.05520833333333333,0.3851851851851852],[0.05520833333333333,0.3851851851851852],[0.05520833333333333,0.3851851851851852],[0.05520833333333333,0.3851851851851852],[0.05520833333333333,0.3851851851851852],[0.05520833333333333,0.3851851851851852],[0.05520833333333333,0.3851851851851852],[0.05520833333333333,0.3851851851851852],[0.05520833333333333,0.3851851851851852],[0.05520833333333333,0.3851851851851852],[0.05520833333333333,0.3851851851851852],[0.05520833333333333,0.3851851851851852],[0.05520833333333333,0.3851851851851852],[0.05520833333333333,0.3851851851851852],[0.05520833333333333,0.3851851851851852],[0.05520833333333333,0.3851851851851852],[0.05520833333333333,0.3851851851851852],[0.05520833333333333,0.3851851851851852],[0.05520833333333333,0.3851851851851852],[0.05520833333333333,0.3851851851851852],[0.05520833333333333,0.3851851851851852],[0.05520833333333333,0.3851851851851852],[0.05520833333333333,0.3851851851851852],[0.05520833333333333,0.3851851851851852],[0.05520833333333333,0.3851851851851852],[0.05520833333333333,0.3851851851851852],[0.05520833333333333,0.3851851851851852],[0.05520833333333333,0.3851851851851852],[0.05520833333333333,0.3851851851851852],[0.05520833333333333,0.3851851851851852],[0.05520833333333333,0.3851851851851852],[0.05520833333333333,0.3851851851851852],[0.05520833333333333,0.3851851851851852],[0.05520833333333333,0.3851851851851852],[0.05520833333333333,0.3851851851851852],[0.05520833333333333,0.3851851851851852],[0.05520833333333333,0.3851851851851852],[0.05520833333333333,0.3851851851851852],[0.05520833333333333,0.3851851851851852],[0.05520833333333333,0.3851851851851852],[0.05520833333333333,0.3851851851851852],[0.05520833333333333,0.3851851851851852],[0.05520833333333333,0.3851851851851852],[0.05520833333333333,0.3851851851851852],[0.05520833333333333,0.3851851851851852],[0.05520833333333333,0.3851851851851852],[0.05520833333333333,0.3851851851851852],[0.05520833333333333,0.3851851851851852],[0.05520833333333333,0.3851851851851852],[0.05520833333333333,0.3851851851851852],[0.05520833333333333,0.3851851851851852],[0.05520833333333333,0.3851851851851852],[0.05520833333333333,0.3851851851851852],[0.05520833333333333,0.3851851851851852],[0.05520833333333333,0.3851851851851852],[0.05520833333333333,0.3851851851851852],[0.05520833333333333,0.3851851851851852],[0.05520833333333333,0.3851851851851852],[0.05520833333333333,0.3851851851851852],[0.05520833333333333,0.3851851851851852],[0.05520833333333333,0.3851851851851852],[0.05520833333333333,0.3851851851851852],[0.05520833333333333,0.3851851851851852],[0.05520833333333333,0.3851851851851852],[0.05520833333333333,0.3851851851851852],[0.05520833333333333,0.3851851851851852],[0.05520833333333333,0.3851851851851852],[0.05520833333333333,0.3851851851851852],[0.05520833333333333,0.3851851851851852],[0.05520833333333333,0.3851851851851852],[0.05520833333333333,0.3851851851851852],[0.05520833333333333,0.3851851851851852],[0.05520833333333333,0.3851851851851852],[0.05520833333333333,0.3851851851851852],[0.05520833333333333,0.3851851851851852],[0.05520833333333333,0.3851851851851852],[0.05520833333333333,0.3851851851851852],[0.05520833333333333,0.3851851851851852],[0.05520833333333333,0.3851851851851852],[0.05520833333333333,0.3851851851851852],[0.05520833333333333,0.3851851851851852],[0.05520833333333333,0.3851851851851852],[0.05520833333333333,0.3851851851851852],[0.05520833333333333,0.3851851851851852],[0.05520833333333333,0.3851851851851852],[0.05520833333333333,0.3851851851851852],[0.05520833333333333,0.3851851851851852],[0.05520833333333333,0.3851851851851852],[0.05520833333333333,0.3851851851851852],[0.05520833333333333,0.3851851851851852],[0.05520833333333333,0.3851851851851852],[0.05520833333333333,0.3851851851851852],[0.05520833333333333,0.3851851851851852],[0.05520833333333333,0.3851851851851852],[0.05520833333333333,0.3851851851851852],[0.05520833333333333,0.3851851851851852],[0.05520833333333333,0.3851851851851852],[0.05520833333333333,0.3851851851851852],[0.05520833333333333,0.3851851851851852],[0.05520833333333333,0.3851851851851852],[0.05520833333333333,0.3851851851851852],[0.05520833333333333,0.3851851851851852],[0.05520833333333333,0.3851851851851852],[0.05520833333333333,0.3851851851851852],[0.05520833333333333,0.3851851851851852],[0.05520833333333333,0.3851851851851852],[0.05520833333333333,0.3851851851851852],[0.05520833333333333,0.3851851851851852],[0.05520833333333333,0.3851851851851852],[0.05520833333333333,0.3851851851851852],[0.05520833333333333,0.3851851851851852],[0.05520833333333333,0.3851851851851852],[0.05520833333333333,0.3851851851851852],[0.05520833333333333,0.3851851851851852],[0.05520833333333333,0.3851851851851852],[0.05520833333333333,0.3851851851851852],[0.05520833333333333,0.3851851851851852],[0.05520833333333333,0.3851851851851852],[0.05520833333333333,0.3851851851851852],[0.05520833333333333,0.3851851851851852],[0.058333333333333334,0.3888888888888889],[0.07291666666666667,0.3925925925925926],[0.09583333333333334,0.39814814814814814],[0.12916666666666668,0.40555555555555556],[0.178125,0.4148148148148148],[0.21458333333333332,0.4148148148148148],[0.24270833333333333,0.4148148148148148],[0.26875,0.4148148148148148],[0.27708333333333335,0.4148148148148148],[0.28229166666666666,0.4148148148148148],[0.2864583333333333,0.4148148148148148],[0.28854166666666664,0.4148148148148148],[0.290625,0.4148148148148148],[0.290625,0.4148148148148148],[0.290625,0.4148148148148148],[0.2916666666666667,0.412962962962963],[0.2916666666666667,0.412962962962963],[0.2916666666666667,0.412962962962963],[0.2916666666666667,0.4111111111111111],[0.2916666666666667,0.40370370370370373],[0.2916666666666667,0.40370370370370373],[0.2916666666666667,0.40370370370370373],[0.2916666666666667,0.40185185185185185],[0.2916666666666667,0.40185185185185185],[0.2916666666666667,0.4],[0.2864583333333333,0.4],[0.27395833333333336,0.4],[0.2520833333333333,0.39444444444444443],[0.22083333333333333,0.39444444444444443],[0.18854166666666666,0.39444444444444443],[0.15625,0.39444444444444443],[0.12395833333333334,0.39444444444444443],[0.11666666666666667,0.39444444444444443],[0.11666666666666667,0.39444444444444443],[0.11666666666666667,0.39444444444444443],[0.11666666666666667,0.39444444444444443],[0.11666666666666667,0.39444444444444443],[0.11666666666666667,0.39444444444444443],[0.11666666666666667,0.39444444444444443],[0.11666666666666667,0.39444444444444443],[0.11666666666666667,0.39444444444444443],[0.11666666666666667,0.39444444444444443],[0.11666666666666667,0.39444444444444443],[0.11666666666666667,0.39444444444444443],[0.11666666666666667,0.39444444444444443],[0.11666666666666667,0.39444444444444443],[0.11666666666666667,0.39444444444444443],[0.11666666666666667,0.39444444444444443],[0.115625,0.39444444444444443],[0.115625,0.39444444444444443],[0.115625,0.39444444444444443],[0.115625,0.39444444444444443],[0.115625,0.39444444444444443],[0.115625,0.39444444444444443],[0.115625,0.39444444444444443],[0.115625,0.39444444444444443],[0.115625,0.39444444444444443],[0.115625,0.39444444444444443],[0.115625,0.39444444444444443],[0.115625,0.39444444444444443],[0.115625,0.39444444444444443],[0.115625,0.39444444444444443],[0.115625,0.39444444444444443],[0.115625,0.39444444444444443],[0.115625,0.39444444444444443],[0.115625,0.39444444444444443],[0.115625,0.39444444444444443],[0.115625,0.39444444444444443],[0.115625,0.39444444444444443],[0.115625,0.39444444444444443],[0.115625,0.39444444444444443],[0.115625,0.39444444444444443],[0.115625,0.39444444444444443],[0.115625,0.39444444444444443],[0.115625,0.39444444444444443],[0.115625,0.39444444444444443],[0.115625,0.39444444444444443],[0.115625,0.39444444444444443],[0.115625,0.39444444444444443],[0.115625,0.39444444444444443],[0.115625,0.39444444444444443],[0.115625,0.39444444444444443],[0.115625,0.39444444444444443],[0.115625,0.39444444444444443],[0.115625,0.39444444444444443],[0.115625,0.39444444444444443],[0.115625,0.39444444444444443],[0.115625,0.39444444444444443],[0.115625,0.39444444444444443],[0.115625,0.39444444444444443],[0.115625,0.39444444444444443],[0.115625,0.39444444444444443],[0.115625,0.39444444444444443],[0.115625,0.39444444444444443],[0.115625,0.39444444444444443],[0.11354166666666667,0.39444444444444443],[0.11354166666666667,0.39444444444444443],[0.11354166666666667,0.3925925925925926],[0.11354166666666667,0.3925925925925926],[0.11354166666666667,0.3925925925925926],[0.11354166666666667,0.3925925925925926],[0.11354166666666667,0.3925925925925926]]","[[0.08781249999999995,0.020185185185185143],[0.0828125,0.0455555555555556],[0.06593749999999995,0.05259259259259255],[0.04906250000000002,0.05962962962962971],[0.05322916666666669,0.018888888888888972],[0.05593750000000005,0.01592592592592597],[0.06343749999999998,0.036666666666666584],[0.08895833333333343,0.021481481481481525],[0.08770833333333337,-0.02962962962962963],[0.11479166666666671,-0.05703703703703706],[0.1056250000000001,-0.06148148148148146],[0.10656249999999995,-0.07148148148148152],[0.11937499999999991,-0.07296296296296292],[0.1321875000000001,-0.07444444444444442],[0.1453125,-0.05944444444444449],[0.15989583333333332,-0.08222222222222218],[0.18322916666666675,-0.13222222222222219],[0.19229166666666658,-0.12666666666666662],[0.19229166666666658,-0.12666666666666662],[0.19041666666666662,-0.09759259259259258],[0.17666666666666658,-0.1257407407407407],[0.17854166666666677,-0.15759259259259265],[0.17854166666666677,-0.15759259259259265],[0.17916666666666667,-0.1609259259259259],[0.15947916666666656,-0.1766666666666666],[0.1397916666666667,-0.19240740740740736],[0.09552083333333337,-0.20333333333333337],[0.059687499999999956,-0.21129629629629634],[0.03427083333333331,-0.20777777777777776],[0.022708333333333285,-0.19240740740740736],[0.022083333333333382,-0.20055555555555557],[0.020729166666666642,-0.15648148148148147],[0.019375000000000024,-0.11240740740740739],[0.019375000000000024,-0.11240740740740739],[0.019270833333333334,-0.09685185185185187],[0.019270833333333334,-0.09685185185185187],[0.008749999999999977,-0.10092592592592593],[0.008749999999999977,-0.10092592592592593],[0.0002083333333333807,-0.09888888888888885],[0.0002083333333333807,-0.09888888888888885],[0.011458333333333333,-0.07814814814814813],[0.00458333333333331,-0.06351851851851854],[0.00458333333333331,-0.06351851851851854],[0.0014583333333333095,-0.0418518518518519],[0.0014583333333333095,-0.0418518518518519],[-0.02781250000000005,-0.053148148148148125],[-0.06458333333333334,-0.047037037037036995],[-0.09895833333333333,-0.0455555555555556],[-0.14093749999999997,-0.05537037037037033],[-0.1829166666666667,-0.06518518518518517],[-0.19093749999999995,-0.05055555555555547],[-0.20093749999999996,-0.04203703703703712],[-0.23406250000000003,-0.050370370370370454],[-0.22593749999999999,-0.05555555555555555],[-0.22156250000000005,-0.06777777777777783],[-0.2251041666666667,-0.059814814814814835],[-0.2211458333333333,-0.06925925925925921],[-0.2171875,-0.0787037037037037],[-0.20802083333333338,-0.09462962962962967],[-0.19885416666666664,-0.11055555555555553],[-0.22437499999999996,-0.10611111111111113],[-0.24479166666666666,-0.12518518518518523],[-0.21864583333333332,-0.15185185185185185],[-0.2376041666666667,-0.1609259259259259],[-0.25677083333333334,-0.17981481481481484],[-0.24708333333333338,-0.2212962962962963],[-0.23406250000000003,-0.23537037037037042],[-0.2139583333333333,-0.24203703703703702],[-0.1890625,-0.2368518518518518],[-0.17552083333333332,-0.23425925925925925],[-0.16916666666666663,-0.23555555555555555],[-0.15885416666666666,-0.2155555555555555],[-0.18697916666666667,-0.1955555555555556],[-0.2015625,-0.19314814814814818],[-0.20697916666666671,-0.16796296296296295],[-0.23666666666666672,-0.1294444444444444],[-0.26968749999999997,-0.11833333333333329],[-0.30197916666666663,-0.11981481481481479],[-0.3366666666666667,-0.11537037037037039],[-0.359375,-0.09092592592592597],[-0.35531250000000003,-0.08388888888888892],[-0.3603125,-0.07462962962962966],[-0.35604166666666665,-0.07314814814814814],[-0.35177083333333337,-0.07166666666666664],[-0.3676041666666666,-0.08370370370370368],[-0.36781250000000004,-0.08555555555555554],[-0.3252083333333334,-0.09685185185185187],[-0.2904166666666666,-0.102962962962963],[-0.24385416666666668,-0.1],[-0.19791666666666666,-0.11444444444444446],[-0.14395833333333338,-0.14166666666666666],[-0.08999999999999998,-0.16888888888888887],[-0.05322916666666669,-0.17611111111111116],[-0.016458333333333287,-0.18333333333333332],[0.025520833333333333,-0.17518518518518522],[0.06749999999999995,-0.167037037037037],[0.08583333333333343,-0.15351851851851847],[0.10416666666666667,-0.14000000000000004],[0.10374999999999991,-0.10129629629629627],[0.10333333333333337,-0.06259259259259262],[0.10229166666666671,-0.039074074074074115],[0.10343749999999995,0.010185185185185186],[0.12489583333333343,0.02629629629629638],[0.11437499999999995,0.07962962962962963],[0.12177083333333343,0.10407407407407415],[0.12916666666666668,0.12851851851851848],[0.10333333333333337,0.14611111111111108],[0.0775000000000001,0.16370370370370366],[0.06937499999999991,0.144074074074074],[0.07114583333333328,0.14203703703703713],[0.05697916666666671,0.17092592592592584],[0.040625,0.17407407407407408],[0.04885416666666664,0.21222222222222226],[0.07885416666666671,0.2131481481481482],[0.11958333333333329,0.21666666666666667],[0.1603125000000001,0.22018518518518515],[0.19020833333333323,0.23407407407407405],[0.22010416666666663,0.2479629629629629],[0.24812500000000004,0.26888888888888896],[0.26624999999999993,0.2722222222222222],[0.2890625,0.26777777777777784],[0.31187500000000007,0.2633333333333334],[0.29447916666666674,0.23111111111111102],[0.2872916666666666,0.19888888888888884],[0.2638541666666666,0.20629629629629626],[0.23510416666666673,0.19499999999999992],[0.23125,0.18425925925925926],[0.24604166666666671,0.15648148148148147],[0.25197916666666675,0.12462962962962955],[0.22697916666666676,0.05851851851851856],[0.20364583333333333,0.021851851851851768],[0.19135416666666671,-0.010925925925925884],[0.1974999999999999,0.00592592592592601],[0.20364583333333333,0.022777777777777692],[0.18541666666666667,0.007777777777777862],[0.17677083333333338,0.012962962962962963],[0.17520833333333338,-0.0035185185185184764],[0.15499999999999994,-0.002962962962963005],[0.14833333333333343,0.006111111111111027],[0.17114583333333327,0.0035185185185184764],[0.1798958333333334,0.005370370370370328],[0.17760416666666667,0.003333333333333249],[0.16875,-0.05888888888888891],[0.15989583333333332,-0.12111111111111107],[0.1662499999999999,-0.18722222222222226],[0.1678124999999999,-0.24888888888888885],[0.1540625000000001,-0.3],[0.134375,-0.31851851851851853],[0.13333333333333333,-0.3633333333333333],[0.1252083333333334,-0.4003703703703704],[0.13333333333333333,-0.46648148148148144],[0.13177083333333334,-0.5003703703703704],[0.12833333333333338,-0.5042592592592593],[0.12833333333333338,-0.5042592592592593],[0.14312500000000009,-0.5020370370370371],[0.18802083333333333,-0.5005555555555555],[0.18802083333333333,-0.5005555555555555],[0.15885416666666666,-0.5307407407407407],[0.15885416666666666,-0.5307407407407407],[0.18895833333333342,-0.5638888888888889],[0.22020833333333342,-0.6224074074074074],[0.22020833333333342,-0.6224074074074074],[0.21927083333333333,-0.6631481481481482],[0.21927083333333333,-0.6631481481481482],[0.2209374999999999,-0.6890740740740741],[0.2,-0.6583333333333333],[0.18520833333333328,-0.6718518518518519],[0.17041666666666658,-0.6853703703703704],[0.12291666666666666,-0.7150000000000001],[0.059895833333333336,-0.6981481481481482],[0.09489583333333323,-0.7088888888888889],[0.06020833333333329,-0.6987037037037037],[0.03875000000000005,-0.6988888888888889],[0.02312500000000005,-0.6911111111111111],[0.01260416666666669,-0.6262962962962962],[0.008437500000000023,-0.6316666666666667],[0.0078125,-0.625],[0.02322916666666662,-0.6048148148148148],[0.04645833333333336,-0.572037037037037],[0.0578125,-0.5774074074074075],[0.03833333333333329,-0.5777777777777777],[0.0375,-0.585],[0.02333333333333331,-0.580925925925926],[0.003333333333333381,-0.5848148148148148],[0.002291666666666714,-0.5833333333333334],[0.017499999999999953,-0.5683333333333332],[0.057083333333333285,-0.6103703703703705],[0.0806250000000001,-0.6659259259259259],[0.1109375,-0.652962962962963],[0.13447916666666657,-0.6416666666666667],[0.1712500000000001,-0.6451851851851852],[0.20802083333333338,-0.6487037037037037],[0.2296875,-0.6094444444444445],[0.25062499999999993,-0.6057407407407408],[0.26020833333333326,-0.6403703703703704],[0.26979166666666665,-0.675],[0.26052083333333326,-0.6725925925925925],[0.2478125000000001,-0.6581481481481481],[0.2349999999999999,-0.7148148148148148],[0.2257291666666667,-0.7535185185185185],[0.22458333333333325,-0.7314814814814815],[0.2234375,-0.7094444444444444],[0.23322916666666677,-0.7268518518518519],[0.23697916666666666,-0.697037037037037],[0.24145833333333327,-0.6674074074074073],[0.2459374999999999,-0.6377777777777778],[0.21479166666666671,-0.5474074074074075],[0.18708333333333324,-0.4690740740740741],[0.1915625000000001,-0.43555555555555553],[0.18447916666666658,-0.4022222222222222],[0.1618750000000001,-0.3483333333333334],[0.13927083333333337,-0.29444444444444445],[0.10812499999999996,-0.22537037037037036],[0.07166666666666661,-0.15685185185185183],[0.028750000000000022,-0.11074074074074076],[-0.01416666666666669,-0.06462962962962959],[-0.02687499999999995,-0.06518518518518517],[-0.03958333333333333,-0.06574074074074074],[-0.07770833333333335,-0.01574074074074074],[-0.10843750000000002,0.013888888888888888],[-0.10843750000000002,0.013888888888888888],[-0.1516666666666667,0.02296296296296292],[-0.1516666666666667,0.02296296296296292],[-0.1655208333333333,0.026851851851851852],[-0.13854166666666667,-0.000925925925925926],[-0.09947916666666666,-0.03981481481481482],[-0.08708333333333336,-0.06759259259259259],[-0.07468750000000005,-0.09537037037037037],[-0.10541666666666671,-0.10703703703703706],[-0.13614583333333338,-0.11870370370370374]]","[[0.08781249999999995,0.020185185185185143,0.00009999999404897153],[0.0828125,0.0455555555555556,0.017799999997023974],[0.06593749999999995,0.05259259259259255,0.03309999999405022],[0.04906250000000002,0.05962962962962971,0.04970000000298569],[0.05322916666666669,0.018888888888888972,0.06640000000597013],[0.05593750000000005,0.01592592592592597,0.08300000000001262],[0.06343749999999998,0.036666666666666584,0.09970000000298285],[0.08895833333333343,0.021481481481481525,0.11629999999702534],[0.08770833333333337,-0.02962962962962963,0.13309999999404454],[0.11479166666666671,-0.05703703703703706,0.14970000000298],[0.1056250000000001,-0.06148148148148146,0.1662999999970225],[0.10656249999999995,-0.07148148148148152,0.18300000000000693],[0.11937499999999991,-0.07296296296296292,0.19970000000299137],[0.1321875000000001,-0.07444444444444442,0.2164000000059616],[0.1453125,-0.05944444444444449,0.23309999999403885],[0.15989583333333332,-0.08222222222222218,0.24959999999404658],[0.18322916666666675,-0.13222222222222219,0.266299999997031],[0.19229166666666658,-0.12666666666666662,0.2830999999940502],[0.19229166666666658,-0.12666666666666662,0.29979999999702045],[0.19041666666666662,-0.09759259259259258,0.3162999999970282],[0.17666666666666658,-0.1257407407407407,0.3330000000000126],[0.17854166666666677,-0.15759259259259265,0.34970000000298285],[0.17854166666666677,-0.15759259259259265,0.36629999999702534],[0.17916666666666667,-0.1609259259259259,0.38309999999404454],[0.15947916666666656,-0.1766666666666666,0.39970000000298],[0.1397916666666667,-0.19240740740740736,0.4162999999970225],[0.09552083333333337,-0.20333333333333337,0.43300000000000693],[0.059687499999999956,-0.21129629629629634,0.4495999999940494],[0.03427083333333331,-0.20777777777777776,0.4664000000059616],[0.022708333333333285,-0.19240740740740736,0.4830000000000041],[0.022083333333333382,-0.20055555555555557,0.5005999999940514],[0.020729166666666642,-0.15648148148148147,0.516299999997031],[0.019375000000000024,-0.11240740740740739,0.5330000000000013],[0.019375000000000024,-0.11240740740740739,0.5497000000029857],[0.019270833333333334,-0.09685185185185187,0.5664000000059701],[0.019270833333333334,-0.09685185185185187,0.5830000000000126],[0.008749999999999977,-0.10092592592592593,0.5997999999970318],[0.008749999999999977,-0.10092592592592593,0.6162999999970253],[0.0002083333333333807,-0.09888888888888885,0.6330000000000098],[0.0002083333333333807,-0.09888888888888885,0.64970000000298],[0.011458333333333333,-0.07814814814814813,0.6664000000059644],[0.00458333333333331,-0.06351851851851854,0.6890999999940419],[0.00458333333333331,-0.06351851851851854,0.6997000000029914],[0.0014583333333333095,-0.0418518518518519,0.7164000000059616],[0.0014583333333333095,-0.0418518518518519,0.7330000000000041],[-0.02781250000000005,-0.053148148148148125,0.7497999999970233],[-0.06458333333333334,-0.047037037037036995,0.766400000005973],[-0.09895833333333333,-0.0455555555555556,0.7830999999940502],[-0.14093749999999997,-0.05537037037037033,0.8015000000000043],[-0.1829166666666667,-0.06518518518518517,0.8162999999970282],[-0.19093749999999995,-0.05055555555555547,0.8330000000000126],[-0.20093749999999996,-0.04203703703703712,0.8497000000029828],[-0.23406250000000003,-0.050370370370370454,0.866500000000002],[-0.22593749999999999,-0.05555555555555555,0.8830000000000098],[-0.22156250000000005,-0.06777777777777783,0.89970000000298],[-0.2251041666666667,-0.059814814814814835,0.9164000000059644],[-0.2211458333333333,-0.06925925925925921,0.9330000000000069],[-0.2171875,-0.0787037037037037,0.9495999999940494],[-0.20802083333333338,-0.09462962962962967,0.9664000000059616],[-0.19885416666666664,-0.11055555555555553,0.9830999999940389],[-0.22437499999999996,-0.10611111111111113,0.9997000000029885],[-0.24479166666666666,-0.12518518518518523,1.016299999997031],[-0.21864583333333332,-0.15185185185185185,1.0330999999940502],[-0.2376041666666667,-0.1609259259259259,1.0497000000029857],[-0.25677083333333334,-0.17981481481481484,1.0665000000000049],[-0.24708333333333338,-0.2212962962962963,1.0830000000000126],[-0.23406250000000003,-0.23537037037037042,1.099599999994041],[-0.2139583333333333,-0.24203703703703702,1.116500000000002],[-0.1890625,-0.2368518518518518,1.1330000000000098],[-0.17552083333333332,-0.23425925925925925,1.1495999999940523],[-0.16916666666666663,-0.23555555555555555,1.1664000000059644],[-0.15885416666666666,-0.2155555555555555,1.1830999999940417],[-0.18697916666666667,-0.1955555555555556,1.1997999999970261],[-0.2015625,-0.19314814814814818,1.2162999999970197],[-0.20697916666666671,-0.16796296296296295,1.233000000000004],[-0.23666666666666672,-0.1294444444444444,1.2497000000029885],[-0.26968749999999997,-0.11833333333333329,1.266299999997031],[-0.30197916666666663,-0.11981481481481479,1.2830000000000013],[-0.3366666666666667,-0.11537037037037039,1.2997000000029857],[-0.359375,-0.09092592592592597,1.3164000000059701],[-0.35531250000000003,-0.08388888888888892,1.3330000000000126],[-0.3603125,-0.07462962962962966,1.3497999999970318],[-0.35604166666666665,-0.07314814814814814,1.3662999999970253],[-0.35177083333333337,-0.07166666666666664,1.3830000000000098],[-0.3676041666666666,-0.08370370370370368,1.3995999999940523],[-0.36781250000000004,-0.08555555555555554,1.4162999999970225],[-0.3252083333333334,-0.09685185185185187,1.433000000000007],[-0.2904166666666666,-0.102962962962963,1.4497000000029914],[-0.24385416666666668,-0.1,1.4662999999970197],[-0.19791666666666666,-0.11444444444444446,1.483000000000004],[-0.14395833333333338,-0.14166666666666666,1.4995999999940466],[-0.08999999999999998,-0.16888888888888887,1.516299999997031],[-0.05322916666666669,-0.17611111111111116,1.5330000000000013],[-0.016458333333333287,-0.18333333333333332,1.5497000000029857],[0.025520833333333333,-0.17518518518518522,1.5662999999970282],[0.06749999999999995,-0.167037037037037,1.5830000000000126],[0.08583333333333343,-0.15351851851851847,1.5997000000029828],[0.10416666666666667,-0.14000000000000004,1.6162999999970253],[0.10374999999999991,-0.10129629629629627,1.6330000000000098],[0.10333333333333337,-0.06259259259259262,1.6495999999940523],[0.10229166666666671,-0.039074074074074115,1.6685000000000088],[0.10343749999999995,0.010185185185185186,1.683000000000007],[0.12489583333333343,0.02629629629629638,1.6997000000029914],[0.11437499999999995,0.07962962962962963,1.7164000000059616],[0.12177083333333343,0.10407407407407415,1.7330999999940389],[0.12916666666666668,0.12851851851851848,1.7497000000029885],[0.10333333333333337,0.14611111111111108,1.766299999997031],[0.0775000000000001,0.16370370370370366,1.7830000000000013],[0.06937499999999991,0.144074074074074,1.7997000000029857],[0.07114583333333328,0.14203703703703713,1.8162999999970282],[0.05697916666666671,0.17092592592592584,1.8330000000000126],[0.040625,0.17407407407407408,1.8497000000029828],[0.04885416666666664,0.21222222222222226,1.8710000000000093],[0.07885416666666671,0.2131481481481482,1.885900000005961],[0.11958333333333329,0.21666666666666667,1.9025999999940524],[0.1603125000000001,0.22018518518518515,1.9177000000029807],[0.19020833333333323,0.23407407407407405,1.9329000000059722],[0.22010416666666663,0.2479629629629629,1.9497000000029914],[0.24812500000000004,0.26888888888888896,1.9662999999970197],[0.26624999999999993,0.2722222222222222,1.983000000000004],[0.2890625,0.26777777777777784,1.9995999999940466],[0.31187500000000007,0.2633333333333334,2.016299999997031],[0.29447916666666674,0.23111111111111102,2.0329000000059665],[0.2872916666666666,0.19888888888888884,2.0495999999940437],[0.2638541666666666,0.20629629629629626,2.066299999997028],[0.23510416666666673,0.19499999999999992,2.0830999999940474],[0.23125,0.18425925925925926,2.099599999994041],[0.24604166666666671,0.15648148148148147,2.1162999999970253],[0.25197916666666675,0.12462962962962955,2.135299999997031],[0.22697916666666676,0.05851851851851856,2.14970000000298],[0.20364583333333333,0.021851851851851768,2.166499999999999],[0.19135416666666671,-0.010925925925925884,2.1862999999970327],[0.1974999999999999,0.00592592592592601,2.2012000000029843],[0.20364583333333333,0.022777777777777692,2.2165000000000106],[0.18541666666666667,0.007777777777777862,2.233200000002981],[0.17677083333333338,0.012962962962962963,2.2535999999940515],[0.17520833333333338,-0.0035185185185184764,2.2689000000059707],[0.15499999999999994,-0.002962962962963005,2.2837000000029803],[0.14833333333333343,0.006111111111111027,2.3030000000000115],[0.17114583333333327,0.0035185185185184764,2.3185000000000002],[0.1798958333333334,0.005370370370370328,2.333299999997024],[0.17760416666666667,0.003333333333333249,2.349700000002983],[0.16875,-0.05888888888888891,2.3662999999970253],[0.15989583333333332,-0.12111111111111107,2.387500000000003],[0.1662499999999999,-0.18722222222222226,2.402200000002992],[0.1678124999999999,-0.24888888888888885,2.41670000000299],[0.1540625000000001,-0.3,2.4332000000029836],[0.134375,-0.31851851851851853,2.4542000000029844],[0.13333333333333333,-0.3633333333333333,2.469900000005964],[0.1252083333333334,-0.4003703703703704,2.483700000002983],[0.13333333333333333,-0.46648148148148144,2.500200000002991],[0.13177083333333334,-0.5003703703703704,2.516400000005973],[0.12833333333333338,-0.5042592592592593,2.5367999999970294],[0.12833333333333338,-0.5042592592592593,2.5497999999970204],[0.14312500000000009,-0.5020370370370371,2.566500000000005],[0.18802083333333333,-0.5005555555555555,2.5892000000029896],[0.18802083333333333,-0.5005555555555555,2.6000000000000085],[0.15885416666666666,-0.5307407407407407,2.616500000000002],[0.15885416666666666,-0.5307407407407407,2.636599999994047],[0.18895833333333342,-0.5638888888888889,2.649799999997029],[0.22020833333333342,-0.6224074074074074,2.6702000000029926],[0.22020833333333342,-0.6224074074074074,2.682900000005972],[0.21927083333333333,-0.6631481481481482,2.699799999997026],[0.21927083333333333,-0.6631481481481482,2.7162999999970197],[0.2209374999999999,-0.6890740740740741,2.733099999994039],[0.2,-0.6583333333333333,2.7497000000029885],[0.18520833333333328,-0.6718518518518519,2.766299999997031],[0.17041666666666658,-0.6853703703703704,2.7829000000059665],[0.12291666666666666,-0.7150000000000001,2.801099999994051],[0.059895833333333336,-0.6981481481481482,2.816299999997028],[0.09489583333333323,-0.7088888888888889,2.8329000000059636],[0.06020833333333329,-0.6987037037037037,2.8517000000029924],[0.03875000000000005,-0.6988888888888889,2.8664000000059673],[0.02312500000000005,-0.6911111111111111,2.882900000005961],[0.01260416666666669,-0.6262962962962962,2.89970000000298],[0.008437500000000023,-0.6316666666666667,2.9162999999970225],[0.0078125,-0.625,2.93540000000597],[0.02322916666666662,-0.6048148148148148,2.9497000000029914],[0.04645833333333336,-0.572037037037037,2.9662999999970197],[0.0578125,-0.5774074074074075,2.9829000000059693],[0.03833333333333329,-0.5777777777777777,2.9995999999940466],[0.0375,-0.585,3.016299999997031],[0.02333333333333331,-0.580925925925926,3.0330000000000013],[0.003333333333333381,-0.5848148148148148,3.0495999999940437],[0.002291666666666714,-0.5833333333333334,3.06640000000597],[0.017499999999999953,-0.5683333333333332,3.0830000000000126],[0.057083333333333285,-0.6103703703703705,3.0999000000059596],[0.0806250000000001,-0.6659259259259259,3.1164000000059673],[0.1109375,-0.652962962962963,3.1330000000000098],[0.13447916666666657,-0.6416666666666667,3.14970000000298],[0.1712500000000001,-0.6451851851851852,3.1662999999970225],[0.20802083333333338,-0.6487037037037037,3.183000000000007],[0.2296875,-0.6094444444444445,3.200000000000003],[0.25062499999999993,-0.6057407407407408,3.2162999999970197],[0.26020833333333326,-0.6403703703703704,3.233000000000004],[0.26979166666666665,-0.675,3.2497000000029885],[0.26052083333333326,-0.6725925925925925,3.266299999997031],[0.2478125000000001,-0.6581481481481481,3.2830000000000013],[0.2349999999999999,-0.7148148148148148,3.2997000000029857],[0.2257291666666667,-0.7535185185185185,3.316299999997028],[0.22458333333333325,-0.7314814814814815,3.3330000000000126],[0.2234375,-0.7094444444444444,3.349599999994041],[0.23322916666666677,-0.7268518518518519,3.3664000000059673],[0.23697916666666666,-0.697037037037037,3.386700000002989],[0.24145833333333327,-0.6674074074074073,3.402200000002992],[0.2459374999999999,-0.6377777777777778,3.4162999999970225],[0.21479166666666671,-0.5474074074074075,3.432900000005972],[0.18708333333333324,-0.4690740740740741,3.4495999999940494],[0.1915625000000001,-0.43555555555555553,3.4662999999970197],[0.18447916666666658,-0.4022222222222222,3.483000000000004],[0.1618750000000001,-0.3483333333333334,3.4997000000029885],[0.13927083333333337,-0.29444444444444445,3.516200000002982],[0.10812499999999996,-0.22537037037037036,3.533200000002992],[0.07166666666666661,-0.15685185185185183,3.5495999999940437],[0.028750000000000022,-0.11074074074074076,3.566299999997028],[-0.01416666666666669,-0.06462962962962959,3.5830000000000126],[-0.02687499999999995,-0.06518518518518517,3.599799999997032],[-0.03958333333333333,-0.06574074074074074,3.6162999999970253],[-0.07770833333333335,-0.01574074074074074,3.6330000000000098],[-0.10843750000000002,0.013888888888888888,3.6555000000000035],[-0.10843750000000002,0.013888888888888888,3.6725999999940484],[-0.1516666666666667,0.02296296296296292,3.6917999999970306],[-0.1516666666666667,0.02296296296296292,3.699799999997026],[-0.1655208333333333,0.026851851851851852,3.718500000000006],[-0.13854166666666667,-0.000925925925925926,3.733000000000004],[-0.09947916666666666,-0.03981481481481482,3.7497999999970233],[-0.08708333333333336,-0.06759259259259259,3.766299999997031],[-0.07468750000000005,-0.09537037037037037,3.7830000000000013],[-0.10541666666666671,-0.10703703703703706,3.7997000000029857],[-0.13614583333333338,-0.11870370370370374,3.816299999997028]]","[0.00009999999404897153,0.017799999997023974,0.03309999999405022,0.04970000000298569,0.06640000000597013,0.08300000000001262,0.09970000000298285,0.11629999999702534,0.13309999999404454,0.14970000000298,0.1662999999970225,0.18300000000000693,0.19970000000299137,0.2164000000059616,0.23309999999403885,0.24959999999404658,0.266299999997031,0.2830999999940502,0.29979999999702045,0.3162999999970282,0.3330000000000126,0.34970000000298285,0.36629999999702534,0.38309999999404454,0.39970000000298,0.4162999999970225,0.43300000000000693,0.4495999999940494,0.4664000000059616,0.4830000000000041,0.5005999999940514,0.516299999997031,0.5330000000000013,0.5497000000029857,0.5664000000059701,0.5830000000000126,0.5997999999970318,0.6162999999970253,0.6330000000000098,0.64970000000298,0.6664000000059644,0.6890999999940419,0.6997000000029914,0.7164000000059616,0.7330000000000041,0.7497999999970233,0.766400000005973,0.7830999999940502,0.8015000000000043,0.8162999999970282,0.8330000000000126,0.8497000000029828,0.866500000000002,0.8830000000000098,0.89970000000298,0.9164000000059644,0.9330000000000069,0.9495999999940494,0.9664000000059616,0.9830999999940389,0.9997000000029885,1.016299999997031,1.0330999999940502,1.0497000000029857,1.0665000000000049,1.0830000000000126,1.099599999994041,1.116500000000002,1.1330000000000098,1.1495999999940523,1.1664000000059644,1.1830999999940417,1.1997999999970261,1.2162999999970197,1.233000000000004,1.2497000000029885,1.266299999997031,1.2830000000000013,1.2997000000029857,1.3164000000059701,1.3330000000000126,1.3497999999970318,1.3662999999970253,1.3830000000000098,1.3995999999940523,1.4162999999970225,1.433000000000007,1.4497000000029914,1.4662999999970197,1.483000000000004,1.4995999999940466,1.516299999997031,1.5330000000000013,1.5497000000029857,1.5662999999970282,1.5830000000000126,1.5997000000029828,1.6162999999970253,1.6330000000000098,1.6495999999940523,1.6685000000000088,1.683000000000007,1.6997000000029914,1.7164000000059616,1.7330999999940389,1.7497000000029885,1.766299999997031,1.7830000000000013,1.7997000000029857,1.8162999999970282,1.8330000000000126,1.8497000000029828,1.8710000000000093,1.885900000005961,1.9025999999940524,1.9177000000029807,1.9329000000059722,1.9497000000029914,1.9662999999970197,1.983000000000004,1.9995999999940466,2.016299999997031,2.0329000000059665,2.0495999999940437,2.066299999997028,2.0830999999940474,2.099599999994041,2.1162999999970253,2.135299999997031,2.14970000000298,2.166499999999999,2.1862999999970327,2.2012000000029843,2.2165000000000106,2.233200000002981,2.2535999999940515,2.2689000000059707,2.2837000000029803,2.3030000000000115,2.3185000000000002,2.333299999997024,2.349700000002983,2.3662999999970253,2.387500000000003,2.402200000002992,2.41670000000299,2.4332000000029836,2.4542000000029844,2.469900000005964,2.483700000002983,2.500200000002991,2.516400000005973,2.5367999999970294,2.5497999999970204,2.566500000000005,2.5892000000029896,2.6000000000000085,2.616500000000002,2.636599999994047,2.649799999997029,2.6702000000029926,2.682900000005972,2.699799999997026,2.7162999999970197,2.733099999994039,2.7497000000029885,2.766299999997031,2.7829000000059665,2.801099999994051,2.816299999997028,2.8329000000059636,2.8517000000029924,2.8664000000059673,2.882900000005961,2.89970000000298,2.9162999999970225,2.93540000000597,2.9497000000029914,2.9662999999970197,2.9829000000059693,2.9995999999940466,3.016299999997031,3.0330000000000013,3.0495999999940437,3.06640000000597,3.0830000000000126,3.0999000000059596,3.1164000000059673,3.1330000000000098,3.14970000000298,3.1662999999970225,3.183000000000007,3.200000000000003,3.2162999999970197,3.233000000000004,3.2497000000029885,3.266299999997031,3.2830000000000013,3.2997000000029857,3.316299999997028,3.3330000000000126,3.349599999994041,3.3664000000059673,3.386700000002989,3.402200000002992,3.4162999999970225,3.432900000005972,3.4495999999940494,3.4662999999970197,3.483000000000004,3.4997000000029885,3.516200000002982,3.533200000002992,3.5495999999940437,3.566299999997028,3.5830000000000126,3.599799999997032,3.6162999999970253,3.6330000000000098,3.6555000000000035,3.6725999999940484,3.6917999999970306,3.699799999997026,3.718500000000006,3.733000000000004,3.7497999999970233,3.766299999997031,3.7830000000000013,3.7997000000029857,3.816299999997028]","[1733199729024,1733199729040,1733199729055,1733199729072,1733199729088,1733199729105,1733199729122,1733199729138,1733199729155,1733199729172,1733199729188,1733199729205,1733199729222,1733199729238,1733199729255,1733199729272,1733199729288,1733199729305,1733199729322,1733199729338,1733199729355,1733199729372,1733199729388,1733199729405,1733199729422,1733199729438,1733199729455,1733199729472,1733199729488,1733199729505,1733199729523,1733199729538,1733199729555,1733199729572,1733199729588,1733199729605,1733199729622,1733199729638,1733199729655,1733199729672,1733199729688,1733199729711,1733199729722,1733199729738,1733199729755,1733199729772,1733199729788,1733199729805,1733199729823,1733199729838,1733199729855,1733199729872,1733199729888,1733199729905,1733199729922,1733199729938,1733199729955,1733199729972,1733199729988,1733199730005,1733199730022,1733199730038,1733199730055,1733199730072,1733199730088,1733199730105,1733199730122,1733199730138,1733199730155,1733199730172,1733199730188,1733199730205,1733199730222,1733199730238,1733199730255,1733199730272,1733199730288,1733199730305,1733199730322,1733199730338,1733199730355,1733199730372,1733199730388,1733199730405,1733199730422,1733199730438,1733199730455,1733199730472,1733199730488,1733199730505,1733199730522,1733199730538,1733199730555,1733199730572,1733199730588,1733199730605,1733199730622,1733199730638,1733199730655,1733199730672,1733199730690,1733199730705,1733199730722,1733199730738,1733199730755,1733199730772,1733199730788,1733199730805,1733199730822,1733199730838,1733199730855,1733199730872,1733199730893,1733199730908,1733199730925,1733199730940,1733199730955,1733199730972,1733199730988,1733199731005,1733199731022,1733199731038,1733199731055,1733199731072,1733199731088,1733199731105,1733199731122,1733199731138,1733199731157,1733199731172,1733199731188,1733199731208,1733199731223,1733199731238,1733199731255,1733199731276,1733199731291,1733199731306,1733199731325,1733199731340,1733199731355,1733199731372,1733199731388,1733199731409,1733199731424,1733199731439,1733199731455,1733199731476,1733199731492,1733199731506,1733199731522,1733199731538,1733199731559,1733199731572,1733199731588,1733199731611,1733199731622,1733199731638,1733199731659,1733199731672,1733199731692,1733199731705,1733199731722,1733199731738,1733199731755,1733199731772,1733199731788,1733199731805,1733199731823,1733199731838,1733199731855,1733199731874,1733199731888,1733199731905,1733199731922,1733199731938,1733199731957,1733199731972,1733199731988,1733199732005,1733199732022,1733199732038,1733199732055,1733199732072,1733199732088,1733199732105,1733199732122,1733199732138,1733199732155,1733199732172,1733199732188,1733199732205,1733199732222,1733199732238,1733199732255,1733199732272,1733199732288,1733199732305,1733199732322,1733199732338,1733199732355,1733199732372,1733199732388,1733199732409,1733199732424,1733199732438,1733199732455,1733199732472,1733199732488,1733199732505,1733199732522,1733199732538,1733199732555,1733199732572,1733199732588,1733199732605,1733199732622,1733199732638,1733199732655,1733199732677,1733199732694,1733199732714,1733199732722,1733199732740,1733199732755,1733199732772,1733199732788,1733199732805,1733199732822,1733199732838]","[[1044.3,550.9],[1039.5,564.6],[1023.3,568.4],[1007.1,572.2],[1011.1,550.2],[1013.7,548.6],[1020.9,559.8],[1045.4,551.6],[1044.2,524],[1070.2,509.2],[1061.4,506.8],[1062.3,501.4],[1074.6,500.6],[1086.9,499.8],[1099.5,507.9],[1113.5,495.6],[1135.9,468.6],[1144.6,471.6],[1144.6,471.6],[1142.8,487.3],[1129.6,472.1],[1131.4,454.9],[1131.4,454.9],[1132,453.1],[1113.1,444.6],[1094.2,436.1],[1051.7,430.2],[1017.3,425.9],[992.9,427.8],[981.8,436.1],[981.2,431.7],[979.9,455.5],[978.6,479.3],[978.6,479.3],[978.5,487.7],[978.5,487.7],[968.4,485.5],[968.4,485.5],[960.2,486.6],[960.2,486.6],[971,497.8],[964.4,505.7],[964.4,505.7],[961.4,517.4],[961.4,517.4],[933.3,511.3],[898,514.6],[865,515.4],[824.7,510.1],[784.4,504.8],[776.7,512.7],[767.1,517.3],[735.3,512.8],[743.1,510],[747.3,503.4],[743.9,507.7],[747.7,502.6],[751.5,497.5],[760.3,488.9],[769.1,480.3],[744.6,482.7],[725,472.4],[750.1,458],[731.9,453.1],[713.5,442.9],[722.8,420.5],[735.3,412.9],[754.6,409.3],[778.5,412.1],[791.5,413.5],[797.6,412.8],[807.5,423.6],[780.5,434.4],[766.5,435.7],[761.3,449.3],[732.8,470.1],[701.1,476.1],[670.1,475.3],[636.8,477.7],[615,490.9],[618.9,494.7],[614.1,499.7],[618.2,500.5],[622.3,501.3],[607.1,494.8],[606.9,493.8],[647.8,487.7],[681.2,484.4],[725.9,486],[770,478.2],[821.8,463.5],[873.6,448.8],[908.9,444.9],[944.2,441],[984.5,445.4],[1024.8,449.8],[1042.4,457.1],[1060,464.4],[1059.6,485.3],[1059.2,506.2],[1058.2,518.9],[1059.3,545.5],[1079.9,554.2],[1069.8,583],[1076.9,596.2],[1084,609.4],[1059.2,618.9],[1034.4,628.4],[1026.6,617.8],[1028.3,616.7],[1014.7,632.3],[999,634],[1006.9,654.6],[1035.7,655.1],[1074.8,657],[1113.9,658.9],[1142.6,666.4],[1171.3,673.9],[1198.2,685.2],[1215.6,687],[1237.5,684.6],[1259.4,682.2],[1242.7,664.8],[1235.8,647.4],[1213.3,651.4],[1185.7,645.3],[1182,639.5],[1196.2,624.5],[1201.9,607.3],[1177.9,571.6],[1155.5,551.8],[1143.7,534.1],[1149.6,543.2],[1155.5,552.3],[1138,544.2],[1129.7,547],[1128.2,538.1],[1108.8,538.4],[1102.4,543.3],[1124.3,541.9],[1132.7,542.9],[1130.5,541.8],[1122,508.2],[1113.5,474.6],[1119.6,438.9],[1121.1,405.6],[1107.9,378],[1089,368],[1088,343.8],[1080.2,323.8],[1088,288.1],[1086.5,269.8],[1083.2,267.7],[1083.2,267.7],[1097.4,268.9],[1140.5,269.7],[1140.5,269.7],[1112.5,253.4],[1112.5,253.4],[1141.4,235.5],[1171.4,203.9],[1171.4,203.9],[1170.5,181.9],[1170.5,181.9],[1172.1,167.9],[1152,184.5],[1137.8,177.2],[1123.6,169.9],[1078,153.9],[1017.5,163],[1051.1,157.2],[1017.8,162.7],[997.2,162.6],[982.2,166.8],[972.1,201.8],[968.1,198.9],[967.5,202.5],[982.3,213.4],[1004.6,231.1],[1015.5,228.2],[996.8,228],[996,224.1],[982.4,226.3],[963.2,224.2],[962.2,225],[976.8,233.1],[1014.8,210.4],[1037.4,180.4],[1066.5,187.4],[1089.1,193.5],[1124.4,191.6],[1159.7,189.7],[1180.5,210.9],[1200.6,212.9],[1209.8,194.2],[1219,175.5],[1210.1,176.8],[1197.9,184.6],[1185.6,154],[1176.7,133.1],[1175.6,145],[1174.5,156.9],[1183.9,147.5],[1187.5,163.6],[1191.8,179.6],[1196.1,195.6],[1166.2,244.4],[1139.6,286.7],[1143.9,304.8],[1137.1,322.8],[1115.4,351.9],[1093.7,381],[1063.8,418.3],[1028.8,455.3],[987.6,480.2],[946.4,505.1],[934.2,504.8],[922,504.5],[885.4,531.5],[855.9,547.5],[855.9,547.5],[814.4,552.4],[814.4,552.4],[801.1,554.5],[827,539.5],[864.5,518.5],[876.4,503.5],[888.3,488.5],[858.8,482.2],[829.3,475.9]]","[0,0.37864299999999995]","[0.37864299999999995,0.37864299999999995]","[-0.37864299999999995,-0.37864299999999995]","[-0.37864299999999995,0]","[0,-0.37864299999999995]","[0.37864299999999995,-0.37864299999999995]","[0,0]","[0.37864299999999995,0]",0,1,1,1,1,3,Laptop,5,5,13,7
