inst1_resp.keys,inst1_resp.rt,calibrationMouse.x,calibrationMouse.y,calibrationMouse.leftButton,calibrationMouse.midButton,calibrationMouse.rightButton,calibrationClick.x,calibrationClick.y,calibrationClick.leftButton,calibrationClick.midButton,calibrationClick.rightButton,calibrationClick.clicked_name,trialsc.thisRepN,trialsc.thisTrialN,trialsc.thisN,trialsc.thisIndex,trialsc.ran,calibration_x,calibration_y,participant,session,date,expName,psychopyVersion,OS,frameRate,ScreenRes_pixels,Camera_pixels,mouse_2.x,mouse_2.y,mouse_2.leftButton,mouse_2.midButton,mouse_2.rightButton,mouse_2.time,mouse_2.clicked_name,mouse.x,mouse.y,mouse.leftButton,mouse.midButton,mouse.rightButton,mouse.time,mouse.clicked_name,Choice,Trial,TrialDuration,MOUSE_GAZE,ET_GAZE,ET_GAZE_x_T,time,unixTime,ET_GAZE_NF,Loc_Option1_label,Loc_Option2_label,Loc_Cost_label,Loc_Qual_label,Loc_Option1_cost,Loc_Option2_cost,Loc_Option1_quality,Loc_Option2_quality,trials.thisRepN,trials.thisTrialN,trials.thisN,trials.thisIndex,trials.ran,Block,Device,cost1,qual1,cost2,qual2
space,1.3173,-0.077083333,-0.146296296,1,0,0,0.003125,0.337037037,1,0,0,calibration_square,0,0,0,12,1,0,0.33,06,001,2024-12-03_10h48.45.514,Attention_exp_legacy,2023.1.0,Win32,59.88023952,,,,,,,,,,,,,,,,,,,,,,,,,,,,,,,,,,,,,,,,,,,,
,,,,,,,-0.334375,0.685185185,1,0,0,,0,1,1,8,1,-0.33,0.67,06,001,2024-12-03_10h48.45.514,Attention_exp_legacy,2023.1.0,Win32,59.88023952,,,,,,,,,,,,,,,,,,,,,,,,,,,,,,,,,,,,,,,,,,,,
,,,,,,,-0.334375,0.674074074,1,0,0,,0,2,2,5,1,-0.33,-0.33,06,001,2024-12-03_10h48.45.514,Attention_exp_legacy,2023.1.0,Win32,59.88023952,,,,,,,,,,,,,,,,,,,,,,,,,,,,,,,,,,,,,,,,,,,,
,,,,,,,-0.019791667,-0.331481481,1,0,0,,0,3,3,10,1,0,-0.33,06,001,2024-12-03_10h48.45.514,Attention_exp_legacy,2023.1.0,Win32,59.88023952,,,,,,,,,,,,,,,,,,,,,,,,,,,,,,,,,,,,,,,,,,,,
,,,,,,,0.679166667,-0.67037037,1,0,0,calibration_square,0,4,4,20,1,0.67,-0.67,06,001,2024-12-03_10h48.45.514,Attention_exp_legacy,2023.1.0,Win32,59.88023952,,,,,,,,,,,,,,,,,,,,,,,,,,,,,,,,,,,,,,,,,,,,
,,,,,,,0.332291667,-0.662962963,1,0,0,calibration_square,0,5,5,14,1,0.33,-0.67,06,001,2024-12-03_10h48.45.514,Attention_exp_legacy,2023.1.0,Win32,59.88023952,,,,,,,,,,,,,,,,,,,,,,,,,,,,,,,,,,,,,,,,,,,,
,,,,,,,0.340625,0.32037037,1,0,0,,0,6,6,17,1,0.33,0.33,06,001,2024-12-03_10h48.45.514,Attention_exp_legacy,2023.1.0,Win32,59.88023952,,,,,,,,,,,,,,,,,,,,,,,,,,,,,,,,,,,,,,,,,,,,
,,,,,,,0.328125,-0.001851852,1,0,0,calibration_square,0,7,7,16,1,0.33,0,06,001,2024-12-03_10h48.45.514,Attention_exp_legacy,2023.1.0,Win32,59.88023952,,,,,,,,,,,,,,,,,,,,,,,,,,,,,,,,,,,,,,,,,,,,
,,,,,,,-0.323958333,-0.005555556,1,0,0,calibration_square,0,8,8,6,1,-0.33,0,06,001,2024-12-03_10h48.45.514,Attention_exp_legacy,2023.1.0,Win32,59.88023952,,,,,,,,,,,,,,,,,,,,,,,,,,,,,,,,,,,,,,,,,,,,
,,,,,,,-0.315625,0.324074074,1,0,0,,0,9,9,7,1,-0.33,0.33,06,001,2024-12-03_10h48.45.514,Attention_exp_legacy,2023.1.0,Win32,59.88023952,,,,,,,,,,,,,,,,,,,,,,,,,,,,,,,,,,,,,,,,,,,,
,,,,,,,0.648958333,0.655555556,1,0,0,,0,10,10,19,1,0.67,0.67,06,001,2024-12-03_10h48.45.514,Attention_exp_legacy,2023.1.0,Win32,59.88023952,,,,,,,,,,,,,,,,,,,,,,,,,,,,,,,,,,,,,,,,,,,,
,,,,,,,-0.663541667,-0.324074074,1,0,0,calibration_square,0,11,11,1,1,-0.67,-0.33,06,001,2024-12-03_10h48.45.514,Attention_exp_legacy,2023.1.0,Win32,59.88023952,,,,,,,,,,,,,,,,,,,,,,,,,,,,,,,,,,,,,,,,,,,,
,,,,,,,-0.651041667,-0.687037037,1,0,0,,0,12,12,0,1,-0.67,-0.67,06,001,2024-12-03_10h48.45.514,Attention_exp_legacy,2023.1.0,Win32,59.88023952,,,,,,,,,,,,,,,,,,,,,,,,,,,,,,,,,,,,,,,,,,,,
,,,,,,,0.00625,-0.664814815,1,0,0,calibration_square,0,13,13,9,1,0,-0.67,06,001,2024-12-03_10h48.45.514,Attention_exp_legacy,2023.1.0,Win32,59.88023952,,,,,,,,,,,,,,,,,,,,,,,,,,,,,,,,,,,,,,,,,,,,
,,,,,,,-0.003125,0.683333333,1,0,0,,0,14,14,13,1,0,0.67,06,001,2024-12-03_10h48.45.514,Attention_exp_legacy,2023.1.0,Win32,59.88023952,,,,,,,,,,,,,,,,,,,,,,,,,,,,,,,,,,,,,,,,,,,,
,,,,,,,-0.328125,-0.672222222,1,0,0,calibration_square,0,15,15,4,1,-0.33,-0.67,06,001,2024-12-03_10h48.45.514,Attention_exp_legacy,2023.1.0,Win32,59.88023952,,,,,,,,,,,,,,,,,,,,,,,,,,,,,,,,,,,,,,,,,,,,
,,,,,,,0.31875,-0.327777778,1,0,0,,0,16,16,15,1,0.33,-0.33,06,001,2024-12-03_10h48.45.514,Attention_exp_legacy,2023.1.0,Win32,59.88023952,,,,,,,,,,,,,,,,,,,,,,,,,,,,,,,,,,,,,,,,,,,,
,,,,,,,0,-0.003703704,1,0,0,calibration_square,0,17,17,11,1,0,0,06,001,2024-12-03_10h48.45.514,Attention_exp_legacy,2023.1.0,Win32,59.88023952,,,,,,,,,,,,,,,,,,,,,,,,,,,,,,,,,,,,,,,,,,,,
,,,,,,,0.309375,0.687037037,1,0,0,,0,18,18,18,1,0.33,0.67,06,001,2024-12-03_10h48.45.514,Attention_exp_legacy,2023.1.0,Win32,59.88023952,,,,,,,,,,,,,,,,,,,,,,,,,,,,,,,,,,,,,,,,,,,,
,,,,,,,-0.671875,0.337037037,1,0,0,calibration_square,0,19,19,3,1,-0.67,0.33,06,001,2024-12-03_10h48.45.514,Attention_exp_legacy,2023.1.0,Win32,59.88023952,,,,,,,,,,,,,,,,,,,,,,,,,,,,,,,,,,,,,,,,,,,,
,,,,,,,-0.669791667,0,1,0,0,calibration_square,0,20,20,2,1,-0.67,0,06,001,2024-12-03_10h48.45.514,Attention_exp_legacy,2023.1.0,Win32,59.88023952,,,,,,,,,,,,,,,,,,,,,,,,,,,,,,,,,,,,,,,,,,,,
,,,,,,,,,,,,,,,,,,,,06,001,2024-12-03_10h48.45.514,Attention_exp_legacy,2023.1.0,Win32,59.88023952,"[1920,1080]","[640,480]",[-0.023958333333333335],[-0.5018518518518519],[1],[0],[0],[1.0154999999999959],"[""StartButton""]",[0.003125],[0.1259259259259259],[1],[0],[0],[2.269200000002982],"[""Option1_label""]",Option1_label,1,3.2928,"[[0.12083333333333333,-0.03333333333333333],[0.11979166666666667,-0.03333333333333333],[0.11979166666666667,-0.03333333333333333],[0.11979166666666667,-0.03333333333333333],[0.11979166666666667,-0.03333333333333333],[0.11979166666666667,-0.03333333333333333],[0.11979166666666667,-0.03333333333333333],[0.11979166666666667,-0.03333333333333333],[0.11979166666666667,-0.03333333333333333],[0.11979166666666667,-0.03333333333333333],[0.11979166666666667,-0.03333333333333333],[0.11979166666666667,-0.03333333333333333],[0.11979166666666667,-0.03333333333333333],[0.11979166666666667,-0.03333333333333333],[0.11979166666666667,-0.03333333333333333],[0.11979166666666667,-0.03333333333333333],[0.11979166666666667,-0.03333333333333333],[0.11875,-0.03333333333333333],[0.11875,-0.03333333333333333],[0.11875,-0.03333333333333333],[0.11875,-0.03333333333333333],[0.11770833333333333,-0.03333333333333333],[0.11770833333333333,-0.03333333333333333],[0.11666666666666667,-0.03333333333333333],[0.115625,-0.03333333333333333],[0.11354166666666667,-0.03518518518518519],[0.11041666666666666,-0.03888888888888889],[0.10104166666666667,-0.040740740740740744],[0.09791666666666667,-0.044444444444444446],[0.09583333333333334,-0.044444444444444446],[0.09166666666666666,-0.046296296296296294],[0.08854166666666667,-0.04814814814814815],[0.084375,-0.04814814814814815],[0.08125,-0.04814814814814815],[0.07916666666666666,-0.04814814814814815],[0.078125,-0.04814814814814815],[0.078125,-0.04814814814814815],[0.07708333333333334,-0.04814814814814815],[0.075,-0.04814814814814815],[0.075,-0.04814814814814815],[0.07395833333333333,-0.04814814814814815],[0.07291666666666667,-0.04814814814814815],[0.071875,-0.04814814814814815],[0.06979166666666667,-0.04814814814814815],[0.06770833333333333,-0.04814814814814815],[0.0625,-0.04259259259259259],[0.057291666666666664,-0.03518518518518519],[0.05,-0.025925925925925925],[0.04375,-0.016666666666666666],[0.03958333333333333,-0.009259259259259259],[0.034375,0.003703703703703704],[0.030208333333333334,0.014814814814814815],[0.026041666666666668,0.027777777777777776],[0.020833333333333332,0.03888888888888889],[0.016666666666666666,0.05185185185185185],[0.013541666666666667,0.06111111111111111],[0.010416666666666666,0.07222222222222222],[0.008333333333333333,0.07777777777777778],[0.00625,0.08148148148148149],[0.00625,0.08703703703703704],[0.00625,0.09074074074074075],[0.00625,0.0962962962962963],[0.005208333333333333,0.09814814814814815],[0.004166666666666667,0.1037037037037037],[0.004166666666666667,0.10740740740740741],[0.003125,0.1111111111111111],[0.003125,0.11481481481481481],[0.003125,0.11666666666666667],[0.003125,0.12037037037037036],[0.003125,0.12222222222222222],[0.003125,0.12222222222222222],[0.003125,0.12407407407407407],[0.003125,0.12407407407407407],[0.003125,0.1259259259259259],[0.003125,0.1259259259259259],[0.003125,0.1259259259259259],[0.003125,0.1259259259259259],[0.003125,0.1259259259259259],[0.003125,0.1259259259259259],[0.003125,0.1259259259259259],[0.003125,0.1259259259259259],[0.003125,0.1259259259259259],[0.003125,0.1259259259259259],[0.003125,0.1259259259259259],[0.003125,0.1259259259259259],[0.003125,0.1259259259259259],[0.003125,0.1259259259259259],[0.003125,0.1259259259259259],[0.003125,0.1259259259259259],[0.003125,0.1259259259259259],[0.003125,0.1259259259259259],[0.003125,0.1259259259259259],[0.003125,0.1259259259259259],[0.003125,0.1259259259259259],[0.003125,0.1259259259259259],[0.003125,0.1259259259259259],[0.003125,0.1259259259259259],[0.003125,0.1259259259259259],[0.003125,0.1259259259259259],[0.003125,0.1259259259259259],[0.003125,0.1259259259259259],[0.003125,0.1259259259259259],[0.003125,0.1259259259259259],[0.003125,0.1259259259259259],[0.003125,0.1259259259259259],[0.003125,0.1259259259259259],[0.003125,0.1259259259259259],[0.003125,0.1259259259259259],[0.003125,0.1259259259259259],[0.003125,0.1259259259259259],[0.003125,0.1259259259259259],[0.003125,0.1259259259259259],[0.003125,0.1259259259259259],[0.003125,0.1259259259259259],[0.003125,0.1259259259259259],[0.003125,0.1259259259259259],[0.003125,0.1259259259259259],[0.003125,0.1259259259259259],[0.003125,0.1259259259259259],[0.003125,0.1259259259259259],[0.003125,0.1259259259259259],[0.003125,0.1259259259259259],[0.003125,0.1259259259259259],[0.003125,0.1259259259259259],[0.003125,0.1259259259259259],[0.003125,0.1259259259259259],[0.003125,0.1259259259259259],[0.003125,0.1259259259259259],[0.003125,0.1259259259259259],[0.003125,0.1259259259259259],[0.003125,0.1259259259259259],[0.003125,0.1259259259259259],[0.003125,0.1259259259259259],[0.003125,0.1259259259259259],[0.003125,0.1259259259259259],[0.003125,0.1259259259259259],[0.003125,0.1259259259259259],[0.003125,0.1259259259259259],[0.003125,0.1259259259259259],[0.003125,0.1259259259259259],[0.003125,0.1259259259259259],[0.003125,0.1259259259259259],[0.003125,0.1259259259259259],[0.003125,0.1259259259259259],[0.003125,0.1259259259259259],[0.003125,0.1259259259259259],[0.003125,0.1259259259259259],[0.003125,0.1259259259259259],[0.003125,0.1259259259259259],[0.003125,0.1259259259259259],[0.003125,0.1259259259259259],[0.003125,0.1259259259259259],[0.003125,0.1259259259259259],[0.003125,0.1259259259259259],[0.003125,0.1259259259259259],[0.003125,0.1259259259259259],[0.003125,0.1259259259259259],[0.003125,0.1259259259259259],[0.003125,0.1259259259259259],[0.003125,0.1259259259259259],[0.003125,0.1259259259259259],[0.003125,0.1259259259259259],[0.003125,0.1259259259259259],[0.003125,0.1259259259259259],[0.003125,0.1259259259259259],[0.003125,0.1259259259259259],[0.003125,0.1259259259259259],[0.003125,0.1259259259259259],[0.003125,0.1259259259259259],[0.003125,0.1259259259259259],[0.003125,0.1259259259259259],[0.003125,0.1259259259259259],[0.003125,0.1259259259259259],[0.003125,0.1259259259259259],[0.003125,0.1259259259259259],[0.003125,0.1259259259259259],[0.003125,0.1259259259259259],[0.003125,0.1259259259259259],[0.003125,0.1259259259259259],[0.003125,0.1259259259259259],[0.003125,0.1259259259259259],[0.003125,0.1259259259259259],[0.003125,0.1259259259259259],[0.003125,0.1259259259259259],[0.003125,0.1259259259259259],[0.003125,0.1259259259259259],[0.003125,0.1259259259259259],[0.003125,0.1259259259259259],[0.003125,0.1259259259259259],[0.003125,0.1259259259259259],[0.003125,0.1259259259259259],[0.003125,0.1259259259259259],[0.003125,0.1259259259259259],[0.003125,0.1259259259259259],[0.003125,0.1259259259259259],[0.003125,0.1259259259259259],[0.003125,0.1259259259259259],[0.003125,0.1259259259259259]]","[[0.02677083333333338,-0.06296296296296296],[0.02677083333333338,-0.06296296296296296],[0.03760416666666669,-0.07833333333333335],[0.03760416666666669,-0.07833333333333335],[0.05437500000000005,-0.06833333333333329],[0.10447916666666662,-0.0485185185185186],[0.12791666666666662,-0.01777777777777782],[0.15135416666666662,0.012962962962962963],[0.1935416666666666,0.032037037037036954],[0.21218750000000006,0.025185185185185227],[0.2040625000000001,0.0005555555555554713],[0.2178124999999999,0.006481481481481481],[0.22385416666666677,0.028703703703703703],[0.24645833333333325,0.06092592592592588],[0.27281250000000007,0.04814814814814815],[0.27281250000000007,0.04814814814814815],[0.26541666666666663,0.025925925925925925],[0.2421875,0.03222222222222218],[0.24749999999999991,0.03166666666666671],[0.2543750000000001,0.0477777777777777],[0.2543750000000001,0.0477777777777777],[0.2381249999999999,0.058333333333333334],[0.23822916666666671,0.06814814814814807],[0.2335416666666667,0.06222222222222226],[0.20750000000000005,0.0477777777777777],[0.1851041666666667,0.03537037037037041],[0.1884375000000001,0.03888888888888889],[0.1884375000000001,0.03888888888888889],[0.1634375000000001,0.04018518518518527],[0.1634375000000001,0.04018518518518527],[0.1720833333333334,0.010370370370370412],[0.14635416666666667,-0.012592592592592508],[0.11135416666666677,-0.011111111111111112],[0.1053124999999999,-0.01314814814814819],[0.09822916666666662,-0.019444444444444445],[0.07322916666666662,-0.0301851851851851],[0.09177083333333323,-0.035740740740740656],[0.11322916666666671,-0.06092592592592588],[0.08687500000000009,-0.05259259259259255],[0.07822916666666657,-0.06425925925925924],[0.05385416666666672,-0.059814814814814835],[0.05249999999999998,-0.040740740740740744],[0.05802083333333338,-0.062037037037037036],[0.0484375,-0.07092592592592595],[0.06385416666666661,-0.05759259259259263],[0.07489583333333343,-0.06092592592592588],[0.06468750000000002,-0.06111111111111111],[0.07020833333333343,-0.03925925925925934],[0.06541666666666662,-0.04314814814814806],[0.08322916666666676,-0.0455555555555556],[0.10364583333333334,-0.05796296296296299],[0.10458333333333343,-0.09037037037037039],[0.10458333333333343,-0.09037037037037039],[0.0978125000000001,-0.08870370370370366],[0.11041666666666666,-0.09388888888888887],[0.10760416666666663,-0.09796296296296292],[0.11541666666666663,-0.09185185185185189],[0.13927083333333337,-0.10259259259259255],[0.11395833333333343,-0.11351851851851855],[0.12510416666666657,-0.13222222222222219],[0.11520833333333323,-0.12370370370370372],[0.10885416666666667,-0.12685185185185185],[0.08885416666666662,-0.10981481481481484],[0.0974999999999999,-0.0977777777777778],[0.10083333333333329,-0.11462962962962958],[0.08385416666666666,-0.1242592592592593],[0.06906249999999996,-0.1412962962962963],[0.03916666666666669,-0.16425925925925924],[0.05135416666666662,-0.19129629629629633],[0.04812500000000005,-0.18425925925925926],[0.057500000000000044,-0.19370370370370374],[0.04541666666666669,-0.192037037037037],[0.059583333333333384,-0.2044444444444444],[0.06083333333333331,-0.23351851851851857],[0.06052083333333336,-0.21425925925925923],[0.0626041666666667,-0.20722222222222217],[0.058645833333333286,-0.18629629629629635],[0.06239583333333331,-0.15555555555555556],[0.07010416666666662,-0.11555555555555551],[0.08406250000000005,-0.10425925925925927],[0.08406250000000005,-0.10425925925925927],[0.0865624999999999,-0.11703703703703702],[0.11354166666666667,-0.11129629629629634],[0.11010416666666671,-0.11518518518518517],[0.1125,-0.12444444444444443],[0.1134375000000001,-0.1455555555555556],[0.1134375000000001,-0.1455555555555556],[0.128125,-0.15166666666666662],[0.1400000000000001,-0.16833333333333328],[0.15,-0.1881481481481482],[0.12687499999999996,-0.21222222222222226],[0.12010416666666662,-0.22888888888888892],[0.11906249999999995,-0.24444444444444444],[0.10572916666666667,-0.24203703703703702],[0.11875,-0.2524074074074074],[0.1390625,-0.23962962962962958],[0.14593749999999991,-0.2205555555555556],[0.146875,-0.22166666666666665],[0.14968750000000006,-0.20555555555555555],[0.14968750000000006,-0.20555555555555555],[0.14395833333333338,-0.19296296296296295],[0.14395833333333338,-0.19296296296296295],[0.15822916666666675,-0.1705555555555556],[0.16520833333333323,-0.15999999999999995],[0.16937499999999991,-0.11777777777777781],[0.16937499999999991,-0.11777777777777781],[0.17979166666666657,-0.11648148148148144],[0.17979166666666657,-0.11648148148148144],[0.16697916666666662,-0.1235185185185185],[0.16697916666666662,-0.1235185185185185],[0.14260416666666675,-0.09425925925925922],[0.14260416666666675,-0.09425925925925922],[0.13697916666666668,-0.08462962962962961],[0.1271874999999999,-0.05814814814814811],[0.11333333333333329,-0.04425925925925922],[0.10843749999999991,-0.041666666666666664],[0.07937500000000004,-0.04537037037037037],[0.04697916666666669,-0.06370370370370367],[0.015312500000000047,-0.0824074074074074],[0.000416666666666643,-0.10444444444444441],[-0.00947916666666669,-0.10555555555555556],[-0.007395833333333357,-0.08407407407407404],[-0.0010416666666666667,-0.08277777777777776],[0.026250000000000048,-0.04425925925925922],[0.058958333333333356,-0.0016666666666666245],[0.07249999999999991,0.0418518518518519],[0.10760416666666663,0.07240740740740745],[0.13624999999999995,0.12370370370370362],[0.16635416666666672,0.15537037037037033],[0.1796875,0.18925925925925935],[0.19604166666666673,0.22870370370370371],[0.19041666666666662,0.19722222222222222],[0.19093749999999995,0.1638888888888889],[0.18875000000000006,0.07962962962962963],[0.13114583333333343,0.01962962962962967],[0.12385416666666677,-0.05462962962962963],[0.10791666666666658,-0.0705555555555556],[0.11749999999999995,-0.14592592592592596],[0.09927083333333328,-0.17314814814814813],[0.09927083333333328,-0.17314814814814813],[0.10947916666666657,-0.23499999999999996],[0.09562499999999995,-0.25999999999999995],[0.10083333333333329,-0.33296296296296296],[0.08489583333333334,-0.3025925925925925],[0.04031250000000005,-0.28592592592592586],[0.050833333333333286,-0.28407407407407403],[0.09104166666666676,-0.2614814814814815],[0.12614583333333323,-0.2737037037037037],[0.09833333333333343,-0.225],[0.10395833333333329,-0.20259259259259255],[0.07593750000000009,-0.14296296296296293],[0.08093750000000005,-0.11666666666666667],[0.0655208333333333,-0.040370370370370286],[0.05552083333333328,-0.032037037037036954],[0.06645833333333329,-0.005185185185185101],[0.06822916666666666,0.022592592592592678],[0.035416666666666666,0.05722222222222218],[0.013854166666666619,0.0705555555555556],[0.012395833333333309,0.07481481481481478],[0.01552083333333331,0.08462962962962971],[0.00916666666666662,0.07833333333333325],[0.002812500000000047,0.072037037037037],[0.019583333333333286,0.0801851851851851],[0.036354166666666646,0.08833333333333342],[0.04989583333333331,0.08037037037037033],[0.06875,0.054074074074074156],[0.09156250000000009,0.04296296296296305],[0.11437499999999995,0.03185185185185194],[0.13072916666666667,0.026111111111111154],[0.1396874999999999,0.014259259259259343],[0.1648958333333333,0.03351851851851856],[0.17916666666666667,0.050370370370370454],[0.17677083333333338,0.04870370370370362],[0.15177083333333338,0.03833333333333342],[0.13208333333333327,0.04666666666666675],[0.11375000000000005,0.06481481481481481],[0.08666666666666671,0.09518518518518514],[0.059583333333333384,0.12555555555555548],[0.04791666666666667,0.13925925925925933],[0.036249999999999956,0.152962962962963],[0.014895833333333285,0.1527777777777778],[0.004479166666666619,0.15500000000000008],[-0.008645833333333287,0.152962962962963],[0.000833333333333286,0.1596296296296297],[0.010416666666666666,0.16537037037037028],[0.022708333333333285,0.1766666666666666],[0.013854166666666619,0.1557407407407408],[0.004999999999999952,0.13481481481481472],[0.003541666666666643,0.17444444444444454],[0.0020833333333333333,0.2140740740740741],[0.004479166666666619,0.297037037037037],[0.019687499999999976,0.3866666666666666],[0.06916666666666677,0.4812962962962963],[0.09562499999999995,0.5753703703703704],[0.12625000000000006,0.6672222222222222],[0.1271874999999999,0.7264814814814814],[0.14520833333333344,0.8053703703703703],[0.14968750000000006,0.8609259259259259]]","[[0.02677083333333338,-0.06296296296296296,0.00020000000297670795],[0.02677083333333338,-0.06296296296296296,0.04080000001192019],[0.03760416666666669,-0.07833333333333335,0.04820000000297853],[0.03760416666666669,-0.07833333333333335,0.059499999999999886],[0.05437500000000005,-0.06833333333333329,0.07620000000297722],[0.10447916666666662,-0.0485185185185186,0.09380000001191746],[0.12791666666666662,-0.01777777777777782,0.10949999999999704],[0.15135416666666662,0.012962962962962963,0.12780000001191638],[0.1935416666666666,0.032037037037036954,0.1454999999999984],[0.21218750000000006,0.025185185185185227,0.1618000000119153],[0.2040625000000001,0.0005555555555554713,0.17620000000297864],[0.2178124999999999,0.006481481481481481,0.19270000000297927],[0.22385416666666677,0.028703703703703703,0.2094000000059566],[0.24645833333333325,0.06092592592592588,0.2262000000029758],[0.27281250000000007,0.04814814814814815,0.24749999999999517],[0.27281250000000007,0.04814814814814815,0.25940000000596086],[0.26541666666666663,0.025925925925925925,0.27620000000298006],[0.2421875,0.03222222222222218,0.2976000000089414],[0.24749999999999991,0.03166666666666671,0.31230000001191627],[0.2543750000000001,0.0477777777777777,0.3281000000089378],[0.2543750000000001,0.0477777777777777,0.34290000000595455],[0.2381249999999999,0.058333333333333334,0.36440000000595774],[0.23822916666666671,0.06814814814814807,0.37880000001192116],[0.2335416666666667,0.06222222222222226,0.39330000001191934],[0.20750000000000005,0.0477777777777777,0.40960000000893615],[0.1851041666666667,0.03537037037037041,0.4289000000059602],[0.1884375000000001,0.03888888888888889,0.44650000000000034],[0.1884375000000001,0.03888888888888889,0.47170000000297563],[0.1634375000000001,0.04018518518518527,0.48449999999999704],[0.1634375000000001,0.04018518518518527,0.492999999999995],[0.1720833333333334,0.010370370370370412,0.5096000000089376],[0.14635416666666667,-0.012592592592592508,0.526300000011922],[0.11135416666666677,-0.011111111111111112,0.5458000000119156],[0.1053124999999999,-0.01314814814814819,0.5597000000029766],[0.09822916666666662,-0.019444444444444445,0.5763000000119192],[0.07322916666666662,-0.0301851851851851,0.5929000000059546],[0.09177083333333323,-0.035740740740740656,0.609499999999997],[0.11322916666666671,-0.06092592592592588,0.6293000000119164],[0.08687500000000009,-0.05259259259259255,0.6437000000029798],[0.07822916666666657,-0.06425925925925924,0.6622000000029757],[0.05385416666666672,-0.059814814814814835,0.6783000000119159],[0.05249999999999998,-0.040740740740740744,0.692900000005956],[0.05802083333333338,-0.062037037037037036,0.7104000000059614],[0.0484375,-0.07092592592592595,0.7263000000119177],[0.06385416666666661,-0.05759259259259263,0.7453000000119161],[0.07489583333333343,-0.06092592592592588,0.7596000000089376],[0.06468750000000002,-0.06111111111111111,0.7777000000029801],[0.07020833333333343,-0.03925925925925934,0.7929000000059574],[0.06541666666666662,-0.04314814814814806,0.811800000011921],[0.08322916666666676,-0.0455555555555556,0.8299000000059564],[0.10364583333333334,-0.05796296296296299,0.8454000000059594],[0.10458333333333343,-0.09037037037037039,0.8632000000029763],[0.10458333333333343,-0.09037037037037039,0.8763000000119163],[0.0978125000000001,-0.08870370370370366,0.8929000000059588],[0.11041666666666666,-0.09388888888888887,0.9119000000059572],[0.10760416666666663,-0.09796296296296292,0.9263000000119206],[0.11541666666666663,-0.09185185185185189,0.9438000000119189],[0.13927083333333337,-0.10259259259259255,0.9647000000029777],[0.11395833333333343,-0.11351851851851855,0.9788000000119155],[0.12510416666666657,-0.13222222222222219,0.9929000000059602],[0.11520833333333323,-0.12370370370370372,1.0097000000029794],[0.10885416666666667,-0.12685185185185185,1.0302000000029778],[0.08885416666666662,-0.10981481481481484,1.0457000000029808],[0.0974999999999999,-0.0977777777777778,1.0598000000119185],[0.10083333333333329,-0.11462962962962958,1.0763000000119192],[0.08385416666666666,-0.1242592592592593,1.0968000000119176],[0.06906249999999996,-0.1412962962962963,1.1123000000119205],[0.03916666666666669,-0.16425925925925924,1.1289999999999978],[0.05135416666666662,-0.19129629629629633,1.1468000000119218],[0.04812500000000005,-0.18425925925925926,1.1624000000059596],[0.057500000000000044,-0.19370370370370374,1.1762000000029786],[0.04541666666666669,-0.192037037037037,1.1971000000089376],[0.059583333333333384,-0.2044444444444444,1.2117000000029776],[0.06083333333333331,-0.23351851851851857,1.2264000000059596],[0.06052083333333336,-0.21425925925925923,1.2428000000119184],[0.0626041666666667,-0.20722222222222217,1.2594000000059609],[0.058645833333333286,-0.18629629629629635,1.2761000000089382],[0.06239583333333331,-0.15555555555555556,1.2927000000029807],[0.07010416666666662,-0.11555555555555551,1.309400000005958],[0.08406250000000005,-0.10425925925925927,1.3261000000089354],[0.08406250000000005,-0.10425925925925927,1.3429999999999964],[0.0865624999999999,-0.11703703703703702,1.359499999999997],[0.11354166666666667,-0.11129629629629634,1.3761000000089396],[0.11010416666666671,-0.11518518518518517,1.392700000002975],[0.1125,-0.12444444444444443,1.4094000000059594],[0.1134375000000001,-0.1455555555555556,1.4261000000089368],[0.1134375000000001,-0.1455555555555556,1.4428000000119212],[0.128125,-0.15166666666666662,1.4594000000059566],[0.1400000000000001,-0.16833333333333328,1.475999999999999],[0.15,-0.1881481481481482,1.4927000000029764],[0.12687499999999996,-0.21222222222222226,1.5094000000059609],[0.12010416666666662,-0.22888888888888892,1.52620000000298],[0.11906249999999995,-0.24444444444444444,1.5444999999999993],[0.10572916666666667,-0.24203703703703702,1.5601000000089371],[0.11875,-0.2524074074074074,1.5761000000089354],[0.1390625,-0.23962962962962958,1.5929000000059546],[0.14593749999999991,-0.2205555555555556,1.609499999999997],[0.146875,-0.22166666666666665,1.6259999999999977],[0.14968750000000006,-0.20555555555555555,1.643600000008938],[0.14968750000000006,-0.20555555555555555,1.6594000000059594],[0.14395833333333338,-0.19296296296296295,1.6761000000089368],[0.14395833333333338,-0.19296296296296295,1.692900000005956],[0.15822916666666675,-0.1705555555555556,1.7094000000059566],[0.16520833333333323,-0.15999999999999995,1.7271000000089387],[0.16937499999999991,-0.11777777777777781,1.7511000000089396],[0.16937499999999991,-0.11777777777777781,1.7594000000059609],[0.17979166666666657,-0.11648148148148144,1.7761000000089382],[0.17979166666666657,-0.11648148148148144,1.7928000000119155],[0.16697916666666662,-0.1235185185185185,1.8094999999999999],[0.16697916666666662,-0.1235185185185185,1.8261000000089354],[0.14260416666666675,-0.09425925925925922,1.8428000000119198],[0.14260416666666675,-0.09425925925925922,1.859499999999997],[0.13697916666666668,-0.08462962962962961,1.8761000000089396],[0.1271874999999999,-0.05814814814814811,1.892700000002975],[0.11333333333333329,-0.04425925925925922,1.9093000000119176],[0.10843749999999991,-0.041666666666666664,1.9259999999999948],[0.07937500000000004,-0.04537037037037037,1.9428000000119212],[0.04697916666666669,-0.06370370370370367,1.9594000000059566],[0.015312500000000047,-0.0824074074074074,1.976100000008941],[0.000416666666666643,-0.10444444444444441,1.9928000000119184],[-0.00947916666666669,-0.10555555555555556,2.009400000005961],[-0.007395833333333357,-0.08407407407407404,2.0259999999999962],[-0.0010416666666666667,-0.08277777777777776,2.0428000000119155],[0.026250000000000048,-0.04425925925925922,2.0595],[0.058958333333333356,-0.0016666666666666245,2.0783000000119216],[0.07249999999999991,0.0418518518518519,2.092700000002978],[0.10760416666666663,0.07240740740740745,2.109400000005955],[0.13624999999999995,0.12370370370370362,2.1261000000089396],[0.16635416666666672,0.15537037037037033,2.143400000005961],[0.1796875,0.18925925925925935,2.1594000000059594],[0.19604166666666673,0.22870370370370371,2.1761000000089368],[0.19041666666666662,0.19722222222222222,2.1927000000029793],[0.19093749999999995,0.1638888888888889,2.2094000000059566],[0.18875000000000006,0.07962962962962963,2.226100000008941],[0.13114583333333343,0.01962962962962967,2.2429000000059602],[0.12385416666666677,-0.05462962962962963,2.259400000005961],[0.10791666666666658,-0.0705555555555556,2.276100000008938],[0.11749999999999995,-0.14592592592592596,2.2927000000029807],[0.09927083333333328,-0.17314814814814813,2.3127000000029767],[0.09927083333333328,-0.17314814814814813,2.329400000005961],[0.10947916666666657,-0.23499999999999996,2.34280000001192],[0.09562499999999995,-0.25999999999999995,2.359400000005955],[0.10083333333333329,-0.33296296296296296,2.3777000000029744],[0.08489583333333334,-0.3025925925925925,2.392800000011917],[0.04031250000000005,-0.28592592592592586,2.409600000008936],[0.050833333333333286,-0.28407407407407403,2.4261000000089368],[0.09104166666666676,-0.2614814814814815,2.442800000011921],[0.12614583333333323,-0.2737037037037037,2.4594000000059566],[0.09833333333333343,-0.225,2.476200000002976],[0.10395833333333329,-0.20259259259259255,2.4927000000029764],[0.07593750000000009,-0.14296296296296293,2.509400000005961],[0.08093750000000005,-0.11666666666666667,2.526100000008938],[0.0655208333333333,-0.040370370370370286,2.5446000000089413],[0.05552083333333328,-0.032037037037036954,2.5599000000059604],[0.06645833333333329,-0.005185185185185101,2.5761000000089354],[0.06822916666666666,0.022592592592592678,2.5929000000059546],[0.035416666666666666,0.05722222222222218,2.609400000005955],[0.013854166666666619,0.0705555555555556,2.6261000000089396],[0.012395833333333309,0.07481481481481478,2.642800000011917],[0.01552083333333331,0.08462962962962971,2.6594000000059594],[0.00916666666666662,0.07833333333333325,2.6761000000089368],[0.002812500000000047,0.072037037037037,2.6927000000029793],[0.019583333333333286,0.0801851851851851,2.7094999999999985],[0.036354166666666646,0.08833333333333342,2.726100000008941],[0.04989583333333331,0.08037037037037033,2.7428000000119184],[0.06875,0.054074074074074156,2.759300000011919],[0.09156250000000009,0.04296296296296305,2.776100000008938],[0.11437499999999995,0.03185185185185194,2.7927000000029807],[0.13072916666666667,0.026111111111111154,2.809400000005958],[0.1396874999999999,0.014259259259259343,2.8261000000089354],[0.1648958333333333,0.03351851851851856,2.84280000001192],[0.17916666666666667,0.050370370370370454,2.859600000008939],[0.17677083333333338,0.04870370370370362,2.8761000000089396],[0.15177083333333338,0.03833333333333342,2.892700000002975],[0.13208333333333327,0.04666666666666675,2.9094000000059594],[0.11375000000000005,0.06481481481481481,2.925999999999995],[0.08666666666666671,0.09518518518518514,2.942900000005956],[0.059583333333333384,0.12555555555555548,2.9594000000059566],[0.04791666666666667,0.13925925925925933,2.976100000008941],[0.036249999999999956,0.152962962962963,2.9927000000029764],[0.014895833333333285,0.1527777777777778,3.009400000005961],[0.004479166666666619,0.15500000000000008,3.026100000008938],[-0.008645833333333287,0.152962962962963,3.0428000000119155],[0.000833333333333286,0.1596296296296297,3.059400000005958],[0.010416666666666666,0.16537037037037028,3.0760000000000005],[0.022708333333333285,0.1766666666666666,3.092700000002978],[0.013854166666666619,0.1557407407407408,3.1093000000119204],[0.004999999999999952,0.13481481481481472,3.1261000000089396],[0.003541666666666643,0.17444444444444454,3.142800000011917],[0.0020833333333333333,0.2140740740740741,3.1593000000119176],[0.004479166666666619,0.297037037037037,3.175999999999995],[0.019687499999999976,0.3866666666666666,3.1927000000029793],[0.06916666666666677,0.4812962962962963,3.2094000000059566],[0.09562499999999995,0.5753703703703704,3.225999999999999],[0.12625000000000006,0.6672222222222222,3.2428000000119184],[0.1271874999999999,0.7264814814814814,3.259300000011919],[0.14520833333333344,0.8053703703703703,3.276100000008938],[0.14968750000000006,0.8609259259259259,3.2928000000119155]]","[0.00020000000297670795,0.04080000001192019,0.04820000000297853,0.059499999999999886,0.07620000000297722,0.09380000001191746,0.10949999999999704,0.12780000001191638,0.1454999999999984,0.1618000000119153,0.17620000000297864,0.19270000000297927,0.2094000000059566,0.2262000000029758,0.24749999999999517,0.25940000000596086,0.27620000000298006,0.2976000000089414,0.31230000001191627,0.3281000000089378,0.34290000000595455,0.36440000000595774,0.37880000001192116,0.39330000001191934,0.40960000000893615,0.4289000000059602,0.44650000000000034,0.47170000000297563,0.48449999999999704,0.492999999999995,0.5096000000089376,0.526300000011922,0.5458000000119156,0.5597000000029766,0.5763000000119192,0.5929000000059546,0.609499999999997,0.6293000000119164,0.6437000000029798,0.6622000000029757,0.6783000000119159,0.692900000005956,0.7104000000059614,0.7263000000119177,0.7453000000119161,0.7596000000089376,0.7777000000029801,0.7929000000059574,0.811800000011921,0.8299000000059564,0.8454000000059594,0.8632000000029763,0.8763000000119163,0.8929000000059588,0.9119000000059572,0.9263000000119206,0.9438000000119189,0.9647000000029777,0.9788000000119155,0.9929000000059602,1.0097000000029794,1.0302000000029778,1.0457000000029808,1.0598000000119185,1.0763000000119192,1.0968000000119176,1.1123000000119205,1.1289999999999978,1.1468000000119218,1.1624000000059596,1.1762000000029786,1.1971000000089376,1.2117000000029776,1.2264000000059596,1.2428000000119184,1.2594000000059609,1.2761000000089382,1.2927000000029807,1.309400000005958,1.3261000000089354,1.3429999999999964,1.359499999999997,1.3761000000089396,1.392700000002975,1.4094000000059594,1.4261000000089368,1.4428000000119212,1.4594000000059566,1.475999999999999,1.4927000000029764,1.5094000000059609,1.52620000000298,1.5444999999999993,1.5601000000089371,1.5761000000089354,1.5929000000059546,1.609499999999997,1.6259999999999977,1.643600000008938,1.6594000000059594,1.6761000000089368,1.692900000005956,1.7094000000059566,1.7271000000089387,1.7511000000089396,1.7594000000059609,1.7761000000089382,1.7928000000119155,1.8094999999999999,1.8261000000089354,1.8428000000119198,1.859499999999997,1.8761000000089396,1.892700000002975,1.9093000000119176,1.9259999999999948,1.9428000000119212,1.9594000000059566,1.976100000008941,1.9928000000119184,2.009400000005961,2.0259999999999962,2.0428000000119155,2.0595,2.0783000000119216,2.092700000002978,2.109400000005955,2.1261000000089396,2.143400000005961,2.1594000000059594,2.1761000000089368,2.1927000000029793,2.2094000000059566,2.226100000008941,2.2429000000059602,2.259400000005961,2.276100000008938,2.2927000000029807,2.3127000000029767,2.329400000005961,2.34280000001192,2.359400000005955,2.3777000000029744,2.392800000011917,2.409600000008936,2.4261000000089368,2.442800000011921,2.4594000000059566,2.476200000002976,2.4927000000029764,2.509400000005961,2.526100000008938,2.5446000000089413,2.5599000000059604,2.5761000000089354,2.5929000000059546,2.609400000005955,2.6261000000089396,2.642800000011917,2.6594000000059594,2.6761000000089368,2.6927000000029793,2.7094999999999985,2.726100000008941,2.7428000000119184,2.759300000011919,2.776100000008938,2.7927000000029807,2.809400000005958,2.8261000000089354,2.84280000001192,2.859600000008939,2.8761000000089396,2.892700000002975,2.9094000000059594,2.925999999999995,2.942900000005956,2.9594000000059566,2.976100000008941,2.9927000000029764,3.009400000005961,3.026100000008938,3.0428000000119155,3.059400000005958,3.0760000000000005,3.092700000002978,3.1093000000119204,3.1261000000089396,3.142800000011917,3.1593000000119176,3.175999999999995,3.1927000000029793,3.2094000000059566,3.225999999999999,3.2428000000119184,3.259300000011919,3.276100000008938,3.2928000000119155]","[1733194162892,1733194162926,1733194162934,1733194162945,1733194162962,1733194162979,1733194162995,1733194163013,1733194163031,1733194163047,1733194163062,1733194163078,1733194163095,1733194163112,1733194163133,1733194163145,1733194163162,1733194163183,1733194163198,1733194163214,1733194163228,1733194163250,1733194163264,1733194163279,1733194163295,1733194163314,1733194163332,1733194163357,1733194163370,1733194163378,1733194163395,1733194163412,1733194163431,1733194163445,1733194163462,1733194163478,1733194163495,1733194163515,1733194163529,1733194163548,1733194163564,1733194163578,1733194163596,1733194163612,1733194163631,1733194163645,1733194163663,1733194163678,1733194163697,1733194163715,1733194163731,1733194163749,1733194163762,1733194163778,1733194163797,1733194163812,1733194163829,1733194163850,1733194163864,1733194163878,1733194163895,1733194163916,1733194163931,1733194163945,1733194163962,1733194163982,1733194163998,1733194164014,1733194164032,1733194164048,1733194164062,1733194164082,1733194164097,1733194164112,1733194164128,1733194164145,1733194164162,1733194164178,1733194164195,1733194164211,1733194164228,1733194164245,1733194164261,1733194164278,1733194164295,1733194164311,1733194164328,1733194164345,1733194164361,1733194164378,1733194164395,1733194164412,1733194164430,1733194164446,1733194164461,1733194164478,1733194164495,1733194164511,1733194164529,1733194164545,1733194164562,1733194164578,1733194164595,1733194164613,1733194164636,1733194164645,1733194164661,1733194164678,1733194164695,1733194164711,1733194164728,1733194164745,1733194164761,1733194164778,1733194164795,1733194164811,1733194164828,1733194164845,1733194164861,1733194164878,1733194164895,1733194164911,1733194164928,1733194164945,1733194164964,1733194164978,1733194164995,1733194165011,1733194165029,1733194165045,1733194165061,1733194165078,1733194165095,1733194165111,1733194165128,1733194165145,1733194165162,1733194165178,1733194165198,1733194165215,1733194165228,1733194165245,1733194165263,1733194165278,1733194165295,1733194165311,1733194165328,1733194165345,1733194165362,1733194165378,1733194165395,1733194165411,1733194165430,1733194165445,1733194165461,1733194165478,1733194165495,1733194165511,1733194165528,1733194165545,1733194165561,1733194165578,1733194165595,1733194165611,1733194165628,1733194165645,1733194165661,1733194165678,1733194165695,1733194165711,1733194165728,1733194165745,1733194165761,1733194165778,1733194165795,1733194165811,1733194165828,1733194165845,1733194165861,1733194165878,1733194165895,1733194165911,1733194165928,1733194165945,1733194165961,1733194165978,1733194165995,1733194166011,1733194166028,1733194166045,1733194166061,1733194166078,1733194166095,1733194166111,1733194166128,1733194166145,1733194166161,1733194166178]","[[985.7,506],[985.7,506],[996.1,497.7],[996.1,497.7],[1012.2,503.1],[1060.3,513.8],[1082.8,530.4],[1105.3,547],[1145.8,557.3],[1163.7,553.6],[1155.9,540.3],[1169.1,543.5],[1174.9,555.5],[1196.6,572.9],[1221.9,566],[1221.9,566],[1214.8,554],[1192.5,557.4],[1197.6,557.1],[1204.2,565.8],[1204.2,565.8],[1188.6,571.5],[1188.7,576.8],[1184.2,573.6],[1159.2,565.8],[1137.7,559.1],[1140.9,561],[1140.9,561],[1116.9,561.7],[1116.9,561.7],[1125.2,545.6],[1100.5,533.2],[1066.9,534],[1061.1,532.9],[1054.3,529.5],[1030.3,523.7],[1048.1,520.7],[1068.7,507.1],[1043.4,511.6],[1035.1,505.3],[1011.7,507.7],[1010.4,518],[1015.7,506.5],[1006.5,501.7],[1021.3,508.9],[1031.9,507.1],[1022.1,507],[1027.4,518.8],[1022.8,516.7],[1039.9,515.4],[1059.5,508.7],[1060.4,491.2],[1060.4,491.2],[1053.9,492.1],[1066,489.3],[1063.3,487.1],[1070.8,490.4],[1093.7,484.6],[1069.4,478.7],[1080.1,468.6],[1070.6,473.2],[1064.5,471.5],[1045.3,480.7],[1053.6,487.2],[1056.8,478.1],[1040.5,472.9],[1026.3,463.7],[997.6,451.3],[1009.3,436.7],[1006.2,440.5],[1015.2,435.4],[1003.6,436.3],[1017.2,429.6],[1018.4,413.9],[1018.1,424.3],[1020.1,428.1],[1016.3,439.4],[1019.9,456],[1027.3,477.6],[1040.7,483.7],[1040.7,483.7],[1043.1,476.8],[1069,479.9],[1065.7,477.8],[1068,472.8],[1068.9,461.4],[1068.9,461.4],[1083,458.1],[1094.4,449.1],[1104,438.4],[1081.8,425.4],[1075.3,416.4],[1074.3,408],[1061.5,409.3],[1074,403.7],[1093.5,410.6],[1100.1,420.9],[1101,420.3],[1103.7,429],[1103.7,429],[1098.2,435.8],[1098.2,435.8],[1111.9,447.9],[1118.6,453.6],[1122.6,476.4],[1122.6,476.4],[1132.6,477.1],[1132.6,477.1],[1120.3,473.3],[1120.3,473.3],[1096.9,489.1],[1096.9,489.1],[1091.5,494.3],[1082.1,508.6],[1068.8,516.1],[1064.1,517.5],[1036.2,515.5],[1005.1,505.6],[974.7,495.5],[960.4,483.6],[950.9,483],[952.9,494.6],[959,495.3],[985.2,516.1],[1016.6,539.1],[1029.6,562.6],[1063.3,579.1],[1090.8,606.8],[1119.7,623.9],[1132.5,642.2],[1148.2,663.5],[1142.8,646.5],[1143.3,628.5],[1141.2,583],[1085.9,550.6],[1078.9,510.5],[1063.6,501.9],[1072.8,461.2],[1055.3,446.5],[1055.3,446.5],[1065.1,413.1],[1051.8,399.6],[1056.8,360.2],[1041.5,376.6],[998.7,385.6],[1008.8,386.6],[1047.4,398.8],[1081.1,392.2],[1054.4,418.5],[1059.8,430.6],[1032.9,462.8],[1037.7,477],[1022.9,518.2],[1013.3,522.7],[1023.8,537.2],[1025.5,552.2],[994,570.9],[973.3,578.1],[971.9,580.4],[974.9,585.7],[968.8,582.3],[962.7,578.9],[978.8,583.3],[994.9,587.7],[1007.9,583.4],[1026,569.2],[1047.9,563.2],[1069.8,557.2],[1085.5,554.1],[1094.1,547.7],[1118.3,558.1],[1132,567.2],[1129.7,566.3],[1105.7,560.7],[1086.8,565.2],[1069.2,575],[1043.2,591.4],[1017.2,607.8],[1006,615.2],[994.8,622.6],[974.3,622.5],[964.3,623.7],[951.7,622.6],[960.8,626.2],[970,629.3],[981.8,635.4],[973.3,624.1],[964.8,612.8],[963.4,634.2],[962,655.6],[964.3,700.4],[978.9,748.8],[1026.4,799.9],[1051.8,850.7],[1081.2,900.3],[1082.1,932.3],[1099.4,974.9],[1103.7,1004.9]]","[0,0.151169218]","[0.151169218,0.151169218]","[-0.151169218,-0.151169218]","[-0.151169218,0]","[0,-0.151169218]","[0.151169218,-0.151169218]","[0,0]","[0.151169218,0]",0,0,0,0,1,4,Smartphone,11,5,13,9
,,,,,,,,,,,,,,,,,,,,06,001,2024-12-03_10h48.45.514,Attention_exp_legacy,2023.1.0,Win32,59.88023952,,,,,,,,,,[0.15833333333333333],[0.16111111111111112],[1],[0],[0],[1.5345000000000013],"[""Option2_label""]",Option2_label,2,2.5464,"[[0.003125,0.1259259259259259],[0.003125,0.1259259259259259],[0.003125,0.1259259259259259],[0.003125,0.1259259259259259],[0.003125,0.1259259259259259],[0.003125,0.1259259259259259],[0.003125,0.1259259259259259],[0.003125,0.1259259259259259],[0.003125,0.1259259259259259],[0.003125,0.1259259259259259],[0.003125,0.1259259259259259],[0.003125,0.1259259259259259],[0.003125,0.1259259259259259],[0.003125,0.1259259259259259],[0.003125,0.1259259259259259],[0.003125,0.1259259259259259],[0.003125,0.1259259259259259],[0.003125,0.1259259259259259],[0.003125,0.1259259259259259],[0.003125,0.1259259259259259],[0.003125,0.1259259259259259],[0.003125,0.1259259259259259],[0.003125,0.1259259259259259],[0.003125,0.1259259259259259],[0.003125,0.1259259259259259],[0.003125,0.1259259259259259],[0.003125,0.1259259259259259],[0.003125,0.1259259259259259],[0.003125,0.1259259259259259],[0.003125,0.1259259259259259],[0.003125,0.1259259259259259],[0.003125,0.1259259259259259],[0.003125,0.1259259259259259],[0.003125,0.1259259259259259],[0.003125,0.1259259259259259],[0.003125,0.1259259259259259],[0.003125,0.1259259259259259],[0.003125,0.1259259259259259],[0.003125,0.1259259259259259],[0.003125,0.1259259259259259],[0.003125,0.1259259259259259],[0.003125,0.1259259259259259],[0.003125,0.1259259259259259],[0.003125,0.1259259259259259],[0.003125,0.1259259259259259],[0.003125,0.1259259259259259],[0.003125,0.1259259259259259],[0.003125,0.1259259259259259],[0.003125,0.1259259259259259],[0.003125,0.1259259259259259],[0.003125,0.1259259259259259],[0.003125,0.1259259259259259],[0.003125,0.1259259259259259],[0.003125,0.1259259259259259],[0.003125,0.1259259259259259],[0.003125,0.1259259259259259],[0.003125,0.12777777777777777],[0.009375,0.12777777777777777],[0.021875,0.13333333333333333],[0.03854166666666667,0.13703703703703704],[0.057291666666666664,0.1425925925925926],[0.07291666666666667,0.14444444444444443],[0.08854166666666667,0.14814814814814814],[0.103125,0.1537037037037037],[0.12395833333333334,0.15555555555555556],[0.13020833333333334,0.15555555555555556],[0.1375,0.1574074074074074],[0.14375,0.1574074074074074],[0.15,0.15925925925925927],[0.153125,0.16111111111111112],[0.15625,0.16111111111111112],[0.15729166666666666,0.16111111111111112],[0.15833333333333333,0.16111111111111112],[0.15833333333333333,0.16111111111111112],[0.15833333333333333,0.16111111111111112],[0.15833333333333333,0.16111111111111112],[0.15833333333333333,0.16111111111111112],[0.15833333333333333,0.16111111111111112],[0.15833333333333333,0.16111111111111112],[0.15833333333333333,0.16111111111111112],[0.15833333333333333,0.16111111111111112],[0.15833333333333333,0.16111111111111112],[0.15833333333333333,0.16111111111111112],[0.15833333333333333,0.16111111111111112],[0.15833333333333333,0.16111111111111112],[0.15833333333333333,0.16111111111111112],[0.15833333333333333,0.16111111111111112],[0.15833333333333333,0.16111111111111112],[0.15833333333333333,0.16111111111111112],[0.15833333333333333,0.16111111111111112],[0.15833333333333333,0.16111111111111112],[0.15833333333333333,0.16111111111111112],[0.15833333333333333,0.16111111111111112],[0.15833333333333333,0.16111111111111112],[0.15833333333333333,0.16111111111111112],[0.15833333333333333,0.16111111111111112],[0.15833333333333333,0.16111111111111112],[0.15833333333333333,0.16111111111111112],[0.15833333333333333,0.16111111111111112],[0.15833333333333333,0.16111111111111112],[0.15833333333333333,0.16111111111111112],[0.15833333333333333,0.16111111111111112],[0.15833333333333333,0.16111111111111112],[0.15833333333333333,0.16111111111111112],[0.15833333333333333,0.16111111111111112],[0.15833333333333333,0.16111111111111112],[0.15833333333333333,0.16111111111111112],[0.15833333333333333,0.16111111111111112],[0.15833333333333333,0.16111111111111112],[0.15833333333333333,0.16111111111111112],[0.15833333333333333,0.16111111111111112],[0.15833333333333333,0.16111111111111112],[0.15833333333333333,0.16111111111111112],[0.15833333333333333,0.16111111111111112],[0.15833333333333333,0.16111111111111112],[0.15833333333333333,0.16111111111111112],[0.15833333333333333,0.16111111111111112],[0.15833333333333333,0.16111111111111112],[0.15833333333333333,0.16111111111111112],[0.15833333333333333,0.16111111111111112],[0.15833333333333333,0.16111111111111112],[0.15833333333333333,0.16111111111111112],[0.15833333333333333,0.16111111111111112],[0.15833333333333333,0.16111111111111112],[0.15833333333333333,0.16111111111111112],[0.15833333333333333,0.16111111111111112],[0.15833333333333333,0.16111111111111112],[0.15833333333333333,0.16111111111111112],[0.15833333333333333,0.16111111111111112],[0.15833333333333333,0.16111111111111112],[0.15833333333333333,0.16111111111111112],[0.15833333333333333,0.16111111111111112],[0.15833333333333333,0.16111111111111112],[0.15833333333333333,0.16111111111111112],[0.15833333333333333,0.16111111111111112],[0.15729166666666666,0.16111111111111112],[0.15729166666666666,0.16111111111111112],[0.15625,0.16111111111111112],[0.15625,0.16111111111111112],[0.15625,0.16111111111111112],[0.15520833333333334,0.16111111111111112],[0.15520833333333334,0.16111111111111112],[0.15520833333333334,0.16111111111111112],[0.15520833333333334,0.16111111111111112],[0.15520833333333334,0.16111111111111112],[0.15520833333333334,0.16111111111111112],[0.15520833333333334,0.16111111111111112],[0.15520833333333334,0.16111111111111112],[0.15520833333333334,0.16111111111111112],[0.15520833333333334,0.16111111111111112],[0.15520833333333334,0.16111111111111112],[0.15520833333333334,0.16111111111111112],[0.15416666666666667,0.16111111111111112],[0.15416666666666667,0.16111111111111112]]","[[-0.03229166666666667,0.005185185185185101],[-0.03791666666666664,-0.017592592592592594],[-0.04354166666666662,-0.040370370370370286],[-0.051145833333333356,-0.058333333333333334],[-0.051145833333333356,-0.058333333333333334],[-0.058437500000000024,-0.06833333333333329],[-0.07479166666666662,-0.05351851851851848],[-0.07541666666666665,-0.08277777777777776],[-0.08166666666666664,-0.10907407407407403],[-0.09395833333333338,-0.12240740740740745],[-0.07854166666666665,-0.10499999999999998],[-0.07281249999999997,-0.10907407407407403],[-0.07687499999999996,-0.10129629629629627],[-0.06760416666666665,-0.0948148148148148],[-0.0546875,-0.07685185185185185],[-0.03572916666666662,-0.046296296296296294],[-0.009375,-0.038703703703703664],[-0.0021875000000000236,-0.012962962962962963],[0.004999999999999952,0.012777777777777735],[0.016458333333333287,0.014629629629629588],[0.02333333333333331,0.004444444444444402],[0.036562500000000026,0.016111111111111194],[0.036562500000000026,0.016111111111111194],[0.07062499999999995,0.02833333333333325],[0.08510416666666672,0.027962962962963005],[0.08072916666666667,0.025370370370370456],[0.07000000000000005,0.0022222222222223064],[0.06291666666666665,-0.020370370370370372],[0.06333333333333328,-0.003333333333333249],[0.06239583333333331,-0.005000000000000084],[0.06531250000000005,0.013703703703703662],[0.050520833333333334,0.03537037037037041],[0.029375000000000047,0.03518518518518519],[0.014895833333333285,0.06185185185185181],[0.028541666666666642,0.19666666666666674],[0.07010416666666662,0.325],[0.11583333333333339,0.44370370370370377],[0.14197916666666663,0.5651851851851852],[0.14197916666666663,0.6672222222222222],[0.16458333333333333,0.7864814814814816],[0.18229166666666666,0.900740740740741],[0.1977083333333333,1.0142592592592594],[0.21302083333333333,1.1222222222222222],[0.21447916666666675,1.1727777777777777],[0.19406249999999994,1.1290740740740741],[0.16802083333333329,1.0614814814814815],[0.16802083333333329,1.0614814814814815],[0.1330208333333334,1.0257407407407408],[0.10729166666666666,0.9659259259259257],[0.09729166666666676,0.8896296296296295],[0.06604166666666664,0.8148148148148148],[0.041562499999999974,0.7368518518518518],[0.02791666666666662,0.6305555555555555],[0.03270833333333331,0.5318518518518519],[0.04468749999999998,0.4637037037037037],[0.03916666666666669,0.4203703703703704],[0.030208333333333334,0.40962962962962973],[0.0390625,0.33481481481481473],[0.046875,0.2625925925925925],[0.059791666666666646,0.20666666666666672],[0.09427083333333333,0.19222222222222213],[0.12614583333333323,0.1727777777777777],[0.1538541666666667,0.18111111111111103],[0.1478125000000001,0.16648148148148145],[0.1478125000000001,0.16648148148148145],[0.15072916666666672,0.1301851851851851],[0.16218750000000004,0.08055555555555556],[0.17333333333333342,0.010740740740740657],[0.17312500000000006,-0.008148148148148106],[0.1915625000000001,-0.010370370370370412],[0.21427083333333338,0.005000000000000084],[0.1787499999999999,-0.03851851851851843],[0.14322916666666666,-0.08203703703703706],[0.12708333333333333,-0.12833333333333335],[0.12635416666666663,-0.1537037037037037],[0.11010416666666671,-0.1824074074074074],[0.11010416666666671,-0.1824074074074074],[0.10281250000000004,-0.22259259259259256],[0.0865624999999999,-0.22870370370370371],[0.05281250000000005,-0.2485185185185185],[0.008124999999999953,-0.2668518518518519],[-0.03354166666666671,-0.29814814814814816],[-0.03354166666666671,-0.29814814814814816],[-0.03093750000000005,-0.2846296296296296],[-0.03093750000000005,-0.2846296296296296],[-0.03989583333333328,-0.2916666666666667],[-0.03989583333333328,-0.2916666666666667],[-0.07479166666666662,-0.30166666666666664],[-0.07479166666666662,-0.30166666666666664],[-0.10010416666666669,-0.30481481481481487],[-0.10010416666666669,-0.30481481481481487],[-0.13145833333333337,-0.29444444444444445],[-0.13697916666666668,-0.25999999999999995],[-0.13697916666666668,-0.25999999999999995],[-0.14260416666666664,-0.23185185185185184],[-0.1358333333333333,-0.22870370370370371],[-0.1219791666666667,-0.22592592592592592],[-0.10677083333333333,-0.21888888888888886],[-0.09958333333333336,-0.22870370370370371],[-0.09770833333333329,-0.20870370370370367],[-0.08739583333333331,-0.17907407407407405],[-0.06625000000000002,-0.17925925925925928],[-0.03250000000000005,-0.16796296296296295],[-0.02364583333333338,-0.17166666666666663],[-0.005416666666666714,-0.182962962962963],[0.020729166666666642,-0.16370370370370366],[0.034375,-0.14481481481481479],[0.03937499999999995,-0.13481481481481483],[0.028854166666666715,-0.15166666666666662],[0.035208333333333286,-0.17777777777777778],[0.03968750000000002,-0.20777777777777776],[0.03802083333333333,-0.2044444444444444],[0.036354166666666646,-0.20111111111111116],[0.04458333333333329,-0.19759259259259257],[0.051145833333333356,-0.2044444444444444],[0.06083333333333331,-0.19944444444444442],[0.07593750000000009,-0.19370370370370374],[0.07531249999999995,-0.20870370370370367],[0.09041666666666662,-0.1559259259259259],[0.10958333333333338,-0.15314814814814812],[0.13947916666666677,-0.11351851851851855],[0.134375,-0.10685185185185184],[0.12927083333333325,-0.10018518518518522],[0.12708333333333333,-0.06148148148148146],[0.12708333333333333,-0.06148148148148146],[0.1390625,-0.01648148148148144],[0.13156249999999994,-0.014259259259259343],[0.12781250000000005,0.020185185185185143],[0.13020833333333334,0.0787037037037037],[0.13354166666666673,0.06833333333333329],[0.11593749999999996,0.09759259259259268],[0.09770833333333329,0.08351851851851856],[0.07114583333333328,0.08537037037037042],[0.04458333333333329,0.08722222222222227],[0.004270833333333357,0.0477777777777777],[-0.017812500000000023,0.01722222222222214],[-0.016458333333333287,0.01777777777777782],[-0.004062499999999977,0.018703703703703747],[0.015208333333333357,-0.03685185185185181],[0.011979166666666667,-0.052222222222222205],[0.03333333333333333,-0.0301851851851851],[0.04479166666666667,-0.03851851851851843],[0.0853125000000001,-0.0485185185185186],[0.13541666666666666,-0.05129629629629638],[0.18218750000000009,-0.09129629629629632],[0.19322916666666667,-0.09425925925925922],[0.1970833333333334,-0.11370370370370367],[0.1736458333333334,-0.1824074074074074],[0.15291666666666662,-0.19796296296296292],[0.15281250000000005,-0.21648148148148144],[0.13958333333333334,-0.24407407407407408],[0.13385416666666666,-0.22999999999999998],[0.11635416666666672,-0.19000000000000003],[0.11302083333333333,-0.2146296296296296]]","[[-0.03229166666666667,0.005185185185185101,0],[-0.03791666666666664,-0.017592592592592594,0.015799999997014424],[-0.04354166666666662,-0.040370370370370286,0.030000000000001137],[-0.051145833333333356,-0.058333333333333334,0.046799999997020336],[-0.051145833333333356,-0.058333333333333334,0.06309999999403715],[-0.058437500000000024,-0.06833333333333329,0.07979999999701448],[-0.07479166666666662,-0.05351851851851848,0.09640000000595705],[-0.07541666666666665,-0.08277777777777776,0.11299999999999955],[-0.08166666666666664,-0.10907407407407403,0.12959999999403493],[-0.09395833333333338,-0.12240740740740745,0.14640000000596132],[-0.07854166666666665,-0.10499999999999998,0.16309999999403857],[-0.07281249999999997,-0.10907407407407403,0.1795999999940392],[-0.07687499999999996,-0.10129629629629627,0.19629999999701653],[-0.06760416666666665,-0.0948148148148148,0.21309999999403573],[-0.0546875,-0.07685185185185185,0.22959999999403635],[-0.03572916666666662,-0.046296296296296294,0.24640000000595563],[-0.009375,-0.038703703703703664,0.26340000000595865],[-0.0021875000000000236,-0.012962962962962963,0.27970000000297546],[0.004999999999999952,0.012777777777777735,0.29629999999701795],[0.016458333333333287,0.014629629629629588,0.3129999999999953],[0.02333333333333331,0.004444444444444402,0.3295999999940378],[0.036562500000000026,0.016111111111111194,0.34640000000595705],[0.036562500000000026,0.016111111111111194,0.3629000000059577],[0.07062499999999995,0.02833333333333325,0.3797000000029769],[0.08510416666666672,0.027962962962963005,0.39629999999701937],[0.08072916666666667,0.025370370370370456,0.4129999999999967],[0.07000000000000005,0.0022222222222223064,0.42970000000298114],[0.06291666666666665,-0.020370370370370372,0.4462999999970165],[0.06333333333333328,-0.003333333333333249,0.4629000000059591],[0.06239583333333331,-0.005000000000000084,0.47959999999403635],[0.06531250000000005,0.013703703703703662,0.4962000000029789],[0.050520833333333334,0.03537037037037041,0.5129999999999981],[0.029375000000000047,0.03518518518518519,0.5295999999940406],[0.014895833333333285,0.06185185185185181,0.546299999997018],[0.028541666666666642,0.19666666666666674,0.5637000000029815],[0.07010416666666662,0.325,0.5797000000029797],[0.11583333333333339,0.44370370370370377,0.5962999999970151],[0.14197916666666663,0.5651851851851852,0.6129999999999995],[0.14197916666666663,0.6672222222222222,0.6295999999940349],[0.16458333333333333,0.7864814814814816,0.6462999999970194],[0.18229166666666666,0.900740740740741,0.6629999999999967],[0.1977083333333333,1.0142592592592594,0.6797000000029811],[0.21302083333333333,1.1222222222222222,0.6962999999970165],[0.21447916666666675,1.1727777777777777,0.713000000000001],[0.19406249999999994,1.1290740740740741,0.7297999999970202],[0.16802083333333329,1.0614814814814815,0.7464000000059556],[0.16802083333333329,1.0614814814814815,0.7629000000059563],[0.1330208333333334,1.0257407407407408,0.7797000000029755],[0.10729166666666666,0.9659259259259257,0.7969000000059552],[0.09729166666666676,0.8896296296296295,0.8129999999999953],[0.06604166666666664,0.8148148148148148,0.8295999999940378],[0.041562499999999974,0.7368518518518518,0.8467000000029756],[0.02791666666666662,0.6305555555555555,0.8655999999940391],[0.03270833333333331,0.5318518518518519,0.8797000000029769],[0.04468749999999998,0.4637037037037037,0.8962999999970194],[0.03916666666666669,0.4203703703703704,0.9129999999999967],[0.030208333333333334,0.40962962962962973,0.9324000000059556],[0.0390625,0.33481481481481473,0.9465999999940351],[0.046875,0.2625925925925925,0.9632000000029777],[0.059791666666666646,0.20666666666666672,0.9832000000029808],[0.09427083333333333,0.19222222222222213,0.9977999999970208],[0.12614583333333323,0.1727777777777777,1.0132000000029748],[0.1538541666666667,0.18111111111111103,1.0297000000029755],[0.1478125000000001,0.16648148148148145,1.0552999999970183],[0.1478125000000001,0.16648148148148145,1.063200000002979],[0.15072916666666672,0.1301851851851851,1.0799000000059564],[0.16218750000000004,0.08055555555555556,1.096499999999999],[0.17333333333333342,0.010740740740740657,1.1162999999970182],[0.17312500000000006,-0.008148148148148106,1.131099999994035],[0.1915625000000001,-0.010370370370370412,1.146599999994038],[0.21427083333333338,0.005000000000000084,1.1664000000059573],[0.1787499999999999,-0.03851851851851843,1.1799999999999997],[0.14322916666666666,-0.08203703703703706,1.1969000000059609],[0.12708333333333333,-0.12833333333333335,1.212900000005959],[0.12635416666666663,-0.1537037037037037,1.2295999999940364],[0.11010416666666671,-0.1824074074074074,1.2464999999999975],[0.11010416666666671,-0.1824074074074074,1.2697999999970193],[0.10281250000000004,-0.22259259259259256,1.2797000000029755],[0.0865624999999999,-0.22870370370370371,1.296299999997018],[0.05281250000000005,-0.2485185185185185,1.3129999999999953],[0.008124999999999953,-0.2668518518518519,1.3295999999940378],[-0.03354166666666671,-0.29814814814814816,1.346400000005957],[-0.03354166666666671,-0.29814814814814816,1.3629000000059577],[-0.03093750000000005,-0.2846296296296296,1.3797000000029769],[-0.03093750000000005,-0.2846296296296296,1.3962999999970194],[-0.03989583333333328,-0.2916666666666667,1.4129999999999967],[-0.03989583333333328,-0.2916666666666667,1.4295999999940392],[-0.07479166666666662,-0.30166666666666664,1.4464000000059585],[-0.07479166666666662,-0.30166666666666664,1.463000000000001],[-0.10010416666666669,-0.30481481481481487,1.4797000000029783],[-0.10010416666666669,-0.30481481481481487,1.4962999999970208],[-0.13145833333333337,-0.29444444444444445,1.5129000000059563],[-0.13697916666666668,-0.25999999999999995,1.5352999999970152],[-0.13697916666666668,-0.25999999999999995,1.546299999997018],[-0.14260416666666664,-0.23185185185185184,1.5630999999940371],[-0.1358333333333333,-0.22870370370370371,1.5795999999940378],[-0.1219791666666667,-0.22592592592592592,1.5962000000029803],[-0.10677083333333333,-0.21888888888888886,1.6129999999999995],[-0.09958333333333336,-0.22870370370370371,1.629599999994035],[-0.09770833333333329,-0.20870370370370367,1.6464000000059613],[-0.08739583333333331,-0.17907407407407405,1.6662000000029806],[-0.06625000000000002,-0.17925925925925928,1.6795999999940392],[-0.03250000000000005,-0.16796296296296295,1.6962999999970165],[-0.02364583333333338,-0.17166666666666663,1.712900000005959],[-0.005416666666666714,-0.182962962962963,1.7295999999940364],[0.020729166666666642,-0.16370370370370366,1.7462999999970208],[0.034375,-0.14481481481481479,1.7632999999970167],[0.03937499999999995,-0.13481481481481483,1.7797000000029755],[0.028854166666666715,-0.15166666666666662,1.796299999997018],[0.035208333333333286,-0.17777777777777778,1.8130999999940371],[0.03968750000000002,-0.20777777777777776,1.8297000000029797],[0.03802083333333333,-0.2044444444444444,1.846299999997015],[0.036354166666666646,-0.20111111111111116,1.8629000000059577],[0.04458333333333329,-0.19759259259259257,1.8799999999999955],[0.051145833333333356,-0.2044444444444444,1.8962999999970194],[0.06083333333333331,-0.19944444444444442,1.9129999999999967],[0.07593750000000009,-0.19370370370370374,1.9297000000029811],[0.07531249999999995,-0.20870370370370367,1.9469000000059609],[0.09041666666666662,-0.1559259259259259,1.962900000005959],[0.10958333333333338,-0.15314814814814812,1.9795999999940364],[0.13947916666666677,-0.11351851851851855,1.996200000002979],[0.134375,-0.10685185185185184,2.012999999999998],[0.12927083333333325,-0.10018518518518522,2.0295999999940406],[0.12708333333333333,-0.06148148148148146,2.0494999999999948],[0.12708333333333333,-0.06148148148148146,2.0629999999999953],[0.1390625,-0.01648148148148144,2.0795999999940378],[0.13156249999999994,-0.014259259259259343,2.09879999999702],[0.12781250000000005,0.020185185185185143,2.1129000000059577],[0.13020833333333334,0.0787037037037037,2.129700000002977],[0.13354166666666673,0.06833333333333329,2.1469999999999985],[0.11593749999999996,0.09759259259259268,2.1630999999940386],[0.09770833333333329,0.08351851851851856,2.179599999994039],[0.07114583333333328,0.08537037037037042,2.1962999999970165],[0.04458333333333329,0.08722222222222227,2.213000000000001],[0.004270833333333357,0.0477777777777777,2.22979999999702],[-0.017812500000000023,0.01722222222222214,2.2502000000029767],[-0.016458333333333287,0.01777777777777782,2.266299999997017],[-0.004062499999999977,0.018703703703703747,2.2810999999940407],[0.015208333333333357,-0.03685185185185181,2.296299999997018],[0.011979166666666667,-0.052222222222222205,2.3129000000059605],[0.03333333333333333,-0.0301851851851851,2.3322000000029774],[0.04479166666666667,-0.03851851851851843,2.346299999997015],[0.0853125000000001,-0.0485185185185186,2.3647000000029763],[0.13541666666666666,-0.05129629629629638,2.3797999999970187],[0.18218750000000009,-0.09129629629629632,2.3962000000029775],[0.19322916666666667,-0.09425925925925922,2.4129999999999967],[0.1970833333333334,-0.11370370370370367,2.4299999999999997],[0.1736458333333334,-0.1824074074074074,2.4469999999999956],[0.15291666666666662,-0.19796296296296292,2.462900000005959],[0.15281250000000005,-0.21648148148148144,2.4795000000000016],[0.13958333333333334,-0.24407407407407408,2.496200000002979],[0.13385416666666666,-0.22999999999999998,2.51309999999404],[0.11635416666666672,-0.19000000000000003,2.5322000000029803],[0.11302083333333333,-0.2146296296296296,2.54640000000596]]","[0,0.015799999997014424,0.030000000000001137,0.046799999997020336,0.06309999999403715,0.07979999999701448,0.09640000000595705,0.11299999999999955,0.12959999999403493,0.14640000000596132,0.16309999999403857,0.1795999999940392,0.19629999999701653,0.21309999999403573,0.22959999999403635,0.24640000000595563,0.26340000000595865,0.27970000000297546,0.29629999999701795,0.3129999999999953,0.3295999999940378,0.34640000000595705,0.3629000000059577,0.3797000000029769,0.39629999999701937,0.4129999999999967,0.42970000000298114,0.4462999999970165,0.4629000000059591,0.47959999999403635,0.4962000000029789,0.5129999999999981,0.5295999999940406,0.546299999997018,0.5637000000029815,0.5797000000029797,0.5962999999970151,0.6129999999999995,0.6295999999940349,0.6462999999970194,0.6629999999999967,0.6797000000029811,0.6962999999970165,0.713000000000001,0.7297999999970202,0.7464000000059556,0.7629000000059563,0.7797000000029755,0.7969000000059552,0.8129999999999953,0.8295999999940378,0.8467000000029756,0.8655999999940391,0.8797000000029769,0.8962999999970194,0.9129999999999967,0.9324000000059556,0.9465999999940351,0.9632000000029777,0.9832000000029808,0.9977999999970208,1.0132000000029748,1.0297000000029755,1.0552999999970183,1.063200000002979,1.0799000000059564,1.096499999999999,1.1162999999970182,1.131099999994035,1.146599999994038,1.1664000000059573,1.1799999999999997,1.1969000000059609,1.212900000005959,1.2295999999940364,1.2464999999999975,1.2697999999970193,1.2797000000029755,1.296299999997018,1.3129999999999953,1.3295999999940378,1.346400000005957,1.3629000000059577,1.3797000000029769,1.3962999999970194,1.4129999999999967,1.4295999999940392,1.4464000000059585,1.463000000000001,1.4797000000029783,1.4962999999970208,1.5129000000059563,1.5352999999970152,1.546299999997018,1.5630999999940371,1.5795999999940378,1.5962000000029803,1.6129999999999995,1.629599999994035,1.6464000000059613,1.6662000000029806,1.6795999999940392,1.6962999999970165,1.712900000005959,1.7295999999940364,1.7462999999970208,1.7632999999970167,1.7797000000029755,1.796299999997018,1.8130999999940371,1.8297000000029797,1.846299999997015,1.8629000000059577,1.8799999999999955,1.8962999999970194,1.9129999999999967,1.9297000000029811,1.9469000000059609,1.962900000005959,1.9795999999940364,1.996200000002979,2.012999999999998,2.0295999999940406,2.0494999999999948,2.0629999999999953,2.0795999999940378,2.09879999999702,2.1129000000059577,2.129700000002977,2.1469999999999985,2.1630999999940386,2.179599999994039,2.1962999999970165,2.213000000000001,2.22979999999702,2.2502000000029767,2.266299999997017,2.2810999999940407,2.296299999997018,2.3129000000059605,2.3322000000029774,2.346299999997015,2.3647000000029763,2.3797999999970187,2.3962000000029775,2.4129999999999967,2.4299999999999997,2.4469999999999956,2.462900000005959,2.4795000000000016,2.496200000002979,2.51309999999404,2.5322000000029803,2.54640000000596]","[1733194167183,1733194167198,1733194167212,1733194167229,1733194167245,1733194167262,1733194167278,1733194167295,1733194167311,1733194167328,1733194167345,1733194167361,1733194167378,1733194167395,1733194167411,1733194167428,1733194167445,1733194167461,1733194167478,1733194167495,1733194167511,1733194167528,1733194167545,1733194167562,1733194167578,1733194167595,1733194167611,1733194167628,1733194167645,1733194167661,1733194167678,1733194167695,1733194167711,1733194167728,1733194167745,1733194167761,1733194167778,1733194167795,1733194167811,1733194167828,1733194167845,1733194167861,1733194167878,1733194167895,1733194167912,1733194167928,1733194167945,1733194167961,1733194167979,1733194167995,1733194168011,1733194168028,1733194168047,1733194168061,1733194168078,1733194168095,1733194168114,1733194168128,1733194168145,1733194168165,1733194168180,1733194168195,1733194168211,1733194168237,1733194168245,1733194168262,1733194168278,1733194168298,1733194168313,1733194168328,1733194168348,1733194168362,1733194168379,1733194168395,1733194168411,1733194168429,1733194168452,1733194168461,1733194168478,1733194168495,1733194168511,1733194168528,1733194168545,1733194168561,1733194168578,1733194168595,1733194168611,1733194168628,1733194168645,1733194168661,1733194168678,1733194168695,1733194168717,1733194168728,1733194168745,1733194168761,1733194168778,1733194168795,1733194168811,1733194168828,1733194168848,1733194168861,1733194168878,1733194168895,1733194168911,1733194168928,1733194168945,1733194168961,1733194168978,1733194168995,1733194169011,1733194169028,1733194169045,1733194169062,1733194169078,1733194169095,1733194169111,1733194169129,1733194169145,1733194169161,1733194169178,1733194169195,1733194169211,1733194169231,1733194169245,1733194169261,1733194169281,1733194169295,1733194169312,1733194169329,1733194169345,1733194169361,1733194169378,1733194169395,1733194169412,1733194169432,1733194169448,1733194169463,1733194169478,1733194169495,1733194169514,1733194169528,1733194169546,1733194169562,1733194169578,1733194169595,1733194169612,1733194169629,1733194169645,1733194169661,1733194169679,1733194169696,1733194169715,1733194169730]","[[929,542.8],[923.6,530.5],[918.2,518.2],[910.9,508.5],[910.9,508.5],[903.9,503.1],[888.2,511.1],[887.6,495.3],[881.6,481.1],[869.8,473.9],[884.6,483.3],[890.1,481.1],[886.2,485.3],[895.1,488.8],[907.5,498.5],[925.7,515],[951,519.1],[957.9,533],[964.8,546.9],[975.8,547.9],[982.4,542.4],[995.1,548.7],[995.1,548.7],[1027.8,555.3],[1041.7,555.1],[1037.5,553.7],[1027.2,541.2],[1020.4,529],[1020.8,538.2],[1019.9,537.3],[1022.7,547.4],[1008.5,559.1],[988.2,559],[974.3,573.4],[987.4,646.2],[1027.3,715.5],[1071.2,779.6],[1096.3,845.2],[1096.3,900.3],[1118,964.7],[1135,1026.4],[1149.8,1087.7],[1164.5,1146],[1165.9,1173.3],[1146.3,1149.7],[1121.3,1113.2],[1121.3,1113.2],[1087.7,1093.9],[1063,1061.6],[1053.4,1020.4],[1023.4,980],[999.9,937.9],[986.8,880.5],[991.4,827.2],[1002.9,790.4],[997.6,767],[989,761.2],[997.5,720.8],[1005,681.8],[1017.4,651.6],[1050.5,643.8],[1081.1,633.3],[1107.7,637.8],[1101.9,629.9],[1101.9,629.9],[1104.7,610.3],[1115.7,583.5],[1126.4,545.8],[1126.2,535.6],[1143.9,534.4],[1165.7,542.7],[1131.6,519.2],[1097.5,495.7],[1082,470.7],[1081.3,457],[1065.7,441.5],[1065.7,441.5],[1058.7,419.8],[1043.1,416.5],[1010.7,405.8],[967.8,395.9],[927.8,379],[927.8,379],[930.3,386.3],[930.3,386.3],[921.7,382.5],[921.7,382.5],[888.2,377.1],[888.2,377.1],[863.9,375.4],[863.9,375.4],[833.8,381],[828.5,399.6],[828.5,399.6],[823.1,414.8],[829.6,416.5],[842.9,418],[857.5,421.8],[864.4,416.5],[866.2,427.3],[876.1,443.3],[896.4,443.2],[928.8,449.3],[937.3,447.3],[954.8,441.2],[979.9,451.6],[993,461.8],[997.8,467.2],[987.7,458.1],[993.8,444],[998.1,427.8],[996.5,429.6],[994.9,431.4],[1002.8,433.3],[1009.1,429.6],[1018.4,432.3],[1032.9,435.4],[1032.3,427.3],[1046.8,455.8],[1065.2,457.3],[1093.9,478.7],[1089,482.3],[1084.1,485.9],[1082,506.8],[1082,506.8],[1093.5,531.1],[1086.3,532.3],[1082.7,550.9],[1085,582.5],[1088.2,576.9],[1071.3,592.7],[1053.8,585.1],[1028.3,586.1],[1002.8,587.1],[964.1,565.8],[942.9,549.3],[944.2,549.6],[956.1,550.1],[974.6,520.1],[971.5,511.8],[992,523.7],[1003,519.2],[1041.9,513.8],[1090,512.3],[1134.9,490.7],[1145.5,489.1],[1149.2,478.6],[1126.7,441.5],[1106.8,433.1],[1106.7,423.1],[1094,408.2],[1088.5,415.8],[1071.7,437.4],[1068.5,424.1]]","[0,0.151169218]","[0.151169218,0.151169218]","[-0.151169218,-0.151169218]","[-0.151169218,0]","[0,-0.151169218]","[0.151169218,-0.151169218]","[0,0]","[0.151169218,0]",0,1,1,1,1,4,Smartphone,5,1,13,7
,,,,,,,,,,,,,,,,,,,,06,001,2024-12-03_10h48.45.514,Attention_exp_legacy,2023.1.0,Win32,59.88023952,,,,,,,,,,[-0.015625],[0.12407407407407407],[1],[0],[0],[1.4307999999970207],"[""Option1_label""]",Option1_label,3,2.4462,"[[0.14583333333333334,0.1537037037037037],[0.14583333333333334,0.1537037037037037],[0.14583333333333334,0.1537037037037037],[0.14583333333333334,0.1537037037037037],[0.14583333333333334,0.1537037037037037],[0.14583333333333334,0.1537037037037037],[0.14479166666666668,0.15185185185185185],[0.14479166666666668,0.15185185185185185],[0.14479166666666668,0.15185185185185185],[0.14479166666666668,0.15185185185185185],[0.14479166666666668,0.15185185185185185],[0.14479166666666668,0.15185185185185185],[0.14479166666666668,0.15185185185185185],[0.14479166666666668,0.15185185185185185],[0.14479166666666668,0.15185185185185185],[0.14479166666666668,0.15185185185185185],[0.14479166666666668,0.15185185185185185],[0.14479166666666668,0.15185185185185185],[0.14479166666666668,0.15185185185185185],[0.14479166666666668,0.15185185185185185],[0.14479166666666668,0.15185185185185185],[0.14479166666666668,0.15185185185185185],[0.14479166666666668,0.15185185185185185],[0.14479166666666668,0.15185185185185185],[0.14479166666666668,0.15185185185185185],[0.14479166666666668,0.15],[0.14479166666666668,0.15],[0.14479166666666668,0.15],[0.14479166666666668,0.15],[0.14479166666666668,0.15],[0.14479166666666668,0.15],[0.14479166666666668,0.15],[0.14479166666666668,0.15],[0.14479166666666668,0.15],[0.14479166666666668,0.15],[0.14479166666666668,0.15],[0.14479166666666668,0.15],[0.14479166666666668,0.15],[0.14479166666666668,0.15],[0.14479166666666668,0.15],[0.14479166666666668,0.15],[0.14479166666666668,0.15],[0.14479166666666668,0.15],[0.14479166666666668,0.15],[0.14479166666666668,0.15],[0.14479166666666668,0.15],[0.14479166666666668,0.15],[0.14479166666666668,0.15],[0.14479166666666668,0.15],[0.14479166666666668,0.15],[0.14479166666666668,0.15],[0.14479166666666668,0.15],[0.14479166666666668,0.15],[0.14479166666666668,0.15],[0.14479166666666668,0.15],[0.14479166666666668,0.15],[0.14479166666666668,0.15],[0.14479166666666668,0.15],[0.14479166666666668,0.15],[0.14479166666666668,0.15],[0.14479166666666668,0.15],[0.14479166666666668,0.15],[0.14479166666666668,0.15],[0.14479166666666668,0.15],[0.14479166666666668,0.15],[0.14479166666666668,0.15],[0.140625,0.14814814814814814],[0.128125,0.14444444444444443],[0.11145833333333334,0.14444444444444443],[0.08854166666666667,0.1388888888888889],[0.071875,0.1388888888888889],[0.05625,0.13703703703703704],[0.04479166666666667,0.13518518518518519],[0.03854166666666667,0.13333333333333333],[0.03333333333333333,0.13333333333333333],[0.03125,0.13148148148148148],[0.026041666666666668,0.13148148148148148],[0.015625,0.13148148148148148],[0.008333333333333333,0.13148148148148148],[0.0010416666666666667,0.13148148148148148],[-0.005208333333333333,0.12777777777777777],[-0.011458333333333333,0.1259259259259259],[-0.013541666666666667,0.1259259259259259],[-0.015625,0.12407407407407407],[-0.015625,0.12407407407407407],[-0.015625,0.12407407407407407],[-0.015625,0.12407407407407407],[-0.015625,0.12407407407407407],[-0.015625,0.12407407407407407],[-0.015625,0.12407407407407407],[-0.015625,0.12407407407407407],[-0.015625,0.12407407407407407],[-0.015625,0.12407407407407407],[-0.015625,0.12407407407407407],[-0.015625,0.12407407407407407],[-0.015625,0.12407407407407407],[-0.015625,0.12407407407407407],[-0.015625,0.12407407407407407],[-0.015625,0.12407407407407407],[-0.015625,0.12407407407407407],[-0.015625,0.12407407407407407],[-0.015625,0.12407407407407407],[-0.015625,0.12407407407407407],[-0.015625,0.12407407407407407],[-0.015625,0.12407407407407407],[-0.015625,0.12407407407407407],[-0.015625,0.12407407407407407],[-0.015625,0.12407407407407407],[-0.015625,0.12407407407407407],[-0.015625,0.12407407407407407],[-0.015625,0.12407407407407407],[-0.015625,0.12407407407407407],[-0.015625,0.12407407407407407],[-0.015625,0.12407407407407407],[-0.015625,0.12407407407407407],[-0.015625,0.12407407407407407],[-0.015625,0.12407407407407407],[-0.015625,0.12407407407407407],[-0.015625,0.12407407407407407],[-0.015625,0.12407407407407407],[-0.015625,0.12407407407407407],[-0.015625,0.12407407407407407],[-0.015625,0.12407407407407407],[-0.015625,0.12407407407407407],[-0.015625,0.12407407407407407],[-0.015625,0.12407407407407407],[-0.015625,0.12407407407407407],[-0.015625,0.12407407407407407],[-0.015625,0.12407407407407407],[-0.015625,0.12407407407407407],[-0.015625,0.12407407407407407],[-0.015625,0.12407407407407407],[-0.015625,0.12407407407407407],[-0.015625,0.12407407407407407],[-0.015625,0.12407407407407407],[-0.015625,0.12407407407407407],[-0.015625,0.12407407407407407],[-0.015625,0.12407407407407407],[-0.015625,0.12407407407407407],[-0.015625,0.12407407407407407],[-0.015625,0.12407407407407407],[-0.015625,0.12407407407407407],[-0.015625,0.12407407407407407],[-0.015625,0.12407407407407407],[-0.015625,0.12407407407407407],[-0.015625,0.12407407407407407],[-0.015625,0.12407407407407407],[-0.015625,0.12407407407407407]]","[[0.01906249999999995,-0.1551851851851852],[0.018437500000000048,-0.16074074074074077],[0.017604166666666643,-0.16277777777777774],[0.015416666666666618,-0.18222222222222217],[0.008020833333333382,-0.17796296296296302],[0.01229166666666662,-0.13962962962962958],[0.016562499999999977,-0.10129629629629627],[0.041875000000000044,-0.07185185185185188],[0.03343750000000002,-0.06870370370370374],[0.06895833333333339,-0.04685185185185177],[0.07895833333333328,-0.029814814814814856],[0.09718749999999995,0.01796296296296305],[0.12229166666666676,0.02907407407407416],[0.13666666666666671,0.06351851851851843],[0.14989583333333342,0.0985185185185186],[0.16739583333333338,0.10240740740740732],[0.18489583333333334,0.10629629629629625],[0.2025000000000001,0.1359259259259259],[0.2165625000000001,0.1675925925925926],[0.21354166666666666,0.18518518518518517],[0.19979166666666662,0.19574074074074083],[0.19166666666666668,0.17018518518518513],[0.17927083333333324,0.15777777777777785],[0.16802083333333329,0.169074074074074],[0.15791666666666657,0.17981481481481484],[0.13864583333333325,0.1772222222222223],[0.13489583333333333,0.13499999999999995],[0.14854166666666657,0.13407407407407404],[0.18916666666666657,0.1411111111111112],[0.1984375,0.16740740740740737],[0.1984375,0.16740740740740737],[0.2022916666666667,0.2037037037037037],[0.20770833333333344,0.18351851851851855],[0.22385416666666677,0.18425925925925926],[0.24208333333333343,0.15018518518518523],[0.28885416666666663,0.17888888888888893],[0.33541666666666664,0.26185185185185184],[0.36593749999999997,0.3794444444444444],[0.3549999999999999,0.4714814814814815],[0.3178124999999999,0.5581481481481481],[0.3172916666666666,0.6390740740740741],[0.3367708333333333,0.637962962962963],[0.35010416666666655,0.7075925925925927],[0.35489583333333335,0.7955555555555556],[0.3507291666666667,0.8779629629629631],[0.34229166666666655,0.8825925925925926],[0.34322916666666664,0.8462962962962963],[0.3367708333333333,0.8275925925925925],[0.35354166666666675,0.7979629629629629],[0.36958333333333326,0.7225925925925927],[0.36843750000000003,0.6462962962962963],[0.35177083333333337,0.706111111111111],[0.35125000000000006,0.7162962962962962],[0.3551041666666668,0.6918518518518519],[0.35989583333333336,0.6722222222222223],[0.33624999999999994,0.6651851851851853],[0.2930208333333333,0.6535185185185185],[0.3006249999999999,0.6274074074074073],[0.3076041666666666,0.600925925925926],[0.2882291666666667,0.5992592592592593],[0.28312499999999996,0.606851851851852],[0.27760416666666665,0.556111111111111],[0.26375000000000004,0.48481481481481475],[0.25447916666666665,0.43925925925925935],[0.23947916666666677,0.3875925925925925],[0.21979166666666666,0.331111111111111],[0.2196875000000001,0.27925925925925915],[0.18395833333333325,0.1948148148148149],[0.14885416666666676,0.11074074074074065],[0.14072916666666657,0.11740740740740736],[0.13552083333333323,0.11574074074074074],[0.12604166666666666,0.05944444444444449],[0.11875,0.038703703703703664],[0.09854166666666657,0.027407407407407325],[0.08677083333333328,-0.012592592592592508],[0.10625,-0.03370370370370379],[0.12572916666666673,-0.05481481481481486],[0.10458333333333343,-0.019259259259259216],[0.10458333333333343,-0.019259259259259216],[0.0896874999999999,-0.014629629629629588],[0.08645833333333333,-0.05537037037037033],[0.07687499999999996,-0.07629629629629628],[0.06864583333333343,-0.07962962962962963],[0.07083333333333333,-0.09796296296296292],[0.07218749999999995,-0.13259259259259262],[0.06958333333333329,-0.12925925925925927],[0.028750000000000022,-0.1690740740740741],[-0.0109375,-0.20870370370370367],[-0.018437500000000048,-0.2707407407407407],[-0.007187499999999976,-0.28407407407407403],[-0.007500000000000047,-0.3218518518518519],[-0.007500000000000047,-0.3218518518518519],[-0.012187500000000047,-0.3727777777777778],[-0.02635416666666662,-0.4014814814814815],[-0.050937499999999976,-0.41518518518518516],[-0.057291666666666664,-0.37092592592592594],[-0.05437500000000005,-0.3290740740740741],[-0.01260416666666669,-0.28574074074074074],[0.02802083333333331,-0.24259259259259258],[0.049374999999999974,-0.16629629629629633],[0.044375000000000026,-0.11074074074074076],[0.04385416666666669,-0.06351851851851854],[0.05927083333333331,-0.014814814814814815],[0.08937499999999995,0.04092592592592597],[0.1234375,0.09944444444444453],[0.1326041666666666,0.10333333333333325],[0.14354166666666662,0.1037037037037037],[0.1349999999999999,0.14037037037037028],[0.12645833333333342,0.17703703703703708],[0.13812499999999991,0.17851851851851847],[0.13812499999999991,0.17851851851851847],[0.14333333333333323,0.20259259259259255],[0.14333333333333323,0.20259259259259255],[0.14406249999999995,0.23499999999999996],[0.14406249999999995,0.23499999999999996],[0.1478125000000001,0.20092592592592592],[0.1478125000000001,0.20092592592592592],[0.13072916666666667,0.18259259259259264],[0.13072916666666667,0.18259259259259264],[0.10770833333333343,0.1883333333333334],[0.10718750000000009,0.14722222222222223],[0.11395833333333343,0.1235185185185186],[0.1171875,0.09351851851851851],[0.09770833333333329,0.0485185185185186],[0.07843749999999995,0.005740740740740783],[0.07312500000000005,-0.009814814814814731],[0.07312500000000005,-0.05092592592592592],[0.0678124999999999,-0.005555555555555556],[0.08239583333333324,0.026111111111111154],[0.09937500000000009,0.026666666666666623],[0.10052083333333334,0.07074074074074083],[0.09572916666666677,0.09296296296296305],[0.07239583333333334,0.06703703703703712],[0.07604166666666666,0.05907407407407403],[0.08927083333333338,0.10722222222222218],[0.09718749999999995,0.11648148148148144],[0.10177083333333338,0.14092592592592595],[0.09927083333333328,0.13129629629629624],[0.09708333333333338,0.1198148148148149],[0.08375000000000009,0.1257407407407407],[0.07041666666666657,0.1316666666666667],[0.06333333333333328,0.13537037037037042],[0.07427083333333329,0.18777777777777774],[0.07364583333333338,0.24055555555555552],[0.06343749999999998,0.23722222222222225],[0.051770833333333384,0.22444444444444453],[0.04010416666666667,0.21907407407407398],[0.034166666666666616,0.22444444444444453]]","[[0.01906249999999995,-0.1551851851851852,0],[0.018437500000000048,-0.16074074074074077,0.015399999991053903],[0.017604166666666643,-0.16277777777777774,0.02949999999999875],[0.015416666666666618,-0.18222222222222217,0.04620000000297608],[0.008020833333333382,-0.17796296296296302,0.06289999999105333],[0.01229166666666662,-0.13962962962962958,0.07959999999403777],[0.016562499999999977,-0.10129629629629627,0.0988999999910547],[0.041875000000000044,-0.07185185185185188,0.11279999999701573],[0.03343750000000002,-0.06870370370370374,0.12959999999403493],[0.06895833333333339,-0.04685185185185177,0.14609999999403556],[0.07895833333333328,-0.029814814814814856,0.16289999999105476],[0.09718749999999995,0.01796296296296305,0.1795999999940392],[0.12229166666666676,0.02907407407407416,0.19620000000297466],[0.13666666666666671,0.06351851851851843,0.21289999999105902],[0.14989583333333342,0.0985185185185186,0.22959999999403635],[0.16739583333333338,0.10240740740740732,0.24620000000297892],[0.18489583333333334,0.10629629629629625,0.2628999999910562],[0.2025000000000001,0.1359259259259259,0.2795999999940335],[0.2165625000000001,0.1675925925925926,0.29699999999999704],[0.21354166666666666,0.18518518518518517,0.31289999999105333],[0.19979166666666662,0.19574074074074083,0.3294999999999959],[0.19166666666666668,0.17018518518518513,0.3462999999970151],[0.17927083333333324,0.15777777777777785,0.3628999999910576],[0.16802083333333329,0.169074074074074,0.37959999999403493],[0.15791666666666657,0.17981481481481484,0.3962000000029775],[0.13864583333333325,0.1772222222222223,0.41520000000297586],[0.13489583333333333,0.13499999999999995,0.42949999999999733],[0.14854166666666657,0.13407407407407404,0.44620000000297466],[0.18916666666666657,0.1411111111111112,0.46279999999701715],[0.1984375,0.16740740740740737,0.4798999999910549],[0.1984375,0.16740740740740737,0.4962999999970137],[0.2022916666666667,0.2037037037037037,0.5129999999999981],[0.20770833333333344,0.18351851851851855,0.5295999999940335],[0.22385416666666677,0.18425925925925926,0.546299999997018],[0.24208333333333343,0.15018518518518523,0.5628999999910533],[0.28885416666666663,0.17888888888888893,0.5795999999940378],[0.33541666666666664,0.26185185185185184,0.5987999999970199],[0.36593749999999997,0.3794444444444444,0.6128999999910576],[0.3549999999999999,0.4714814814814815,0.6295999999940349],[0.3178124999999999,0.5581481481481481,0.6462999999970194],[0.3172916666666666,0.6390740740740741,0.6628999999910548],[0.3367708333333333,0.637962962962963,0.6802000000029764],[0.35010416666666655,0.7075925925925927,0.6962000000029747],[0.35489583333333335,0.7955555555555556,0.7127999999970172],[0.3507291666666667,0.8779629629629631,0.7295999999940364],[0.34229166666666655,0.8825925925925926,0.746099999994037],[0.34322916666666664,0.8462962962962963,0.7628999999910562],[0.3367708333333333,0.8275925925925925,0.7795999999940335],[0.35354166666666675,0.7979629629629629,0.7982999999970133],[0.36958333333333326,0.7225925925925927,0.8128999999910533],[0.36843750000000003,0.6462962962962963,0.8294999999999959],[0.35177083333333337,0.706111111111111,0.8462000000029803],[0.35125000000000006,0.7162962962962962,0.8628999999910576],[0.3551041666666668,0.6918518518518519,0.8795999999940349],[0.35989583333333336,0.6722222222222223,0.8962000000029775],[0.33624999999999994,0.6651851851851853,0.9128999999910548],[0.2930208333333333,0.6535185185185185,0.9295999999940392],[0.3006249999999999,0.6274074074074073,0.9462999999970165],[0.3076041666666666,0.600925925925926,0.9627999999970172],[0.2882291666666667,0.5992592592592593,0.9800999999940387],[0.28312499999999996,0.606851851851852,0.9962000000029789],[0.27760416666666665,0.556111111111111,1.0128999999910562],[0.26375000000000004,0.48481481481481475,1.0295999999940335],[0.25447916666666665,0.43925925925925935,1.046200000002976],[0.23947916666666677,0.3875925925925925,1.0628999999910533],[0.21979166666666666,0.331111111111111,1.0795999999940378],[0.2196875000000001,0.27925925925925915,1.1007000000029805],[0.18395833333333325,0.1948148148148149,1.1142999999970158],[0.14885416666666676,0.11074074074074065,1.1297999999970187],[0.14072916666666657,0.11740740740740736,1.1463999999910541],[0.13552083333333323,0.11574074074074074,1.1667999999970178],[0.12604166666666666,0.05944444444444449,1.182799999997016],[0.11875,0.038703703703703664,1.1983999999910537],[0.09854166666666657,0.027407407407407325,1.212899999991059],[0.08677083333333328,-0.012592592592592508,1.2330999999940389],[0.10625,-0.03370370370370379,1.247599999994037],[0.12572916666666673,-0.05481481481481486,1.2629999999999981],[0.10458333333333343,-0.019259259259259216,1.283999999999999],[0.10458333333333343,-0.019259259259259216,1.2963999999910527],[0.0896874999999999,-0.014629629629629588,1.313200000002979],[0.08645833333333333,-0.05537037037037033,1.3297000000029797],[0.07687499999999996,-0.07629629629629628,1.3484999999999943],[0.06864583333333343,-0.07962962962962963,1.3629999999999995],[0.07083333333333333,-0.09796296296296292,1.3798999999910535],[0.07218749999999995,-0.13259259259259262,1.3962000000029775],[0.06958333333333329,-0.12925925925925927,1.4129999999999967],[0.028750000000000022,-0.1690740740740741,1.431299999997016],[-0.0109375,-0.20870370370370367,1.4460999999940398],[-0.018437500000000048,-0.2707407407407407,1.4627999999970172],[-0.007187499999999976,-0.28407407407407403,1.4799999999999969],[-0.007500000000000047,-0.3218518518518519,1.4997000000029743],[-0.007500000000000047,-0.3218518518518519,1.5129999999999981],[-0.012187500000000047,-0.3727777777777778,1.5295999999940335],[-0.02635416666666662,-0.4014814814814815,1.546200000002976],[-0.050937499999999976,-0.41518518518518516,1.5628999999910533],[-0.057291666666666664,-0.37092592592592594,1.5795999999940378],[-0.05437500000000005,-0.3290740740740741,1.596299999997015],[-0.01260416666666669,-0.28574074074074074,1.6128999999910576],[0.02802083333333331,-0.24259259259259258,1.6310000000000002],[0.049374999999999974,-0.16629629629629633,1.6462000000029775],[0.044375000000000026,-0.11074074074074076,1.6628999999910548],[0.04385416666666669,-0.06351851851851854,1.6830999999940346],[0.05927083333333331,-0.014814814814814815,1.6987000000029795],[0.08937499999999995,0.04092592592592597,1.7129999999999939],[0.1234375,0.09944444444444453,1.7294999999999945],[0.1326041666666666,0.10333333333333325,1.746799999997016],[0.14354166666666662,0.1037037037037037,1.7627999999970143],[0.1349999999999999,0.14037037037037028,1.7795999999940335],[0.12645833333333342,0.17703703703703708,1.796299999997018],[0.13812499999999991,0.17851851851851847,1.8173999999910535],[0.13812499999999991,0.17851851851851847,1.8295999999940378],[0.14333333333333323,0.20259259259259255,1.846299999997015],[0.14333333333333323,0.20259259259259255,1.8627999999970157],[0.14406249999999995,0.23499999999999996,1.879599999994035],[0.14406249999999995,0.23499999999999996,1.8962000000029775],[0.1478125000000001,0.20092592592592592,1.9128999999910548],[0.1478125000000001,0.20092592592592592,1.9295999999940392],[0.13072916666666667,0.18259259259259264,1.9463999999910584],[0.13072916666666667,0.18259259259259264,1.962899999991059],[0.10770833333333343,0.1883333333333334,1.9795999999940364],[0.10718750000000009,0.14722222222222223,1.9997000000029743],[0.11395833333333343,0.1235185185185186,2.012899999991056],[0.1171875,0.09351851851851851,2.0294999999999987],[0.09770833333333329,0.0485185185185186,2.046299999997018],[0.07843749999999995,0.005740740740740783,2.0627999999970186],[0.07312500000000005,-0.009814814814814731,2.0803999999910587],[0.07312500000000005,-0.05092592592592592,2.0962000000029803],[0.0678124999999999,-0.005555555555555556,2.1128999999910576],[0.08239583333333324,0.026111111111111154,2.129599999994035],[0.09937500000000009,0.026666666666666623,2.1462000000029775],[0.10052083333333334,0.07074074074074083,2.1628999999910548],[0.09572916666666677,0.09296296296296305,2.1794999999999973],[0.07239583333333334,0.06703703703703712,2.1962000000029747],[0.07604166666666666,0.05907407407407403,2.212899999991059],[0.08927083333333338,0.10722222222222218,2.2294999999999945],[0.09718749999999995,0.11648148148148144,2.246200000002979],[0.10177083333333338,0.14092592592592595,2.2634999999999934],[0.09927083333333328,0.13129629629629624,2.2795999999940335],[0.09708333333333338,0.1198148148148149,2.296200000002976],[0.08375000000000009,0.1257407407407407,2.3127999999970186],[0.07041666666666657,0.1316666666666667,2.329499999999996],[0.06333333333333328,0.13537037037037042,2.3462000000029803],[0.07427083333333329,0.18777777777777774,2.3628999999910576],[0.07364583333333338,0.24055555555555552,2.379599999994035],[0.06343749999999998,0.23722222222222225,2.3960999999940356],[0.051770833333333384,0.22444444444444453,2.4128999999910548],[0.04010416666666667,0.21907407407407398,2.4294999999999973],[0.034166666666666616,0.22444444444444453,2.4462000000029747]]","[0,0.015399999991053903,0.02949999999999875,0.04620000000297608,0.06289999999105333,0.07959999999403777,0.0988999999910547,0.11279999999701573,0.12959999999403493,0.14609999999403556,0.16289999999105476,0.1795999999940392,0.19620000000297466,0.21289999999105902,0.22959999999403635,0.24620000000297892,0.2628999999910562,0.2795999999940335,0.29699999999999704,0.31289999999105333,0.3294999999999959,0.3462999999970151,0.3628999999910576,0.37959999999403493,0.3962000000029775,0.41520000000297586,0.42949999999999733,0.44620000000297466,0.46279999999701715,0.4798999999910549,0.4962999999970137,0.5129999999999981,0.5295999999940335,0.546299999997018,0.5628999999910533,0.5795999999940378,0.5987999999970199,0.6128999999910576,0.6295999999940349,0.6462999999970194,0.6628999999910548,0.6802000000029764,0.6962000000029747,0.7127999999970172,0.7295999999940364,0.746099999994037,0.7628999999910562,0.7795999999940335,0.7982999999970133,0.8128999999910533,0.8294999999999959,0.8462000000029803,0.8628999999910576,0.8795999999940349,0.8962000000029775,0.9128999999910548,0.9295999999940392,0.9462999999970165,0.9627999999970172,0.9800999999940387,0.9962000000029789,1.0128999999910562,1.0295999999940335,1.046200000002976,1.0628999999910533,1.0795999999940378,1.1007000000029805,1.1142999999970158,1.1297999999970187,1.1463999999910541,1.1667999999970178,1.182799999997016,1.1983999999910537,1.212899999991059,1.2330999999940389,1.247599999994037,1.2629999999999981,1.283999999999999,1.2963999999910527,1.313200000002979,1.3297000000029797,1.3484999999999943,1.3629999999999995,1.3798999999910535,1.3962000000029775,1.4129999999999967,1.431299999997016,1.4460999999940398,1.4627999999970172,1.4799999999999969,1.4997000000029743,1.5129999999999981,1.5295999999940335,1.546200000002976,1.5628999999910533,1.5795999999940378,1.596299999997015,1.6128999999910576,1.6310000000000002,1.6462000000029775,1.6628999999910548,1.6830999999940346,1.6987000000029795,1.7129999999999939,1.7294999999999945,1.746799999997016,1.7627999999970143,1.7795999999940335,1.796299999997018,1.8173999999910535,1.8295999999940378,1.846299999997015,1.8627999999970157,1.879599999994035,1.8962000000029775,1.9128999999910548,1.9295999999940392,1.9463999999910584,1.962899999991059,1.9795999999940364,1.9997000000029743,2.012899999991056,2.0294999999999987,2.046299999997018,2.0627999999970186,2.0803999999910587,2.0962000000029803,2.1128999999910576,2.129599999994035,2.1462000000029775,2.1628999999910548,2.1794999999999973,2.1962000000029747,2.212899999991059,2.2294999999999945,2.246200000002979,2.2634999999999934,2.2795999999940335,2.296200000002976,2.3127999999970186,2.329499999999996,2.3462000000029803,2.3628999999910576,2.379599999994035,2.3960999999940356,2.4128999999910548,2.4294999999999973,2.4462000000029747]","[1733194170750,1733194170765,1733194170779,1733194170796,1733194170813,1733194170829,1733194170849,1733194170863,1733194170879,1733194170896,1733194170913,1733194170930,1733194170946,1733194170963,1733194170979,1733194170996,1733194171013,1733194171030,1733194171047,1733194171063,1733194171079,1733194171096,1733194171113,1733194171129,1733194171146,1733194171165,1733194171179,1733194171196,1733194171213,1733194171230,1733194171246,1733194171263,1733194171279,1733194171296,1733194171313,1733194171329,1733194171349,1733194171363,1733194171379,1733194171396,1733194171413,1733194171430,1733194171446,1733194171463,1733194171479,1733194171496,1733194171513,1733194171529,1733194171548,1733194171563,1733194171579,1733194171596,1733194171613,1733194171629,1733194171646,1733194171663,1733194171679,1733194171696,1733194171713,1733194171730,1733194171746,1733194171763,1733194171779,1733194171796,1733194171813,1733194171830,1733194171851,1733194171864,1733194171880,1733194171896,1733194171917,1733194171933,1733194171948,1733194171963,1733194171983,1733194171998,1733194172013,1733194172034,1733194172046,1733194172063,1733194172080,1733194172098,1733194172113,1733194172130,1733194172146,1733194172163,1733194172181,1733194172196,1733194172213,1733194172230,1733194172250,1733194172263,1733194172279,1733194172296,1733194172313,1733194172329,1733194172346,1733194172363,1733194172381,1733194172396,1733194172413,1733194172433,1733194172449,1733194172463,1733194172479,1733194172497,1733194172513,1733194172529,1733194172546,1733194172567,1733194172579,1733194172596,1733194172613,1733194172629,1733194172646,1733194172663,1733194172679,1733194172696,1733194172713,1733194172730,1733194172750,1733194172763,1733194172779,1733194172796,1733194172813,1733194172830,1733194172846,1733194172863,1733194172879,1733194172896,1733194172913,1733194172929,1733194172946,1733194172963,1733194172979,1733194172996,1733194173013,1733194173030,1733194173046,1733194173063,1733194173079,1733194173096,1733194173113,1733194173129,1733194173146,1733194173163,1733194173179,1733194173196]","[[978.3,456.2],[977.7,453.2],[976.9,452.1],[974.8,441.6],[967.7,443.9],[971.8,464.6],[975.9,485.3],[1000.2,501.2],[992.1,502.9],[1026.2,514.7],[1035.8,523.9],[1053.3,549.7],[1077.4,555.7],[1091.2,574.3],[1103.9,593.2],[1120.7,595.3],[1137.5,597.4],[1154.4,613.4],[1167.9,630.5],[1165,640],[1151.8,645.7],[1144,631.9],[1132.1,625.2],[1121.3,631.3],[1111.6,637.1],[1093.1,635.7],[1089.5,612.9],[1102.6,612.4],[1141.6,616.2],[1150.5,630.4],[1150.5,630.4],[1154.2,650],[1159.4,639.1],[1174.9,639.5],[1192.4,621.1],[1237.3,636.6],[1282,681.4],[1311.3,744.9],[1300.8,794.6],[1265.1,841.4],[1264.6,885.1],[1283.3,884.5],[1296.1,922.1],[1300.7,969.6],[1296.7,1014.1],[1288.6,1016.6],[1289.5,997],[1283.3,986.9],[1299.4,970.9],[1314.8,930.2],[1313.7,889],[1297.7,921.3],[1297.2,926.8],[1300.9,913.6],[1305.5,903],[1282.8,899.2],[1241.3,892.9],[1248.6,878.8],[1255.3,864.5],[1236.7,863.6],[1231.8,867.7],[1226.5,840.3],[1213.2,801.8],[1204.3,777.2],[1189.9,749.3],[1171,718.8],[1170.9,690.8],[1136.6,645.2],[1102.9,599.8],[1095.1,603.4],[1090.1,602.5],[1081,572.1],[1074,560.9],[1054.6,554.8],[1043.3,533.2],[1062,521.8],[1080.7,510.4],[1060.4,529.6],[1060.4,529.6],[1046.1,532.1],[1043,510.1],[1033.8,498.8],[1025.9,497],[1028,487.1],[1029.3,468.4],[1026.8,470.2],[987.6,448.7],[949.5,427.3],[942.3,393.8],[953.1,386.6],[952.8,366.2],[952.8,366.2],[948.3,338.7],[934.7,323.2],[911.1,315.8],[905,339.7],[907.8,362.3],[947.9,385.7],[986.9,409],[1007.4,450.2],[1002.6,480.2],[1002.1,505.7],[1016.9,532],[1045.8,562.1],[1078.5,593.7],[1087.3,595.8],[1097.8,596],[1089.6,615.8],[1081.4,635.6],[1092.6,636.4],[1092.6,636.4],[1097.6,649.4],[1097.6,649.4],[1098.3,666.9],[1098.3,666.9],[1101.9,648.5],[1101.9,648.5],[1085.5,638.6],[1085.5,638.6],[1063.4,641.7],[1062.9,619.5],[1069.4,606.7],[1072.5,590.5],[1053.8,566.2],[1035.3,543.1],[1030.2,534.7],[1030.2,512.5],[1025.1,537],[1039.1,554.1],[1055.4,554.4],[1056.5,578.2],[1051.9,590.2],[1029.5,576.2],[1033,571.9],[1045.7,597.9],[1053.3,602.9],[1057.7,616.1],[1055.3,610.9],[1053.2,604.7],[1040.4,607.9],[1027.6,611.1],[1020.8,613.1],[1031.3,641.4],[1030.7,669.9],[1020.9,668.1],[1009.7,661.2],[998.5,658.3],[992.8,661.2]]","[0,0.151169218]","[0.151169218,0.151169218]","[-0.151169218,-0.151169218]","[-0.151169218,0]","[0,-0.151169218]","[0.151169218,-0.151169218]","[0,0]","[0.151169218,0]",0,2,2,2,1,4,Smartphone,13,1,15,3
