inst1_resp.keys,inst1_resp.rt,calibrationMouse.x,calibrationMouse.y,calibrationMouse.leftButton,calibrationMouse.midButton,calibrationMouse.rightButton,calibrationClick.x,calibrationClick.y,calibrationClick.leftButton,calibrationClick.midButton,calibrationClick.rightButton,trialsc.thisRepN,trialsc.thisTrialN,trialsc.thisN,trialsc.thisIndex,trialsc.ran,calibration_x,calibration_y,participant,session,date,expName,psychopyVersion,OS,frameRate,calibrationClick.clicked_name,ScreenRes_pixels,Camera_pixels,mouse_2.x,mouse_2.y,mouse_2.leftButton,mouse_2.midButton,mouse_2.rightButton,mouse_2.time,mouse_2.clicked_name,mouse.x,mouse.y,mouse.leftButton,mouse.midButton,mouse.rightButton,mouse.time,mouse.clicked_name,Choice,Trial,TrialDuration,MOUSE_GAZE,ET_GAZE,ET_GAZE_x_T,time,unixTime,ET_GAZE_NF,Loc_Option1_label,Loc_Option2_label,Loc_Cost_label,Loc_Qual_label,Loc_Option1_cost,Loc_Option2_cost,Loc_Option1_quality,Loc_Option2_quality,trials.thisRepN,trials.thisTrialN,trials.thisN,trials.thisIndex,trials.ran,Block,Device,cost1,qual1,cost2,qual2
space,0.9748,0.01875,0.05,1,0,0,0.004166667,0.342592593,1,0,0,0,0,0,12,1,0,0.33,12,001,2024-12-03_10h51.55.298,Attention_exp_legacy,2023.1.0,Win32,59.88023952,,,,,,,,,,,,,,,,,,,,,,,,,,,,,,,,,,,,,,,,,,,,,
,,,,,,,0.329166667,0.325925926,0,0,0,0,1,1,17,1,0.33,0.33,12,001,2024-12-03_10h51.55.298,Attention_exp_legacy,2023.1.0,Win32,59.88023952,,,,,,,,,,,,,,,,,,,,,,,,,,,,,,,,,,,,,,,,,,,,,
,,,,,,,-0.004166667,-0.337037037,1,0,0,0,2,2,10,1,0,-0.33,12,001,2024-12-03_10h51.55.298,Attention_exp_legacy,2023.1.0,Win32,59.88023952,calibration_square,,,,,,,,,,,,,,,,,,,,,,,,,,,,,,,,,,,,,,,,,,,,
,,,,,,,-0.345833333,0.703703704,1,0,0,0,3,3,8,1,-0.33,0.67,12,001,2024-12-03_10h51.55.298,Attention_exp_legacy,2023.1.0,Win32,59.88023952,,,,,,,,,,,,,,,,,,,,,,,,,,,,,,,,,,,,,,,,,,,,,
,,,,,,,0.364583333,0.681481481,1,0,0,0,4,4,18,1,0.33,0.67,12,001,2024-12-03_10h51.55.298,Attention_exp_legacy,2023.1.0,Win32,59.88023952,,,,,,,,,,,,,,,,,,,,,,,,,,,,,,,,,,,,,,,,,,,,,
,,,,,,,0.658333333,-0.661111111,1,0,0,0,5,5,20,1,0.67,-0.67,12,001,2024-12-03_10h51.55.298,Attention_exp_legacy,2023.1.0,Win32,59.88023952,,,,,,,,,,,,,,,,,,,,,,,,,,,,,,,,,,,,,,,,,,,,,
,,,,,,,-0.665625,-0.005555556,1,0,0,0,6,6,2,1,-0.67,0,12,001,2024-12-03_10h51.55.298,Attention_exp_legacy,2023.1.0,Win32,59.88023952,calibration_square,,,,,,,,,,,,,,,,,,,,,,,,,,,,,,,,,,,,,,,,,,,,
,,,,,,,-0.001041667,0.003703704,1,0,0,0,7,7,11,1,0,0,12,001,2024-12-03_10h51.55.298,Attention_exp_legacy,2023.1.0,Win32,59.88023952,calibration_square,,,,,,,,,,,,,,,,,,,,,,,,,,,,,,,,,,,,,,,,,,,,
,,,,,,,0.334375,0,1,0,0,0,8,8,16,1,0.33,0,12,001,2024-12-03_10h51.55.298,Attention_exp_legacy,2023.1.0,Win32,59.88023952,calibration_square,,,,,,,,,,,,,,,,,,,,,,,,,,,,,,,,,,,,,,,,,,,,
,,,,,,,-0.678125,0.325925926,1,0,0,0,9,9,3,1,-0.67,0.33,12,001,2024-12-03_10h51.55.298,Attention_exp_legacy,2023.1.0,Win32,59.88023952,calibration_square,,,,,,,,,,,,,,,,,,,,,,,,,,,,,,,,,,,,,,,,,,,,
,,,,,,,-0.31875,-0.318518519,1,0,0,0,10,10,5,1,-0.33,-0.33,12,001,2024-12-03_10h51.55.298,Attention_exp_legacy,2023.1.0,Win32,59.88023952,,,,,,,,,,,,,,,,,,,,,,,,,,,,,,,,,,,,,,,,,,,,,
,,,,,,,-0.322916667,0.322222222,1,0,0,0,11,11,7,1,-0.33,0.33,12,001,2024-12-03_10h51.55.298,Attention_exp_legacy,2023.1.0,Win32,59.88023952,calibration_square,,,,,,,,,,,,,,,,,,,,,,,,,,,,,,,,,,,,,,,,,,,,
,,,,,,,0.673958333,0.67037037,1,0,0,0,12,12,19,1,0.67,0.67,12,001,2024-12-03_10h51.55.298,Attention_exp_legacy,2023.1.0,Win32,59.88023952,calibration_square,,,,,,,,,,,,,,,,,,,,,,,,,,,,,,,,,,,,,,,,,,,,
,,,,,,,0.329166667,-0.327777778,1,0,0,0,13,13,15,1,0.33,-0.33,12,001,2024-12-03_10h51.55.298,Attention_exp_legacy,2023.1.0,Win32,59.88023952,calibration_square,,,,,,,,,,,,,,,,,,,,,,,,,,,,,,,,,,,,,,,,,,,,
,,,,,,,0.004166667,-0.690740741,1,0,0,0,14,14,9,1,0,-0.67,12,001,2024-12-03_10h51.55.298,Attention_exp_legacy,2023.1.0,Win32,59.88023952,,,,,,,,,,,,,,,,,,,,,,,,,,,,,,,,,,,,,,,,,,,,,
,,,,,,,0.011458333,0.677777778,1,0,0,0,15,15,13,1,0,0.67,12,001,2024-12-03_10h51.55.298,Attention_exp_legacy,2023.1.0,Win32,59.88023952,,,,,,,,,,,,,,,,,,,,,,,,,,,,,,,,,,,,,,,,,,,,,
,,,,,,,-0.320833333,0.024074074,1,0,0,0,16,16,6,1,-0.33,0,12,001,2024-12-03_10h51.55.298,Attention_exp_legacy,2023.1.0,Win32,59.88023952,,,,,,,,,,,,,,,,,,,,,,,,,,,,,,,,,,,,,,,,,,,,,
,,,,,,,-0.330208333,-0.67037037,1,0,0,0,17,17,4,1,-0.33,-0.67,12,001,2024-12-03_10h51.55.298,Attention_exp_legacy,2023.1.0,Win32,59.88023952,calibration_square,,,,,,,,,,,,,,,,,,,,,,,,,,,,,,,,,,,,,,,,,,,,
,,,,,,,-0.657291667,-0.372222222,1,0,0,0,18,18,1,1,-0.67,-0.33,12,001,2024-12-03_10h51.55.298,Attention_exp_legacy,2023.1.0,Win32,59.88023952,,,,,,,,,,,,,,,,,,,,,,,,,,,,,,,,,,,,,,,,,,,,,
,,,,,,,0.328125,-0.698148148,1,0,0,0,19,19,14,1,0.33,-0.67,12,001,2024-12-03_10h51.55.298,Attention_exp_legacy,2023.1.0,Win32,59.88023952,,,,,,,,,,,,,,,,,,,,,,,,,,,,,,,,,,,,,,,,,,,,,
,,,,,,,-0.6875,-0.661111111,1,0,0,0,20,20,0,1,-0.67,-0.67,12,001,2024-12-03_10h51.55.298,Attention_exp_legacy,2023.1.0,Win32,59.88023952,,,,,,,,,,,,,,,,,,,,,,,,,,,,,,,,,,,,,,,,,,,,,
,,,,,,,,,,,,,,,,,,,12,001,2024-12-03_10h51.55.298,Attention_exp_legacy,2023.1.0,Win32,59.88023952,,"[1920,1080]","[640,480]",[-0.046875],[-0.48148148148148145],[1],[0],[0],[1.02769999998808],"[""StartButton""]",[0.0625],[0.4222222222222222],[1],[0],[0],[2.619700000002979],"[""Option1_label""]",Option1_label,1,3.6444,"[[0.153125,0.15925925925925927],[0.15104166666666666,0.15555555555555556],[0.15104166666666666,0.15555555555555556],[0.15,0.1537037037037037],[0.14895833333333333,0.1537037037037037],[0.14791666666666667,0.15],[0.14791666666666667,0.15],[0.146875,0.15],[0.146875,0.15],[0.14583333333333334,0.14814814814814814],[0.14583333333333334,0.14814814814814814],[0.14375,0.14444444444444443],[0.14270833333333333,0.14444444444444443],[0.14270833333333333,0.14444444444444443],[0.14166666666666666,0.1425925925925926],[0.140625,0.14074074074074075],[0.13958333333333334,0.13703703703703704],[0.13854166666666667,0.13703703703703704],[0.1375,0.13518518518518519],[0.13645833333333332,0.13333333333333333],[0.134375,0.13148148148148148],[0.134375,0.12962962962962962],[0.134375,0.12962962962962962],[0.13333333333333333,0.12777777777777777],[0.13333333333333333,0.12777777777777777],[0.13229166666666667,0.1259259259259259],[0.13229166666666667,0.1259259259259259],[0.13229166666666667,0.1259259259259259],[0.13125,0.1259259259259259],[0.13125,0.1259259259259259],[0.13125,0.1259259259259259],[0.13125,0.1259259259259259],[0.13125,0.1259259259259259],[0.13125,0.1259259259259259],[0.13125,0.1259259259259259],[0.13125,0.1259259259259259],[0.13125,0.1259259259259259],[0.13125,0.1259259259259259],[0.13125,0.1259259259259259],[0.13125,0.1259259259259259],[0.13125,0.1259259259259259],[0.13125,0.1259259259259259],[0.13125,0.1259259259259259],[0.13125,0.1259259259259259],[0.13125,0.1259259259259259],[0.13125,0.1259259259259259],[0.13125,0.1259259259259259],[0.13125,0.1259259259259259],[0.13125,0.1259259259259259],[0.13125,0.1259259259259259],[0.13125,0.1259259259259259],[0.13125,0.1259259259259259],[0.13125,0.1259259259259259],[0.13125,0.1259259259259259],[0.13125,0.1259259259259259],[0.13125,0.1259259259259259],[0.13125,0.1259259259259259],[0.13125,0.1259259259259259],[0.13125,0.1259259259259259],[0.13125,0.1259259259259259],[0.13125,0.1259259259259259],[0.13125,0.1259259259259259],[0.13125,0.1259259259259259],[0.13125,0.1259259259259259],[0.13125,0.1259259259259259],[0.13125,0.1259259259259259],[0.13125,0.1259259259259259],[0.13125,0.1259259259259259],[0.13125,0.1259259259259259],[0.13125,0.1259259259259259],[0.13125,0.1259259259259259],[0.13125,0.1259259259259259],[0.13125,0.1259259259259259],[0.13125,0.1259259259259259],[0.13125,0.1259259259259259],[0.13125,0.1259259259259259],[0.13125,0.1259259259259259],[0.1375,0.14074074074074075],[0.15625,0.16296296296296298],[0.178125,0.19074074074074074],[0.20104166666666667,0.21296296296296297],[0.21875,0.22777777777777777],[0.23541666666666666,0.24259259259259258],[0.2520833333333333,0.2537037037037037],[0.28020833333333334,0.2759259259259259],[0.2989583333333333,0.28888888888888886],[0.31666666666666665,0.3037037037037037],[0.3333333333333333,0.31666666666666665],[0.3458333333333333,0.32592592592592595],[0.35833333333333334,0.3351851851851852],[0.365625,0.3388888888888889],[0.37083333333333335,0.34444444444444444],[0.37395833333333334,0.34629629629629627],[0.375,0.34814814814814815],[0.378125,0.35],[0.38125,0.35185185185185186],[0.384375,0.35555555555555557],[0.38645833333333335,0.3592592592592593],[0.3875,0.3592592592592593],[0.3875,0.3611111111111111],[0.3885416666666667,0.362962962962963],[0.3885416666666667,0.362962962962963],[0.3885416666666667,0.362962962962963],[0.3885416666666667,0.362962962962963],[0.33645833333333336,0.37592592592592594],[0.25833333333333336,0.3888888888888889],[0.2125,0.3925925925925926],[0.134375,0.40370370370370373],[0.06145833333333333,0.40370370370370373],[0.040625,0.40370370370370373],[0.034375,0.40370370370370373],[0.03333333333333333,0.40370370370370373],[0.03333333333333333,0.40370370370370373],[0.03333333333333333,0.40370370370370373],[0.03333333333333333,0.40370370370370373],[0.03333333333333333,0.40370370370370373],[0.03333333333333333,0.40370370370370373],[0.03333333333333333,0.40370370370370373],[0.03333333333333333,0.40370370370370373],[0.03229166666666667,0.40370370370370373],[0.03229166666666667,0.40370370370370373],[0.03229166666666667,0.40555555555555556],[0.035416666666666666,0.4074074074074074],[0.035416666666666666,0.40925925925925927],[0.03958333333333333,0.40925925925925927],[0.04375,0.412962962962963],[0.052083333333333336,0.4166666666666667],[0.05416666666666667,0.4185185185185185],[0.059375,0.4203703703703704],[0.06145833333333333,0.4222222222222222],[0.0625,0.4222222222222222],[0.0625,0.4222222222222222],[0.0625,0.4222222222222222],[0.0625,0.4222222222222222],[0.0625,0.4222222222222222],[0.0625,0.4222222222222222],[0.0625,0.4222222222222222],[0.0625,0.4222222222222222],[0.0625,0.4222222222222222],[0.0625,0.4222222222222222],[0.0625,0.4222222222222222],[0.0625,0.4222222222222222],[0.0625,0.4222222222222222],[0.0625,0.4222222222222222],[0.0625,0.4222222222222222],[0.0625,0.4222222222222222],[0.0625,0.4222222222222222],[0.0625,0.4222222222222222],[0.0625,0.4222222222222222],[0.0625,0.4222222222222222],[0.0625,0.4222222222222222],[0.0625,0.4222222222222222],[0.0625,0.4222222222222222],[0.0625,0.4222222222222222],[0.0625,0.4222222222222222],[0.0625,0.4222222222222222],[0.0625,0.4222222222222222],[0.0625,0.4222222222222222],[0.0625,0.4222222222222222],[0.0625,0.4222222222222222],[0.0625,0.4222222222222222],[0.0625,0.4222222222222222],[0.0625,0.4222222222222222],[0.0625,0.4222222222222222],[0.0625,0.4222222222222222],[0.0625,0.4222222222222222],[0.0625,0.4222222222222222],[0.0625,0.4222222222222222],[0.0625,0.4222222222222222],[0.0625,0.4222222222222222],[0.0625,0.4222222222222222],[0.0625,0.4222222222222222],[0.0625,0.4222222222222222],[0.0625,0.4222222222222222],[0.0625,0.4222222222222222],[0.0625,0.4222222222222222],[0.0625,0.4222222222222222],[0.0625,0.4222222222222222],[0.0625,0.4222222222222222],[0.0625,0.4222222222222222],[0.0625,0.4222222222222222],[0.0625,0.4222222222222222],[0.0625,0.4222222222222222],[0.0625,0.4222222222222222],[0.0625,0.4222222222222222],[0.0625,0.4222222222222222],[0.0625,0.4222222222222222],[0.0625,0.4222222222222222],[0.0625,0.4222222222222222],[0.0625,0.4222222222222222],[0.0625,0.4222222222222222],[0.0625,0.4222222222222222],[0.0625,0.4222222222222222],[0.0625,0.4222222222222222],[0.0625,0.4222222222222222],[0.0625,0.4222222222222222],[0.0625,0.4222222222222222],[0.0625,0.4222222222222222],[0.0625,0.4222222222222222],[0.0625,0.4222222222222222],[0.0625,0.4222222222222222],[0.0625,0.4222222222222222],[0.0625,0.4222222222222222],[0.0625,0.4222222222222222],[0.0625,0.4222222222222222],[0.0625,0.4222222222222222],[0.0625,0.4222222222222222],[0.0625,0.4222222222222222],[0.0625,0.4222222222222222],[0.0625,0.4222222222222222],[0.0625,0.4222222222222222],[0.0625,0.4222222222222222],[0.0625,0.4222222222222222],[0.0625,0.4222222222222222],[0.0625,0.4222222222222222],[0.0625,0.4222222222222222],[0.0625,0.4222222222222222],[0.0625,0.4222222222222222]]","[[0.15145833333333342,-0.1624074074074074],[0.15145833333333342,-0.1624074074074074],[0.15947916666666656,-0.2],[0.15947916666666656,-0.2],[0.18135416666666657,-0.2390740740740741],[0.18135416666666657,-0.2390740740740741],[0.1993750000000001,-0.23592592592592587],[0.1993750000000001,-0.23592592592592587],[0.20197916666666677,-0.27092592592592596],[0.20197916666666677,-0.27092592592592596],[0.20968749999999994,-0.2801851851851852],[0.19697916666666657,-0.28166666666666673],[0.2117708333333333,-0.3562962962962963],[0.20020833333333338,-0.3181481481481482],[0.20020833333333338,-0.3181481481481482],[0.1977083333333333,-0.2794444444444444],[0.17864583333333334,-0.28851851851851856],[0.18104166666666663,-0.2898148148148148],[0.17927083333333324,-0.24611111111111106],[0.16447916666666676,-0.2544444444444444],[0.16729166666666656,-0.33370370370370367],[0.15833333333333333,-0.3],[0.14406249999999995,-0.2433333333333333],[0.11510416666666666,-0.14648148148148152],[0.11666666666666667,-0.13037037037037033],[0.10541666666666671,-0.1522222222222222],[0.109375,-0.12259259259259257],[0.09958333333333323,-0.08981481481481482],[0.09937500000000009,-0.10277777777777777],[0.10135416666666662,-0.09870370370370372],[0.07958333333333342,0.004074074074074159],[0.07666666666666658,0.03351851851851856],[0.09343750000000005,-0.01722222222222214],[0.10791666666666658,-0.03555555555555564],[0.10822916666666677,-0.10777777777777775],[0.11031250000000009,-0.13851851851851854],[0.11822916666666666,-0.18981481481481483],[0.12989583333333338,-0.25555555555555554],[0.12885416666666671,-0.31370370370370365],[0.1330208333333334,-0.36129629629629634],[0.140625,-0.43555555555555553],[0.1482291666666666,-0.5098148148148148],[0.1408333333333334,-0.5012962962962962],[0.13052083333333328,-0.5224074074074074],[0.12552083333333333,-0.5096296296296297],[0.13177083333333334,-0.4925925925925926],[0.13354166666666673,-0.48222222222222216],[0.12708333333333333,-0.44907407407407407],[0.11166666666666672,-0.42462962962962963],[0.1243750000000001,-0.42296296296296293],[0.12479166666666662,-0.39166666666666666],[0.13802083333333334,-0.3568518518518518],[0.1490624999999999,-0.34518518518518515],[0.18562500000000004,-0.3153703703703704],[0.2263541666666666,-0.2764814814814815],[0.25114583333333323,-0.23481481481481484],[0.2789583333333333,-0.1727777777777778],[0.3193749999999999,-0.13648148148148145],[0.3551041666666668,-0.10592592592592591],[0.37218749999999995,-0.06074074074074076],[0.40125000000000005,-0.05814814814814811],[0.42843749999999997,-0.06851851851851852],[0.44864583333333335,-0.05722222222222218],[0.45197916666666677,-0.06518518518518517],[0.45593750000000005,-0.0787037037037037],[0.47552083333333334,-0.11870370370370374],[0.4704166666666666,-0.18462962962962962],[0.4658333333333334,-0.23629629629629634],[0.4652083333333332,-0.2803703703703703],[0.4652083333333332,-0.2803703703703703],[0.4775000000000001,-0.28185185185185185],[0.4679166666666667,-0.2809259259259259],[0.46604166666666674,-0.2366666666666667],[0.46062500000000006,-0.21370370370370367],[0.4527083333333332,-0.16148148148148145],[0.43770833333333337,-0.14888888888888885],[0.42999999999999994,-0.10759259259259263],[0.42999999999999994,-0.10759259259259263],[0.4025000000000001,-0.07833333333333335],[0.3742708333333333,-0.06481481481481481],[0.3554166666666667,-0.028703703703703703],[0.3171875,-0.017407407407407365],[0.29270833333333335,0.016111111111111194],[0.2625,-0.024074074074074074],[0.22885416666666672,-0.030555555555555555],[0.22885416666666672,-0.030555555555555555],[0.2078125,-0.09851851851851849],[0.18479166666666677,-0.14629629629629629],[0.1506249999999999,-0.19148148148148145],[0.14958333333333323,-0.20574074074074078],[0.1571875000000001,-0.15185185185185185],[0.15489583333333337,-0.18351851851851855],[0.17052083333333337,-0.17333333333333337],[0.1951041666666666,-0.21962962962962967],[0.20197916666666677,-0.23037037037037034],[0.22145833333333323,-0.2796296296296296],[0.20593750000000005,-0.23722222222222225],[0.20260416666666667,-0.22777777777777777],[0.20708333333333329,-0.20537037037037034],[0.21343750000000009,-0.21851851851851853],[0.21218750000000006,-0.29314814814814816],[0.21197916666666666,-0.29907407407407405],[0.20979166666666677,-0.3618518518518518],[0.19083333333333338,-0.3755555555555556],[0.18916666666666657,-0.37907407407407406],[0.2,-0.40185185185185185],[0.19958333333333325,-0.46796296296296297],[0.20114583333333325,-0.5277777777777778],[0.19177083333333325,-0.585],[0.1759375000000001,-0.5622222222222223],[0.1571875000000001,-0.571111111111111],[0.1421875,-0.5648148148148148],[0.10697916666666671,-0.5375925925925926],[0.12864583333333332,-0.5262962962962963],[0.11229166666666662,-0.5294444444444444],[0.0900000000000001,-0.5248148148148147],[0.084375,-0.49444444444444446],[0.08385416666666666,-0.43925925925925924],[0.07072916666666676,-0.39592592592592596],[0.10791666666666658,-0.4168518518518519],[0.10791666666666658,-0.4168518518518519],[0.10656249999999995,-0.4101851851851852],[0.14135416666666673,-0.4064814814814815],[0.14135416666666673,-0.4064814814814815],[0.14177083333333323,-0.4457407407407407],[0.12104166666666671,-0.45555555555555555],[0.10802083333333339,-0.4633333333333333],[0.10802083333333339,-0.4633333333333333],[0.10968749999999995,-0.4698148148148148],[0.10968749999999995,-0.4698148148148148],[0.1171875,-0.5001851851851852],[0.14541666666666658,-0.5164814814814814],[0.1696875000000001,-0.557962962962963],[0.1818749999999999,-0.5735185185185185],[0.23947916666666677,-0.595925925925926],[0.2642708333333334,-0.6372222222222222],[0.31145833333333334,-0.6401851851851852],[0.3400000000000001,-0.6633333333333333],[0.3788541666666667,-0.669074074074074],[0.3922916666666666,-0.6457407407407407],[0.3922916666666666,-0.6457407407407407],[0.3984375,-0.6501851851851852],[0.34052083333333344,-0.6524074074074074],[0.32218749999999996,-0.6562962962962963],[0.2625,-0.6559259259259259],[0.20437500000000006,-0.6574074074074074],[0.1328125,-0.6392592592592592],[0.14010416666666667,-0.6038888888888889],[0.08947916666666676,-0.6081481481481481],[0.07125000000000009,-0.5444444444444444],[0.03125,-0.562037037037037],[0.006979166666666714,-0.5333333333333333],[0.028125,-0.5668518518518519],[0.012187500000000047,-0.5648148148148148],[-0.004375000000000047,-0.5683333333333332],[-0.02833333333333338,-0.5483333333333333],[0.010000000000000024,-0.5696296296296297],[-0.03947916666666664,-0.571111111111111],[-0.009687499999999953,-0.5014814814814815],[-0.025937499999999978,-0.5096296296296297],[0.008333333333333333,-0.4896296296296296],[0.05145833333333331,-0.4674074074074074],[0.08802083333333334,-0.3881481481481482],[0.10822916666666677,-0.3594444444444445],[0.12864583333333332,-0.3357407407407408],[0.13145833333333337,-0.31500000000000006],[0.09302083333333329,-0.2140740740740741],[0.07843749999999995,-0.23537037037037042],[0.07010416666666662,-0.2485185185185185],[0.06052083333333336,-0.27444444444444444],[0.03239583333333336,-0.2594444444444445],[0.02052083333333338,-0.28833333333333333],[-0.050312499999999954,-0.3005555555555556],[-0.06927083333333334,-0.3014814814814815],[-0.07843749999999995,-0.28203703703703703],[-0.0733333333333333,-0.27259259259259255],[-0.07135416666666666,-0.3042592592592593],[-0.07104166666666671,-0.2616666666666667],[-0.07104166666666671,-0.2616666666666667],[-0.09343750000000005,-0.2518518518518518],[-0.10447916666666662,-0.23981481481481481],[-0.11552083333333331,-0.22777777777777777],[-0.15739583333333335,-0.21092592592592588],[-0.1466666666666666,-0.19500000000000003],[-0.14322916666666666,-0.15092592592592594],[-0.15656249999999997,-0.15],[-0.14874999999999997,-0.1581481481481481],[-0.15395833333333328,-0.1935185185185185],[-0.15906250000000005,-0.23648148148148146],[-0.1671875,-0.285],[-0.1658333333333334,-0.27462962962962967],[-0.15135416666666662,-0.25333333333333335],[-0.1304166666666667,-0.24074074074074073],[-0.10427083333333335,-0.2574074074074074],[-0.09833333333333331,-0.31296296296296294],[-0.0702083333333333,-0.3001851851851852],[-0.07552083333333333,-0.2929629629629629],[-0.059583333333333384,-0.2616666666666667],[-0.03791666666666664,-0.22740740740740742],[-0.016250000000000025,-0.19314814814814818],[-0.006562499999999953,-0.22314814814814815],[-0.019895833333333356,-0.2875925925925926],[-0.009687499999999953,-0.3264814814814815],[-0.007187499999999976,-0.33555555555555555],[0,-0.3074074074074074],[0.003125,-0.3248148148148148],[0.01572916666666669,-0.30925925925925923],[0.009375,-0.30777777777777776],[-0.002291666666666714,-0.3479629629629629],[-0.01395833333333331,-0.3881481481481482],[-0.004166666666666667,-0.3787037037037037],[-0.0036458333333333334,-0.3633333333333333],[-0.02052083333333338,-0.37759259259259254],[-0.04593750000000003,-0.4072222222222222],[-0.06270833333333338,-0.41222222222222227],[-0.07947916666666661,-0.4172222222222222],[-0.09322916666666667,-0.44814814814814813],[-0.08645833333333333,-0.45611111111111113]]","[[0.15145833333333342,-0.1624074074074074,0.00039999999106044015],[0.15145833333333342,-0.1624074074074074,0.055999999999997385],[0.15947916666666656,-0.2,0.061099999994034704],[0.15947916666666656,-0.2,0.07799999999999585],[0.18135416666666657,-0.2390740740740741,0.09469999998808021],[0.18135416666666657,-0.2390740740740741,0.11509999999403675],[0.1993750000000001,-0.23592592592592587,0.12769999998807435],[0.1993750000000001,-0.23592592592592587,0.14469999998807737],[0.20197916666666677,-0.27092592592592596,0.161199999988078],[0.20197916666666677,-0.27092592592592596,0.18159999999403453],[0.20968749999999994,-0.2801851851851852,0.19479999999701647],[0.19697916666666657,-0.28166666666666673,0.21329999999701954],[0.2117708333333333,-0.3562962962962963,0.2315999999940388],[0.20020833333333338,-0.3181481481481482,0.24589999999106027],[0.20020833333333338,-0.3181481481481482,0.2611999999880794],[0.1977083333333333,-0.2794444444444444,0.27809999999404056],[0.17864583333333334,-0.28851851851851856,0.29979999999702045],[0.18104166666666663,-0.2898148148148148,0.3152999999970163],[0.17927083333333324,-0.24611111111111106,0.3301999999880749],[0.16447916666666676,-0.2544444444444444,0.34459999999403834],[0.16729166666666656,-0.33370370370370367,0.3634999999999948],[0.15833333333333333,-0.3,0.3780000000000001],[0.14406249999999995,-0.2433333333333333,0.39450000000000074],[0.11510416666666666,-0.14648148148148152,0.4146999999880805],[0.11666666666666667,-0.13037037037037033,0.4292999999970206],[0.10541666666666671,-0.1522222222222222,0.44509999999403504],[0.109375,-0.12259259259259257,0.4612999999970171],[0.09958333333333323,-0.08981481481481482,0.4777999999970177],[0.09937500000000009,-0.10277777777777777,0.49709999999403465],[0.10135416666666662,-0.09870370370370372,0.5138999999910538],[0.07958333333333342,0.004074074074074159,0.5277999999970149],[0.07666666666666658,0.03351851851851856,0.5443999999910574],[0.09343750000000005,-0.01722222222222214,0.563299999997021],[0.10791666666666658,-0.03555555555555564,0.5777999999970191],[0.10822916666666677,-0.10777777777777775,0.5943999999910545],[0.11031250000000009,-0.13851851851851854,0.611099999994039],[0.11822916666666666,-0.18981481481481483,0.6285999999940373],[0.12989583333333338,-0.25555555555555554,0.6445000000000007],[0.12885416666666671,-0.31370370370370365,0.6631999999880804],[0.1330208333333334,-0.36129629629629634,0.6777999999970206],[0.140625,-0.43555555555555553,0.6944999999999979],[0.1482291666666666,-0.5098148148148148,0.7155999999940406],[0.1408333333333334,-0.5012962962962962,0.7315999999940388],[0.13052083333333328,-0.5224074074074074,0.7492999999970209],[0.12552083333333333,-0.5096296296296297,0.7644999999999982],[0.13177083333333334,-0.4925925925925926,0.7798999999910592],[0.13354166666666673,-0.48222222222222216,0.794699999988076],[0.12708333333333333,-0.44907407407407407,0.8110999999940347],[0.11166666666666672,-0.42462962962962963,0.8277999999970191],[0.1243750000000001,-0.42296296296296293,0.8444999999999965],[0.12479166666666662,-0.39166666666666666,0.8638999999910553],[0.13802083333333334,-0.3568518518518518,0.8780000000000001],[0.1490624999999999,-0.34518518518518515,0.8945000000000007],[0.18562500000000004,-0.3153703703703704,0.9112999999970199],[0.2263541666666666,-0.2764814814814815,0.9278999999910553],[0.25114583333333323,-0.23481481481481484,0.9444999999999979],[0.2789583333333333,-0.1727777777777778,0.962899999991059],[0.3193749999999999,-0.13648148148148145,0.9777999999970177],[0.3551041666666668,-0.10592592592592591,0.994499999999995],[0.37218749999999995,-0.06074074074074076,1.0110999999940375],[0.40125000000000005,-0.05814814814814811,1.0277999999970149],[0.42843749999999997,-0.06851851851851852,1.0444999999999993],[0.44864583333333335,-0.05722222222222218,1.0611999999880766],[0.45197916666666677,-0.06518518518518517,1.077899999991054],[0.45593750000000005,-0.0787037037037037,1.0943999999910545],[0.47552083333333334,-0.11870370370370374,1.1111999999880737],[0.4704166666666666,-0.18462962962962962,1.1277999999970163],[0.4658333333333334,-0.23629629629629634,1.146599999994038],[0.4652083333333332,-0.2803703703703703,1.1652999999970177],[0.4652083333333332,-0.2803703703703703,1.180499999999995],[0.4775000000000001,-0.28185185185185185,1.194499999999998],[0.4679166666666667,-0.2809259259259259,1.2109999999999985],[0.46604166666666674,-0.2366666666666667,1.2277999999970177],[0.46062500000000006,-0.21370370370370367,1.244499999999995],[0.4527083333333332,-0.16148148148148145,1.2610999999940375],[0.43770833333333337,-0.14888888888888885,1.2777999999970149],[0.42999999999999994,-0.10759259259259263,1.294799999997018],[0.42999999999999994,-0.10759259259259263,1.3135999999940395],[0.4025000000000001,-0.07833333333333335,1.3279999999999959],[0.3742708333333333,-0.06481481481481481,1.3445999999940383],[0.3554166666666667,-0.028703703703703703,1.3635999999940367],[0.3171875,-0.017407407407407365,1.3780000000000001],[0.29270833333333335,0.016111111111111194,1.3946999999880774],[0.2625,-0.024074074074074074,1.413499999999999],[0.22885416666666672,-0.030555555555555555,1.4279999999999973],[0.22885416666666672,-0.030555555555555555,1.4445999999940398],[0.2078125,-0.09851851851851849,1.4639999999999986],[0.18479166666666677,-0.14629629629629629,1.4779999999999944],[0.1506249999999999,-0.19148148148148145,1.494599999994037],[0.14958333333333323,-0.20574074074074078,1.5136999999880771],[0.1571875000000001,-0.15185185185185185,1.5279999999999987],[0.15489583333333337,-0.18351851851851855,1.544799999997018],[0.17052083333333337,-0.17333333333333337,1.5655000000000001],[0.1951041666666666,-0.21962962962962967,1.5791999999880773],[0.20197916666666677,-0.23037037037037034,1.5945999999940383],[0.22145833333333323,-0.2796296296296296,1.6113999999910575],[0.20593750000000005,-0.23722222222222225,1.6306999999880745],[0.20260416666666667,-0.22777777777777777,1.6458999999910588],[0.20708333333333329,-0.20537037037037034,1.6615999999940385],[0.21343750000000009,-0.21851851851851853,1.6779999999999973],[0.21218750000000006,-0.29314814814814816,1.6976999999880746],[0.21197916666666666,-0.29907407407407405,1.7110999999940404],[0.20979166666666677,-0.3618518518518518,1.7277999999970177],[0.19083333333333338,-0.3755555555555556,1.744499999999995],[0.18916666666666657,-0.37907407407407406,1.7655999999940377],[0.2,-0.40185185185185185,1.7813999999910592],[0.19958333333333325,-0.46796296296296297,1.7950999999940365],[0.20114583333333325,-0.5277777777777778,1.8112999999970185],[0.19177083333333325,-0.585,1.830199999988075],[0.1759375000000001,-0.5622222222222223,1.8446999999880802],[0.1571875000000001,-0.571111111111111,1.8630999999940343],[0.1421875,-0.5648148148148148,1.8812999999970188],[0.10697916666666671,-0.5375925925925926,1.8978999999910542],[0.12864583333333332,-0.5262962962962963,1.9130999999940386],[0.11229166666666662,-0.5294444444444444,1.9277999999970206],[0.0900000000000001,-0.5248148148148147,1.944499999999998],[0.084375,-0.49444444444444446,1.9632999999970195],[0.08385416666666666,-0.43925925925925924,1.9777999999970177],[0.07072916666666676,-0.39592592592592596,1.994499999999995],[0.10791666666666658,-0.4168518518518519,2.01909999999404],[0.10791666666666658,-0.4168518518518519,2.027799999997015],[0.10656249999999995,-0.4101851851851852,2.044799999997018],[0.14135416666666673,-0.4064814814814815,2.0736999999880794],[0.14135416666666673,-0.4064814814814815,2.0814999999999984],[0.14177083333333323,-0.4457407407407407,2.0944999999999965],[0.12104166666666671,-0.45555555555555555,2.114999999999995],[0.10802083333333339,-0.4633333333333333,2.1353999999910585],[0.10802083333333339,-0.4633333333333333,2.1445999999940355],[0.10968749999999995,-0.4698148148148148,2.1614999999999966],[0.10968749999999995,-0.4698148148148148,2.1779999999999973],[0.1171875,-0.5001851851851852,2.1977999999970166],[0.14541666666666658,-0.5164814814814814,2.212799999997017],[0.1696875000000001,-0.557962962962963,2.2277999999970177],[0.1818749999999999,-0.5735185185185185,2.24439999999106],[0.23947916666666677,-0.595925925925926,2.2611999999880794],[0.2642708333333334,-0.6372222222222222,2.277799999997015],[0.31145833333333334,-0.6401851851851852,2.2948999999910598],[0.3400000000000001,-0.6633333333333333,2.314099999994035],[0.3788541666666667,-0.669074074074074,2.3290999999940354],[0.3922916666666666,-0.6457407407407407,2.3443999999910545],[0.3922916666666666,-0.6457407407407407,2.361099999994039],[0.3984375,-0.6501851851851852,2.377899999991058],[0.34052083333333344,-0.6524074074074074,2.397299999997017],[0.32218749999999996,-0.6562962962962963,2.411099999994036],[0.2625,-0.6559259259259259,2.4277999999970206],[0.20437500000000006,-0.6574074074074074,2.444399999991056],[0.1328125,-0.6392592592592592,2.461399999991059],[0.14010416666666667,-0.6038888888888889,2.479099999994034],[0.08947916666666676,-0.6081481481481481,2.494499999999995],[0.07125000000000009,-0.5444444444444444,2.5111999999880794],[0.03125,-0.562037037037037,2.527799999997015],[0.006979166666666714,-0.5333333333333333,2.5443999999910574],[0.028125,-0.5668518518518519,2.5613999999910604],[0.012187500000000047,-0.5648148148148148,2.577799999997019],[-0.004375000000000047,-0.5683333333333332,2.5944999999999965],[-0.02833333333333338,-0.5483333333333333,2.610999999999997],[0.010000000000000024,-0.5696296296296297,2.6277999999970163],[-0.03947916666666664,-0.571111111111111,2.6445000000000007],[-0.009687499999999953,-0.5014814814814815,2.661099999994036],[-0.025937499999999978,-0.5096296296296297,2.6776999999880786],[0.008333333333333333,-0.4896296296296296,2.694399999991056],[0.05145833333333331,-0.4674074074074074,2.7109999999999985],[0.08802083333333334,-0.3881481481481482,2.7276999999880758],[0.10822916666666677,-0.3594444444444445,2.746299999997021],[0.12864583333333332,-0.3357407407407408,2.7633999999910586],[0.13145833333333337,-0.31500000000000006,2.777799999997015],[0.09302083333333329,-0.2140740740740741,2.7943999999910574],[0.07843749999999995,-0.23537037037037042,2.8111999999880766],[0.07010416666666662,-0.2485185185185185,2.827799999997019],[0.06052083333333336,-0.27444444444444444,2.8444999999999965],[0.03239583333333336,-0.2594444444444445,2.8644999999999996],[0.02052083333333338,-0.28833333333333333,2.8781999999880767],[-0.050312499999999954,-0.3005555555555556,2.894399999991059],[-0.06927083333333334,-0.3014814814814815,2.911099999994036],[-0.07843749999999995,-0.28203703703703703,2.9277999999970206],[-0.0733333333333333,-0.27259259259259255,2.944399999991056],[-0.07135416666666666,-0.3042592592592593,2.9609999999999985],[-0.07104166666666671,-0.2616666666666667,2.980799999997018],[-0.07104166666666671,-0.2616666666666667,2.995399999991058],[-0.09343750000000005,-0.2518518518518518,3.0110999999940375],[-0.10447916666666662,-0.23981481481481481,3.02769999998808],[-0.11552083333333331,-0.22777777777777777,3.0443999999910574],[-0.15739583333333335,-0.21092592592592588,3.0610999999940347],[-0.1466666666666666,-0.19500000000000003,3.077799999997019],[-0.14322916666666666,-0.15092592592592594,3.0943999999910545],[-0.15656249999999997,-0.15,3.111099999994039],[-0.14874999999999997,-0.1581481481481481,3.1276999999880744],[-0.15395833333333328,-0.1935185185185185,3.1445000000000007],[-0.15906250000000005,-0.23648148148148146,3.161099999994036],[-0.1671875,-0.285,3.1777999999970206],[-0.1658333333333334,-0.27462962962962967,3.194399999991056],[-0.15135416666666662,-0.25333333333333335,3.2110999999940404],[-0.1304166666666667,-0.24074074074074073,3.2278999999910596],[-0.10427083333333335,-0.2574074074074074,3.244499999999995],[-0.09833333333333331,-0.31296296296296294,3.263699999988077],[-0.0702083333333333,-0.3001851851851852,3.279399999991057],[-0.07552083333333333,-0.2929629629629629,3.2943999999910574],[-0.059583333333333384,-0.2616666666666667,3.312399999991058],[-0.03791666666666664,-0.22740740740740742,3.3281999999880796],[-0.016250000000000025,-0.19314814814814818,3.3444999999999965],[-0.006562499999999953,-0.22314814814814815,3.360999999999997],[-0.019895833333333356,-0.2875925925925926,3.3776999999880744],[-0.009687499999999953,-0.3264814814814815,3.3945000000000007],[-0.007187499999999976,-0.33555555555555555,3.411099999994036],[0,-0.3074074074074074,3.4278999999910553],[0.003125,-0.3248148148148148,3.444499999999998],[0.01572916666666669,-0.30925925925925923,3.4610999999940404],[0.009375,-0.30777777777777776,3.4777999999970177],[-0.002291666666666714,-0.3479629629629629,3.49439999999106],[-0.01395833333333331,-0.3881481481481482,3.5111999999880794],[-0.004166666666666667,-0.3787037037037037,3.5278999999910567],[-0.0036458333333333334,-0.3633333333333333,3.5444999999999993],[-0.02052083333333338,-0.37759259259259254,3.5610999999940347],[-0.04593750000000003,-0.4072222222222222,3.577799999997019],[-0.06270833333333338,-0.41222222222222227,3.5944999999999965],[-0.07947916666666661,-0.4172222222222222,3.611099999994039],[-0.09322916666666667,-0.44814814814814813,3.6277999999970163],[-0.08645833333333333,-0.45611111111111113,3.644399999991059]]","[0.00039999999106044015,0.055999999999997385,0.061099999994034704,0.07799999999999585,0.09469999998808021,0.11509999999403675,0.12769999998807435,0.14469999998807737,0.161199999988078,0.18159999999403453,0.19479999999701647,0.21329999999701954,0.2315999999940388,0.24589999999106027,0.2611999999880794,0.27809999999404056,0.29979999999702045,0.3152999999970163,0.3301999999880749,0.34459999999403834,0.3634999999999948,0.3780000000000001,0.39450000000000074,0.4146999999880805,0.4292999999970206,0.44509999999403504,0.4612999999970171,0.4777999999970177,0.49709999999403465,0.5138999999910538,0.5277999999970149,0.5443999999910574,0.563299999997021,0.5777999999970191,0.5943999999910545,0.611099999994039,0.6285999999940373,0.6445000000000007,0.6631999999880804,0.6777999999970206,0.6944999999999979,0.7155999999940406,0.7315999999940388,0.7492999999970209,0.7644999999999982,0.7798999999910592,0.794699999988076,0.8110999999940347,0.8277999999970191,0.8444999999999965,0.8638999999910553,0.8780000000000001,0.8945000000000007,0.9112999999970199,0.9278999999910553,0.9444999999999979,0.962899999991059,0.9777999999970177,0.994499999999995,1.0110999999940375,1.0277999999970149,1.0444999999999993,1.0611999999880766,1.077899999991054,1.0943999999910545,1.1111999999880737,1.1277999999970163,1.146599999994038,1.1652999999970177,1.180499999999995,1.194499999999998,1.2109999999999985,1.2277999999970177,1.244499999999995,1.2610999999940375,1.2777999999970149,1.294799999997018,1.3135999999940395,1.3279999999999959,1.3445999999940383,1.3635999999940367,1.3780000000000001,1.3946999999880774,1.413499999999999,1.4279999999999973,1.4445999999940398,1.4639999999999986,1.4779999999999944,1.494599999994037,1.5136999999880771,1.5279999999999987,1.544799999997018,1.5655000000000001,1.5791999999880773,1.5945999999940383,1.6113999999910575,1.6306999999880745,1.6458999999910588,1.6615999999940385,1.6779999999999973,1.6976999999880746,1.7110999999940404,1.7277999999970177,1.744499999999995,1.7655999999940377,1.7813999999910592,1.7950999999940365,1.8112999999970185,1.830199999988075,1.8446999999880802,1.8630999999940343,1.8812999999970188,1.8978999999910542,1.9130999999940386,1.9277999999970206,1.944499999999998,1.9632999999970195,1.9777999999970177,1.994499999999995,2.01909999999404,2.027799999997015,2.044799999997018,2.0736999999880794,2.0814999999999984,2.0944999999999965,2.114999999999995,2.1353999999910585,2.1445999999940355,2.1614999999999966,2.1779999999999973,2.1977999999970166,2.212799999997017,2.2277999999970177,2.24439999999106,2.2611999999880794,2.277799999997015,2.2948999999910598,2.314099999994035,2.3290999999940354,2.3443999999910545,2.361099999994039,2.377899999991058,2.397299999997017,2.411099999994036,2.4277999999970206,2.444399999991056,2.461399999991059,2.479099999994034,2.494499999999995,2.5111999999880794,2.527799999997015,2.5443999999910574,2.5613999999910604,2.577799999997019,2.5944999999999965,2.610999999999997,2.6277999999970163,2.6445000000000007,2.661099999994036,2.6776999999880786,2.694399999991056,2.7109999999999985,2.7276999999880758,2.746299999997021,2.7633999999910586,2.777799999997015,2.7943999999910574,2.8111999999880766,2.827799999997019,2.8444999999999965,2.8644999999999996,2.8781999999880767,2.894399999991059,2.911099999994036,2.9277999999970206,2.944399999991056,2.9609999999999985,2.980799999997018,2.995399999991058,3.0110999999940375,3.02769999998808,3.0443999999910574,3.0610999999940347,3.077799999997019,3.0943999999910545,3.111099999994039,3.1276999999880744,3.1445000000000007,3.161099999994036,3.1777999999970206,3.194399999991056,3.2110999999940404,3.2278999999910596,3.244499999999995,3.263699999988077,3.279399999991057,3.2943999999910574,3.312399999991058,3.3281999999880796,3.3444999999999965,3.360999999999997,3.3776999999880744,3.3945000000000007,3.411099999994036,3.4278999999910553,3.444499999999998,3.4610999999940404,3.4777999999970177,3.49439999999106,3.5111999999880794,3.5278999999910567,3.5444999999999993,3.5610999999940347,3.577799999997019,3.5944999999999965,3.611099999994039,3.6277999999970163,3.644399999991059]","[1733194355493,1733194355541,1733194355546,1733194355563,1733194355580,1733194355600,1733194355613,1733194355630,1733194355646,1733194355667,1733194355680,1733194355698,1733194355717,1733194355731,1733194355746,1733194355763,1733194355785,1733194355800,1733194355815,1733194355830,1733194355849,1733194355863,1733194355880,1733194355900,1733194355914,1733194355930,1733194355946,1733194355963,1733194355982,1733194355999,1733194356013,1733194356030,1733194356048,1733194356063,1733194356080,1733194356096,1733194356114,1733194356130,1733194356148,1733194356163,1733194356180,1733194356201,1733194356217,1733194356234,1733194356250,1733194356265,1733194356280,1733194356296,1733194356313,1733194356330,1733194356349,1733194356363,1733194356380,1733194356397,1733194356413,1733194356430,1733194356448,1733194356463,1733194356480,1733194356496,1733194356513,1733194356530,1733194356546,1733194356563,1733194356580,1733194356596,1733194356613,1733194356632,1733194356650,1733194356666,1733194356680,1733194356696,1733194356713,1733194356730,1733194356746,1733194356763,1733194356780,1733194356799,1733194356813,1733194356830,1733194356849,1733194356863,1733194356880,1733194356899,1733194356913,1733194356930,1733194356949,1733194356963,1733194356980,1733194356999,1733194357013,1733194357030,1733194357051,1733194357064,1733194357080,1733194357097,1733194357116,1733194357131,1733194357147,1733194357163,1733194357183,1733194357196,1733194357213,1733194357230,1733194357251,1733194357266,1733194357280,1733194357297,1733194357315,1733194357330,1733194357348,1733194357367,1733194357383,1733194357398,1733194357413,1733194357430,1733194357448,1733194357463,1733194357480,1733194357504,1733194357513,1733194357530,1733194357559,1733194357567,1733194357580,1733194357600,1733194357621,1733194357630,1733194357647,1733194357663,1733194357683,1733194357698,1733194357713,1733194357730,1733194357746,1733194357763,1733194357780,1733194357799,1733194357814,1733194357830,1733194357846,1733194357863,1733194357882,1733194357896,1733194357913,1733194357930,1733194357946,1733194357964,1733194357980,1733194357996,1733194358013,1733194358030,1733194358047,1733194358063,1733194358080,1733194358096,1733194358113,1733194358130,1733194358146,1733194358163,1733194358180,1733194358196,1733194358213,1733194358231,1733194358249,1733194358263,1733194358280,1733194358296,1733194358313,1733194358330,1733194358350,1733194358363,1733194358380,1733194358396,1733194358413,1733194358430,1733194358446,1733194358466,1733194358481,1733194358496,1733194358513,1733194358530,1733194358546,1733194358563,1733194358580,1733194358596,1733194358613,1733194358630,1733194358646,1733194358663,1733194358680,1733194358696,1733194358713,1733194358730,1733194358749,1733194358765,1733194358780,1733194358798,1733194358813,1733194358830,1733194358846,1733194358863,1733194358880,1733194358896,1733194358913,1733194358930,1733194358946,1733194358963,1733194358980,1733194358996,1733194359013,1733194359030,1733194359046,1733194359063,1733194359080,1733194359096,1733194359113,1733194359130]","[[1105.4,452.3],[1105.4,452.3],[1113.1,432],[1113.1,432],[1134.1,410.9],[1134.1,410.9],[1151.4,412.6],[1151.4,412.6],[1153.9,393.7],[1153.9,393.7],[1161.3,388.7],[1149.1,387.9],[1163.3,347.6],[1152.2,368.2],[1152.2,368.2],[1149.8,389.1],[1131.5,384.2],[1133.8,383.5],[1132.1,407.1],[1117.9,402.6],[1120.6,359.8],[1112,378],[1098.3,408.6],[1070.5,460.9],[1072,469.6],[1061.2,457.8],[1065,473.8],[1055.6,491.5],[1055.4,484.5],[1057.3,486.7],[1036.4,542.2],[1033.6,558.1],[1049.7,530.7],[1063.6,520.8],[1063.9,481.8],[1065.9,465.2],[1073.5,437.5],[1084.7,402],[1083.7,370.6],[1087.7,344.9],[1095,304.8],[1102.3,264.7],[1095.2,269.3],[1085.3,257.9],[1080.5,264.8],[1086.5,274],[1088.2,279.6],[1082,297.5],[1067.2,310.7],[1079.4,311.6],[1079.8,328.5],[1092.5,347.3],[1103.1,353.6],[1138.2,369.7],[1177.3,390.7],[1201.1,413.2],[1227.8,446.7],[1266.6,466.3],[1300.9,482.8],[1317.3,507.2],[1345.2,508.6],[1371.3,503],[1390.7,509.1],[1393.9,504.8],[1397.7,497.5],[1416.5,475.9],[1411.6,440.3],[1407.2,412.4],[1406.6,388.6],[1406.6,388.6],[1418.4,387.8],[1409.2,388.3],[1407.4,412.2],[1402.2,424.6],[1394.6,452.8],[1380.2,459.6],[1372.8,481.9],[1372.8,481.9],[1346.4,497.7],[1319.3,505],[1301.2,524.5],[1264.5,530.6],[1241,548.7],[1212,527],[1179.7,523.5],[1179.7,523.5],[1159.5,486.8],[1137.4,461],[1104.6,436.6],[1103.6,428.9],[1110.9,458],[1108.7,440.9],[1123.7,446.4],[1147.3,421.4],[1153.9,415.6],[1172.6,389],[1157.7,411.9],[1154.5,417],[1158.8,429.1],[1164.9,422],[1163.7,381.7],[1163.5,378.5],[1161.4,344.6],[1143.2,337.2],[1141.6,335.3],[1152,323],[1151.6,287.3],[1153.1,255],[1144.1,224.1],[1128.9,236.4],[1110.9,231.6],[1096.5,235],[1062.7,249.7],[1083.5,255.8],[1067.8,254.1],[1046.4,256.6],[1041,273],[1040.5,302.8],[1027.9,326.2],[1063.6,314.9],[1063.6,314.9],[1062.3,318.5],[1095.7,320.5],[1095.7,320.5],[1096.1,299.3],[1076.2,294],[1063.7,289.8],[1063.7,289.8],[1065.3,286.3],[1065.3,286.3],[1072.5,269.9],[1099.6,261.1],[1122.9,238.7],[1134.6,230.3],[1189.9,218.2],[1213.7,195.9],[1259,194.3],[1286.4,181.8],[1323.7,178.7],[1336.6,191.3],[1336.6,191.3],[1342.5,188.9],[1286.9,187.7],[1269.3,185.6],[1212,185.8],[1156.2,185],[1087.5,194.8],[1094.5,213.9],[1045.9,211.6],[1028.4,246],[990,236.5],[966.7,252],[987,233.9],[971.7,235],[955.8,233.1],[932.8,243.9],[969.6,232.4],[922.1,231.6],[950.7,269.2],[935.1,264.8],[968,275.6],[1009.4,287.6],[1044.5,330.4],[1063.9,345.9],[1083.5,358.7],[1086.2,369.9],[1049.3,424.4],[1035.3,412.9],[1027.3,405.8],[1018.1,391.8],[991.1,399.9],[979.7,384.3],[911.7,377.7],[893.5,377.2],[884.7,387.7],[889.6,392.8],[891.5,375.7],[891.8,398.7],[891.8,398.7],[870.3,404],[859.7,410.5],[849.1,417],[808.9,426.1],[819.2,434.7],[822.5,458.5],[809.7,459],[817.2,454.6],[812.2,435.5],[807.3,412.3],[799.5,386.1],[800.8,391.7],[814.7,403.2],[834.8,410],[859.9,401],[865.6,371],[892.6,377.9],[887.5,381.8],[902.8,398.7],[923.6,417.2],[944.4,435.7],[953.7,419.5],[940.9,384.7],[950.7,363.7],[953.1,358.8],[960,374],[963,364.6],[975.1,373],[969,373.8],[957.8,352.1],[946.6,330.4],[956,335.5],[956.5,343.8],[940.3,336.1],[915.9,320.1],[899.8,317.4],[883.7,314.7],[870.5,298],[877,293.7]]","[0,0.5333]","[0.5333,0.5333]","[-0.5333,-0.5333]","[-0.5333,0]","[0,-0.5333]","[0.5333,-0.5333]","[0,0]","[0.5333,0]",0,0,0,0,1,1,Monitor,7,7,15,9
,,,,,,,,,,,,,,,,,,,12,001,2024-12-03_10h51.55.298,Attention_exp_legacy,2023.1.0,Win32,59.88023952,,,,,,,,,,,[0.53125],[0.5037037037037037],[1],[0],[0],[1.5853000000119195],"[""Option2_label""]",Option2_label,2,2.6041,"[[0.0625,0.4222222222222222],[0.0625,0.4222222222222222],[0.0625,0.4222222222222222],[0.0625,0.4222222222222222],[0.0625,0.4222222222222222],[0.0625,0.4222222222222222],[0.0625,0.4222222222222222],[0.0625,0.4222222222222222],[0.0625,0.4222222222222222],[0.0625,0.4222222222222222],[0.0625,0.4222222222222222],[0.0625,0.4222222222222222],[0.0625,0.4222222222222222],[0.0625,0.4222222222222222],[0.0625,0.4222222222222222],[0.0625,0.4222222222222222],[0.0625,0.4222222222222222],[0.0625,0.4222222222222222],[0.0625,0.4222222222222222],[0.0625,0.4222222222222222],[0.0625,0.4222222222222222],[0.0625,0.4222222222222222],[0.0625,0.4222222222222222],[0.0625,0.4222222222222222],[0.0625,0.4222222222222222],[0.0625,0.4222222222222222],[0.0625,0.4222222222222222],[0.0625,0.4222222222222222],[0.0625,0.4222222222222222],[0.0625,0.4222222222222222],[0.0625,0.4222222222222222],[0.0625,0.4222222222222222],[0.0625,0.4222222222222222],[0.0625,0.4222222222222222],[0.0625,0.4222222222222222],[0.0625,0.4222222222222222],[0.0625,0.4222222222222222],[0.0625,0.4222222222222222],[0.0625,0.4222222222222222],[0.0625,0.4222222222222222],[0.0625,0.4222222222222222],[0.0625,0.4222222222222222],[0.0625,0.4222222222222222],[0.0625,0.4222222222222222],[0.0625,0.4222222222222222],[0.0625,0.4222222222222222],[0.0625,0.4222222222222222],[0.0625,0.4222222222222222],[0.0625,0.4222222222222222],[0.0625,0.4222222222222222],[0.0625,0.4222222222222222],[0.0625,0.4222222222222222],[0.0625,0.4222222222222222],[0.0625,0.4222222222222222],[0.0625,0.4222222222222222],[0.0625,0.4222222222222222],[0.0625,0.4222222222222222],[0.0625,0.4222222222222222],[0.0625,0.4222222222222222],[0.0625,0.4222222222222222],[0.0625,0.4222222222222222],[0.0625,0.4222222222222222],[0.0625,0.4222222222222222],[0.0625,0.4222222222222222],[0.0625,0.4222222222222222],[0.0625,0.4222222222222222],[0.0625,0.4222222222222222],[0.0625,0.4222222222222222],[0.0625,0.4222222222222222],[0.06458333333333334,0.4222222222222222],[0.09791666666666667,0.4388888888888889],[0.13854166666666667,0.45925925925925926],[0.190625,0.4722222222222222],[0.24375,0.48333333333333334],[0.28125,0.4925925925925926],[0.3104166666666667,0.5018518518518519],[0.33125,0.5037037037037037],[0.3489583333333333,0.5037037037037037],[0.36875,0.5037037037037037],[0.38645833333333335,0.5037037037037037],[0.4041666666666667,0.5037037037037037],[0.42083333333333334,0.5037037037037037],[0.42916666666666664,0.5037037037037037],[0.440625,0.5037037037037037],[0.45625,0.5037037037037037],[0.4739583333333333,0.5037037037037037],[0.49375,0.5037037037037037],[0.5083333333333333,0.5037037037037037],[0.5197916666666667,0.5037037037037037],[0.5270833333333333,0.5037037037037037],[0.5302083333333333,0.5037037037037037],[0.5302083333333333,0.5037037037037037],[0.5302083333333333,0.5037037037037037],[0.5302083333333333,0.5037037037037037],[0.53125,0.5037037037037037],[0.53125,0.5037037037037037],[0.53125,0.5037037037037037],[0.53125,0.5037037037037037],[0.53125,0.5037037037037037],[0.53125,0.5037037037037037],[0.53125,0.5037037037037037],[0.53125,0.5037037037037037],[0.53125,0.5037037037037037],[0.53125,0.5037037037037037],[0.53125,0.5037037037037037],[0.53125,0.5037037037037037],[0.53125,0.5037037037037037],[0.53125,0.5037037037037037],[0.53125,0.5037037037037037],[0.53125,0.5037037037037037],[0.53125,0.5037037037037037],[0.53125,0.5037037037037037],[0.53125,0.5037037037037037],[0.53125,0.5037037037037037],[0.53125,0.5037037037037037],[0.53125,0.5037037037037037],[0.53125,0.5037037037037037],[0.53125,0.5037037037037037],[0.53125,0.5037037037037037],[0.53125,0.5037037037037037],[0.53125,0.5037037037037037],[0.53125,0.5037037037037037],[0.53125,0.5037037037037037],[0.53125,0.5037037037037037],[0.53125,0.5037037037037037],[0.53125,0.5037037037037037],[0.53125,0.5037037037037037],[0.53125,0.5037037037037037],[0.53125,0.5037037037037037],[0.53125,0.5037037037037037],[0.53125,0.5037037037037037],[0.53125,0.5037037037037037],[0.53125,0.5037037037037037],[0.53125,0.5037037037037037],[0.53125,0.5037037037037037],[0.53125,0.5037037037037037],[0.53125,0.5037037037037037],[0.5302083333333333,0.5037037037037037],[0.5302083333333333,0.5037037037037037],[0.5291666666666667,0.5037037037037037],[0.528125,0.5037037037037037],[0.528125,0.5037037037037037],[0.5270833333333333,0.5018518518518519],[0.5270833333333333,0.5018518518518519],[0.5270833333333333,0.5018518518518519],[0.5270833333333333,0.5018518518518519],[0.525,0.5018518518518519],[0.525,0.5018518518518519],[0.525,0.5018518518518519],[0.5239583333333333,0.5018518518518519],[0.521875,0.5018518518518519],[0.5208333333333334,0.4981481481481482],[0.5208333333333334,0.4981481481481482],[0.5208333333333334,0.4981481481481482],[0.51875,0.4962962962962963],[0.51875,0.4962962962962963],[0.5177083333333333,0.49444444444444446]]","[[0.09177083333333323,-0.24148148148148144],[0.08864583333333324,-0.26592592592592595],[0.08427083333333343,-0.30351851851851847],[0.08427083333333343,-0.3042592592592593],[0.0834374999999999,-0.33259259259259266],[0.09135416666666671,-0.33351851851851855],[0.09135416666666671,-0.33351851851851855],[0.08916666666666657,-0.3133333333333333],[0.08916666666666657,-0.3133333333333333],[0.08895833333333343,-0.30351851851851847],[0.09395833333333338,-0.34222222222222226],[0.08937499999999995,-0.3448148148148148],[0.10604166666666662,-0.34092592592592597],[0.12427083333333329,-0.35111111111111115],[0.1330208333333334,-0.38351851851851854],[0.14770833333333327,-0.38129629629629624],[0.1482291666666666,-0.40407407407407403],[0.14677083333333343,-0.41574074074074074],[0.1664583333333333,-0.40796296296296297],[0.1853125000000001,-0.4148148148148148],[0.20833333333333334,-0.4251851851851852],[0.24489583333333323,-0.44092592592592594],[0.23041666666666671,-0.4662962962962963],[0.22427083333333328,-0.4542592592592593],[0.23083333333333325,-0.4368518518518518],[0.2415625000000001,-0.44055555555555553],[0.24520833333333342,-0.4433333333333333],[0.2516666666666666,-0.4572222222222222],[0.23333333333333334,-0.4729629629629629],[0.23052083333333329,-0.49129629629629634],[0.22229166666666675,-0.4685185185185185],[0.21208333333333323,-0.4594444444444445],[0.23583333333333342,-0.45314814814814813],[0.2522916666666667,-0.44074074074074077],[0.2663541666666667,-0.41500000000000004],[0.2849999999999999,-0.41388888888888886],[0.3107291666666666,-0.4137037037037037],[0.33322916666666674,-0.3979629629629629],[0.3571875000000001,-0.34740740740740744],[0.3867708333333333,-0.35703703703703704],[0.3932291666666667,-0.32148148148148153],[0.4189583333333334,-0.3383333333333333],[0.42208333333333337,-0.31574074074074077],[0.4292708333333332,-0.32629629629629625],[0.42864583333333334,-0.30537037037037035],[0.42249999999999993,-0.2651851851851852],[0.4136458333333332,-0.21481481481481482],[0.40750000000000003,-0.16277777777777774],[0.4046875,-0.13870370370370366],[0.41458333333333336,-0.10129629629629627],[0.4370833333333332,-0.13370370370370369],[0.4422916666666666,-0.1],[0.45989583333333334,-0.10944444444444448],[0.47156250000000005,-0.11203703703703703],[0.48333333333333334,-0.12333333333333338],[0.47197916666666656,-0.11851851851851852],[0.4979166666666667,-0.14833333333333337],[0.5153125000000001,-0.1411111111111111],[0.5297916666666665,-0.24351851851851852],[0.5172916666666666,-0.2975925925925926],[0.4979166666666667,-0.3153703703703704],[0.4901041666666667,-0.35111111111111115],[0.48447916666666657,-0.3937037037037037],[0.4522916666666667,-0.3772222222222222],[0.4174999999999999,-0.4022222222222222],[0.40677083333333336,-0.43796296296296294],[0.3180208333333333,-0.4457407407407407],[0.23552083333333323,-0.49666666666666665],[0.1502083333333334,-0.46574074074074073],[0.07020833333333343,-0.41888888888888887],[0.04552083333333338,-0.4016666666666666],[0.00927083333333331,-0.36648148148148146],[-0.029270833333333357,-0.322037037037037],[-0.0390625,-0.32888888888888895],[-0.03791666666666664,-0.3496296296296296],[-0.04614583333333329,-0.3701851851851851],[-0.02354166666666669,-0.3983333333333334],[0.024687500000000046,-0.4292592592592593],[0.08854166666666667,-0.4551851851851852],[0.15145833333333342,-0.48111111111111116],[0.21479166666666671,-0.5464814814814816],[0.2694791666666667,-0.5531481481481482],[0.3154166666666666,-0.5609259259259259],[0.35958333333333337,-0.562962962962963],[0.39302083333333326,-0.5485185185185185],[0.4375,-0.5272222222222221],[0.49343750000000003,-0.48777777777777775],[0.5258333333333333,-0.4448148148148148],[0.5698958333333333,-0.4275925925925925],[0.5907291666666665,-0.41703703703703704],[0.5805208333333333,-0.3761111111111112],[0.5599999999999999,-0.3814814814814815],[0.5480208333333333,-0.37592592592592594],[0.5628124999999999,-0.3655555555555555],[0.5538541666666668,-0.3514814814814815],[0.5538541666666668,-0.3514814814814815],[0.5521874999999999,-0.38499999999999995],[0.5716666666666667,-0.4192592592592592],[0.6025000000000001,-0.4594444444444445],[0.6273958333333333,-0.4583333333333333],[0.665625,-0.43648148148148147],[0.6872916666666666,-0.4251851851851852],[0.7241666666666667,-0.49537037037037035],[0.7695833333333333,-0.5238888888888888],[0.7602083333333333,-0.5940740740740741],[0.7602083333333333,-0.5940740740740741],[0.770625,-0.6444444444444445],[0.770625,-0.6444444444444445],[0.7739583333333333,-0.6764814814814815],[0.7739583333333333,-0.6764814814814815],[0.7603125000000001,-0.6809259259259259],[0.6958333333333333,-0.705],[0.6166666666666667,-0.6964814814814815],[0.6166666666666667,-0.6964814814814815],[0.5497916666666666,-0.7511111111111112],[0.5497916666666666,-0.7511111111111112],[0.4646874999999999,-0.7461111111111111],[0.3962500000000001,-0.7453703703703703],[0.28958333333333336,-0.7237037037037037],[0.22364583333333338,-0.6557407407407407],[0.17510416666666656,-0.6303703703703704],[0.1252083333333334,-0.6038888888888889],[0.06864583333333343,-0.6085185185185186],[0.025729166666666713,-0.6203703703703703],[0.019583333333333286,-0.653888888888889],[-0.013437499999999976,-0.6474074074074074],[-0.03250000000000005,-0.6661111111111111],[-0.06447916666666664,-0.6114814814814815],[-0.049479166666666664,-0.6442592592592592],[-0.04572916666666664,-0.6737037037037037],[-0.07104166666666671,-0.705925925925926],[-0.08666666666666671,-0.7316666666666667],[-0.1125,-0.754074074074074],[-0.09770833333333329,-0.7361111111111112],[-0.12072916666666664,-0.759074074074074],[-0.11499999999999998,-0.7911111111111111],[-0.1015625,-0.840925925925926],[-0.10750000000000005,-0.8931481481481481],[-0.14489583333333336,-0.857962962962963],[-0.10447916666666662,-0.8411111111111111],[-0.11177083333333329,-0.7755555555555556],[-0.02666666666666669,-0.7325925925925927],[0.012812499999999952,-0.6787037037037037],[0.0203125,-0.612037037037037],[0.04520833333333331,-0.5487037037037037],[0.058437500000000024,-0.4624074074074074],[0.06937499999999991,-0.37648148148148153],[0.10239583333333328,-0.2783333333333334],[0.1779166666666666,-0.3031481481481481],[0.17572916666666671,-0.30833333333333335],[0.24645833333333325,-0.31351851851851853],[0.18489583333333334,-0.2846296296296296],[0.1877083333333334,-0.22833333333333336],[0.20562500000000009,-0.19314814814814818],[0.22531249999999994,-0.1440740740740741],[0.2607291666666666,-0.17074074074074072],[0.2984375,-0.19703703703703698]]","[[0.09177083333333323,-0.24148148148148144,0.0000999999940418661],[0.08864583333333324,-0.26592592592592595,0.016299999997023917],[0.08427083333333343,-0.30351851851851847,0.03300000000000125],[0.08427083333333343,-0.3042592592592593,0.04959999999404374],[0.0834374999999999,-0.33259259259259266,0.06629999999702108],[0.09135416666666671,-0.33351851851851855,0.08299999999999841],[0.09135416666666671,-0.33351851851851855,0.09969999998808277],[0.08916666666666657,-0.3133333333333333,0.11629999999701823],[0.08916666666666657,-0.3133333333333333,0.13289999999106072],[0.08895833333333343,-0.30351851851851847,0.14959999999403806],[0.09395833333333338,-0.34222222222222226,0.1662999999970225],[0.08937499999999995,-0.3448148148148148,0.18289999999105788],[0.10604166666666662,-0.34092592592592597,0.20039999999106328],[0.12427083333333329,-0.35111111111111115,0.2161999999880777],[0.1330208333333334,-0.38351851851851854,0.23289999999106215],[0.14770833333333327,-0.38129629629629624,0.24959999999403948],[0.1482291666666666,-0.40407407407407403,0.26619999998808197],[0.14677083333333343,-0.41574074074074074,0.2828999999910593],[0.1664583333333333,-0.40796296296296297,0.3001999999880809],[0.1853125000000001,-0.4148148148148148,0.3162999999970211],[0.20833333333333334,-0.4251851851851852,0.3330999999940403],[0.24489583333333323,-0.44092592592592594,0.35029999999702],[0.23041666666666671,-0.4662962962962963,0.3661999999880834],[0.22427083333333328,-0.4542592592592593,0.3828999999910607],[0.23083333333333325,-0.4368518518518518,0.40149999999999864],[0.2415625000000001,-0.44055555555555553,0.4162999999970225],[0.24520833333333342,-0.4433333333333333,0.4328999999910579],[0.2516666666666666,-0.4572222222222222,0.4495999999940423],[0.23333333333333334,-0.4729629629629629,0.4661999999880777],[0.23052083333333329,-0.49129629629629634,0.48289999999106215],[0.22229166666666675,-0.4685185185185185,0.4995999999940395],[0.21208333333333323,-0.4594444444444445,0.5162999999970239],[0.23583333333333342,-0.45314814814814813,0.5328999999910593],[0.2522916666666667,-0.44074074074074077,0.5496999999880785],[0.2663541666666667,-0.41500000000000004,0.5661999999880791],[0.2849999999999999,-0.41388888888888886,0.5827999999970217],[0.3107291666666666,-0.4137037037037037,0.5995999999940409],[0.33322916666666674,-0.3979629629629629,0.6162999999970182],[0.3571875000000001,-0.34740740740740744,0.6328999999910607],[0.3867708333333333,-0.35703703703703704,0.65119999998808],[0.3932291666666667,-0.32148148148148153,0.6692999999970226],[0.4189583333333334,-0.3383333333333333,0.6868999999910628],[0.42208333333333337,-0.31574074074074077,0.7015999999940377],[0.4292708333333332,-0.32629629629629625,0.7161999999880777],[0.42864583333333334,-0.30537037037037035,0.7328999999910621],[0.42249999999999993,-0.2651851851851852,0.7496999999880813],[0.4136458333333332,-0.21481481481481482,0.7662999999970239],[0.40750000000000003,-0.16277777777777774,0.7850999999940385],[0.4046875,-0.13870370370370366,0.803299999997023],[0.41458333333333336,-0.10129629629629627,0.8187999999970188],[0.4370833333333332,-0.13370370370370369,0.8329999999999984],[0.4422916666666666,-0.1,0.8495999999940409],[0.45989583333333334,-0.10944444444444448,0.8661999999880834],[0.47156250000000005,-0.11203703703703703,0.8828999999910607],[0.48333333333333334,-0.12333333333333338,0.9017999999970243],[0.47197916666666656,-0.11851851851851852,0.9161999999880805],[0.4979166666666667,-0.14833333333333337,0.9329999999999998],[0.5153125000000001,-0.1411111111111111,0.9495999999940423],[0.5297916666666665,-0.24351851851851852,0.9663999999910615],[0.5172916666666666,-0.2975925925925926,0.9828999999910621],[0.4979166666666667,-0.3153703703703704,1.0017999999970186],[0.4901041666666667,-0.35111111111111115,1.0165000000000006],[0.48447916666666657,-0.3937037037037037,1.0328999999910593],[0.4522916666666667,-0.3772222222222222,1.0497999999970204],[0.4174999999999999,-0.4022222222222222,1.066299999997021],[0.40677083333333336,-0.43796296296296294,1.0828999999910636],[0.3180208333333333,-0.4457407407407407,1.1027999999970177],[0.23552083333333323,-0.49666666666666665,1.1162999999970182],[0.1502083333333334,-0.46574074074074073,1.1328999999910607],[0.07020833333333343,-0.41888888888888887,1.1523999999910615],[0.04552083333333338,-0.4016666666666666,1.1667999999970178],[0.00927083333333331,-0.36648148148148146,1.184399999991058],[-0.029270833333333357,-0.322037037037037,1.20359999999404],[-0.0390625,-0.32888888888888895,1.2176999999880778],[-0.03791666666666664,-0.3496296296296296,1.2331999999880807],[-0.04614583333333329,-0.3701851851851851,1.2496999999880813],[-0.02354166666666669,-0.3983333333333334,1.2698999999910612],[0.024687500000000046,-0.4292592592592593,1.2843999999910594],[0.08854166666666667,-0.4551851851851852,1.3000000000000043],[0.15145833333333342,-0.48111111111111116,1.316299999997021],[0.21479166666666671,-0.5464814814814816,1.3361999999880823],[0.2694791666666667,-0.5531481481481482,1.3531999999880782],[0.3154166666666666,-0.5609259259259259,1.3683999999910625],[0.35958333333333337,-0.562962962962963,1.3861999999880794],[0.39302083333333326,-0.5485185185185185,1.4045999999940406],[0.4375,-0.5272222222222221,1.4190999999940388],[0.49343750000000003,-0.48777777777777775,1.4330999999940417],[0.5258333333333333,-0.4448148148148148,1.45209999999404],[0.5698958333333333,-0.4275925925925925,1.4662999999970197],[0.5907291666666665,-0.41703703703703704,1.483000000000004],[0.5805208333333333,-0.3761111111111112,1.5040999999940396],[0.5599999999999999,-0.3814814814814815,1.519299999997024],[0.5480208333333333,-0.37592592592592594,1.5330999999940431],[0.5628124999999999,-0.3655555555555555,1.5495999999940437],[0.5538541666666668,-0.3514814814814815,1.5703999999910607],[0.5538541666666668,-0.3514814814814815,1.5858999999910637],[0.5521874999999999,-0.38499999999999995,1.599499999999999],[0.5716666666666667,-0.4192592592592592,1.6161999999880834],[0.6025000000000001,-0.4594444444444445,1.6330000000000027],[0.6273958333333333,-0.4583333333333333,1.6495000000000033],[0.665625,-0.43648148148148147,1.6675999999940387],[0.6872916666666666,-0.4251851851851852,1.685899999991058],[0.7241666666666667,-0.49537037037037035,1.7023999999910586],[0.7695833333333333,-0.5238888888888888,1.7165999999940382],[0.7602083333333333,-0.5940740740740741,1.7327999999970203],[0.7602083333333333,-0.5940740740740741,1.7496999999880813],[0.770625,-0.6444444444444445,1.766199999988082],[0.770625,-0.6444444444444445,1.7828999999910593],[0.7739583333333333,-0.6764814814814815,1.7995999999940437],[0.7739583333333333,-0.6764814814814815,1.8161999999880791],[0.7603125000000001,-0.6809259259259259,1.8328999999910636],[0.6958333333333333,-0.705,1.8545000000000016],[0.6166666666666667,-0.6964814814814815,1.8667999999970206],[0.6166666666666667,-0.6964814814814815,1.8828999999910607],[0.5497916666666666,-0.7511111111111112,1.899599999994038],[0.5497916666666666,-0.7511111111111112,1.9161999999880805],[0.4646874999999999,-0.7461111111111111,1.9329999999999998],[0.3962500000000001,-0.7453703703703703,1.9495000000000005],[0.28958333333333336,-0.7237037037037037,1.9661999999880777],[0.22364583333333338,-0.6557407407407407,1.9828999999910621],[0.17510416666666656,-0.6303703703703704,2.002199999988079],[0.1252083333333334,-0.6038888888888889,2.0165999999940425],[0.06864583333333343,-0.6085185185185186,2.0330000000000013],[0.025729166666666713,-0.6203703703703703,2.049500000000002],[0.019583333333333286,-0.653888888888889,2.066199999988079],[-0.013437499999999976,-0.6474074074074074,2.0828999999910636],[-0.03250000000000005,-0.6661111111111111,2.102000000000004],[-0.06447916666666664,-0.6114814814814815,2.1160999999940415],[-0.049479166666666664,-0.6442592592592592,2.132799999997019],[-0.04572916666666664,-0.6737037037037037,2.1495000000000033],[-0.07104166666666671,-0.705925925925926,2.1661999999880805],[-0.08666666666666671,-0.7316666666666667,2.1853999999910627],[-0.1125,-0.754074074074074,2.202199999988082],[-0.09770833333333329,-0.7361111111111112,2.2188999999910592],[-0.12072916666666664,-0.759074074074074,2.2327999999970203],[-0.11499999999999998,-0.7911111111111111,2.2495999999940395],[-0.1015625,-0.840925925925926,2.266199999988082],[-0.10750000000000005,-0.8931481481481481,2.286199999988078],[-0.14489583333333336,-0.857962962962963,2.3011999999880786],[-0.10447916666666662,-0.8411111111111111,2.316399999991063],[-0.11177083333333329,-0.7755555555555556,2.3360999999940404],[-0.02666666666666669,-0.7325925925925927,2.3527999999970177],[0.012812499999999952,-0.6787037037037037,2.36639999999106],[0.0203125,-0.612037037037037,2.382799999997019],[0.04520833333333331,-0.5487037037037037,2.39969999998808],[0.058437500000000024,-0.4624074074074074,2.4161999999880805],[0.06937499999999991,-0.37648148148148153,2.435199999988079],[0.10239583333333328,-0.2783333333333334,2.4495999999940423],[0.1779166666666666,-0.3031481481481481,2.4661999999880777],[0.17572916666666671,-0.30833333333333335,2.4879999999999995],[0.24645833333333325,-0.31351851851851853,2.503099999994042],[0.18489583333333334,-0.2846296296296296,2.519199999988082],[0.1877083333333334,-0.22833333333333336,2.5330000000000013],[0.20562500000000009,-0.19314814814814818,2.5495999999940437],[0.22531249999999994,-0.1440740740740741,2.5696999999880816],[0.2607291666666666,-0.17074074074074072,2.58569999998808],[0.2984375,-0.19703703703703698,2.604099999994041]]","[0.0000999999940418661,0.016299999997023917,0.03300000000000125,0.04959999999404374,0.06629999999702108,0.08299999999999841,0.09969999998808277,0.11629999999701823,0.13289999999106072,0.14959999999403806,0.1662999999970225,0.18289999999105788,0.20039999999106328,0.2161999999880777,0.23289999999106215,0.24959999999403948,0.26619999998808197,0.2828999999910593,0.3001999999880809,0.3162999999970211,0.3330999999940403,0.35029999999702,0.3661999999880834,0.3828999999910607,0.40149999999999864,0.4162999999970225,0.4328999999910579,0.4495999999940423,0.4661999999880777,0.48289999999106215,0.4995999999940395,0.5162999999970239,0.5328999999910593,0.5496999999880785,0.5661999999880791,0.5827999999970217,0.5995999999940409,0.6162999999970182,0.6328999999910607,0.65119999998808,0.6692999999970226,0.6868999999910628,0.7015999999940377,0.7161999999880777,0.7328999999910621,0.7496999999880813,0.7662999999970239,0.7850999999940385,0.803299999997023,0.8187999999970188,0.8329999999999984,0.8495999999940409,0.8661999999880834,0.8828999999910607,0.9017999999970243,0.9161999999880805,0.9329999999999998,0.9495999999940423,0.9663999999910615,0.9828999999910621,1.0017999999970186,1.0165000000000006,1.0328999999910593,1.0497999999970204,1.066299999997021,1.0828999999910636,1.1027999999970177,1.1162999999970182,1.1328999999910607,1.1523999999910615,1.1667999999970178,1.184399999991058,1.20359999999404,1.2176999999880778,1.2331999999880807,1.2496999999880813,1.2698999999910612,1.2843999999910594,1.3000000000000043,1.316299999997021,1.3361999999880823,1.3531999999880782,1.3683999999910625,1.3861999999880794,1.4045999999940406,1.4190999999940388,1.4330999999940417,1.45209999999404,1.4662999999970197,1.483000000000004,1.5040999999940396,1.519299999997024,1.5330999999940431,1.5495999999940437,1.5703999999910607,1.5858999999910637,1.599499999999999,1.6161999999880834,1.6330000000000027,1.6495000000000033,1.6675999999940387,1.685899999991058,1.7023999999910586,1.7165999999940382,1.7327999999970203,1.7496999999880813,1.766199999988082,1.7828999999910593,1.7995999999940437,1.8161999999880791,1.8328999999910636,1.8545000000000016,1.8667999999970206,1.8828999999910607,1.899599999994038,1.9161999999880805,1.9329999999999998,1.9495000000000005,1.9661999999880777,1.9828999999910621,2.002199999988079,2.0165999999940425,2.0330000000000013,2.049500000000002,2.066199999988079,2.0828999999910636,2.102000000000004,2.1160999999940415,2.132799999997019,2.1495000000000033,2.1661999999880805,2.1853999999910627,2.202199999988082,2.2188999999910592,2.2327999999970203,2.2495999999940395,2.266199999988082,2.286199999988078,2.3011999999880786,2.316399999991063,2.3360999999940404,2.3527999999970177,2.36639999999106,2.382799999997019,2.39969999998808,2.4161999999880805,2.435199999988079,2.4495999999940423,2.4661999999880777,2.4879999999999995,2.503099999994042,2.519199999988082,2.5330000000000013,2.5495999999940437,2.5696999999880816,2.58569999998808,2.604099999994041]","[1733194360149,1733194360164,1733194360181,1733194360198,1733194360214,1733194360231,1733194360248,1733194360264,1733194360281,1733194360298,1733194360314,1733194360331,1733194360348,1733194360364,1733194360381,1733194360398,1733194360414,1733194360431,1733194360448,1733194360464,1733194360481,1733194360498,1733194360514,1733194360531,1733194360550,1733194360564,1733194360581,1733194360598,1733194360614,1733194360631,1733194360648,1733194360664,1733194360681,1733194360698,1733194360714,1733194360731,1733194360748,1733194360764,1733194360781,1733194360799,1733194360817,1733194360835,1733194360850,1733194360864,1733194360881,1733194360898,1733194360914,1733194360933,1733194360951,1733194360967,1733194360981,1733194360998,1733194361014,1733194361031,1733194361050,1733194361064,1733194361081,1733194361098,1733194361114,1733194361131,1733194361150,1733194361164,1733194361181,1733194361198,1733194361214,1733194361231,1733194361251,1733194361264,1733194361281,1733194361300,1733194361315,1733194361332,1733194361352,1733194361366,1733194361381,1733194361398,1733194361418,1733194361432,1733194361448,1733194361464,1733194361484,1733194361501,1733194361516,1733194361534,1733194361553,1733194361567,1733194361581,1733194361600,1733194361614,1733194361631,1733194361652,1733194361667,1733194361681,1733194361698,1733194361718,1733194361734,1733194361748,1733194361764,1733194361781,1733194361798,1733194361816,1733194361834,1733194361850,1733194361865,1733194361881,1733194361898,1733194361914,1733194361931,1733194361948,1733194361964,1733194361981,1733194362003,1733194362015,1733194362031,1733194362048,1733194362064,1733194362081,1733194362097,1733194362114,1733194362131,1733194362150,1733194362165,1733194362181,1733194362198,1733194362214,1733194362231,1733194362250,1733194362264,1733194362281,1733194362297,1733194362314,1733194362333,1733194362350,1733194362367,1733194362381,1733194362398,1733194362414,1733194362434,1733194362449,1733194362464,1733194362484,1733194362501,1733194362514,1733194362531,1733194362548,1733194362564,1733194362583,1733194362598,1733194362614,1733194362636,1733194362651,1733194362667,1733194362681,1733194362698,1733194362718,1733194362734,1733194362752]","[[1048.1,409.6],[1045.1,396.4],[1040.9,376.1],[1040.9,375.7],[1040.1,360.4],[1047.7,359.9],[1047.7,359.9],[1045.6,370.8],[1045.6,370.8],[1045.4,376.1],[1050.2,355.2],[1045.8,353.8],[1061.8,355.9],[1079.3,350.4],[1087.7,332.9],[1101.8,334.1],[1102.3,321.8],[1100.9,315.5],[1119.8,319.7],[1137.9,316],[1160,310.4],[1195.1,301.9],[1181.2,288.2],[1175.3,294.7],[1181.6,304.1],[1191.9,302.1],[1195.4,300.6],[1201.6,293.1],[1184,284.6],[1181.3,274.7],[1173.4,287],[1163.6,291.9],[1186.4,295.3],[1202.2,302],[1215.7,315.9],[1233.6,316.5],[1258.3,316.6],[1279.9,325.1],[1302.9,352.4],[1331.3,347.2],[1337.5,366.4],[1362.2,357.3],[1365.2,369.5],[1372.1,363.8],[1371.5,375.1],[1365.6,396.8],[1357.1,424],[1351.2,452.1],[1348.5,465.1],[1358,485.3],[1379.6,467.8],[1384.6,486],[1401.5,480.9],[1412.7,479.5],[1424,473.4],[1413.1,476],[1438,459.9],[1454.7,463.8],[1468.6,408.5],[1456.6,379.3],[1438,369.7],[1430.5,350.4],[1425.1,327.4],[1394.2,336.3],[1360.8,322.8],[1350.5,303.5],[1265.3,299.3],[1186.1,271.8],[1104.2,288.5],[1027.4,313.8],[1003.7,323.1],[968.9,342.1],[931.9,366.1],[922.5,362.4],[923.6,351.2],[915.7,340.1],[937.4,324.9],[983.7,308.2],[1045,294.2],[1105.4,280.2],[1166.2,244.9],[1218.7,241.3],[1262.8,237.1],[1305.2,236],[1337.3,243.8],[1380,255.3],[1433.7,276.6],[1464.8,299.8],[1507.1,309.1],[1527.1,314.8],[1517.3,336.9],[1497.6,334],[1486.1,337],[1500.3,342.6],[1491.7,350.2],[1491.7,350.2],[1490.1,332.1],[1508.8,313.6],[1538.4,291.9],[1562.3,292.5],[1599,304.3],[1619.8,310.4],[1655.2,272.5],[1698.8,257.1],[1689.8,219.2],[1689.8,219.2],[1699.8,192],[1699.8,192],[1703,174.7],[1703,174.7],[1689.9,172.3],[1628,159.3],[1552,163.9],[1552,163.9],[1487.8,134.4],[1487.8,134.4],[1406.1,137.1],[1340.4,137.5],[1238,149.2],[1174.7,185.9],[1128.1,199.6],[1080.2,213.9],[1025.9,211.4],[984.7,205],[978.8,186.9],[947.1,190.4],[928.8,180.3],[898.1,209.8],[912.5,192.1],[916.1,176.2],[891.8,158.8],[876.8,144.9],[852,132.8],[866.2,142.5],[844.1,130.1],[849.6,112.8],[862.5,85.9],[856.8,57.7],[820.9,76.7],[859.7,85.8],[852.7,121.2],[934.4,144.4],[972.3,173.5],[979.5,209.5],[1003.4,243.7],[1016.1,290.3],[1026.6,336.7],[1058.3,389.7],[1130.8,376.3],[1128.7,373.5],[1196.6,370.7],[1137.5,386.3],[1140.2,416.7],[1157.4,435.7],[1176.3,462.2],[1210.3,447.8],[1246.5,433.6]]","[0,0.5333]","[0.5333,0.5333]","[-0.5333,-0.5333]","[-0.5333,0]","[0,-0.5333]","[0.5333,-0.5333]","[0,0]","[0.5333,0]",0,1,1,1,1,1,Monitor,9,1,11,5
,,,,,,,,,,,,,,,,,,,12,001,2024-12-03_10h51.55.298,Attention_exp_legacy,2023.1.0,Win32,59.88023952,,,,,,,,,,,[0.4947916666666667],[0.46111111111111114],[1],[0],[0],[0.9654000000059568],"[""Option2_label""]",Option2_label,3,1.9861,"[[0.5,0.4666666666666667],[0.49895833333333334,0.4666666666666667],[0.49895833333333334,0.4666666666666667],[0.49895833333333334,0.4666666666666667],[0.49895833333333334,0.4648148148148148],[0.49895833333333334,0.4648148148148148],[0.49895833333333334,0.4648148148148148],[0.49895833333333334,0.4648148148148148],[0.4979166666666667,0.4648148148148148],[0.4979166666666667,0.4648148148148148],[0.4979166666666667,0.4648148148148148],[0.4979166666666667,0.4648148148148148],[0.4979166666666667,0.4648148148148148],[0.4979166666666667,0.4648148148148148],[0.4979166666666667,0.4648148148148148],[0.4979166666666667,0.4648148148148148],[0.4979166666666667,0.4648148148148148],[0.4979166666666667,0.4648148148148148],[0.4979166666666667,0.4648148148148148],[0.4979166666666667,0.4648148148148148],[0.4979166666666667,0.4648148148148148],[0.496875,0.46296296296296297],[0.496875,0.46296296296296297],[0.496875,0.46296296296296297],[0.496875,0.46296296296296297],[0.496875,0.46296296296296297],[0.496875,0.46296296296296297],[0.496875,0.46296296296296297],[0.496875,0.46296296296296297],[0.496875,0.46296296296296297],[0.496875,0.46296296296296297],[0.496875,0.46296296296296297],[0.496875,0.46296296296296297],[0.496875,0.46296296296296297],[0.496875,0.46296296296296297],[0.49583333333333335,0.46296296296296297],[0.49583333333333335,0.46296296296296297],[0.49583333333333335,0.46296296296296297],[0.49583333333333335,0.46296296296296297],[0.49583333333333335,0.46296296296296297],[0.49583333333333335,0.46296296296296297],[0.49583333333333335,0.46296296296296297],[0.49583333333333335,0.46296296296296297],[0.49583333333333335,0.46296296296296297],[0.49583333333333335,0.46296296296296297],[0.4947916666666667,0.46111111111111114],[0.4947916666666667,0.46111111111111114],[0.4947916666666667,0.46111111111111114],[0.4947916666666667,0.46111111111111114],[0.4947916666666667,0.46111111111111114],[0.4947916666666667,0.46111111111111114],[0.4947916666666667,0.46111111111111114],[0.4947916666666667,0.46111111111111114],[0.4947916666666667,0.46111111111111114],[0.4947916666666667,0.46111111111111114],[0.4947916666666667,0.46111111111111114],[0.4947916666666667,0.46111111111111114],[0.4947916666666667,0.46111111111111114],[0.4947916666666667,0.46111111111111114],[0.4947916666666667,0.46111111111111114],[0.4947916666666667,0.46111111111111114],[0.4947916666666667,0.46111111111111114],[0.4947916666666667,0.46111111111111114],[0.4947916666666667,0.46111111111111114],[0.4947916666666667,0.46111111111111114],[0.4947916666666667,0.46111111111111114],[0.4947916666666667,0.46111111111111114],[0.4947916666666667,0.46111111111111114],[0.4947916666666667,0.46111111111111114],[0.4947916666666667,0.46111111111111114],[0.4947916666666667,0.46111111111111114],[0.4947916666666667,0.46111111111111114],[0.4947916666666667,0.46111111111111114],[0.4947916666666667,0.46111111111111114],[0.4947916666666667,0.46111111111111114],[0.4947916666666667,0.46111111111111114],[0.4947916666666667,0.46111111111111114],[0.4947916666666667,0.46111111111111114],[0.4947916666666667,0.46111111111111114],[0.4947916666666667,0.46111111111111114],[0.4947916666666667,0.46111111111111114],[0.4947916666666667,0.46111111111111114],[0.4947916666666667,0.46111111111111114],[0.4947916666666667,0.46111111111111114],[0.4947916666666667,0.46111111111111114],[0.4947916666666667,0.46111111111111114],[0.4947916666666667,0.46111111111111114],[0.4947916666666667,0.46111111111111114],[0.4947916666666667,0.46111111111111114],[0.4947916666666667,0.46111111111111114],[0.4947916666666667,0.46111111111111114],[0.4947916666666667,0.46111111111111114],[0.4947916666666667,0.46111111111111114],[0.4947916666666667,0.46111111111111114],[0.4947916666666667,0.46111111111111114],[0.4947916666666667,0.46111111111111114],[0.4947916666666667,0.46111111111111114],[0.4947916666666667,0.46111111111111114],[0.4947916666666667,0.46111111111111114],[0.4947916666666667,0.46111111111111114],[0.4947916666666667,0.46111111111111114],[0.4947916666666667,0.46111111111111114],[0.4947916666666667,0.46111111111111114],[0.4947916666666667,0.46111111111111114],[0.4947916666666667,0.46111111111111114],[0.4947916666666667,0.46111111111111114],[0.4947916666666667,0.46111111111111114],[0.4947916666666667,0.46111111111111114],[0.4947916666666667,0.46111111111111114],[0.4947916666666667,0.46111111111111114],[0.4947916666666667,0.46111111111111114],[0.4947916666666667,0.46111111111111114],[0.4947916666666667,0.46111111111111114],[0.4947916666666667,0.46111111111111114],[0.4947916666666667,0.46111111111111114],[0.4947916666666667,0.46111111111111114],[0.4947916666666667,0.46111111111111114],[0.49375,0.45925925925925926],[0.49375,0.45925925925925926],[0.49375,0.45925925925925926]]","[[0.3883333333333333,-0.6031481481481481],[0.41687500000000005,-0.6268518518518519],[0.4466666666666666,-0.6459259259259259],[0.4716666666666666,-0.6803703703703703],[0.49208333333333343,-0.659074074074074],[0.49208333333333343,-0.659074074074074],[0.5063541666666665,-0.65],[0.5077083333333334,-0.5622222222222223],[0.5160416666666667,-0.5133333333333333],[0.5160416666666667,-0.5133333333333333],[0.558125,-0.49000000000000005],[0.558125,-0.49000000000000005],[0.5745833333333332,-0.4190740740740741],[0.5569791666666667,-0.42000000000000004],[0.5569791666666667,-0.42000000000000004],[0.5546875,-0.4311111111111111],[0.5546875,-0.4311111111111111],[0.5575,-0.44833333333333336],[0.5575,-0.44833333333333336],[0.5532291666666665,-0.49018518518518517],[0.5498958333333335,-0.5146296296296295],[0.5766666666666665,-0.5562962962962963],[0.5523958333333333,-0.6046296296296296],[0.5541666666666667,-0.5735185185185185],[0.5541666666666667,-0.5735185185185185],[0.5194791666666667,-0.5012962962962962],[0.5231250000000001,-0.4696296296296297],[0.5576041666666666,-0.4301851851851852],[0.5677083333333334,-0.3714814814814815],[0.5884375000000001,-0.34333333333333327],[0.6072916666666667,-0.3477777777777778],[0.6490624999999999,-0.33925925925925926],[0.6688541666666665,-0.2942592592592592],[0.6688541666666665,-0.2942592592592592],[0.7172916666666665,-0.30629629629629623],[0.6888541666666667,-0.3257407407407407],[0.6642708333333334,-0.35759259259259263],[0.6349999999999999,-0.43259259259259264],[0.5805208333333333,-0.512962962962963],[0.5246875000000001,-0.5877777777777777],[0.45187499999999997,-0.6305555555555555],[0.38166666666666677,-0.6333333333333333],[0.26281249999999995,-0.6364814814814814],[0.17374999999999996,-0.6438888888888888],[0.11041666666666666,-0.6157407407407407],[0.10260416666666666,-0.6183333333333333],[0.12260416666666671,-0.6207407407407407],[0.15510416666666677,-0.5911111111111111],[0.19489583333333324,-0.5409259259259259],[0.24208333333333343,-0.4596296296296296],[0.28927083333333337,-0.37833333333333335],[0.33624999999999994,-0.31555555555555553],[0.4080208333333334,-0.28277777777777774],[0.4544791666666666,-0.2351851851851852],[0.49208333333333343,-0.19018518518518515],[0.5202083333333334,-0.1398148148148148],[0.5286458333333334,-0.09314814814814817],[0.5287499999999999,-0.007592592592592635],[0.5295833333333334,0.07148148148148152],[0.5358333333333334,0.0544444444444444],[0.5229166666666667,0.09814814814814815],[0.51875,0.15388888888888894],[0.5032291666666666,0.15166666666666662],[0.48322916666666677,0.1388888888888889],[0.45968749999999997,0.11388888888888889],[0.45968749999999997,0.11388888888888889],[0.46604166666666674,0.04388888888888897],[0.4588541666666667,0.006666666666666709],[0.45458333333333345,-0.10666666666666672],[0.45770833333333344,-0.23055555555555557],[0.4474999999999999,-0.26648148148148143],[0.46114583333333337,-0.3838888888888889],[0.4747916666666666,-0.5012962962962962],[0.5129166666666668,-0.5664814814814815],[0.5129166666666668,-0.5664814814814815],[0.5510416666666667,-0.6316666666666667],[0.5775000000000001,-0.7051851851851852],[0.5733333333333335,-0.7020370370370371],[0.5904166666666666,-0.7201851851851852],[0.5712500000000001,-0.6974074074074075],[0.5663541666666667,-0.6709259259259259],[0.5348958333333333,-0.6914814814814815],[0.44406249999999997,-0.6488888888888888],[0.35697916666666674,-0.6312962962962962],[0.2529166666666666,-0.6107407407407408],[0.15135416666666662,-0.5681481481481482],[0.07947916666666661,-0.54],[0.004791666666666691,-0.5461111111111111],[-0.059375,-0.5562962962962963],[-0.09333333333333335,-0.5805555555555556],[-0.14458333333333329,-0.6012962962962963],[-0.17625000000000005,-0.6007407407407407],[-0.15739583333333335,-0.6185185185185185],[-0.13572916666666662,-0.6074074074074074],[-0.10572916666666667,-0.6096296296296296],[-0.09031250000000005,-0.6407407407407407],[-0.09645833333333335,-0.6416666666666667],[-0.09052083333333331,-0.6285185185185185],[-0.09656250000000005,-0.6222222222222222],[-0.10718749999999998,-0.6016666666666666],[-0.11781250000000003,-0.5811111111111111],[-0.11760416666666665,-0.5509259259259259],[-0.11322916666666671,-0.5448148148148148],[-0.11635416666666672,-0.5374074074074073],[-0.12395833333333334,-0.5138888888888888],[-0.12729166666666672,-0.4711111111111111],[-0.16208333333333336,-0.4166666666666667],[-0.1751041666666667,-0.3483333333333334],[-0.16906249999999995,-0.28203703703703703],[-0.16802083333333329,-0.19018518518518515],[-0.16010416666666671,-0.1381481481481482],[-0.1514583333333333,-0.09277777777777782],[-0.14552083333333338,-0.053148148148148125],[-0.13489583333333333,-0.012777777777777735],[-0.12687499999999996,0.022592592592592678],[-0.10687500000000003,0.03351851851851856],[-0.057187499999999974,0.010185185185185186],[-0.03604166666666669,-0.034444444444444486],[0.017708333333333333,-0.09351851851851851],[0.0625,-0.19814814814814816]]","[[0.3883333333333333,-0.6031481481481481,0.00010000000894194727],[0.41687500000000005,-0.6268518518518519,0.016900000005961147],[0.4466666666666666,-0.6459259259259259,0.0331000000089432],[0.4716666666666666,-0.6803703703703703,0.051499999999997215],[0.49208333333333343,-0.659074074074074,0.07340000000596092],[0.49208333333333343,-0.659074074074074,0.08310000000894036],[0.5063541666666665,-0.65,0.09979999999701761],[0.5077083333333334,-0.5622222222222223,0.11650000000000205],[0.5160416666666667,-0.5133333333333333,0.13860000000894246],[0.5160416666666667,-0.5133333333333333,0.14990000000596382],[0.558125,-0.49000000000000005,0.1664999999999992],[0.558125,-0.49000000000000005,0.18320000000298364],[0.5745833333333332,-0.4190740740740741,0.19970000000298427],[0.5569791666666667,-0.42000000000000004,0.2220000000000013],[0.5569791666666667,-0.42000000000000004,0.2332000000029808],[0.5546875,-0.4311111111111111,0.2497999999970233],[0.5546875,-0.4311111111111111,0.26640000000595876],[0.5575,-0.44833333333333336,0.28320000000297796],[0.5575,-0.44833333333333336,0.29979999999702045],[0.5532291666666665,-0.49018518518518517,0.316400000005963],[0.5498958333333335,-0.5146296296296295,0.3329999999999984],[0.5766666666666665,-0.5562962962962963,0.3531000000089435],[0.5523958333333333,-0.6046296296296296,0.3689000000059579],[0.5541666666666667,-0.5735185185185185,0.38510000000893996],[0.5541666666666667,-0.5735185185185185,0.39979999999702187],[0.5194791666666667,-0.5012962962962962,0.41640000000596444],[0.5231250000000001,-0.4696296296296297,0.4331000000089418],[0.5576041666666666,-0.4301851851851852,0.44979999999701903],[0.5677083333333334,-0.3714814814814815,0.4704000000059594],[0.5884375000000001,-0.34333333333333327,0.4857999999970204],[0.6072916666666667,-0.3477777777777778,0.4997000000029814],[0.6490624999999999,-0.33925925925925926,0.5165000000000006],[0.6688541666666665,-0.2942592592592592,0.5334000000059618],[0.6688541666666665,-0.2942592592592592,0.5499000000059624],[0.7172916666666665,-0.30629629629629623,0.5666000000089397],[0.6888541666666667,-0.3257407407407407,0.5867999999970195],[0.6642708333333334,-0.35759259259259263,0.60029999999702],[0.6349999999999999,-0.43259259259259264,0.6164000000059602],[0.5805208333333333,-0.512962962962963,0.6332000000029794],[0.5246875000000001,-0.5877777777777777,0.6497999999970219],[0.45187499999999997,-0.6305555555555555,0.6664000000059644],[0.38166666666666677,-0.6333333333333333,0.6851000000089442],[0.26281249999999995,-0.6364814814814814,0.6997000000029843],[0.17374999999999996,-0.6438888888888888,0.7165000000000035],[0.11041666666666666,-0.6157407407407407,0.7331000000089389],[0.10260416666666666,-0.6183333333333333,0.7530000000000001],[0.12260416666666671,-0.6207407407407407,0.7667999999970192],[0.15510416666666677,-0.5911111111111111,0.7865000000000038],[0.19489583333333324,-0.5409259259259259,0.7997000000029786],[0.24208333333333343,-0.4596296296296296,0.816400000005963],[0.28927083333333337,-0.37833333333333335,0.8331000000089404],[0.33624999999999994,-0.31555555555555553,0.8497999999970176],[0.4080208333333334,-0.28277777777777774,0.866500000000002],[0.4544791666666666,-0.2351851851851852,0.8837999999970236],[0.49208333333333343,-0.19018518518518515,0.89970000000298],[0.5202083333333334,-0.1398148148148148,0.9164999999999992],[0.5286458333333334,-0.09314814814814817,0.9331000000089418],[0.5287499999999999,-0.007592592592592635,0.9497000000029843],[0.5295833333333334,0.07148148148148152,0.9667000000029802],[0.5358333333333334,0.0544444444444444,0.98690000000596],[0.5229166666666667,0.09814814814814815,1.0017999999970186],[0.51875,0.15388888888888894,1.0165000000000006],[0.5032291666666666,0.15166666666666662,1.0331000000089432],[0.48322916666666677,0.1388888888888889,1.0504000000059577],[0.45968749999999997,0.11388888888888889,1.0689000000059607],[0.45968749999999997,0.11388888888888889,1.0832000000029822],[0.46604166666666674,0.04388888888888897,1.0997999999970176],[0.4588541666666667,0.006666666666666709,1.1164000000059602],[0.45458333333333345,-0.10666666666666672,1.1331000000089446],[0.45770833333333344,-0.23055555555555557,1.1497999999970219],[0.4474999999999999,-0.26648148148148143,1.1685000000000016],[0.46114583333333337,-0.3838888888888889,1.1856000000089395],[0.4747916666666666,-0.5012962962962962,1.2000000000000028],[0.5129166666666668,-0.5664814814814815,1.2177999999970197],[0.5129166666666668,-0.5664814814814815,1.2391000000089392],[0.5510416666666667,-0.6316666666666667,1.2497999999970233],[0.5775000000000001,-0.7051851851851852,1.2664000000059588],[0.5733333333333335,-0.7020370370370371,1.2831000000089432],[0.5904166666666666,-0.7201851851851852,1.2997999999970204],[0.5712500000000001,-0.6974074074074075,1.3166000000089397],[0.5663541666666667,-0.6709259259259259,1.3331000000089404],[0.5348958333333333,-0.6914814814814815,1.3497999999970176],[0.44406249999999997,-0.6488888888888888,1.366500000000002],[0.35697916666666674,-0.6312962962962962,1.3832000000029794],[0.2529166666666666,-0.6107407407407408,1.3997999999970219],[0.15135416666666662,-0.5681481481481482,1.4164000000059644],[0.07947916666666661,-0.54,1.4332000000029836],[0.004791666666666691,-0.5461111111111111,1.4497000000029843],[-0.059375,-0.5562962962962963,1.4664000000059616],[-0.09333333333333335,-0.5805555555555556,1.483100000008939],[-0.14458333333333329,-0.6012962962962963,1.4997999999970233],[-0.17625000000000005,-0.6007407407407407,1.5164000000059588],[-0.15739583333333335,-0.6185185185185185,1.5331000000089432],[-0.13572916666666662,-0.6074074074074074,1.5497000000029786],[-0.10572916666666667,-0.6096296296296296,1.566400000005963],[-0.09031250000000005,-0.6407407407407407,1.5852999999970194],[-0.09645833333333335,-0.6416666666666667,1.5997000000029828],[-0.09052083333333331,-0.6285185185185185,1.616600000008944],[-0.09656250000000005,-0.6222222222222222,1.6331000000089446],[-0.10718749999999998,-0.6016666666666666,1.64970000000298],[-0.11781250000000003,-0.5811111111111111,1.6664000000059644],[-0.11760416666666665,-0.5509259259259259,1.6849000000059604],[-0.11322916666666671,-0.5448148148148148,1.6997000000029843],[-0.11635416666666672,-0.5374074074074073,1.7164000000059616],[-0.12395833333333334,-0.5138888888888888,1.733100000008939],[-0.12729166666666672,-0.4711111111111111,1.7497999999970233],[-0.16208333333333336,-0.4166666666666667,1.7664000000059588],[-0.1751041666666667,-0.3483333333333334,1.783200000002978],[-0.16906249999999995,-0.28203703703703703,1.7997999999970204],[-0.16802083333333329,-0.19018518518518515,1.8164999999999978],[-0.16010416666666671,-0.1381481481481482,1.8331000000089404],[-0.1514583333333333,-0.09277777777777782,1.8497000000029828],[-0.14552083333333338,-0.053148148148148125,1.8664000000059602],[-0.13489583333333333,-0.012777777777777735,1.8831000000089446],[-0.12687499999999996,0.022592592592592678,1.89970000000298],[-0.10687500000000003,0.03351851851851856,1.9164000000059644],[-0.057187499999999974,0.010185185185185186,1.9331000000089418],[-0.03604166666666669,-0.034444444444444486,1.9522999999970168],[0.017708333333333333,-0.09351851851851851,1.9664000000059616],[0.0625,-0.19814814814814816,1.986100000008939]]","[0.00010000000894194727,0.016900000005961147,0.0331000000089432,0.051499999999997215,0.07340000000596092,0.08310000000894036,0.09979999999701761,0.11650000000000205,0.13860000000894246,0.14990000000596382,0.1664999999999992,0.18320000000298364,0.19970000000298427,0.2220000000000013,0.2332000000029808,0.2497999999970233,0.26640000000595876,0.28320000000297796,0.29979999999702045,0.316400000005963,0.3329999999999984,0.3531000000089435,0.3689000000059579,0.38510000000893996,0.39979999999702187,0.41640000000596444,0.4331000000089418,0.44979999999701903,0.4704000000059594,0.4857999999970204,0.4997000000029814,0.5165000000000006,0.5334000000059618,0.5499000000059624,0.5666000000089397,0.5867999999970195,0.60029999999702,0.6164000000059602,0.6332000000029794,0.6497999999970219,0.6664000000059644,0.6851000000089442,0.6997000000029843,0.7165000000000035,0.7331000000089389,0.7530000000000001,0.7667999999970192,0.7865000000000038,0.7997000000029786,0.816400000005963,0.8331000000089404,0.8497999999970176,0.866500000000002,0.8837999999970236,0.89970000000298,0.9164999999999992,0.9331000000089418,0.9497000000029843,0.9667000000029802,0.98690000000596,1.0017999999970186,1.0165000000000006,1.0331000000089432,1.0504000000059577,1.0689000000059607,1.0832000000029822,1.0997999999970176,1.1164000000059602,1.1331000000089446,1.1497999999970219,1.1685000000000016,1.1856000000089395,1.2000000000000028,1.2177999999970197,1.2391000000089392,1.2497999999970233,1.2664000000059588,1.2831000000089432,1.2997999999970204,1.3166000000089397,1.3331000000089404,1.3497999999970176,1.366500000000002,1.3832000000029794,1.3997999999970219,1.4164000000059644,1.4332000000029836,1.4497000000029843,1.4664000000059616,1.483100000008939,1.4997999999970233,1.5164000000059588,1.5331000000089432,1.5497000000029786,1.566400000005963,1.5852999999970194,1.5997000000029828,1.616600000008944,1.6331000000089446,1.64970000000298,1.6664000000059644,1.6849000000059604,1.6997000000029843,1.7164000000059616,1.733100000008939,1.7497999999970233,1.7664000000059588,1.783200000002978,1.7997999999970204,1.8164999999999978,1.8331000000089404,1.8497000000029828,1.8664000000059602,1.8831000000089446,1.89970000000298,1.9164000000059644,1.9331000000089418,1.9522999999970168,1.9664000000059616,1.986100000008939]","[1733194363766,1733194363781,1733194363797,1733194363816,1733194363838,1733194363847,1733194363864,1733194363881,1733194363903,1733194363914,1733194363931,1733194363948,1733194363964,1733194363986,1733194363998,1733194364014,1733194364031,1733194364048,1733194364064,1733194364081,1733194364097,1733194364117,1733194364133,1733194364150,1733194364164,1733194364181,1733194364197,1733194364214,1733194364235,1733194364250,1733194364264,1733194364281,1733194364298,1733194364314,1733194364331,1733194364351,1733194364365,1733194364381,1733194364397,1733194364414,1733194364431,1733194364450,1733194364464,1733194364481,1733194364497,1733194364517,1733194364531,1733194364551,1733194364564,1733194364581,1733194364597,1733194364614,1733194364631,1733194364648,1733194364664,1733194364681,1733194364697,1733194364714,1733194364731,1733194364751,1733194364766,1733194364781,1733194364797,1733194364815,1733194364833,1733194364848,1733194364864,1733194364881,1733194364898,1733194364914,1733194364933,1733194364950,1733194364964,1733194364982,1733194365003,1733194365014,1733194365031,1733194365047,1733194365064,1733194365081,1733194365097,1733194365114,1733194365131,1733194365148,1733194365164,1733194365181,1733194365198,1733194365214,1733194365231,1733194365247,1733194365264,1733194365281,1733194365297,1733194365314,1733194365331,1733194365350,1733194365364,1733194365381,1733194365397,1733194365414,1733194365431,1733194365449,1733194365464,1733194365481,1733194365497,1733194365514,1733194365531,1733194365548,1733194365564,1733194365581,1733194365598,1733194365614,1733194365631,1733194365647,1733194365664,1733194365681,1733194365698,1733194365717,1733194365731,1733194365751]","[[1332.8,214.3],[1360.2,201.5],[1388.8,191.2],[1412.8,172.6],[1432.4,184.1],[1432.4,184.1],[1446.1,189],[1447.4,236.4],[1455.4,262.8],[1455.4,262.8],[1495.8,275.4],[1495.8,275.4],[1511.6,313.7],[1494.7,313.2],[1494.7,313.2],[1492.5,307.2],[1492.5,307.2],[1495.2,297.9],[1495.2,297.9],[1491.1,275.3],[1487.9,262.1],[1513.6,239.6],[1490.3,213.5],[1492,230.3],[1492,230.3],[1458.7,269.3],[1462.2,286.4],[1495.3,307.7],[1505,339.4],[1524.9,354.6],[1543,352.2],[1583.1,356.8],[1602.1,381.1],[1602.1,381.1],[1648.6,374.6],[1621.3,364.1],[1597.7,346.9],[1569.6,306.4],[1517.3,263],[1463.7,222.6],[1393.8,199.5],[1326.4,198],[1212.3,196.3],[1126.8,192.3],[1066,207.5],[1058.5,206.1],[1077.7,204.8],[1108.9,220.8],[1147.1,247.9],[1192.4,291.8],[1237.7,335.7],[1282.8,369.6],[1351.7,387.3],[1396.3,413],[1432.4,437.3],[1459.4,464.5],[1467.5,489.7],[1467.6,535.9],[1468.4,578.6],[1474.4,569.4],[1462,593],[1458,623.1],[1443.1,621.9],[1423.9,615],[1401.3,601.5],[1401.3,601.5],[1407.4,563.7],[1400.5,543.6],[1396.4,482.4],[1399.4,415.5],[1389.6,396.1],[1402.7,332.7],[1415.8,269.3],[1452.4,234.1],[1452.4,234.1],[1489,198.9],[1514.4,159.2],[1510.4,160.9],[1526.8,151.1],[1508.4,163.4],[1503.7,177.7],[1473.5,166.6],[1386.3,189.6],[1302.7,199.1],[1202.8,210.2],[1105.3,233.2],[1036.3,248.4],[964.6,245.1],[903,239.6],[870.4,226.5],[821.2,215.3],[790.8,215.6],[808.9,206],[829.7,212],[858.5,210.8],[873.3,194],[867.4,193.5],[873.1,200.6],[867.3,204],[857.1,215.1],[846.9,226.2],[847.1,242.5],[851.3,245.8],[848.3,249.8],[841,262.5],[837.8,285.6],[804.4,315],[791.9,351.9],[797.7,387.7],[798.7,437.3],[806.3,465.4],[814.6,489.9],[820.3,511.3],[830.5,533.1],[838.2,552.2],[857.4,558.1],[905.1,545.5],[925.4,521.4],[977,489.5],[1020,433]]","[0,0.5333]","[0.5333,0.5333]","[-0.5333,-0.5333]","[-0.5333,0]","[0,-0.5333]","[0.5333,-0.5333]","[0,0]","[0.5333,0]",0,2,2,2,1,1,Monitor,5,1,7,3
