inst1_resp.keys,inst1_resp.rt,calibrationMouse.x,calibrationMouse.y,calibrationMouse.leftButton,calibrationMouse.midButton,calibrationMouse.rightButton,calibrationClick.x,calibrationClick.y,calibrationClick.leftButton,calibrationClick.midButton,calibrationClick.rightButton,calibrationClick.clicked_name,trialsc.thisRepN,trialsc.thisTrialN,trialsc.thisN,trialsc.thisIndex,trialsc.ran,calibration_x,calibration_y,participant,session,date,expName,psychopyVersion,OS,frameRate,ScreenRes_pixels,Camera_pixels,mouse_2.x,mouse_2.y,mouse_2.leftButton,mouse_2.midButton,mouse_2.rightButton,mouse_2.time,mouse_2.clicked_name,mouse.x,mouse.y,mouse.leftButton,mouse.midButton,mouse.rightButton,mouse.time,mouse.clicked_name,Choice,Trial,TrialDuration,MOUSE_GAZE,ET_GAZE,ET_GAZE_x_T,time,unixTime,ET_GAZE_NF,Loc_Option1_label,Loc_Option2_label,Loc_Cost_label,Loc_Qual_label,Loc_Option1_cost,Loc_Option2_cost,Loc_Option1_quality,Loc_Option2_quality,trials.thisRepN,trials.thisTrialN,trials.thisN,trials.thisIndex,trials.ran,Block,Device,cost1,qual1,cost2,qual2
space,2.0433,-0.067708333,-0.242592593,1,0,0,0.670833333,0.672222222,1,0,0,calibration_square,0,0,0,19,1,0.67,0.67,12,001,2024-12-03_10h30.37.567,Attention_exp_legacy,2023.1.0,Win32,60.24096386,,,,,,,,,,,,,,,,,,,,,,,,,,,,,,,,,,,,,,,,,,,,
,,,,,,,0.327083333,-0.672222222,1,0,0,calibration_square,0,1,1,14,1,0.33,-0.67,12,001,2024-12-03_10h30.37.567,Attention_exp_legacy,2023.1.0,Win32,60.24096386,,,,,,,,,,,,,,,,,,,,,,,,,,,,,,,,,,,,,,,,,,,,
,,,,,,,-0.001041667,-0.318518519,1,0,0,,0,2,2,10,1,0,-0.33,12,001,2024-12-03_10h30.37.567,Attention_exp_legacy,2023.1.0,Win32,60.24096386,,,,,,,,,,,,,,,,,,,,,,,,,,,,,,,,,,,,,,,,,,,,
,,,,,,,-0.33125,0.324074074,1,0,0,calibration_square,0,3,3,7,1,-0.33,0.33,12,001,2024-12-03_10h30.37.567,Attention_exp_legacy,2023.1.0,Win32,60.24096386,,,,,,,,,,,,,,,,,,,,,,,,,,,,,,,,,,,,,,,,,,,,
,,,,,,,-0.667708333,0.007407407,1,0,0,calibration_square,0,4,4,2,1,-0.67,0,12,001,2024-12-03_10h30.37.567,Attention_exp_legacy,2023.1.0,Win32,60.24096386,,,,,,,,,,,,,,,,,,,,,,,,,,,,,,,,,,,,,,,,,,,,
,,,,,,,-0.328125,0.664814815,1,0,0,calibration_square,0,5,5,8,1,-0.33,0.67,12,001,2024-12-03_10h30.37.567,Attention_exp_legacy,2023.1.0,Win32,60.24096386,,,,,,,,,,,,,,,,,,,,,,,,,,,,,,,,,,,,,,,,,,,,
,,,,,,,0.333333333,0.668518519,1,0,0,calibration_square,0,6,6,18,1,0.33,0.67,12,001,2024-12-03_10h30.37.567,Attention_exp_legacy,2023.1.0,Win32,60.24096386,,,,,,,,,,,,,,,,,,,,,,,,,,,,,,,,,,,,,,,,,,,,
,,,,,,,-0.336458333,-0.005555556,1,0,0,calibration_square,0,7,7,6,1,-0.33,0,12,001,2024-12-03_10h30.37.567,Attention_exp_legacy,2023.1.0,Win32,60.24096386,,,,,,,,,,,,,,,,,,,,,,,,,,,,,,,,,,,,,,,,,,,,
,,,,,,,-0.667708333,-0.677777778,1,0,0,calibration_square,0,8,8,0,1,-0.67,-0.67,12,001,2024-12-03_10h30.37.567,Attention_exp_legacy,2023.1.0,Win32,60.24096386,,,,,,,,,,,,,,,,,,,,,,,,,,,,,,,,,,,,,,,,,,,,
,,,,,,,0.005208333,-0.014814815,1,0,0,,0,9,9,11,1,0,0,12,001,2024-12-03_10h30.37.567,Attention_exp_legacy,2023.1.0,Win32,60.24096386,,,,,,,,,,,,,,,,,,,,,,,,,,,,,,,,,,,,,,,,,,,,
,,,,,,,-0.322916667,-0.666666667,1,0,0,calibration_square,0,10,10,4,1,-0.33,-0.67,12,001,2024-12-03_10h30.37.567,Attention_exp_legacy,2023.1.0,Win32,60.24096386,,,,,,,,,,,,,,,,,,,,,,,,,,,,,,,,,,,,,,,,,,,,
,,,,,,,0.335416667,-0.309259259,1,0,0,,0,11,11,15,1,0.33,-0.33,12,001,2024-12-03_10h30.37.567,Attention_exp_legacy,2023.1.0,Win32,60.24096386,,,,,,,,,,,,,,,,,,,,,,,,,,,,,,,,,,,,,,,,,,,,
,,,,,,,-0.670833333,0.322222222,1,0,0,calibration_square,0,12,12,3,1,-0.67,0.33,12,001,2024-12-03_10h30.37.567,Attention_exp_legacy,2023.1.0,Win32,60.24096386,,,,,,,,,,,,,,,,,,,,,,,,,,,,,,,,,,,,,,,,,,,,
,,,,,,,-0.675,-0.318518519,1,0,0,,0,13,13,1,1,-0.67,-0.33,12,001,2024-12-03_10h30.37.567,Attention_exp_legacy,2023.1.0,Win32,60.24096386,,,,,,,,,,,,,,,,,,,,,,,,,,,,,,,,,,,,,,,,,,,,
,,,,,,,0.335416667,0.333333333,1,0,0,calibration_square,0,14,14,17,1,0.33,0.33,12,001,2024-12-03_10h30.37.567,Attention_exp_legacy,2023.1.0,Win32,60.24096386,,,,,,,,,,,,,,,,,,,,,,,,,,,,,,,,,,,,,,,,,,,,
,,,,,,,-0.322916667,-0.324074074,1,0,0,calibration_square,0,15,15,5,1,-0.33,-0.33,12,001,2024-12-03_10h30.37.567,Attention_exp_legacy,2023.1.0,Win32,60.24096386,,,,,,,,,,,,,,,,,,,,,,,,,,,,,,,,,,,,,,,,,,,,
,,,,,,,0.3375,0.003703704,1,0,0,calibration_square,0,16,16,16,1,0.33,0,12,001,2024-12-03_10h30.37.567,Attention_exp_legacy,2023.1.0,Win32,60.24096386,,,,,,,,,,,,,,,,,,,,,,,,,,,,,,,,,,,,,,,,,,,,
,,,,,,,-0.004166667,0.337037037,1,0,0,calibration_square,0,17,17,12,1,0,0.33,12,001,2024-12-03_10h30.37.567,Attention_exp_legacy,2023.1.0,Win32,60.24096386,,,,,,,,,,,,,,,,,,,,,,,,,,,,,,,,,,,,,,,,,,,,
,,,,,,,0.004166667,0.675925926,1,0,0,calibration_square,0,18,18,13,1,0,0.67,12,001,2024-12-03_10h30.37.567,Attention_exp_legacy,2023.1.0,Win32,60.24096386,,,,,,,,,,,,,,,,,,,,,,,,,,,,,,,,,,,,,,,,,,,,
,,,,,,,0.002083333,-0.674074074,1,0,0,calibration_square,0,19,19,9,1,0,-0.67,12,001,2024-12-03_10h30.37.567,Attention_exp_legacy,2023.1.0,Win32,60.24096386,,,,,,,,,,,,,,,,,,,,,,,,,,,,,,,,,,,,,,,,,,,,
,,,,,,,0.666666667,-0.672222222,1,0,0,calibration_square,0,20,20,20,1,0.67,-0.67,12,001,2024-12-03_10h30.37.567,Attention_exp_legacy,2023.1.0,Win32,60.24096386,,,,,,,,,,,,,,,,,,,,,,,,,,,,,,,,,,,,,,,,,,,,
,,,,,,,,,,,,,,,,,,,,12,001,2024-12-03_10h30.37.567,Attention_exp_legacy,2023.1.0,Win32,60.24096386,"[1920,1080]","[640,480]",[0.03854166666666667],[-0.5074074074074074],[1],[0],[0],[1.7016000000089448],"[""StartButton""]",[-0.007291666666666667],[0.14814814814814814],[1],[0],[0],[2.5384000000059572],"[""Option1_label""]",Option1_label,1,3.5472,"[[0.040625,-0.4685185185185185],[0.040625,-0.4685185185185185],[0.040625,-0.4685185185185185],[0.040625,-0.4685185185185185],[0.040625,-0.4685185185185185],[0.040625,-0.4685185185185185],[0.040625,-0.4685185185185185],[0.040625,-0.4685185185185185],[0.040625,-0.4685185185185185],[0.040625,-0.4685185185185185],[0.040625,-0.4685185185185185],[0.040625,-0.4685185185185185],[0.040625,-0.4685185185185185],[0.040625,-0.4685185185185185],[0.040625,-0.4685185185185185],[0.040625,-0.4685185185185185],[0.040625,-0.4685185185185185],[0.040625,-0.4685185185185185],[0.040625,-0.4685185185185185],[0.040625,-0.4685185185185185],[0.040625,-0.4685185185185185],[0.040625,-0.4685185185185185],[0.040625,-0.4685185185185185],[0.040625,-0.4685185185185185],[0.040625,-0.4685185185185185],[0.040625,-0.4685185185185185],[0.040625,-0.4685185185185185],[0.040625,-0.4685185185185185],[0.040625,-0.4685185185185185],[0.040625,-0.4685185185185185],[0.040625,-0.4685185185185185],[0.040625,-0.4685185185185185],[0.040625,-0.4685185185185185],[0.040625,-0.4685185185185185],[0.040625,-0.4685185185185185],[0.040625,-0.4666666666666667],[0.040625,-0.46296296296296297],[0.040625,-0.45740740740740743],[0.040625,-0.4537037037037037],[0.040625,-0.45185185185185184],[0.040625,-0.44814814814814813],[0.040625,-0.4462962962962963],[0.040625,-0.4444444444444444],[0.040625,-0.4444444444444444],[0.040625,-0.4388888888888889],[0.040625,-0.43333333333333335],[0.040625,-0.43148148148148147],[0.040625,-0.42777777777777776],[0.040625,-0.4222222222222222],[0.040625,-0.4166666666666667],[0.040625,-0.40555555555555556],[0.040625,-0.3888888888888889],[0.040625,-0.37222222222222223],[0.03854166666666667,-0.35185185185185186],[0.036458333333333336,-0.3277777777777778],[0.035416666666666666,-0.3074074074074074],[0.03229166666666667,-0.2796296296296296],[0.027083333333333334,-0.2537037037037037],[0.025,-0.22962962962962963],[0.022916666666666665,-0.2111111111111111],[0.019791666666666666,-0.1962962962962963],[0.016666666666666666,-0.17962962962962964],[0.015625,-0.17037037037037037],[0.014583333333333334,-0.16666666666666666],[0.0125,-0.1574074074074074],[0.009375,-0.14444444444444443],[0.007291666666666667,-0.13518518518518519],[0.005208333333333333,-0.12962962962962962],[0.004166666666666667,-0.12777777777777777],[0.0020833333333333333,-0.12222222222222222],[0.0010416666666666667,-0.12037037037037036],[0.0010416666666666667,-0.11851851851851852],[0.0010416666666666667,-0.11851851851851852],[0.0010416666666666667,-0.11296296296296296],[0.0010416666666666667,-0.10740740740740741],[0.0010416666666666667,-0.10185185185185185],[0.0020833333333333333,-0.09074074074074075],[0.004166666666666667,-0.07777777777777778],[0.004166666666666667,-0.06481481481481481],[0.00625,-0.05],[0.009375,-0.03333333333333333],[0.013541666666666667,-0.012962962962962963],[0.01875,0.016666666666666666],[0.020833333333333332,0.022222222222222223],[0.022916666666666665,0.03518518518518519],[0.026041666666666668,0.046296296296296294],[0.027083333333333334,0.053703703703703705],[0.029166666666666667,0.05925925925925926],[0.03125,0.06481481481481481],[0.03229166666666667,0.07037037037037037],[0.03333333333333333,0.07592592592592592],[0.03333333333333333,0.08148148148148149],[0.034375,0.08703703703703704],[0.034375,0.08888888888888889],[0.034375,0.09259259259259259],[0.034375,0.09814814814814815],[0.034375,0.10740740740740741],[0.034375,0.11296296296296296],[0.034375,0.11851851851851852],[0.034375,0.12407407407407407],[0.03229166666666667,0.12777777777777777],[0.03229166666666667,0.12962962962962962],[0.03125,0.13148148148148148],[0.030208333333333334,0.13518518518518519],[0.028125,0.13703703703703704],[0.027083333333333334,0.13703703703703704],[0.027083333333333334,0.13703703703703704],[0.026041666666666668,0.1388888888888889],[0.023958333333333335,0.1388888888888889],[0.022916666666666665,0.14074074074074075],[0.020833333333333332,0.1425925925925926],[0.020833333333333332,0.1425925925925926],[0.01875,0.1425925925925926],[0.017708333333333333,0.1425925925925926],[0.016666666666666666,0.1425925925925926],[0.014583333333333334,0.1425925925925926],[0.0125,0.14629629629629629],[0.009375,0.14629629629629629],[0.007291666666666667,0.14629629629629629],[0.0020833333333333333,0.14814814814814814],[-0.0010416666666666667,0.14814814814814814],[-0.003125,0.14814814814814814],[-0.005208333333333333,0.14814814814814814],[-0.00625,0.14814814814814814],[-0.00625,0.14814814814814814],[-0.00625,0.14814814814814814],[-0.00625,0.14814814814814814],[-0.00625,0.14814814814814814],[-0.00625,0.14814814814814814],[-0.007291666666666667,0.14814814814814814],[-0.007291666666666667,0.14814814814814814],[-0.007291666666666667,0.14814814814814814],[-0.007291666666666667,0.14814814814814814],[-0.007291666666666667,0.14814814814814814],[-0.007291666666666667,0.14814814814814814],[-0.007291666666666667,0.14814814814814814],[-0.007291666666666667,0.14814814814814814],[-0.007291666666666667,0.14814814814814814],[-0.007291666666666667,0.14814814814814814],[-0.007291666666666667,0.14814814814814814],[-0.007291666666666667,0.14814814814814814],[-0.007291666666666667,0.14814814814814814],[-0.007291666666666667,0.14814814814814814],[-0.007291666666666667,0.14814814814814814],[-0.007291666666666667,0.14814814814814814],[-0.007291666666666667,0.14814814814814814],[-0.007291666666666667,0.14814814814814814],[-0.007291666666666667,0.14814814814814814],[-0.007291666666666667,0.14814814814814814],[-0.007291666666666667,0.14814814814814814],[-0.007291666666666667,0.14814814814814814],[-0.007291666666666667,0.14814814814814814],[-0.007291666666666667,0.14814814814814814],[-0.007291666666666667,0.14814814814814814],[-0.007291666666666667,0.14814814814814814],[-0.007291666666666667,0.14814814814814814],[-0.007291666666666667,0.14814814814814814],[-0.007291666666666667,0.14814814814814814],[-0.007291666666666667,0.14814814814814814],[-0.007291666666666667,0.14814814814814814],[-0.007291666666666667,0.14814814814814814],[-0.007291666666666667,0.14814814814814814],[-0.007291666666666667,0.14814814814814814],[-0.007291666666666667,0.14814814814814814],[-0.007291666666666667,0.14814814814814814],[-0.007291666666666667,0.14814814814814814],[-0.007291666666666667,0.14814814814814814],[-0.007291666666666667,0.14814814814814814],[-0.007291666666666667,0.14814814814814814],[-0.007291666666666667,0.14814814814814814],[-0.007291666666666667,0.14814814814814814],[-0.007291666666666667,0.14814814814814814],[-0.007291666666666667,0.14814814814814814],[-0.007291666666666667,0.14814814814814814],[-0.007291666666666667,0.14814814814814814],[-0.007291666666666667,0.14814814814814814],[-0.007291666666666667,0.14814814814814814],[-0.007291666666666667,0.14814814814814814],[-0.007291666666666667,0.14814814814814814],[-0.007291666666666667,0.14814814814814814],[-0.007291666666666667,0.14814814814814814],[-0.007291666666666667,0.14814814814814814],[-0.007291666666666667,0.14814814814814814],[-0.007291666666666667,0.14814814814814814],[-0.007291666666666667,0.14814814814814814],[-0.007291666666666667,0.14814814814814814],[-0.007291666666666667,0.14814814814814814],[-0.007291666666666667,0.14814814814814814],[-0.007291666666666667,0.14814814814814814],[-0.007291666666666667,0.14814814814814814],[-0.007291666666666667,0.14814814814814814],[-0.007291666666666667,0.14814814814814814],[-0.007291666666666667,0.14814814814814814],[-0.007291666666666667,0.14814814814814814],[-0.007291666666666667,0.14814814814814814],[-0.007291666666666667,0.14814814814814814],[-0.007291666666666667,0.14814814814814814],[-0.007291666666666667,0.14814814814814814],[-0.007291666666666667,0.14814814814814814],[-0.007291666666666667,0.14814814814814814],[-0.007291666666666667,0.14814814814814814],[-0.007291666666666667,0.14814814814814814],[-0.007291666666666667,0.14814814814814814],[-0.007291666666666667,0.14814814814814814],[-0.007291666666666667,0.14814814814814814],[-0.007291666666666667,0.14814814814814814],[-0.007291666666666667,0.14814814814814814],[-0.007291666666666667,0.14814814814814814],[-0.007291666666666667,0.14814814814814814],[-0.007291666666666667,0.14814814814814814],[-0.007291666666666667,0.14814814814814814],[-0.007291666666666667,0.14814814814814814],[-0.007291666666666667,0.14814814814814814]]","[[0.10635416666666657,0.31851851851851853],[0.10635416666666657,0.31851851851851853],[0.1388541666666666,0.34574074074074085],[0.11770833333333333,0.2838888888888888],[0.09677083333333343,0.222037037037037],[0.08937499999999995,0.23055555555555557],[0.07000000000000005,0.1742592592592593],[0.07635416666666663,0.17166666666666675],[0.08447916666666658,0.1844444444444445],[0.08145833333333338,0.20203703703703707],[0.08833333333333329,0.1853703703703704],[0.08041666666666672,0.12629629629629638],[0.057395833333333354,0.06851851851851852],[0.06322916666666671,0.0948148148148149],[0.06885416666666658,0.12111111111111107],[0.04885416666666664,0.07629629629629638],[0.028854166666666715,0.03148148148148148],[0.02947916666666662,0.02296296296296292],[0.030104166666666644,0.01444444444444436],[0.02364583333333338,-0.02166666666666675],[0.007291666666666667,-0.0235185185185186],[0.0034374999999999527,0.0003703703703704546],[0.00604166666666662,0.020555555555555598],[-0.00614583333333331,0.049074074074074076],[-0.018333333333333358,0.07759259259259255],[-0.01552083333333331,0.11462962962962958],[-0.01270833333333338,0.15166666666666662],[-0.019895833333333356,0.14537037037037037],[-0.027083333333333334,0.13907407407407413],[-0.017604166666666643,0.1398148148148148],[-0.008124999999999953,0.14055555555555552],[-0.011874999999999976,0.15166666666666662],[-0.014999999999999977,0.16407407407407412],[-0.002916666666666619,0.18851851851851845],[0.007604166666666619,0.22333333333333338],[0.0012500000000000473,0.2507407407407407],[-0.00791666666666669,0.2542592592592592],[-0.02510416666666669,0.2627777777777777],[-0.04229166666666669,0.2712962962962963],[-0.058541666666666714,0.30055555555555546],[-0.058541666666666714,0.30055555555555546],[-0.0546875,0.34592592592592586],[-0.043333333333333356,0.3594444444444445],[-0.043333333333333356,0.3594444444444445],[-0.03916666666666669,0.377962962962963],[-0.022708333333333285,0.37592592592592594],[-0.022708333333333285,0.37592592592592594],[-0.01427083333333338,0.36425925925925934],[-0.01427083333333338,0.36425925925925934],[-0.01729166666666669,0.3416666666666667],[-0.01729166666666669,0.3416666666666667],[-0.003541666666666643,0.3557407407407408],[0.0034374999999999527,0.3199999999999999],[0.008333333333333333,0.3037037037037037],[0.008333333333333333,0.3037037037037037],[0.03895833333333331,0.3205555555555556],[0.03781249999999995,0.30407407407407416],[0.02822916666666669,0.31851851851851853],[0.03729166666666662,0.29518518518518516],[0.033645833333333285,0.272037037037037],[0.036249999999999956,0.2855555555555556],[0.05239583333333329,0.30277777777777776],[0.060104166666666715,0.3638888888888889],[0.0890625,0.48555555555555563],[0.10489583333333338,0.48111111111111104],[0.0921875,0.46111111111111114],[0.11520833333333323,0.46037037037037043],[0.12052083333333338,0.4462962962962963],[0.12052083333333338,0.4462962962962963],[0.11104166666666657,0.4401851851851853],[0.11791666666666671,0.452962962962963],[0.13072916666666667,0.444074074074074],[0.11062500000000004,0.45629629629629626],[0.10802083333333339,0.38499999999999995],[0.10739583333333323,0.29814814814814816],[0.11260416666666657,0.32518518518518524],[0.12062499999999995,0.33351851851851855],[0.10499999999999995,0.3172222222222221],[0.11135416666666677,0.290925925925926],[0.08833333333333329,0.2388888888888889],[0.04895833333333333,0.16796296296296304],[0.017916666666666713,0.1287037037037037],[0.013125000000000024,0.09814814814814815],[0.013125000000000024,0.09814814814814815],[-0.004270833333333357,0.06962962962962967],[-0.008958333333333356,0.04333333333333329],[-0.007395833333333357,0.01055555555555564],[-0.014479166666666644,-0.028888888888888933],[-0.021979166666666692,-0.045740740740740825],[-0.03427083333333331,-0.0824074074074074],[-0.013854166666666619,-0.06851851851851852],[0.0078125,-0.04462962962962967],[0.01854166666666662,-0.06814814814814817],[0.010312499999999976,-0.11166666666666669],[0.003541666666666643,-0.11500000000000005],[-0.01583333333333338,-0.14870370370370373],[-0.03208333333333328,-0.18314814814814812],[-0.007500000000000047,-0.14944444444444444],[0.01864583333333331,-0.12462962962962965],[0.02020833333333331,-0.1235185185185185],[0.013333333333333286,-0.1257407407407407],[0.005520833333333286,-0.12314814814814815],[0.01854166666666662,-0.11296296296296296],[0.03958333333333333,-0.08296296296296299],[0.04791666666666667,-0.09425925925925922],[0.04364583333333331,-0.0764814814814815],[0.036145833333333384,-0.03370370370370379],[-0.003854166666666714,-0.0742592592592593],[-0.017083333333333308,-0.0948148148148148],[-0.0009374999999999763,-0.07185185185185188],[0.00302083333333331,-0.0801851851851852],[0.013645833333333357,-0.08203703703703706],[0.013645833333333357,-0.08203703703703706],[0.0034374999999999527,-0.09148148148148144],[0.0034374999999999527,-0.09148148148148144],[-0.010000000000000024,-0.08592592592592588],[-0.010000000000000024,-0.08592592592592588],[-0.011354166666666643,-0.07407407407407407],[0.005729166666666666,-0.07296296296296292],[0.007500000000000047,-0.09888888888888885],[0.0021875000000000236,-0.08888888888888889],[-0.021979166666666692,-0.09537037037037037],[-0.052187500000000026,-0.10037037037037035],[-0.05770833333333331,-0.06518518518518517],[-0.0702083333333333,-0.05129629629629638],[-0.10354166666666664,-0.02814814814814823],[-0.12135416666666667,-0.026111111111111154],[-0.15572916666666667,-0.010185185185185186],[-0.19604166666666673,0.015555555555555513],[-0.20958333333333337,0.04388888888888897],[-0.2235416666666667,0.054074074074074156],[-0.2203125,0.1242592592592593],[-0.2169791666666666,0.152962962962963],[-0.22166666666666662,0.2111111111111111],[-0.20802083333333338,0.2418518518518519],[-0.17354166666666668,0.2633333333333334],[-0.15010416666666668,0.2851851851851852],[-0.1532291666666667,0.3066666666666667],[-0.15635416666666668,0.32814814814814824],[-0.1632291666666667,0.3435185185185185],[-0.1622916666666666,0.362962962962963],[-0.14791666666666667,0.3022222222222223],[-0.12760416666666666,0.2814814814814815],[-0.09614583333333329,0.2448148148148149],[-0.08302083333333338,0.23555555555555563],[-0.09416666666666665,0.20833333333333334],[-0.08531249999999997,0.19388888888888897],[-0.050625000000000024,0.2116666666666666],[-0.01593749999999995,0.2294444444444444],[0.009687499999999953,0.19666666666666674],[0.035312499999999976,0.1638888888888889],[0.022916666666666665,0.15203703703703708],[0.010520833333333358,0.14018518518518527],[-0.016145833333333335,0.1259259259259259],[-0.042812500000000024,0.11166666666666658],[-0.051770833333333384,0.08481481481481473],[-0.07677083333333339,0.040370370370370286],[-0.07677083333333339,-0.025370370370370456],[-0.05406249999999998,-0.075],[-0.022916666666666665,-0.06629629629629631],[-0.022916666666666665,-0.06629629629629631],[0.008229166666666643,-0.05759259259259263],[0.008229166666666643,-0.05759259259259263],[0.02645833333333331,-0.06851851851851852],[0.02645833333333331,-0.06851851851851852],[0.035104166666666714,-0.06851851851851852],[0.035104166666666714,-0.06851851851851852],[0.057291666666666664,-0.07777777777777778],[0.057291666666666664,-0.07777777777777778],[0.07989583333333337,-0.07759259259259255],[0.13010416666666677,-0.06703703703703702],[0.16239583333333343,-0.0544444444444444],[0.17572916666666671,-0.04666666666666675],[0.1478125000000001,-0.06518518518518517],[0.14020833333333324,-0.09222222222222225],[0.12635416666666663,-0.0948148148148148],[0.12333333333333343,-0.07314814814814814],[0.14583333333333334,-0.07444444444444442],[0.1428124999999999,-0.1037037037037037],[0.13937499999999994,-0.14240740740740737],[0.11854166666666661,-0.147037037037037],[0.10645833333333338,-0.1492592592592593],[0.10072916666666672,-0.11185185185185181],[0.11333333333333329,-0.09129629629629632],[0.10177083333333338,-0.06444444444444447],[0.0931250000000001,-0.04462962962962967],[0.08447916666666658,-0.024814814814814772],[0.06072916666666662,0.004444444444444402],[0.05604166666666662,0.054259259259259174],[0.051874999999999956,0.07574074074074069],[0.04208333333333331,0.08537037037037042],[0.05604166666666662,0.10981481481481473],[0.06364583333333336,0.09462962962962967],[0.06749999999999995,0.11555555555555551],[0.07135416666666666,0.13648148148148156],[0.06375000000000004,0.11833333333333329],[0.05614583333333331,0.10018518518518522],[0.05281250000000005,0.1205555555555556],[0.049479166666666664,0.14092592592592595],[0.03270833333333331,0.13740740740740748],[0.017916666666666713,0.13185185185185194],[0.0005208333333333333,0.105925925925926],[-0.016145833333333335,0.08796296296296297],[-0.028750000000000022,0.09648148148148153],[-0.04645833333333336,0.06703703703703712],[-0.049374999999999974,0.05925925925925926],[-0.06156250000000003,0.06444444444444436],[-0.07885416666666671,0.03370370370370379],[-0.09614583333333329,0.002962962962963005],[-0.07895833333333328,0.039629629629629584],[-0.06177083333333329,0.07629629629629638],[-0.0703125,0.0955555555555556],[-0.07958333333333331,0.10685185185185193]]","[[0.10635416666666657,0.31851851851851853,0.00020000000298381337],[0.10635416666666657,0.31851851851851853,0.03759999999404329],[0.1388541666666666,0.34574074074074085,0.047700000002983245],[0.11770833333333333,0.2838888888888888,0.06209999999403948],[0.09677083333333343,0.222037037037037,0.07870000000298205],[0.08937499999999995,0.23055555555555557,0.09529999999702454],[0.07000000000000005,0.1742592592592593,0.11190000000596001],[0.07635416666666663,0.17166666666666675,0.12870000000298631],[0.08447916666666658,0.1844444444444445,0.1452999999970217],[0.08145833333333338,0.20203703703703707,0.16200000000000614],[0.08833333333333329,0.1853703703703704,0.17900000000000205],[0.08041666666666672,0.12629629629629638,0.19529999999701886],[0.057395833333333354,0.06851851851851852,0.21190000000596143],[0.06322916666666671,0.0948148148148149,0.23000000000000398],[0.06885416666666658,0.12111111111111107,0.24549999999999983],[0.04885416666666664,0.07629629629629638,0.26200000000000045],[0.028854166666666715,0.03148148148148148,0.27859999999404295],[0.02947916666666662,0.02296296296296292,0.2952999999970203],[0.030104166666666644,0.01444444444444436,0.31190000000596285],[0.02364583333333338,-0.02166666666666675,0.32870000000298205],[0.007291666666666667,-0.0235185185185186,0.34529999999702454],[0.0034374999999999527,0.0003703703703704546,0.3620000000000019],[0.00604166666666662,0.020555555555555598,0.3790000000000049],[-0.00614583333333331,0.049074074074074076,0.3952999999970217],[-0.018333333333333358,0.07759259259259255,0.415099999994041],[-0.01552083333333331,0.11462962962962958,0.4290999999940439],[-0.01270833333333338,0.15166666666666662,0.44529999999701886],[-0.019895833333333356,0.14537037037037037,0.4620000000000033],[-0.027083333333333334,0.13907407407407413,0.47870000000298063],[-0.017604166666666643,0.1398148148148148,0.49540000000596507],[-0.008124999999999953,0.14055555555555552,0.5119000000059657],[-0.011874999999999976,0.15166666666666662,0.5287000000029849],[-0.014999999999999977,0.16407407407407412,0.5452999999970203],[-0.002916666666666619,0.18851851851851845,0.5619000000059629],[0.007604166666666619,0.22333333333333338,0.5799000000059635],[0.0012500000000000473,0.2507407407407407,0.5977999999970223],[-0.00791666666666669,0.2542592592592592,0.6122000000029857],[-0.02510416666666669,0.2627777777777777,0.628900000005963],[-0.04229166666666669,0.2712962962962963,0.6454000000059636],[-0.058541666666666714,0.30055555555555546,0.6664999999999992],[-0.058541666666666714,0.30055555555555546,0.6789000000059602],[-0.0546875,0.34592592592592586,0.6955000000000027],[-0.043333333333333356,0.3594444444444445,0.718400000005964],[-0.043333333333333356,0.3594444444444445,0.7287000000029806],[-0.03916666666666669,0.377962962962963,0.7454999999999998],[-0.022708333333333285,0.37592592592592594,0.7667999999970192],[-0.022708333333333285,0.37592592592592594,0.7829000000059665],[-0.01427083333333338,0.36425925925925934,0.7955000000000041],[-0.01427083333333338,0.36425925925925934,0.8122000000029814],[-0.01729166666666669,0.3416666666666667,0.8287999999970239],[-0.01729166666666669,0.3416666666666667,0.8482999999970247],[-0.003541666666666643,0.3557407407407408,0.8622999999970204],[0.0034374999999999527,0.3199999999999999,0.8829000000059608],[0.008333333333333333,0.3037037037037037,0.9012999999970219],[0.008333333333333333,0.3037037037037037,0.9120999999940409],[0.03895833333333331,0.3205555555555556,0.9287999999970253],[0.03781249999999995,0.30407407407407416,0.9457999999970212],[0.02822916666666669,0.31851851851851853,0.9655000000000058],[0.03729166666666662,0.29518518518518516,0.9805999999940411],[0.033645833333333285,0.272037037037037,0.9955999999940417],[0.036249999999999956,0.2855555555555556,1.0142999999970215],[0.05239583333333329,0.30277777777777776,1.028700000002985],[0.060104166666666715,0.3638888888888889,1.0454000000059622],[0.0890625,0.48555555555555563,1.0655000000000001],[0.10489583333333338,0.48111111111111104,1.0815000000000055],[0.0921875,0.46111111111111114,1.0965999999940408],[0.11520833333333323,0.46037037037037043,1.1120999999940437],[0.12052083333333338,0.4462962962962963,1.1322999999970236],[0.12052083333333338,0.4462962962962963,1.1454000000059636],[0.11104166666666657,0.4401851851851853,1.162099999994041],[0.11791666666666671,0.452962962962963,1.1815999999940416],[0.13072916666666667,0.444074074074074,1.1967000000029842],[0.11062500000000004,0.45629629629629626,1.2120000000000033],[0.10802083333333339,0.38499999999999995,1.2287000000029806],[0.10739583333333323,0.29814814814814816,1.2480999999940394],[0.11260416666666657,0.32518518518518524,1.26459999999404],[0.12062499999999995,0.33351851851851855,1.2790999999940453],[0.10499999999999995,0.3172222222222221,1.295500000000004],[0.11135416666666677,0.290925925925926,1.3142000000029839],[0.08833333333333329,0.2388888888888889,1.328700000002982],[0.04895833333333333,0.16796296296296304,1.3454000000059665],[0.017916666666666713,0.1287037037037037,1.3620000000000019],[0.013125000000000024,0.09814814814814815,1.385900000005961],[0.013125000000000024,0.09814814814814815,1.3955000000000055],[-0.004270833333333357,0.06962962962962967,1.4122000000029828],[-0.008958333333333356,0.04333333333333329,1.4287999999970253],[-0.007395833333333357,0.01055555555555564,1.4472999999970213],[-0.014479166666666644,-0.028888888888888933,1.4622999999970219],[-0.021979166666666692,-0.045740740740740825,1.4795000000000016],[-0.03427083333333331,-0.0824074074074074,1.495400000005965],[-0.013854166666666619,-0.06851851851851852,1.5150000000000006],[0.0078125,-0.04462962962962967,1.528700000002985],[0.01854166666666662,-0.06814814814814817,1.5454000000059622],[0.010312499999999976,-0.11166666666666669,1.5620999999940395],[0.003541666666666643,-0.11500000000000005,1.581900000005966],[-0.01583333333333338,-0.14870370370370373,1.5972999999970199],[-0.03208333333333328,-0.18314814814814812,1.6127999999970228],[-0.007500000000000047,-0.14944444444444444,1.6287000000029863],[0.01864583333333331,-0.12462962962962965,1.6475000000000009],[0.02020833333333331,-0.1235185185185185,1.662099999994041],[0.013333333333333286,-0.1257407407407407,1.6792999999970206],[0.005520833333333286,-0.12314814814814815,1.6987000000029795],[0.01854166666666662,-0.11296296296296296,1.7134000000059615],[0.03958333333333333,-0.08296296296296299,1.7287000000029806],[0.04791666666666667,-0.09425925925925922,1.7474000000059604],[0.04364583333333331,-0.0764814814814815,1.7620999999940423],[0.036145833333333384,-0.03370370370370379,1.778599999994043],[-0.003854166666666714,-0.0742592592592593,1.7980999999940437],[-0.017083333333333308,-0.0948148148148148,1.8122000000029814],[-0.0009374999999999763,-0.07185185185185188,1.828799999997024],[0.00302083333333331,-0.0801851851851852,1.8487000000029852],[0.013645833333333357,-0.08203703703703706,1.8624000000059624],[0.013645833333333357,-0.08203703703703706,1.888900000005961],[0.0034374999999999527,-0.09148148148148144,1.9049000000059664],[0.0034374999999999527,-0.09148148148148144,1.912099999994041],[-0.010000000000000024,-0.08592592592592588,1.9289000000059602],[-0.010000000000000024,-0.08592592592592588,1.9454000000059608],[-0.011354166666666643,-0.07407407407407407,1.9650999999940453],[0.005729166666666666,-0.07296296296296292,1.9802000000029807],[0.007500000000000047,-0.09888888888888885,1.9967999999970232],[0.0021875000000000236,-0.08888888888888889,2.0142999999970215],[-0.021979166666666692,-0.09537037037037037,2.0287999999970197],[-0.052187500000000026,-0.10037037037037035,2.045500000000004],[-0.05770833333333331,-0.06518518518518517,2.0620999999940395],[-0.0702083333333333,-0.05129629629629638,2.078700000002982],[-0.10354166666666664,-0.02814814814814823,2.0954000000059665],[-0.12135416666666667,-0.026111111111111154,2.112000000000002],[-0.15572916666666667,-0.010185185185185186,2.1285999999940444],[-0.19604166666666673,0.015555555555555513,2.1452999999970217],[-0.20958333333333337,0.04388888888888897,2.1642000000029853],[-0.2235416666666667,0.054074074074074156,2.1785999999940415],[-0.2203125,0.1242592592592593,2.195299999997019],[-0.2169791666666666,0.152962962962963,2.2120000000000033],[-0.22166666666666662,0.2111111111111111,2.2285999999940387],[-0.20802083333333338,0.2418518518518519,2.2452000000029813],[-0.17354166666666668,0.2633333333333334,2.2619000000059657],[-0.15010416666666668,0.2851851851851852,2.278700000002985],[-0.1532291666666667,0.3066666666666667,2.2952000000029855],[-0.15635416666666668,0.32814814814814824,2.311900000005963],[-0.1632291666666667,0.3435185185185185,2.328700000002982],[-0.1622916666666666,0.362962962962963,2.3452999999970245],[-0.14791666666666667,0.3022222222222223,2.36190000000596],[-0.12760416666666666,0.2814814814814815,2.3787000000029863],[-0.09614583333333329,0.2448148148148149,2.3952999999970217],[-0.08302083333333338,0.23555555555555563,2.412000000000006],[-0.09416666666666665,0.20833333333333334,2.4284999999999997],[-0.08531249999999997,0.19388888888888897,2.445299999997019],[-0.050625000000000024,0.2116666666666666,2.4619000000059614],[-0.01593749999999995,0.2294444444444444,2.4787000000029806],[0.009687499999999953,0.19666666666666674,2.495299999997023],[0.035312499999999976,0.1638888888888889,2.5119000000059657],[0.022916666666666665,0.15203703703703708,2.528599999994043],[0.010520833333333358,0.14018518518518527,2.5452999999970203],[-0.016145833333333335,0.1259259259259259,2.561900000005963],[-0.042812500000000024,0.11166666666666658,2.578700000002982],[-0.051770833333333384,0.08481481481481473,2.5952999999970245],[-0.07677083333333339,0.040370370370370286,2.61190000000596],[-0.07677083333333339,-0.025370370370370456,2.6287000000029863],[-0.05406249999999998,-0.075,2.6452999999970217],[-0.022916666666666665,-0.06629629629629631,2.66579999999702],[-0.022916666666666665,-0.06629629629629631,2.6787000000029835],[0.008229166666666643,-0.05759259259259263,2.695400000005961],[0.008229166666666643,-0.05759259259259263,2.7120000000000033],[0.02645833333333331,-0.06851851851851852,2.7285999999940387],[0.02645833333333331,-0.06851851851851852,2.745299999997023],[0.035104166666666714,-0.06851851851851852,2.7620000000000005],[0.035104166666666714,-0.06851851851851852,2.778700000002985],[0.057291666666666664,-0.07777777777777778,2.7954000000059622],[0.057291666666666664,-0.07777777777777778,2.8120000000000047],[0.07989583333333337,-0.07759259259259255,2.82859999999404],[0.13010416666666677,-0.06703703703703702,2.8485999999940432],[0.16239583333333343,-0.0544444444444444,2.8622999999970204],[0.17572916666666671,-0.04666666666666675,2.878900000005963],[0.1478125000000001,-0.06518518518518517,2.89520000000298],[0.14020833333333324,-0.09222222222222225,2.9119000000059643],[0.12635416666666663,-0.0948148148148148,2.9285999999940415],[0.12333333333333343,-0.07314814814814814,2.945200000002984],[0.14583333333333334,-0.07444444444444442,2.9620000000000033],[0.1428124999999999,-0.1037037037037037,2.979099999994041],[0.13937499999999994,-0.14240740740740737,2.995299999997023],[0.11854166666666661,-0.147037037037037,3.0119000000059657],[0.10645833333333338,-0.1492592592592593,3.028700000002985],[0.10072916666666672,-0.11185185185185181,3.0452999999970203],[0.11333333333333329,-0.09129629629629632,3.061900000005963],[0.10177083333333338,-0.06444444444444447,3.078700000002982],[0.0931250000000001,-0.04462962962962967,3.0952999999970245],[0.08447916666666658,-0.024814814814814772,3.11190000000596],[0.06072916666666662,0.004444444444444402,3.1285999999940444],[0.05604166666666662,0.054259259259259174,3.14520000000298],[0.051874999999999956,0.07574074074074069,3.1619000000059643],[0.04208333333333331,0.08537037037037042,3.179099999994044],[0.05604166666666662,0.10981481481481473,3.195299999997019],[0.06364583333333336,0.09462962962962967,3.2119000000059614],[0.06749999999999995,0.11555555555555551,3.2285999999940387],[0.07135416666666666,0.13648148148148156,3.245299999997023],[0.06375000000000004,0.11833333333333329,3.2619000000059657],[0.05614583333333331,0.10018518518518522,3.280200000002985],[0.05281250000000005,0.1205555555555556,3.2952000000029855],[0.049479166666666664,0.14092592592592595,3.311900000005963],[0.03270833333333331,0.13740740740740748,3.32859999999404],[0.017916666666666713,0.13185185185185194,3.3452999999970245],[0.0005208333333333333,0.105925925925926,3.36190000000596],[-0.016145833333333335,0.08796296296296297,3.378799999997021],[-0.028750000000000022,0.09648148148148153,3.39520000000298],[-0.04645833333333336,0.06703703703703712,3.4119000000059643],[-0.049374999999999974,0.05925925925925926,3.4285999999940415],[-0.06156250000000003,0.06444444444444436,3.445299999997019],[-0.07885416666666671,0.03370370370370379,3.4619000000059614],[-0.09614583333333329,0.002962962962963005,3.4787000000029806],[-0.07895833333333328,0.039629629629629584,3.4952000000029813],[-0.06177083333333329,0.07629629629629638,3.5120999999940423],[-0.0703125,0.0955555555555556,3.528599999994043],[-0.07958333333333331,0.10685185185185193,3.547200000002981]]","[0.00020000000298381337,0.03759999999404329,0.047700000002983245,0.06209999999403948,0.07870000000298205,0.09529999999702454,0.11190000000596001,0.12870000000298631,0.1452999999970217,0.16200000000000614,0.17900000000000205,0.19529999999701886,0.21190000000596143,0.23000000000000398,0.24549999999999983,0.26200000000000045,0.27859999999404295,0.2952999999970203,0.31190000000596285,0.32870000000298205,0.34529999999702454,0.3620000000000019,0.3790000000000049,0.3952999999970217,0.415099999994041,0.4290999999940439,0.44529999999701886,0.4620000000000033,0.47870000000298063,0.49540000000596507,0.5119000000059657,0.5287000000029849,0.5452999999970203,0.5619000000059629,0.5799000000059635,0.5977999999970223,0.6122000000029857,0.628900000005963,0.6454000000059636,0.6664999999999992,0.6789000000059602,0.6955000000000027,0.718400000005964,0.7287000000029806,0.7454999999999998,0.7667999999970192,0.7829000000059665,0.7955000000000041,0.8122000000029814,0.8287999999970239,0.8482999999970247,0.8622999999970204,0.8829000000059608,0.9012999999970219,0.9120999999940409,0.9287999999970253,0.9457999999970212,0.9655000000000058,0.9805999999940411,0.9955999999940417,1.0142999999970215,1.028700000002985,1.0454000000059622,1.0655000000000001,1.0815000000000055,1.0965999999940408,1.1120999999940437,1.1322999999970236,1.1454000000059636,1.162099999994041,1.1815999999940416,1.1967000000029842,1.2120000000000033,1.2287000000029806,1.2480999999940394,1.26459999999404,1.2790999999940453,1.295500000000004,1.3142000000029839,1.328700000002982,1.3454000000059665,1.3620000000000019,1.385900000005961,1.3955000000000055,1.4122000000029828,1.4287999999970253,1.4472999999970213,1.4622999999970219,1.4795000000000016,1.495400000005965,1.5150000000000006,1.528700000002985,1.5454000000059622,1.5620999999940395,1.581900000005966,1.5972999999970199,1.6127999999970228,1.6287000000029863,1.6475000000000009,1.662099999994041,1.6792999999970206,1.6987000000029795,1.7134000000059615,1.7287000000029806,1.7474000000059604,1.7620999999940423,1.778599999994043,1.7980999999940437,1.8122000000029814,1.828799999997024,1.8487000000029852,1.8624000000059624,1.888900000005961,1.9049000000059664,1.912099999994041,1.9289000000059602,1.9454000000059608,1.9650999999940453,1.9802000000029807,1.9967999999970232,2.0142999999970215,2.0287999999970197,2.045500000000004,2.0620999999940395,2.078700000002982,2.0954000000059665,2.112000000000002,2.1285999999940444,2.1452999999970217,2.1642000000029853,2.1785999999940415,2.195299999997019,2.2120000000000033,2.2285999999940387,2.2452000000029813,2.2619000000059657,2.278700000002985,2.2952000000029855,2.311900000005963,2.328700000002982,2.3452999999970245,2.36190000000596,2.3787000000029863,2.3952999999970217,2.412000000000006,2.4284999999999997,2.445299999997019,2.4619000000059614,2.4787000000029806,2.495299999997023,2.5119000000059657,2.528599999994043,2.5452999999970203,2.561900000005963,2.578700000002982,2.5952999999970245,2.61190000000596,2.6287000000029863,2.6452999999970217,2.66579999999702,2.6787000000029835,2.695400000005961,2.7120000000000033,2.7285999999940387,2.745299999997023,2.7620000000000005,2.778700000002985,2.7954000000059622,2.8120000000000047,2.82859999999404,2.8485999999940432,2.8622999999970204,2.878900000005963,2.89520000000298,2.9119000000059643,2.9285999999940415,2.945200000002984,2.9620000000000033,2.979099999994041,2.995299999997023,3.0119000000059657,3.028700000002985,3.0452999999970203,3.061900000005963,3.078700000002982,3.0952999999970245,3.11190000000596,3.1285999999940444,3.14520000000298,3.1619000000059643,3.179099999994044,3.195299999997019,3.2119000000059614,3.2285999999940387,3.245299999997023,3.2619000000059657,3.280200000002985,3.2952000000029855,3.311900000005963,3.32859999999404,3.3452999999970245,3.36190000000596,3.378799999997021,3.39520000000298,3.4119000000059643,3.4285999999940415,3.445299999997019,3.4619000000059614,3.4787000000029806,3.4952000000029813,3.5120999999940423,3.528599999994043,3.547200000002981]","[1733193082830,1733193082860,1733193082870,1733193082885,1733193082901,1733193082918,1733193082935,1733193082951,1733193082968,1733193082985,1733193083002,1733193083018,1733193083035,1733193083053,1733193083068,1733193083085,1733193083101,1733193083118,1733193083135,1733193083151,1733193083168,1733193083185,1733193083202,1733193083218,1733193083238,1733193083252,1733193083268,1733193083285,1733193083301,1733193083318,1733193083335,1733193083351,1733193083368,1733193083385,1733193083403,1733193083420,1733193083435,1733193083451,1733193083468,1733193083489,1733193083501,1733193083518,1733193083541,1733193083551,1733193083568,1733193083589,1733193083605,1733193083618,1733193083635,1733193083651,1733193083671,1733193083685,1733193083705,1733193083724,1733193083735,1733193083751,1733193083768,1733193083788,1733193083803,1733193083818,1733193083837,1733193083851,1733193083868,1733193083888,1733193083904,1733193083919,1733193083935,1733193083955,1733193083968,1733193083985,1733193084004,1733193084019,1733193084034,1733193084051,1733193084071,1733193084087,1733193084102,1733193084118,1733193084137,1733193084151,1733193084168,1733193084185,1733193084208,1733193084218,1733193084235,1733193084251,1733193084270,1733193084285,1733193084302,1733193084318,1733193084338,1733193084351,1733193084368,1733193084385,1733193084404,1733193084420,1733193084435,1733193084451,1733193084470,1733193084485,1733193084502,1733193084521,1733193084536,1733193084551,1733193084570,1733193084585,1733193084601,1733193084621,1733193084635,1733193084651,1733193084671,1733193084685,1733193084711,1733193084727,1733193084735,1733193084752,1733193084768,1733193084788,1733193084803,1733193084819,1733193084837,1733193084851,1733193084868,1733193084885,1733193084901,1733193084918,1733193084935,1733193084951,1733193084968,1733193084987,1733193085001,1733193085018,1733193085035,1733193085051,1733193085068,1733193085084,1733193085101,1733193085118,1733193085134,1733193085151,1733193085168,1733193085185,1733193085201,1733193085218,1733193085234,1733193085251,1733193085268,1733193085284,1733193085301,1733193085318,1733193085334,1733193085351,1733193085368,1733193085385,1733193085401,1733193085418,1733193085434,1733193085451,1733193085468,1733193085488,1733193085501,1733193085518,1733193085535,1733193085551,1733193085568,1733193085585,1733193085601,1733193085618,1733193085634,1733193085651,1733193085671,1733193085685,1733193085702,1733193085718,1733193085734,1733193085751,1733193085768,1733193085785,1733193085802,1733193085818,1733193085834,1733193085851,1733193085868,1733193085884,1733193085901,1733193085918,1733193085934,1733193085951,1733193085968,1733193085984,1733193086002,1733193086018,1733193086035,1733193086051,1733193086068,1733193086085,1733193086103,1733193086118,1733193086134,1733193086151,1733193086168,1733193086184,1733193086201,1733193086218,1733193086234,1733193086251,1733193086268,1733193086284,1733193086301,1733193086318,1733193086335,1733193086351,1733193086370]","[[1062.1,712],[1062.1,712],[1093.3,726.7],[1073,693.3],[1052.9,659.9],[1045.8,664.5],[1027.2,634.1],[1033.3,632.7],[1041.1,639.6],[1038.2,649.1],[1044.8,640.1],[1037.2,608.2],[1015.1,577],[1020.7,591.2],[1026.1,605.4],[1006.9,581.2],[987.7,557],[988.3,552.4],[988.9,547.8],[982.7,528.3],[967,527.3],[963.3,540.2],[965.8,551.1],[954.1,566.5],[942.4,581.9],[945.1,601.9],[947.8,621.9],[940.9,618.5],[934,615.1],[943.1,615.5],[952.2,615.9],[948.6,621.9],[945.6,628.6],[957.2,641.8],[967.3,660.6],[961.2,675.4],[952.4,677.3],[935.9,681.9],[919.4,686.5],[903.8,702.3],[903.8,702.3],[907.5,726.8],[918.4,734.1],[918.4,734.1],[922.4,744.1],[938.2,743],[938.2,743],[946.3,736.7],[946.3,736.7],[943.4,724.5],[943.4,724.5],[956.6,732.1],[963.3,712.8],[968,704],[968,704],[997.4,713.1],[996.3,704.2],[987.1,712],[995.8,699.4],[992.3,686.9],[994.8,694.2],[1010.3,703.5],[1017.7,736.5],[1045.5,802.2],[1060.7,799.8],[1048.5,789],[1070.6,788.6],[1075.7,781],[1075.7,781],[1066.6,777.7],[1073.2,784.6],[1085.5,779.8],[1066.2,786.4],[1063.7,747.9],[1063.1,701],[1068.1,715.6],[1075.8,720.1],[1060.8,711.3],[1066.9,697.1],[1044.8,669],[1007,630.7],[977.2,609.5],[972.6,593],[972.6,593],[955.9,577.6],[951.4,563.4],[952.9,545.7],[946.1,524.4],[938.9,515.3],[927.1,495.5],[946.7,503],[967.5,515.9],[977.8,503.2],[969.9,479.7],[963.4,477.9],[944.8,459.7],[929.2,441.1],[952.8,459.3],[977.9,472.7],[979.4,473.3],[972.8,472.1],[965.3,473.5],[977.8,479],[998,495.2],[1006,489.1],[1001.9,498.7],[994.7,521.8],[956.3,499.9],[943.6,488.8],[959.1,501.2],[962.9,496.7],[973.1,495.7],[973.1,495.7],[963.3,490.6],[963.3,490.6],[950.4,493.6],[950.4,493.6],[949.1,500],[965.5,500.6],[967.2,486.6],[962.1,492],[938.9,488.5],[909.9,485.8],[904.6,504.8],[892.6,512.3],[860.6,524.8],[843.5,525.9],[810.5,534.5],[771.8,548.4],[758.8,563.7],[745.4,569.2],[748.5,607.1],[751.7,622.6],[747.2,654],[760.3,670.6],[793.4,682.2],[815.9,694],[812.9,705.6],[809.9,717.2],[803.3,725.5],[804.2,736],[818,703.2],[837.5,692],[867.7,672.2],[880.3,667.2],[869.6,652.5],[878.1,644.7],[911.4,654.3],[944.7,663.9],[969.3,646.2],[993.9,628.5],[982,622.1],[970.1,615.7],[944.5,608],[918.9,600.3],[910.3,585.8],[886.3,561.8],[886.3,526.3],[908.1,499.5],[938,504.2],[938,504.2],[967.9,508.9],[967.9,508.9],[985.4,503],[985.4,503],[993.7,503],[993.7,503],[1015,498],[1015,498],[1036.7,498.1],[1084.9,503.8],[1115.9,510.6],[1128.7,514.8],[1101.9,504.8],[1094.6,490.2],[1081.3,488.8],[1078.4,500.5],[1100,499.8],[1097.1,484],[1093.8,463.1],[1073.8,460.6],[1062.2,459.4],[1056.7,479.6],[1068.8,490.7],[1057.7,505.2],[1049.4,515.9],[1041.1,526.6],[1018.3,542.4],[1013.8,569.3],[1009.8,580.9],[1000.4,586.1],[1013.8,599.3],[1021.1,591.1],[1024.8,602.4],[1028.5,613.7],[1021.2,603.9],[1013.9,594.1],[1010.7,605.1],[1007.5,616.1],[991.4,614.2],[977.2,611.2],[960.5,597.2],[944.5,587.5],[932.4,592.1],[915.4,576.2],[912.6,572],[900.9,574.8],[884.3,558.2],[867.7,541.6],[884.2,561.4],[900.7,581.2],[892.5,591.6],[883.6,597.7]]","[0,0.151169218]","[0.151169218,0.151169218]","[-0.151169218,0]","[-0.151169218,-0.151169218]","[0,0]","[0.151169218,0]","[0,-0.151169218]","[0.151169218,-0.151169218]",0,0,0,0,1,3,Smartphone,11,9,9,1
,,,,,,,,,,,,,,,,,,,,12,001,2024-12-03_10h30.37.567,Attention_exp_legacy,2023.1.0,Win32,60.24096386,,,,,,,,,,[-0.007291666666666667],[0.14814814814814814],[1],[0],[0],[3.632700000002984],"[""Option1_label""]",Option1_label,2,4.6498,"[[-0.007291666666666667,0.14814814814814814],[-0.007291666666666667,0.14814814814814814],[-0.007291666666666667,0.14814814814814814],[-0.007291666666666667,0.14814814814814814],[-0.007291666666666667,0.14814814814814814],[-0.007291666666666667,0.14814814814814814],[-0.007291666666666667,0.14814814814814814],[-0.007291666666666667,0.14814814814814814],[-0.007291666666666667,0.14814814814814814],[-0.007291666666666667,0.14814814814814814],[-0.007291666666666667,0.14814814814814814],[-0.007291666666666667,0.14814814814814814],[-0.007291666666666667,0.14814814814814814],[-0.007291666666666667,0.14814814814814814],[-0.007291666666666667,0.14814814814814814],[-0.007291666666666667,0.14814814814814814],[-0.007291666666666667,0.14814814814814814],[-0.007291666666666667,0.14814814814814814],[-0.007291666666666667,0.14814814814814814],[-0.007291666666666667,0.14814814814814814],[-0.007291666666666667,0.14814814814814814],[-0.007291666666666667,0.14814814814814814],[-0.007291666666666667,0.14814814814814814],[-0.007291666666666667,0.14814814814814814],[-0.007291666666666667,0.14814814814814814],[-0.007291666666666667,0.14814814814814814],[-0.007291666666666667,0.14814814814814814],[-0.007291666666666667,0.14814814814814814],[-0.007291666666666667,0.14814814814814814],[-0.007291666666666667,0.14814814814814814],[-0.007291666666666667,0.14814814814814814],[-0.007291666666666667,0.14814814814814814],[-0.007291666666666667,0.14814814814814814],[-0.007291666666666667,0.14814814814814814],[-0.007291666666666667,0.14814814814814814],[-0.007291666666666667,0.14814814814814814],[-0.007291666666666667,0.14814814814814814],[-0.007291666666666667,0.14814814814814814],[-0.007291666666666667,0.14814814814814814],[-0.007291666666666667,0.14814814814814814],[-0.007291666666666667,0.14814814814814814],[-0.007291666666666667,0.14814814814814814],[-0.007291666666666667,0.14814814814814814],[-0.007291666666666667,0.14814814814814814],[-0.007291666666666667,0.14814814814814814],[-0.007291666666666667,0.14814814814814814],[-0.007291666666666667,0.14814814814814814],[-0.007291666666666667,0.14814814814814814],[-0.007291666666666667,0.14814814814814814],[-0.007291666666666667,0.14814814814814814],[-0.007291666666666667,0.14814814814814814],[-0.007291666666666667,0.14814814814814814],[-0.007291666666666667,0.14814814814814814],[-0.007291666666666667,0.14814814814814814],[-0.007291666666666667,0.14814814814814814],[-0.007291666666666667,0.14814814814814814],[-0.007291666666666667,0.14814814814814814],[-0.007291666666666667,0.14814814814814814],[-0.007291666666666667,0.14814814814814814],[-0.007291666666666667,0.14814814814814814],[-0.007291666666666667,0.14814814814814814],[-0.007291666666666667,0.14814814814814814],[-0.007291666666666667,0.14814814814814814],[-0.007291666666666667,0.14814814814814814],[-0.007291666666666667,0.14814814814814814],[-0.007291666666666667,0.14814814814814814],[-0.007291666666666667,0.14814814814814814],[-0.007291666666666667,0.14814814814814814],[-0.007291666666666667,0.14814814814814814],[-0.007291666666666667,0.14814814814814814],[-0.007291666666666667,0.14814814814814814],[-0.007291666666666667,0.14814814814814814],[-0.007291666666666667,0.14814814814814814],[-0.007291666666666667,0.14814814814814814],[-0.007291666666666667,0.14814814814814814],[-0.007291666666666667,0.14814814814814814],[-0.007291666666666667,0.14814814814814814],[-0.007291666666666667,0.14814814814814814],[-0.007291666666666667,0.14814814814814814],[-0.007291666666666667,0.14814814814814814],[-0.007291666666666667,0.14814814814814814],[-0.007291666666666667,0.14814814814814814],[-0.007291666666666667,0.14814814814814814],[-0.007291666666666667,0.14814814814814814],[-0.007291666666666667,0.14814814814814814],[-0.007291666666666667,0.14814814814814814],[-0.007291666666666667,0.14814814814814814],[-0.007291666666666667,0.14814814814814814],[-0.007291666666666667,0.14814814814814814],[-0.007291666666666667,0.14814814814814814],[-0.007291666666666667,0.14814814814814814],[-0.007291666666666667,0.14814814814814814],[-0.007291666666666667,0.14814814814814814],[-0.007291666666666667,0.14814814814814814],[-0.007291666666666667,0.14814814814814814],[-0.007291666666666667,0.14814814814814814],[-0.007291666666666667,0.14814814814814814],[-0.007291666666666667,0.14814814814814814],[-0.007291666666666667,0.14814814814814814],[-0.007291666666666667,0.14814814814814814],[-0.007291666666666667,0.14814814814814814],[-0.007291666666666667,0.14814814814814814],[-0.007291666666666667,0.14814814814814814],[-0.007291666666666667,0.14814814814814814],[-0.007291666666666667,0.14814814814814814],[-0.007291666666666667,0.14814814814814814],[-0.007291666666666667,0.14814814814814814],[-0.007291666666666667,0.14814814814814814],[-0.007291666666666667,0.14814814814814814],[-0.007291666666666667,0.14814814814814814],[-0.007291666666666667,0.14814814814814814],[-0.007291666666666667,0.14814814814814814],[-0.007291666666666667,0.14814814814814814],[-0.007291666666666667,0.14814814814814814],[-0.007291666666666667,0.14814814814814814],[-0.007291666666666667,0.14814814814814814],[-0.007291666666666667,0.14814814814814814],[-0.007291666666666667,0.14814814814814814],[-0.007291666666666667,0.14814814814814814],[-0.007291666666666667,0.14814814814814814],[-0.007291666666666667,0.14814814814814814],[-0.007291666666666667,0.14814814814814814],[-0.007291666666666667,0.14814814814814814],[-0.007291666666666667,0.14814814814814814],[-0.007291666666666667,0.14814814814814814],[-0.007291666666666667,0.14814814814814814],[-0.007291666666666667,0.14814814814814814],[-0.007291666666666667,0.14814814814814814],[-0.007291666666666667,0.14814814814814814],[-0.007291666666666667,0.14814814814814814],[-0.007291666666666667,0.14814814814814814],[-0.007291666666666667,0.14814814814814814],[-0.007291666666666667,0.14814814814814814],[-0.007291666666666667,0.14814814814814814],[-0.007291666666666667,0.14814814814814814],[-0.007291666666666667,0.14814814814814814],[-0.007291666666666667,0.14814814814814814],[-0.007291666666666667,0.14814814814814814],[-0.007291666666666667,0.14814814814814814],[-0.007291666666666667,0.14814814814814814],[-0.007291666666666667,0.14814814814814814],[-0.007291666666666667,0.14814814814814814],[-0.007291666666666667,0.14814814814814814],[-0.007291666666666667,0.14814814814814814],[-0.007291666666666667,0.14814814814814814],[-0.007291666666666667,0.14814814814814814],[-0.007291666666666667,0.14814814814814814],[-0.007291666666666667,0.14814814814814814],[-0.007291666666666667,0.14814814814814814],[-0.007291666666666667,0.14814814814814814],[-0.007291666666666667,0.14814814814814814],[-0.007291666666666667,0.14814814814814814],[-0.007291666666666667,0.14814814814814814],[-0.007291666666666667,0.14814814814814814],[-0.007291666666666667,0.14814814814814814],[-0.007291666666666667,0.14814814814814814],[-0.007291666666666667,0.14814814814814814],[-0.007291666666666667,0.14814814814814814],[-0.007291666666666667,0.14814814814814814],[-0.007291666666666667,0.14814814814814814],[-0.007291666666666667,0.14814814814814814],[-0.007291666666666667,0.14814814814814814],[-0.007291666666666667,0.14814814814814814],[-0.007291666666666667,0.14814814814814814],[-0.007291666666666667,0.14814814814814814],[-0.007291666666666667,0.14814814814814814],[-0.007291666666666667,0.14814814814814814],[-0.007291666666666667,0.14814814814814814],[-0.007291666666666667,0.14814814814814814],[-0.007291666666666667,0.14814814814814814],[-0.007291666666666667,0.14814814814814814],[-0.007291666666666667,0.14814814814814814],[-0.007291666666666667,0.14814814814814814],[-0.007291666666666667,0.14814814814814814],[-0.007291666666666667,0.14814814814814814],[-0.007291666666666667,0.14814814814814814],[-0.007291666666666667,0.14814814814814814],[-0.007291666666666667,0.14814814814814814],[-0.007291666666666667,0.14814814814814814],[-0.007291666666666667,0.14814814814814814],[-0.007291666666666667,0.14814814814814814],[-0.007291666666666667,0.14814814814814814],[-0.007291666666666667,0.14814814814814814],[-0.007291666666666667,0.14814814814814814],[-0.007291666666666667,0.14814814814814814],[-0.007291666666666667,0.14814814814814814],[-0.007291666666666667,0.14814814814814814],[-0.007291666666666667,0.14814814814814814],[-0.007291666666666667,0.14814814814814814],[-0.007291666666666667,0.14814814814814814],[-0.007291666666666667,0.14814814814814814],[-0.007291666666666667,0.14814814814814814],[-0.007291666666666667,0.14814814814814814],[-0.007291666666666667,0.14814814814814814],[-0.007291666666666667,0.14814814814814814],[-0.007291666666666667,0.14814814814814814],[-0.007291666666666667,0.14814814814814814],[-0.007291666666666667,0.14814814814814814],[-0.007291666666666667,0.14814814814814814],[-0.007291666666666667,0.14814814814814814],[-0.007291666666666667,0.14814814814814814],[-0.007291666666666667,0.14814814814814814],[-0.007291666666666667,0.14814814814814814],[-0.007291666666666667,0.14814814814814814],[-0.007291666666666667,0.14814814814814814],[-0.007291666666666667,0.14814814814814814],[-0.007291666666666667,0.14814814814814814],[-0.007291666666666667,0.14814814814814814],[-0.007291666666666667,0.14814814814814814],[-0.007291666666666667,0.14814814814814814],[-0.007291666666666667,0.14814814814814814],[-0.007291666666666667,0.14814814814814814],[-0.007291666666666667,0.14814814814814814],[-0.007291666666666667,0.14814814814814814],[-0.007291666666666667,0.14814814814814814],[-0.007291666666666667,0.14814814814814814],[-0.007291666666666667,0.14814814814814814],[-0.007291666666666667,0.14814814814814814],[-0.007291666666666667,0.14814814814814814],[-0.007291666666666667,0.14814814814814814],[-0.007291666666666667,0.14814814814814814],[-0.007291666666666667,0.14814814814814814],[-0.007291666666666667,0.14814814814814814],[-0.007291666666666667,0.14814814814814814],[-0.007291666666666667,0.14814814814814814],[-0.007291666666666667,0.14814814814814814],[-0.007291666666666667,0.14814814814814814],[-0.007291666666666667,0.14814814814814814],[-0.007291666666666667,0.14814814814814814],[-0.007291666666666667,0.14814814814814814],[-0.007291666666666667,0.14814814814814814],[-0.007291666666666667,0.14814814814814814],[-0.007291666666666667,0.14814814814814814],[-0.007291666666666667,0.14814814814814814],[-0.007291666666666667,0.14814814814814814],[-0.007291666666666667,0.14814814814814814],[-0.007291666666666667,0.14814814814814814],[-0.007291666666666667,0.14814814814814814],[-0.007291666666666667,0.14814814814814814],[-0.007291666666666667,0.14814814814814814],[-0.007291666666666667,0.14814814814814814],[-0.007291666666666667,0.14814814814814814],[-0.007291666666666667,0.14814814814814814],[-0.007291666666666667,0.14814814814814814],[-0.007291666666666667,0.14814814814814814],[-0.007291666666666667,0.14814814814814814],[-0.007291666666666667,0.14814814814814814],[-0.007291666666666667,0.14814814814814814],[-0.007291666666666667,0.14814814814814814],[-0.007291666666666667,0.14814814814814814],[-0.007291666666666667,0.14814814814814814],[-0.007291666666666667,0.14814814814814814],[-0.007291666666666667,0.14814814814814814],[-0.007291666666666667,0.14814814814814814],[-0.007291666666666667,0.14814814814814814],[-0.007291666666666667,0.14814814814814814],[-0.007291666666666667,0.14814814814814814],[-0.007291666666666667,0.14814814814814814],[-0.007291666666666667,0.14814814814814814],[-0.007291666666666667,0.14814814814814814],[-0.007291666666666667,0.14814814814814814],[-0.007291666666666667,0.14814814814814814],[-0.007291666666666667,0.14814814814814814],[-0.007291666666666667,0.14814814814814814],[-0.007291666666666667,0.14814814814814814],[-0.007291666666666667,0.14814814814814814],[-0.007291666666666667,0.14814814814814814],[-0.007291666666666667,0.14814814814814814],[-0.007291666666666667,0.14814814814814814],[-0.007291666666666667,0.14814814814814814],[-0.007291666666666667,0.14814814814814814],[-0.007291666666666667,0.14814814814814814],[-0.007291666666666667,0.14814814814814814],[-0.007291666666666667,0.14814814814814814],[-0.007291666666666667,0.14814814814814814],[-0.007291666666666667,0.14814814814814814],[-0.007291666666666667,0.14814814814814814],[-0.007291666666666667,0.14814814814814814],[-0.007291666666666667,0.14814814814814814],[-0.007291666666666667,0.14814814814814814]]","[[0.0203125,0.2116666666666666],[0.033958333333333354,0.1875925925925925],[0.04114583333333333,0.17814814814814822],[0.029895833333333382,0.1633333333333334],[0.03250000000000005,0.12740740740740733],[0.041979166666666616,0.12185185185185177],[0.052291666666666715,0.14759259259259266],[0.052291666666666715,0.14759259259259266],[0.06729166666666657,0.15018518518518523],[0.06729166666666657,0.15018518518518523],[0.06447916666666664,0.1596296296296297],[0.06447916666666664,0.1596296296296297],[0.04989583333333331,0.18796296296296297],[0.04989583333333331,0.18796296296296297],[0.06239583333333331,0.19518518518518516],[0.06239583333333331,0.19518518518518516],[0.05416666666666667,0.18574074074074065],[0.03812500000000003,0.1801851851851851],[0.04083333333333338,0.15203703703703708],[0.04635416666666667,0.13777777777777775],[0.03989583333333328,0.12925925925925918],[0.03812500000000003,0.09759259259259268],[0.03739583333333331,0.11851851851851852],[0.035625000000000046,0.14037037037037028],[0.0421875,0.11777777777777781],[0.0328125,0.10462962962962963],[0.010520833333333358,0.08629629629629634],[0.007604166666666619,0.09240740740740737],[0.004375000000000047,0.1264814814814814],[0.00916666666666662,0.15759259259259265],[0.01583333333333338,0.16203703703703703],[0.022500000000000023,0.16648148148148145],[0.021041666666666715,0.144074074074074],[0.021041666666666715,0.144074074074074],[0.019583333333333286,0.12166666666666676],[0.016250000000000025,0.10037037037037046],[0.013333333333333286,0.1007407407407407],[0.025625000000000023,0.1259259259259259],[0.04541666666666669,0.10944444444444448],[0.06520833333333335,0.09296296296296305],[0.0678124999999999,0.08907407407407411],[0.07041666666666657,0.08518518518518518],[0.07322916666666662,0.0985185185185186],[0.07843749999999995,0.10925925925925926],[0.08499999999999991,0.11518518518518527],[0.096875,0.1455555555555556],[0.10114583333333324,0.13870370370370366],[0.10541666666666671,0.13185185185185194],[0.09729166666666676,0.14129629629629623],[0.08854166666666667,0.14611111111111108],[0.08895833333333343,0.14129629629629623],[0.08562500000000005,0.1359259259259259],[0.08208333333333329,0.11333333333333341],[0.08156249999999995,0.08148148148148149],[0.0796875,0.0544444444444444],[0.07781250000000005,0.027407407407407325],[0.07479166666666662,0.0198148148148149],[0.07177083333333342,0.012222222222222264],[0.06739583333333338,0.014814814814814815],[0.06364583333333336,0.022037037037036994],[0.06822916666666666,0.01574074074074074],[0.0765625,0.009999999999999959],[0.0821875000000001,0.03481481481481473],[0.08479166666666677,0.06888888888888897],[0.08760416666666657,0.09537037037037037],[0.09041666666666662,0.12185185185185177],[0.09291666666666672,0.12851851851851848],[0.09541666666666657,0.13518518518518519],[0.0943749999999999,0.1449999999999999],[0.09333333333333324,0.15481481481481485],[0.07958333333333342,0.21055555555555563],[0.09656250000000005,0.3287037037037037],[0.11624999999999991,0.4162962962962962],[0.1359375,0.5038888888888889],[0.15,0.6211111111111111],[0.16072916666666662,0.6888888888888889],[0.17999999999999997,0.7842592592592592],[0.17958333333333343,0.8883333333333334],[0.17739583333333328,0.9761111111111109],[0.17520833333333338,1.0638888888888889],[0.18385416666666668,1.0914814814814817],[0.16177083333333328,1.0566666666666664],[0.13416666666666663,0.9844444444444442],[0.10656249999999995,0.912222222222222],[0.09249999999999996,0.8168518518518519],[0.08177083333333333,0.7709259259259258],[0.08177083333333333,0.7709259259259258],[0.06499999999999997,0.6764814814814814],[0.07677083333333339,0.5829629629629629],[0.07677083333333339,0.5829629629629629],[0.08854166666666667,0.48944444444444435],[0.09447916666666671,0.3816666666666667],[0.10364583333333334,0.30944444444444447],[0.11281249999999995,0.23722222222222225],[0.10114583333333324,0.18870370370370365],[0.08947916666666676,0.14018518518518527],[0.08145833333333338,0.08407407407407404],[0.059062500000000046,0.03222222222222218],[0.050520833333333334,0.003888888888888931],[0.009375,0.009629629629629714],[-0.027083333333333334,0],[-0.05697916666666671,0.020370370370370372],[-0.09656250000000005,0.03296296296296288],[-0.09656250000000005,0.03296296296296288],[-0.13614583333333338,0.0455555555555556],[-0.1421875,0.08574074074074066],[-0.15093749999999997,0.09203703703703713],[-0.17145833333333335,0.10703703703703696],[-0.1694791666666667,0.125],[-0.17770833333333336,0.1479629629629629],[-0.16062500000000005,0.15037037037037046],[-0.16062500000000005,0.15037037037037046],[-0.16031249999999997,0.1648148148148148],[-0.15343749999999995,0.15018518518518523],[-0.14375,0.14370370370370375],[-0.13406250000000006,0.13722222222222227],[-0.13322916666666665,0.10351851851851848],[-0.1296875,0.1037037037037037],[-0.11614583333333334,0.11500000000000005],[-0.11072916666666661,0.11907407407407399],[-0.11447916666666665,0.12518518518518523],[-0.11135416666666664,0.13481481481481472],[-0.09614583333333329,0.1477777777777777],[-0.09802083333333336,0.17462962962962955],[-0.10270833333333336,0.1933333333333333],[-0.1014583333333333,0.16999999999999993],[-0.10499999999999995,0.17092592592592584],[-0.10499999999999995,0.17092592592592584],[-0.10208333333333333,0.1609259259259259],[-0.10208333333333333,0.1609259259259259],[-0.10229166666666671,0.1935185185185185],[-0.10229166666666671,0.1935185185185185],[-0.10395833333333329,0.19981481481481478],[-0.10395833333333329,0.19981481481481478],[-0.10239583333333328,0.2103703703703704],[-0.1014583333333333,0.1875925925925925],[-0.1014583333333333,0.1875925925925925],[-0.08302083333333338,0.15259259259259256],[-0.06895833333333339,0.14203703703703713],[-0.05489583333333338,0.13148148148148148],[-0.049479166666666664,0.13555555555555565],[-0.03760416666666669,0.1287037037037037],[-0.030104166666666644,0.14074074074074075],[-0.02947916666666662,0.09907407407407408],[-0.034062500000000044,0.05129629629629638],[-0.030208333333333334,0.005555555555555556],[-0.024270833333333287,-0.02092592592592584],[-0.04375,-0.01592592592592597],[-0.04906250000000002,-0.03592592592592588],[-0.05593750000000005,-0.06574074074074074],[-0.05166666666666669,-0.051666666666666625],[-0.04739583333333333,-0.03759259259259251],[-0.04125000000000002,-0.03425925925925926],[-0.035104166666666714,-0.03092592592592601],[-0.010625000000000048,-0.006666666666666709],[0.013854166666666619,0.017592592592592594],[0.036249999999999956,0.03037037037037033],[0.06656249999999998,0.02388888888888885],[0.09343750000000005,0.008333333333333333],[0.121875,0.0025925925925925505],[0.15677083333333333,-0.0257407407407407],[0.19166666666666668,-0.05407407407407405],[0.2234375,-0.08870370370370366],[0.2296875,-0.12462962962962965],[0.24802083333333325,-0.14870370370370373],[0.2663541666666667,-0.1727777777777778],[0.2763541666666666,-0.1844444444444445],[0.28635416666666674,-0.19611111111111107],[0.3033333333333334,-0.225],[0.3203125,-0.25388888888888894],[0.3076041666666666,-0.25629629629629624],[0.2953125,-0.25555555555555554],[0.2821875000000001,-0.24574074074074073],[0.27937500000000004,-0.23870370370370367],[0.25281250000000005,-0.23203703703703707],[0.22625000000000003,-0.22537037037037036],[0.2185416666666666,-0.22888888888888892],[0.21083333333333343,-0.2324074074074074],[0.196875,-0.19759259259259257],[0.18291666666666656,-0.16277777777777774],[0.15770833333333342,-0.15462962962962962],[0.13208333333333327,-0.14962962962962964],[0.1040625000000001,-0.1492592592592593],[0.0912499999999999,-0.14481481481481479],[0.07999999999999995,-0.13129629629629624],[0.06875,-0.11777777777777781],[0.035000000000000024,-0.10666666666666672],[0.013333333333333286,-0.10277777777777777],[-0.01260416666666669,-0.09074074074074075],[-0.03854166666666667,-0.0787037037037037],[-0.043333333333333356,-0.07999999999999997],[-0.04812500000000005,-0.08129629629629626],[-0.03156249999999995,-0.07925925925925928],[-0.014999999999999977,-0.0772222222222222],[0.027604166666666666,-0.0816666666666667],[0.04666666666666662,-0.09833333333333337],[0.09093749999999995,-0.12129629629629629],[0.07916666666666666,-0.14370370370370375],[0.09083333333333338,-0.1675925925925926],[0.08604166666666657,-0.2101851851851852],[0.09229166666666658,-0.23407407407407405],[0.09854166666666657,-0.257962962962963],[0.09593749999999991,-0.25407407407407406],[0.09333333333333324,-0.25018518518518523],[0.07145833333333323,-0.2735185185185185],[0.07312500000000005,-0.2846296296296296],[0.042708333333333334,-0.2577777777777778],[0.05625,-0.2242592592592593],[0.05802083333333338,-0.25277777777777777],[0.07625000000000005,-0.2625925925925926],[0.08666666666666671,-0.2511111111111112],[0.09989583333333343,-0.22870370370370371],[0.09989583333333343,-0.25555555555555554],[0.08958333333333333,-0.275],[0.07479166666666662,-0.23722222222222225],[0.060000000000000026,-0.19944444444444442],[0.06656249999999998,-0.2051851851851852],[0.07312500000000005,-0.21092592592592588],[0.06979166666666667,-0.15685185185185183],[0.06833333333333323,-0.16259259259259262],[0.06854166666666663,-0.18870370370370365],[0.05916666666666662,-0.205],[0.05791666666666669,-0.18499999999999997],[0.06697916666666662,-0.17240740740740745],[0.06697916666666662,-0.17240740740740745],[0.0740624999999999,-0.18314814814814812],[0.0896874999999999,-0.2116666666666667],[0.09500000000000004,-0.22925925925925927],[0.08041666666666672,-0.23981481481481481],[0.07104166666666671,-0.2668518518518519],[0.05510416666666664,-0.2594444444444445],[0.03916666666666669,-0.25203703703703706],[0.024583333333333356,-0.2581481481481481],[0.004999999999999952,-0.2777777777777778],[0.006458333333333381,-0.24981481481481477],[-0.012187500000000047,-0.25833333333333336],[-0.02666666666666669,-0.2368518518518518],[-0.04114583333333333,-0.21537037037037038],[-0.022187499999999954,-0.207962962962963],[-0.0032291666666666905,-0.20055555555555557],[0.030416666666666713,-0.20203703703703707],[0.0375,-0.1653703703703704],[0.05,-0.1359259259259259],[0.05604166666666662,-0.11333333333333331],[0.04104166666666664,-0.1383333333333333],[0.041562499999999974,-0.15388888888888894],[0.029375000000000047,-0.1816666666666667],[0.029375000000000047,-0.1816666666666667],[0.0171875,-0.2094444444444445],[0.0171875,-0.2094444444444445],[-0.007395833333333357,-0.22444444444444442],[-0.007395833333333357,-0.22444444444444442],[-0.03187500000000002,-0.22037037037037038],[-0.03187500000000002,-0.22037037037037038],[-0.06427083333333337,-0.14462962962962966],[-0.06427083333333337,-0.14462962962962966],[-0.05520833333333333,-0.14074074074074075],[-0.05520833333333333,-0.14074074074074075],[-0.05947916666666669,-0.1559259259259259],[-0.04812500000000005,-0.122037037037037],[-0.04468749999999998,-0.10722222222222218],[-0.03854166666666667,-0.07462962962962966],[-0.03875000000000005,-0.020370370370370372],[-0.0421875,-0.002407407407407323],[-0.029791666666666692,0.018333333333333292],[-0.015312500000000047,0.008148148148148106],[-0.007291666666666667,-0.0514814814814814],[0.0032291666666666905,-0.053703703703703705],[0.027083333333333334,-0.03685185185185181],[0.03854166666666667,-0.06703703703703702],[0.05791666666666669,-0.07814814814814813],[0.07572916666666671,-0.09111111111111109],[0.11385416666666662,-0.09148148148148144],[0.15520833333333334,-0.05555555555555555],[0.1701041666666666,-0.04018518518518527],[0.1828125,-0.012962962962962963],[0.17385416666666675,0.046296296296296294],[0.1474999999999999,0.08185185185185194],[0.11156249999999991,0.09703703703703699],[0.07364583333333338,0.10240740740740732]]","[[0.0203125,0.2116666666666666,0.00020000000298381337],[0.033958333333333354,0.1875925925925925,0.019300000011924112],[0.04114583333333333,0.17814814814814822,0.03570000000298279],[0.029895833333333382,0.1633333333333334,0.04980000001192053],[0.03250000000000005,0.12740740740740733,0.06640000000596302],[0.041979166666666616,0.12185185185185177,0.08310000000894036],[0.052291666666666715,0.14759259259259266,0.10410000000894115],[0.052291666666666715,0.14759259259259266,0.116600000008944],[0.06729166666666657,0.15018518518518523,0.13320000000297938],[0.06729166666666657,0.15018518518518523,0.14980000001192195],[0.06447916666666664,0.1596296296296297,0.16640000000596444],[0.06447916666666664,0.1596296296296297,0.18320000000298364],[0.04989583333333331,0.18796296296296297,0.19980000001192622],[0.04989583333333331,0.18796296296296297,0.21660000000894541],[0.06239583333333331,0.19518518518518516,0.23310000000894604],[0.06239583333333331,0.19518518518518516,0.24980000001192337],[0.05416666666666667,0.18574074074074065,0.26640000000596586],[0.03812500000000003,0.1801851851851851,0.2878000000119201],[0.04083333333333338,0.15203703703703708,0.302500000000002],[0.04635416666666667,0.13777777777777775,0.31700000000000017],[0.03989583333333328,0.12925925925925918,0.33310000000894036],[0.03812500000000003,0.09759259259259268,0.3498000000119248],[0.03739583333333331,0.11851851851851852,0.36650000000000205],[0.035625000000000046,0.14037037037037028,0.3832000000029794],[0.0421875,0.11777777777777781,0.39980000001192195],[0.0328125,0.10462962962962963,0.41660000000894115],[0.010520833333333358,0.08629629629629634,0.43320000000298364],[0.007604166666666619,0.09240740740740737,0.4498000000119262],[0.004375000000000047,0.1264814814814814,0.46650000000000347],[0.00916666666666662,0.15759259259259265,0.48310000000894604],[0.01583333333333338,0.16203703703703703,0.4998000000119234],[0.022500000000000023,0.16648148148148145,0.517800000011924],[0.021041666666666715,0.144074074074074,0.5353000000119224],[0.021041666666666715,0.144074074074074,0.5498000000119205],[0.019583333333333286,0.12166666666666676,0.5665000000000049],[0.016250000000000025,0.10037037037037046,0.5832000000029822],[0.013333333333333286,0.1007407407407407,0.5998000000119248],[0.025625000000000023,0.1259259259259259,0.6173000000119231],[0.04541666666666669,0.10944444444444448,0.6343000000119261],[0.06520833333333335,0.09296296296296305,0.649800000011922],[0.0678124999999999,0.08907407407407411,0.6664000000059644],[0.07041666666666657,0.08518518518518518,0.6831000000089418],[0.07322916666666662,0.0985185185185186,0.699900000005961],[0.07843749999999995,0.10925925925925926,0.7196000000089455],[0.08499999999999991,0.11518518518518527,0.7353000000119252],[0.096875,0.1455555555555556,0.7499000000059652],[0.10114583333333324,0.13870370370370366,0.7665000000000006],[0.10541666666666671,0.13185185185185194,0.7832000000029851],[0.09729166666666676,0.14129629629629623,0.7998000000119205],[0.08854166666666667,0.14611111111111108,0.8206000000089446],[0.08895833333333343,0.14129629629629623,0.8367000000029847],[0.08562500000000005,0.1359259259259259,0.8510000000000062],[0.08208333333333329,0.11333333333333341,0.8679000000059602],[0.08156249999999995,0.08148148148148149,0.8871000000089424],[0.0796875,0.0544444444444444,0.9011000000089453],[0.07781250000000005,0.027407407407407325,0.919100000008946],[0.07479166666666662,0.0198148148148149,0.9333000000119256],[0.07177083333333342,0.012222222222222264,0.9497000000029843],[0.06739583333333338,0.014814814814814815,0.9694000000059617],[0.06364583333333336,0.022037037037036994,0.9843000000119204],[0.06822916666666666,0.01574074074074074,0.9998000000119234],[0.0765625,0.009999999999999959,1.0165000000000006],[0.0821875000000001,0.03481481481481473,1.033300000011927],[0.08479166666666677,0.06888888888888897,1.0498000000119205],[0.08760416666666657,0.09537037037037037,1.066400000005963],[0.09041666666666662,0.12185185185185177,1.0832000000029822],[0.09291666666666672,0.12851851851851848,1.0999000000059667],[0.09541666666666657,0.13518518518518519,1.116500000000002],[0.0943749999999999,0.1449999999999999,1.1331000000089446],[0.09333333333333324,0.15481481481481485,1.149800000011922],[0.07958333333333342,0.21055555555555563,1.1664000000059644],[0.09656250000000005,0.3287037037037037,1.1851000000089442],[0.11624999999999991,0.4162962962962962,1.1998000000119262],[0.1359375,0.5038888888888889,1.2165000000000035],[0.15,0.6211111111111111,1.23690000000596],[0.16072916666666662,0.6888888888888889,1.2510000000000048],[0.17999999999999997,0.7842592592592592,1.2665000000000006],[0.17958333333333343,0.8883333333333334,1.283200000002985],[0.17739583333333328,0.9761111111111109,1.2998000000119205],[0.17520833333333338,1.0638888888888889,1.3194000000059631],[0.18385416666666668,1.0914814814814817,1.3343000000119218],[0.16177083333333328,1.0566666666666664,1.3498000000119248],[0.13416666666666663,0.9844444444444442,1.3664000000059602],[0.10656249999999995,0.912222222222222,1.3832000000029794],[0.09249999999999996,0.8168518518518519,1.39970000000298],[0.08177083333333333,0.7709259259259258,1.4196000000089413],[0.08177083333333333,0.7709259259259258,1.437600000008942],[0.06499999999999997,0.6764814814814814,1.4564000000059636],[0.07677083333333339,0.5829629629629629,1.4695000000000036],[0.07677083333333339,0.5829629629629629,1.4832000000029808],[0.08854166666666667,0.48944444444444435,1.4997000000029814],[0.09447916666666671,0.3816666666666667,1.5165000000000006],[0.10364583333333334,0.30944444444444447,1.533200000002985],[0.11281249999999995,0.23722222222222225,1.5499000000059624],[0.10114583333333324,0.18870370370370365,1.566400000005963],[0.08947916666666676,0.14018518518518527,1.5832000000029822],[0.08145833333333338,0.08407407407407404,1.5997000000029828],[0.059062500000000046,0.03222222222222218,1.616600000008944],[0.050520833333333334,0.003888888888888931,1.6332000000029794],[0.009375,0.009629629629629714,1.6499000000059638],[-0.027083333333333334,0,1.6664000000059644],[-0.05697916666666671,0.020370370370370372,1.6831000000089418],[-0.09656250000000005,0.03296296296296288,1.6998000000119262],[-0.09656250000000005,0.03296296296296288,1.7166000000089454],[-0.13614583333333338,0.0455555555555556,1.733100000008946],[-0.1421875,0.08574074074074066,1.7498000000119234],[-0.15093749999999997,0.09203703703703713,1.7665000000000006],[-0.17145833333333335,0.10703703703703696,1.7831000000089432],[-0.1694791666666667,0.125,1.7998000000119205],[-0.17770833333333336,0.1479629629629629,1.8170000000000002],[-0.16062500000000005,0.15037037037037046,1.8332000000029822],[-0.16062500000000005,0.15037037037037046,1.8498000000119248],[-0.16031249999999997,0.1648148148148148,1.8664000000059602],[-0.15343749999999995,0.15018518518518523,1.8831000000089446],[-0.14375,0.14370370370370375,1.89970000000298],[-0.13406250000000006,0.13722222222222227,1.9164999999999992],[-0.13322916666666665,0.10351851851851848,1.9329999999999998],[-0.1296875,0.1037037037037037,1.9498000000119262],[-0.11614583333333334,0.11500000000000005,1.9664000000059616],[-0.11072916666666661,0.11907407407407399,1.983100000008946],[-0.11447916666666665,0.12518518518518523,2],[-0.11135416666666664,0.13481481481481472,2.0165000000000006],[-0.09614583333333329,0.1477777777777777,2.033100000008943],[-0.09802083333333336,0.17462962962962955,2.0498000000119205],[-0.10270833333333336,0.1933333333333333,2.066500000000005],[-0.1014583333333333,0.16999999999999993,2.0831000000089404],[-0.10499999999999995,0.17092592592592584,2.10590000000596],[-0.10499999999999995,0.17092592592592584,2.116500000000002],[-0.10208333333333333,0.1609259259259259,2.1332000000029794],[-0.10208333333333333,0.1609259259259259,2.149800000011922],[-0.10229166666666671,0.1935185185185185,2.166499999999999],[-0.10229166666666671,0.1935185185185185,2.1831000000089418],[-0.10395833333333329,0.19981481481481478,2.1997000000029843],[-0.10395833333333329,0.19981481481481478,2.2166000000089454],[-0.10239583333333328,0.2103703703703704,2.233100000008946],[-0.1014583333333333,0.1875925925925925,2.250200000002984],[-0.1014583333333333,0.1875925925925925,2.266400000005966],[-0.08302083333333338,0.15259259259259256,2.283200000002985],[-0.06895833333333339,0.14203703703703713,2.2998000000119205],[-0.05489583333333338,0.13148148148148148,2.3167000000029816],[-0.049479166666666664,0.13555555555555565,2.333200000002982],[-0.03760416666666669,0.1287037037037037,2.349800000011925],[-0.030104166666666644,0.14074074074074075,2.366500000000002],[-0.02947916666666662,0.09907407407407408,2.3831000000089446],[-0.034062500000000044,0.05129629629629638,2.39970000000298],[-0.030208333333333334,0.005555555555555556,2.416600000008941],[-0.024270833333333287,-0.02092592592592584,2.4331000000089418],[-0.04375,-0.01592592592592597,2.449800000011926],[-0.04906250000000002,-0.03592592592592588,2.4664000000059616],[-0.05593750000000005,-0.06574074074074074,2.483100000008946],[-0.05166666666666669,-0.051666666666666625,2.4999000000059652],[-0.04739583333333333,-0.03759259259259251,2.5166000000089426],[-0.04125000000000002,-0.03425925925925926,2.533100000008943],[-0.035104166666666714,-0.03092592592592601,2.5498000000119205],[-0.010625000000000048,-0.006666666666666709,2.566400000005963],[0.013854166666666619,0.017592592592592594,2.583300000011924],[0.036249999999999956,0.03037037037037033,2.599700000002983],[0.06656249999999998,0.02388888888888885,2.61640000000596],[0.09343750000000005,0.008333333333333333,2.6330000000000027],[0.121875,0.0025925925925925505,2.6532000000029825],[0.15677083333333333,-0.0257407407407407,2.666800000011925],[0.19166666666666668,-0.05407407407407405,2.6831000000089418],[0.2234375,-0.08870370370370366,2.699800000011926],[0.2296875,-0.12462962962962965,2.7197000000029803],[0.24802083333333325,-0.14870370370370373,2.7359000000059623],[0.2663541666666667,-0.1727777777777778,2.75],[0.2763541666666666,-0.1844444444444445,2.766400000005966],[0.28635416666666674,-0.19611111111111107,2.783100000008943],[0.3033333333333334,-0.225,2.7998000000119205],[0.3203125,-0.25388888888888894,2.816500000000005],[0.3076041666666666,-0.25629629629629624,2.833200000002982],[0.2953125,-0.25555555555555554,2.849800000011925],[0.2821875000000001,-0.24574074074074073,2.86640000000596],[0.27937500000000004,-0.23870370370370367,2.8831000000089446],[0.25281250000000005,-0.23203703703703707,2.899800000011922],[0.22625000000000003,-0.22537037037037036,2.9164000000059644],[0.2185416666666666,-0.22888888888888892,2.9331000000089418],[0.21083333333333343,-0.2324074074074074,2.9497000000029843],[0.196875,-0.19759259259259257,2.9664000000059616],[0.18291666666666656,-0.16277777777777774,2.983100000008946],[0.15770833333333342,-0.15462962962962962,2.9998000000119234],[0.13208333333333327,-0.14962962962962964,3.0165000000000006],[0.1040625000000001,-0.1492592592592593,3.0330000000000013],[0.0912499999999999,-0.14481481481481479,3.0498000000119205],[0.07999999999999995,-0.13129629629629624,3.066400000005963],[0.06875,-0.11777777777777781,3.0831000000089404],[0.035000000000000024,-0.10666666666666672,3.099700000002983],[0.013333333333333286,-0.10277777777777777,3.116500000000002],[-0.01260416666666669,-0.09074074074074075,3.1331000000089446],[-0.03854166666666667,-0.0787037037037037,3.14970000000298],[-0.043333333333333356,-0.07999999999999997,3.1664000000059644],[-0.04812500000000005,-0.08129629629629626,3.1831000000089418],[-0.03156249999999995,-0.07925925925925928,3.199800000011926],[-0.014999999999999977,-0.0772222222222222,3.2165000000000035],[0.027604166666666666,-0.0816666666666667,3.233100000008946],[0.04666666666666662,-0.09833333333333337,3.250200000002984],[0.09093749999999995,-0.12129629629629629,3.2665000000000006],[0.07916666666666666,-0.14370370370370375,3.283100000008943],[0.09083333333333338,-0.1675925925925926,3.2998000000119205],[0.08604166666666657,-0.2101851851851852,3.316500000000005],[0.09229166666666658,-0.23407407407407405,3.3331000000089404],[0.09854166666666657,-0.257962962962963,3.349700000002983],[0.09593749999999991,-0.25407407407407406,3.36640000000596],[0.09333333333333324,-0.25018518518518523,3.3831000000089446],[0.07145833333333323,-0.2735185185185185,3.39970000000298],[0.07312500000000005,-0.2846296296296296,3.4169000000059597],[0.042708333333333334,-0.2577777777777778,3.4331000000089418],[0.05625,-0.2242592592592593,3.449800000011926],[0.05802083333333338,-0.25277777777777777,3.4664000000059616],[0.07625000000000005,-0.2625925925925926,3.483100000008946],[0.08666666666666671,-0.2511111111111112,3.4998000000119234],[0.09989583333333343,-0.22870370370370371,3.5168000000119264],[0.09989583333333343,-0.25555555555555554,3.533100000008943],[0.08958333333333333,-0.275,3.5498000000119205],[0.07479166666666662,-0.23722222222222225,3.566400000005963],[0.060000000000000026,-0.19944444444444442,3.5831000000089404],[0.06656249999999998,-0.2051851851851852,3.599700000002983],[0.07312500000000005,-0.21092592592592588,3.616500000000002],[0.06979166666666667,-0.15685185185185183,3.6339000000059656],[0.06833333333333323,-0.16259259259259262,3.64970000000298],[0.06854166666666663,-0.18870370370370365,3.6664000000059644],[0.05916666666666662,-0.205,3.683],[0.05791666666666669,-0.18499999999999997,3.6997000000029843],[0.06697916666666662,-0.17240740740740745,3.722300000011927],[0.06697916666666662,-0.17240740740740745,3.733200000002981],[0.0740624999999999,-0.18314814814814812,3.7497000000029814],[0.0896874999999999,-0.2116666666666667,3.766400000005966],[0.09500000000000004,-0.22925925925925927,3.783100000008943],[0.08041666666666672,-0.23981481481481481,3.7998000000119205],[0.07104166666666671,-0.2668518518518519,3.8168000000119235],[0.05510416666666664,-0.2594444444444445,3.833300000011924],[0.03916666666666669,-0.25203703703703706,3.849800000011925],[0.024583333333333356,-0.2581481481481481,3.86640000000596],[0.004999999999999952,-0.2777777777777778,3.8830000000000027],[0.006458333333333381,-0.24981481481481477,3.899800000011922],[-0.012187500000000047,-0.25833333333333336,3.916499999999999],[-0.02666666666666669,-0.2368518518518518,3.9349000000059604],[-0.04114583333333333,-0.21537037037037038,3.9497000000029843],[-0.022187499999999954,-0.207962962962963,3.9664000000059616],[-0.0032291666666666905,-0.20055555555555557,3.983100000008946],[0.030416666666666713,-0.20203703703703707,3.9997000000029814],[0.0375,-0.1653703703703704,4.016900000005961],[0.05,-0.1359259259259259,4.033100000008943],[0.05604166666666662,-0.11333333333333331,4.049700000002986],[0.04104166666666664,-0.1383333333333333,4.066400000005963],[0.041562499999999974,-0.15388888888888894,4.0830000000000055],[0.029375000000000047,-0.1816666666666667,4.099800000011925],[0.029375000000000047,-0.1816666666666667,4.116500000000002],[0.0171875,-0.2094444444444445,4.133100000008945],[0.0171875,-0.2094444444444445,4.149800000011922],[-0.007395833333333357,-0.22444444444444442,4.166499999999999],[-0.007395833333333357,-0.22444444444444442,4.183],[-0.03187500000000002,-0.22037037037037038,4.199700000002984],[-0.03187500000000002,-0.22037037037037038,4.216400000005962],[-0.06427083333333337,-0.14462962962962966,4.233100000008946],[-0.06427083333333337,-0.14462962962962966,4.249800000011923],[-0.05520833333333333,-0.14074074074074075,4.266300000011924],[-0.05520833333333333,-0.14074074074074075,4.283100000008943],[-0.05947916666666669,-0.1559259259259259,4.2998000000119205],[-0.04812500000000005,-0.122037037037037,4.316500000000005],[-0.04468749999999998,-0.10722222222222218,4.3330000000000055],[-0.03854166666666667,-0.07462962962962966,4.351600000008943],[-0.03875000000000005,-0.020370370370370372,4.36640000000596],[-0.0421875,-0.002407407407407323,4.383000000000003],[-0.029791666666666692,0.018333333333333292,4.399800000011922],[-0.015312500000000047,0.008148148148148106,4.418600000008944],[-0.007291666666666667,-0.0514814814814814,4.433200000002984],[0.0032291666666666905,-0.053703703703703705,4.4510000000000005],[0.027083333333333334,-0.03685185185185181,4.466400000005962],[0.03854166666666667,-0.06703703703703702,4.483000000000004],[0.05791666666666669,-0.07814814814814813,4.5],[0.07572916666666671,-0.09111111111111109,4.516500000000001],[0.11385416666666662,-0.09148148148148144,4.533100000008943],[0.15520833333333334,-0.05555555555555555,4.5498000000119205],[0.1701041666666666,-0.04018518518518527,4.566400000005963],[0.1828125,-0.012962962962962963,4.58310000000894],[0.17385416666666675,0.046296296296296294,4.599800000011925],[0.1474999999999999,0.08185185185185194,4.616900000005963],[0.11156249999999991,0.09703703703703699,4.633000000000003],[0.07364583333333338,0.10240740740740732,4.649800000011922]]","[0.00020000000298381337,0.019300000011924112,0.03570000000298279,0.04980000001192053,0.06640000000596302,0.08310000000894036,0.10410000000894115,0.116600000008944,0.13320000000297938,0.14980000001192195,0.16640000000596444,0.18320000000298364,0.19980000001192622,0.21660000000894541,0.23310000000894604,0.24980000001192337,0.26640000000596586,0.2878000000119201,0.302500000000002,0.31700000000000017,0.33310000000894036,0.3498000000119248,0.36650000000000205,0.3832000000029794,0.39980000001192195,0.41660000000894115,0.43320000000298364,0.4498000000119262,0.46650000000000347,0.48310000000894604,0.4998000000119234,0.517800000011924,0.5353000000119224,0.5498000000119205,0.5665000000000049,0.5832000000029822,0.5998000000119248,0.6173000000119231,0.6343000000119261,0.649800000011922,0.6664000000059644,0.6831000000089418,0.699900000005961,0.7196000000089455,0.7353000000119252,0.7499000000059652,0.7665000000000006,0.7832000000029851,0.7998000000119205,0.8206000000089446,0.8367000000029847,0.8510000000000062,0.8679000000059602,0.8871000000089424,0.9011000000089453,0.919100000008946,0.9333000000119256,0.9497000000029843,0.9694000000059617,0.9843000000119204,0.9998000000119234,1.0165000000000006,1.033300000011927,1.0498000000119205,1.066400000005963,1.0832000000029822,1.0999000000059667,1.116500000000002,1.1331000000089446,1.149800000011922,1.1664000000059644,1.1851000000089442,1.1998000000119262,1.2165000000000035,1.23690000000596,1.2510000000000048,1.2665000000000006,1.283200000002985,1.2998000000119205,1.3194000000059631,1.3343000000119218,1.3498000000119248,1.3664000000059602,1.3832000000029794,1.39970000000298,1.4196000000089413,1.437600000008942,1.4564000000059636,1.4695000000000036,1.4832000000029808,1.4997000000029814,1.5165000000000006,1.533200000002985,1.5499000000059624,1.566400000005963,1.5832000000029822,1.5997000000029828,1.616600000008944,1.6332000000029794,1.6499000000059638,1.6664000000059644,1.6831000000089418,1.6998000000119262,1.7166000000089454,1.733100000008946,1.7498000000119234,1.7665000000000006,1.7831000000089432,1.7998000000119205,1.8170000000000002,1.8332000000029822,1.8498000000119248,1.8664000000059602,1.8831000000089446,1.89970000000298,1.9164999999999992,1.9329999999999998,1.9498000000119262,1.9664000000059616,1.983100000008946,2,2.0165000000000006,2.033100000008943,2.0498000000119205,2.066500000000005,2.0831000000089404,2.10590000000596,2.116500000000002,2.1332000000029794,2.149800000011922,2.166499999999999,2.1831000000089418,2.1997000000029843,2.2166000000089454,2.233100000008946,2.250200000002984,2.266400000005966,2.283200000002985,2.2998000000119205,2.3167000000029816,2.333200000002982,2.349800000011925,2.366500000000002,2.3831000000089446,2.39970000000298,2.416600000008941,2.4331000000089418,2.449800000011926,2.4664000000059616,2.483100000008946,2.4999000000059652,2.5166000000089426,2.533100000008943,2.5498000000119205,2.566400000005963,2.583300000011924,2.599700000002983,2.61640000000596,2.6330000000000027,2.6532000000029825,2.666800000011925,2.6831000000089418,2.699800000011926,2.7197000000029803,2.7359000000059623,2.75,2.766400000005966,2.783100000008943,2.7998000000119205,2.816500000000005,2.833200000002982,2.849800000011925,2.86640000000596,2.8831000000089446,2.899800000011922,2.9164000000059644,2.9331000000089418,2.9497000000029843,2.9664000000059616,2.983100000008946,2.9998000000119234,3.0165000000000006,3.0330000000000013,3.0498000000119205,3.066400000005963,3.0831000000089404,3.099700000002983,3.116500000000002,3.1331000000089446,3.14970000000298,3.1664000000059644,3.1831000000089418,3.199800000011926,3.2165000000000035,3.233100000008946,3.250200000002984,3.2665000000000006,3.283100000008943,3.2998000000119205,3.316500000000005,3.3331000000089404,3.349700000002983,3.36640000000596,3.3831000000089446,3.39970000000298,3.4169000000059597,3.4331000000089418,3.449800000011926,3.4664000000059616,3.483100000008946,3.4998000000119234,3.5168000000119264,3.533100000008943,3.5498000000119205,3.566400000005963,3.5831000000089404,3.599700000002983,3.616500000000002,3.6339000000059656,3.64970000000298,3.6664000000059644,3.683,3.6997000000029843,3.722300000011927,3.733200000002981,3.7497000000029814,3.766400000005966,3.783100000008943,3.7998000000119205,3.8168000000119235,3.833300000011924,3.849800000011925,3.86640000000596,3.8830000000000027,3.899800000011922,3.916499999999999,3.9349000000059604,3.9497000000029843,3.9664000000059616,3.983100000008946,3.9997000000029814,4.016900000005961,4.033100000008943,4.049700000002986,4.066400000005963,4.0830000000000055,4.099800000011925,4.116500000000002,4.133100000008945,4.149800000011922,4.166499999999999,4.183,4.199700000002984,4.216400000005962,4.233100000008946,4.249800000011923,4.266300000011924,4.283100000008943,4.2998000000119205,4.316500000000005,4.3330000000000055,4.351600000008943,4.36640000000596,4.383000000000003,4.399800000011922,4.418600000008944,4.433200000002984,4.4510000000000005,4.466400000005962,4.483000000000004,4.5,4.516500000000001,4.533100000008943,4.5498000000119205,4.566400000005963,4.58310000000894,4.599800000011925,4.616900000005963,4.633000000000003,4.649800000011922]","[1733193087386,1733193087404,1733193087420,1733193087434,1733193087451,1733193087468,1733193087489,1733193087501,1733193087518,1733193087534,1733193087551,1733193087568,1733193087584,1733193087601,1733193087618,1733193087634,1733193087651,1733193087672,1733193087687,1733193087702,1733193087718,1733193087734,1733193087751,1733193087768,1733193087784,1733193087801,1733193087818,1733193087834,1733193087851,1733193087868,1733193087884,1733193087902,1733193087920,1733193087934,1733193087951,1733193087968,1733193087984,1733193088002,1733193088019,1733193088034,1733193088051,1733193088068,1733193088084,1733193088104,1733193088120,1733193088134,1733193088151,1733193088168,1733193088184,1733193088205,1733193088221,1733193088236,1733193088252,1733193088272,1733193088286,1733193088304,1733193088318,1733193088334,1733193088354,1733193088369,1733193088384,1733193088401,1733193088418,1733193088434,1733193088451,1733193088468,1733193088484,1733193088501,1733193088518,1733193088534,1733193088551,1733193088570,1733193088584,1733193088601,1733193088622,1733193088636,1733193088651,1733193088668,1733193088684,1733193088704,1733193088719,1733193088734,1733193088751,1733193088768,1733193088784,1733193088804,1733193088822,1733193088841,1733193088854,1733193088868,1733193088884,1733193088901,1733193088918,1733193088935,1733193088951,1733193088968,1733193088984,1733193089001,1733193089018,1733193089035,1733193089051,1733193089068,1733193089084,1733193089101,1733193089118,1733193089134,1733193089151,1733193089168,1733193089184,1733193089202,1733193089218,1733193089234,1733193089251,1733193089268,1733193089284,1733193089301,1733193089318,1733193089334,1733193089351,1733193089368,1733193089385,1733193089401,1733193089418,1733193089434,1733193089451,1733193089468,1733193089491,1733193089501,1733193089518,1733193089534,1733193089551,1733193089568,1733193089584,1733193089601,1733193089618,1733193089635,1733193089651,1733193089668,1733193089684,1733193089701,1733193089718,1733193089734,1733193089751,1733193089768,1733193089784,1733193089801,1733193089818,1733193089834,1733193089851,1733193089868,1733193089884,1733193089901,1733193089918,1733193089934,1733193089951,1733193089968,1733193089984,1733193090001,1733193090018,1733193090038,1733193090051,1733193090068,1733193090084,1733193090104,1733193090121,1733193090135,1733193090151,1733193090168,1733193090184,1733193090201,1733193090218,1733193090234,1733193090251,1733193090268,1733193090284,1733193090301,1733193090318,1733193090334,1733193090351,1733193090368,1733193090384,1733193090401,1733193090418,1733193090434,1733193090451,1733193090468,1733193090484,1733193090501,1733193090518,1733193090534,1733193090551,1733193090568,1733193090585,1733193090601,1733193090618,1733193090635,1733193090651,1733193090668,1733193090684,1733193090701,1733193090718,1733193090734,1733193090751,1733193090768,1733193090784,1733193090802,1733193090818,1733193090834,1733193090851,1733193090868,1733193090884,1733193090901,1733193090918,1733193090934,1733193090951,1733193090968,1733193090984,1733193091001,1733193091019,1733193091034,1733193091051,1733193091068,1733193091084,1733193091107,1733193091118,1733193091134,1733193091151,1733193091168,1733193091184,1733193091201,1733193091218,1733193091234,1733193091251,1733193091268,1733193091284,1733193091301,1733193091319,1733193091334,1733193091351,1733193091368,1733193091384,1733193091402,1733193091418,1733193091434,1733193091451,1733193091468,1733193091484,1733193091501,1733193091518,1733193091534,1733193091551,1733193091568,1733193091584,1733193091601,1733193091618,1733193091634,1733193091651,1733193091668,1733193091684,1733193091701,1733193091718,1733193091736,1733193091751,1733193091768,1733193091784,1733193091803,1733193091818,1733193091836,1733193091851,1733193091868,1733193091885,1733193091901,1733193091918,1733193091934,1733193091951,1733193091968,1733193091984,1733193092002,1733193092018,1733193092034]","[[979.5,654.3],[992.6,641.3],[999.5,636.2],[988.7,628.2],[991.2,608.8],[1000.3,605.8],[1010.2,619.7],[1010.2,619.7],[1024.6,621.1],[1024.6,621.1],[1021.9,626.2],[1021.9,626.2],[1007.9,641.5],[1007.9,641.5],[1019.9,645.4],[1019.9,645.4],[1012,640.3],[996.6,637.3],[999.2,622.1],[1004.5,614.4],[998.3,609.8],[996.6,592.7],[995.9,604],[994.2,615.8],[1000.5,603.6],[991.5,596.5],[970.1,586.6],[967.3,589.9],[964.2,608.3],[968.8,625.1],[975.2,627.5],[981.6,629.9],[980.2,617.8],[980.2,617.8],[978.8,605.7],[975.6,594.2],[972.8,594.4],[984.6,608],[1003.6,599.1],[1022.6,590.2],[1025.1,588.1],[1027.6,586],[1030.3,593.2],[1035.3,599],[1041.6,602.2],[1053,618.6],[1057.1,614.9],[1061.2,611.2],[1053.4,616.3],[1045,618.9],[1045.4,616.3],[1042.2,613.4],[1038.8,601.2],[1038.3,584],[1036.5,569.4],[1034.7,554.8],[1031.8,550.7],[1028.9,546.6],[1024.7,548],[1021.1,551.9],[1025.5,548.5],[1033.5,545.4],[1038.9,558.8],[1041.4,577.2],[1044.1,591.5],[1046.8,605.8],[1049.2,609.4],[1051.6,613],[1050.6,618.3],[1049.6,623.6],[1036.4,653.7],[1052.7,717.5],[1071.6,764.8],[1090.5,812.1],[1104,875.4],[1114.3,912],[1132.8,963.5],[1132.4,1019.7],[1130.3,1067.1],[1128.2,1114.5],[1136.5,1129.4],[1115.3,1110.6],[1088.8,1071.6],[1062.3,1032.6],[1048.8,981.1],[1038.5,956.3],[1038.5,956.3],[1022.4,905.3],[1033.7,854.8],[1033.7,854.8],[1045,804.3],[1050.7,746.1],[1059.5,707.1],[1068.3,668.1],[1057.1,641.9],[1045.9,615.7],[1038.2,585.4],[1016.7,557.4],[1008.5,542.1],[969,545.2],[934,540],[905.3,551],[867.3,557.8],[867.3,557.8],[829.3,564.6],[823.5,586.3],[815.1,589.7],[795.4,597.8],[797.3,607.5],[789.4,619.9],[805.8,621.2],[805.8,621.2],[806.1,629],[812.7,621.1],[822,617.6],[831.3,614.1],[832.1,595.9],[835.5,596],[848.5,602.1],[853.7,604.3],[850.1,607.6],[853.1,612.8],[867.7,619.8],[865.9,634.3],[861.4,644.4],[862.6,631.8],[859.2,632.3],[859.2,632.3],[862,626.9],[862,626.9],[861.8,644.5],[861.8,644.5],[860.2,647.9],[860.2,647.9],[861.7,653.6],[862.6,641.3],[862.6,641.3],[880.3,622.4],[893.8,616.7],[907.3,611],[912.5,613.2],[923.9,609.5],[931.1,616],[931.7,593.5],[927.3,567.7],[931,543],[936.7,528.7],[918,531.4],[912.9,520.6],[906.3,504.5],[910.4,512.1],[914.5,519.7],[920.4,521.5],[926.3,523.3],[949.8,536.4],[973.3,549.5],[994.8,556.4],[1023.9,552.9],[1049.7,544.5],[1077,541.4],[1110.5,526.1],[1144,510.8],[1174.5,492.1],[1180.5,472.7],[1198.1,459.7],[1215.7,446.7],[1225.3,440.4],[1234.9,434.1],[1251.2,418.5],[1267.5,402.9],[1255.3,401.6],[1243.5,402],[1230.9,407.3],[1228.2,411.1],[1202.7,414.7],[1177.2,418.3],[1169.8,416.4],[1162.4,414.5],[1149,433.3],[1135.6,452.1],[1111.4,456.5],[1086.8,459.2],[1059.9,459.4],[1047.6,461.8],[1036.8,469.1],[1026,476.4],[993.6,482.4],[972.8,484.5],[947.9,491],[923,497.5],[918.4,496.8],[913.8,496.1],[929.7,497.2],[945.6,498.3],[986.5,495.9],[1004.8,486.9],[1047.3,474.5],[1036,462.4],[1047.2,449.5],[1042.6,426.5],[1048.6,413.6],[1054.6,400.7],[1052.1,402.8],[1049.6,404.9],[1028.6,392.3],[1030.2,386.3],[1001,400.8],[1014,418.9],[1015.7,403.5],[1033.2,398.2],[1043.2,404.4],[1055.9,416.5],[1055.9,402],[1046,391.5],[1031.8,411.9],[1017.6,432.3],[1023.9,429.2],[1030.2,426.1],[1027,455.3],[1025.6,452.2],[1025.8,438.1],[1016.8,429.3],[1015.6,440.1],[1024.3,446.9],[1024.3,446.9],[1031.1,441.1],[1046.1,425.7],[1051.2,416.2],[1037.2,410.5],[1028.2,395.9],[1012.9,399.9],[997.6,403.9],[983.6,400.6],[964.8,390],[966.2,405.1],[948.3,400.5],[934.4,412.1],[920.5,423.7],[938.7,427.7],[956.9,431.7],[989.2,430.9],[996,450.7],[1008,466.6],[1013.8,478.8],[999.4,465.3],[999.9,456.9],[988.2,441.9],[988.2,441.9],[976.5,426.9],[976.5,426.9],[952.9,418.8],[952.9,418.8],[929.4,421],[929.4,421],[898.3,461.9],[898.3,461.9],[907,464],[907,464],[902.9,455.8],[913.8,474.1],[917.1,482.1],[923,499.7],[922.8,529],[919.5,538.7],[931.4,549.9],[945.3,544.4],[953,512.2],[963.1,511],[986,520.1],[997,503.8],[1015.6,497.8],[1032.7,490.8],[1069.3,490.6],[1109,510],[1123.3,518.3],[1135.5,533],[1126.9,565],[1101.6,584.2],[1067.1,592.4],[1030.7,595.3