inst1_resp.keys,inst1_resp.rt,calibrationMouse.x,calibrationMouse.y,calibrationMouse.leftButton,calibrationMouse.midButton,calibrationMouse.rightButton,calibrationClick.x,calibrationClick.y,calibrationClick.leftButton,calibrationClick.midButton,calibrationClick.rightButton,calibrationClick.clicked_name,trialsc.thisRepN,trialsc.thisTrialN,trialsc.thisN,trialsc.thisIndex,trialsc.ran,calibration_x,calibration_y,participant,session,date,expName,psychopyVersion,OS,frameRate,ScreenRes_pixels,Camera_pixels,mouse_2.x,mouse_2.y,mouse_2.leftButton,mouse_2.midButton,mouse_2.rightButton,mouse_2.time,mouse_2.clicked_name,mouse.x,mouse.y,mouse.leftButton,mouse.midButton,mouse.rightButton,mouse.time,mouse.clicked_name,Choice,Trial,TrialDuration,MOUSE_GAZE,ET_GAZE,ET_GAZE_x_T,time,unixTime,ET_GAZE_NF,Loc_Option1_label,Loc_Option2_label,Loc_Cost_label,Loc_Qual_label,Loc_Option1_cost,Loc_Option2_cost,Loc_Option1_quality,Loc_Option2_quality,trials.thisRepN,trials.thisTrialN,trials.thisN,trials.thisIndex,trials.ran,Block,Device,cost1,qual1,cost2,qual2
space,2.4148,0.084375,-0.42962963,1,0,0,-0.333333333,-0.675925926,1,0,0,calibration_square,0,0,0,4,1,-0.33,-0.67,47,001,2024-11-28_13h06.36.690,Attention_exp_legacy,2023.1.0,Win32,60.24096386,,,,,,,,,,,,,,,,,,,,,,,,,,,,,,,,,,,,,,,,,,,,
,,,,,,,-0.661458333,-0.325925926,1,0,0,calibration_square,0,1,1,1,1,-0.67,-0.33,47,001,2024-11-28_13h06.36.690,Attention_exp_legacy,2023.1.0,Win32,60.24096386,,,,,,,,,,,,,,,,,,,,,,,,,,,,,,,,,,,,,,,,,,,,
,,,,,,,-0.002083333,-0.32962963,1,0,0,calibration_square,0,2,2,10,1,0,-0.33,47,001,2024-11-28_13h06.36.690,Attention_exp_legacy,2023.1.0,Win32,60.24096386,,,,,,,,,,,,,,,,,,,,,,,,,,,,,,,,,,,,,,,,,,,,
,,,,,,,-0.672916667,-0.003703704,1,0,0,calibration_square,0,3,3,2,1,-0.67,0,47,001,2024-11-28_13h06.36.690,Attention_exp_legacy,2023.1.0,Win32,60.24096386,,,,,,,,,,,,,,,,,,,,,,,,,,,,,,,,,,,,,,,,,,,,
,,,,,,,0.328125,-0.672222222,1,0,0,calibration_square,0,4,4,14,1,0.33,-0.67,47,001,2024-11-28_13h06.36.690,Attention_exp_legacy,2023.1.0,Win32,60.24096386,,,,,,,,,,,,,,,,,,,,,,,,,,,,,,,,,,,,,,,,,,,,
,,,,,,,0.328125,0.666666667,1,0,0,calibration_square,0,5,5,18,1,0.33,0.67,47,001,2024-11-28_13h06.36.690,Attention_exp_legacy,2023.1.0,Win32,60.24096386,,,,,,,,,,,,,,,,,,,,,,,,,,,,,,,,,,,,,,,,,,,,
,,,,,,,-0.663541667,-0.67037037,1,0,0,calibration_square,0,6,6,0,1,-0.67,-0.67,47,001,2024-11-28_13h06.36.690,Attention_exp_legacy,2023.1.0,Win32,60.24096386,,,,,,,,,,,,,,,,,,,,,,,,,,,,,,,,,,,,,,,,,,,,
,,,,,,,0.663541667,-0.67037037,1,0,0,calibration_square,0,7,7,20,1,0.67,-0.67,47,001,2024-11-28_13h06.36.690,Attention_exp_legacy,2023.1.0,Win32,60.24096386,,,,,,,,,,,,,,,,,,,,,,,,,,,,,,,,,,,,,,,,,,,,
,,,,,,,-0.325,0.325925926,1,0,0,calibration_square,0,8,8,7,1,-0.33,0.33,47,001,2024-11-28_13h06.36.690,Attention_exp_legacy,2023.1.0,Win32,60.24096386,,,,,,,,,,,,,,,,,,,,,,,,,,,,,,,,,,,,,,,,,,,,
,,,,,,,-0.328125,-0.333333333,1,0,0,calibration_square,0,9,9,5,1,-0.33,-0.33,47,001,2024-11-28_13h06.36.690,Attention_exp_legacy,2023.1.0,Win32,60.24096386,,,,,,,,,,,,,,,,,,,,,,,,,,,,,,,,,,,,,,,,,,,,
,,,,,,,0.002083333,-0.672222222,1,0,0,calibration_square,0,10,10,9,1,0,-0.67,47,001,2024-11-28_13h06.36.690,Attention_exp_legacy,2023.1.0,Win32,60.24096386,,,,,,,,,,,,,,,,,,,,,,,,,,,,,,,,,,,,,,,,,,,,
,,,,,,,0.003125,0.333333333,1,0,0,calibration_square,0,11,11,12,1,0,0.33,47,001,2024-11-28_13h06.36.690,Attention_exp_legacy,2023.1.0,Win32,60.24096386,,,,,,,,,,,,,,,,,,,,,,,,,,,,,,,,,,,,,,,,,,,,
,,,,,,,0.00625,0.662962963,1,0,0,calibration_square,0,12,12,13,1,0,0.67,47,001,2024-11-28_13h06.36.690,Attention_exp_legacy,2023.1.0,Win32,60.24096386,,,,,,,,,,,,,,,,,,,,,,,,,,,,,,,,,,,,,,,,,,,,
,,,,,,,0.325,-0.322222222,1,0,0,calibration_square,0,13,13,15,1,0.33,-0.33,47,001,2024-11-28_13h06.36.690,Attention_exp_legacy,2023.1.0,Win32,60.24096386,,,,,,,,,,,,,,,,,,,,,,,,,,,,,,,,,,,,,,,,,,,,
,,,,,,,-0.675,0.333333333,1,0,0,calibration_square,0,14,14,3,1,-0.67,0.33,47,001,2024-11-28_13h06.36.690,Attention_exp_legacy,2023.1.0,Win32,60.24096386,,,,,,,,,,,,,,,,,,,,,,,,,,,,,,,,,,,,,,,,,,,,
,,,,,,,0.321875,0.001851852,1,0,0,calibration_square,0,15,15,16,1,0.33,0,47,001,2024-11-28_13h06.36.690,Attention_exp_legacy,2023.1.0,Win32,60.24096386,,,,,,,,,,,,,,,,,,,,,,,,,,,,,,,,,,,,,,,,,,,,
,,,,,,,-0.335416667,0.005555556,1,0,0,calibration_square,0,16,16,6,1,-0.33,0,47,001,2024-11-28_13h06.36.690,Attention_exp_legacy,2023.1.0,Win32,60.24096386,,,,,,,,,,,,,,,,,,,,,,,,,,,,,,,,,,,,,,,,,,,,
,,,,,,,0.322916667,0.337037037,1,0,0,calibration_square,0,17,17,17,1,0.33,0.33,47,001,2024-11-28_13h06.36.690,Attention_exp_legacy,2023.1.0,Win32,60.24096386,,,,,,,,,,,,,,,,,,,,,,,,,,,,,,,,,,,,,,,,,,,,
,,,,,,,-0.003125,0.007407407,1,0,0,calibration_square,0,18,18,11,1,0,0,47,001,2024-11-28_13h06.36.690,Attention_exp_legacy,2023.1.0,Win32,60.24096386,,,,,,,,,,,,,,,,,,,,,,,,,,,,,,,,,,,,,,,,,,,,
,,,,,,,0.661458333,0.662962963,1,0,0,calibration_square,0,19,19,19,1,0.67,0.67,47,001,2024-11-28_13h06.36.690,Attention_exp_legacy,2023.1.0,Win32,60.24096386,,,,,,,,,,,,,,,,,,,,,,,,,,,,,,,,,,,,,,,,,,,,
,,,,,,,-0.329166667,0.668518519,1,0,0,calibration_square,0,20,20,8,1,-0.33,0.67,47,001,2024-11-28_13h06.36.690,Attention_exp_legacy,2023.1.0,Win32,60.24096386,,,,,,,,,,,,,,,,,,,,,,,,,,,,,,,,,,,,,,,,,,,,
,,,,,,,,,,,,,,,,,,,,47,001,2024-11-28_13h06.36.690,Attention_exp_legacy,2023.1.0,Win32,60.24096386,"[1920,1080]","[640,480]",[0.007291666666666667],[-0.5055555555555555],[1],[0],[0],[3.644300000011924],"[""StartButton""]",[0.36354166666666665],[0.337037037037037],[1],[0],[0],[3.3236999999880794],"[""Option2_label""]",Option2_label,1,4.3311,"[[-0.019791666666666666,-0.12407407407407407],[-0.019791666666666666,-0.12407407407407407],[-0.019791666666666666,-0.12407407407407407],[-0.019791666666666666,-0.12407407407407407],[-0.019791666666666666,-0.12407407407407407],[-0.019791666666666666,-0.12407407407407407],[-0.019791666666666666,-0.12777777777777777],[-0.019791666666666666,-0.12777777777777777],[-0.019791666666666666,-0.12962962962962962],[-0.019791666666666666,-0.12962962962962962],[-0.019791666666666666,-0.12962962962962962],[-0.019791666666666666,-0.12962962962962962],[-0.019791666666666666,-0.12962962962962962],[-0.019791666666666666,-0.12962962962962962],[-0.019791666666666666,-0.12962962962962962],[-0.019791666666666666,-0.12962962962962962],[-0.019791666666666666,-0.12962962962962962],[-0.019791666666666666,-0.12962962962962962],[-0.019791666666666666,-0.12962962962962962],[-0.019791666666666666,-0.12962962962962962],[-0.019791666666666666,-0.12962962962962962],[-0.019791666666666666,-0.12962962962962962],[-0.019791666666666666,-0.12962962962962962],[-0.019791666666666666,-0.12962962962962962],[-0.019791666666666666,-0.12962962962962962],[-0.019791666666666666,-0.12962962962962962],[-0.019791666666666666,-0.12962962962962962],[-0.019791666666666666,-0.12962962962962962],[-0.019791666666666666,-0.12962962962962962],[-0.019791666666666666,-0.12962962962962962],[-0.019791666666666666,-0.12962962962962962],[-0.019791666666666666,-0.12962962962962962],[-0.019791666666666666,-0.12962962962962962],[-0.019791666666666666,-0.12962962962962962],[-0.019791666666666666,-0.12962962962962962],[-0.019791666666666666,-0.12962962962962962],[-0.019791666666666666,-0.12962962962962962],[-0.019791666666666666,-0.12962962962962962],[-0.019791666666666666,-0.12962962962962962],[-0.019791666666666666,-0.12962962962962962],[-0.019791666666666666,-0.12962962962962962],[-0.019791666666666666,-0.12962962962962962],[-0.019791666666666666,-0.12962962962962962],[-0.019791666666666666,-0.12962962962962962],[-0.019791666666666666,-0.12962962962962962],[-0.019791666666666666,-0.12962962962962962],[-0.019791666666666666,-0.12962962962962962],[-0.019791666666666666,-0.12962962962962962],[-0.019791666666666666,-0.12962962962962962],[-0.019791666666666666,-0.12962962962962962],[-0.019791666666666666,-0.12962962962962962],[-0.019791666666666666,-0.12962962962962962],[-0.019791666666666666,-0.12962962962962962],[-0.019791666666666666,-0.12962962962962962],[-0.019791666666666666,-0.12962962962962962],[-0.019791666666666666,-0.12962962962962962],[-0.019791666666666666,-0.12962962962962962],[-0.019791666666666666,-0.12962962962962962],[-0.019791666666666666,-0.12962962962962962],[-0.019791666666666666,-0.12962962962962962],[-0.019791666666666666,-0.12962962962962962],[-0.019791666666666666,-0.12962962962962962],[-0.019791666666666666,-0.12962962962962962],[-0.019791666666666666,-0.12962962962962962],[-0.019791666666666666,-0.12962962962962962],[-0.019791666666666666,-0.12962962962962962],[-0.019791666666666666,-0.12962962962962962],[-0.019791666666666666,-0.12962962962962962],[-0.019791666666666666,-0.12962962962962962],[-0.019791666666666666,-0.12962962962962962],[-0.019791666666666666,-0.12962962962962962],[-0.019791666666666666,-0.12962962962962962],[-0.019791666666666666,-0.12962962962962962],[-0.019791666666666666,-0.12962962962962962],[-0.019791666666666666,-0.12962962962962962],[-0.019791666666666666,-0.12962962962962962],[-0.019791666666666666,-0.12962962962962962],[-0.019791666666666666,-0.12962962962962962],[-0.019791666666666666,-0.12962962962962962],[-0.019791666666666666,-0.12962962962962962],[-0.019791666666666666,-0.12962962962962962],[-0.019791666666666666,-0.12962962962962962],[-0.019791666666666666,-0.12962962962962962],[-0.019791666666666666,-0.12962962962962962],[-0.019791666666666666,-0.12962962962962962],[-0.019791666666666666,-0.12962962962962962],[-0.019791666666666666,-0.12962962962962962],[-0.019791666666666666,-0.12962962962962962],[-0.019791666666666666,-0.12962962962962962],[-0.019791666666666666,-0.12962962962962962],[-0.019791666666666666,-0.12962962962962962],[-0.019791666666666666,-0.12962962962962962],[-0.019791666666666666,-0.12962962962962962],[-0.019791666666666666,-0.12962962962962962],[-0.019791666666666666,-0.12962962962962962],[-0.019791666666666666,-0.12962962962962962],[-0.019791666666666666,-0.12962962962962962],[-0.019791666666666666,-0.12962962962962962],[-0.019791666666666666,-0.12962962962962962],[-0.019791666666666666,-0.12962962962962962],[-0.019791666666666666,-0.12962962962962962],[-0.019791666666666666,-0.12962962962962962],[-0.019791666666666666,-0.12962962962962962],[-0.019791666666666666,-0.12962962962962962],[-0.019791666666666666,-0.12962962962962962],[-0.019791666666666666,-0.12962962962962962],[-0.019791666666666666,-0.12962962962962962],[-0.019791666666666666,-0.12962962962962962],[-0.019791666666666666,-0.12962962962962962],[-0.019791666666666666,-0.12962962962962962],[-0.019791666666666666,-0.13148148148148148],[-0.019791666666666666,-0.13333333333333333],[-0.019791666666666666,-0.13333333333333333],[-0.019791666666666666,-0.13518518518518519],[-0.019791666666666666,-0.13518518518518519],[-0.019791666666666666,-0.13518518518518519],[-0.019791666666666666,-0.13518518518518519],[-0.019791666666666666,-0.13518518518518519],[-0.019791666666666666,-0.13518518518518519],[-0.019791666666666666,-0.13518518518518519],[-0.019791666666666666,-0.13518518518518519],[-0.019791666666666666,-0.13518518518518519],[-0.019791666666666666,-0.13518518518518519],[-0.019791666666666666,-0.13518518518518519],[-0.019791666666666666,-0.13518518518518519],[-0.019791666666666666,-0.13518518518518519],[-0.019791666666666666,-0.13518518518518519],[-0.019791666666666666,-0.13518518518518519],[-0.019791666666666666,-0.13518518518518519],[-0.019791666666666666,-0.13518518518518519],[-0.019791666666666666,-0.13518518518518519],[-0.019791666666666666,-0.13518518518518519],[-0.019791666666666666,-0.13518518518518519],[-0.019791666666666666,-0.13518518518518519],[-0.017708333333333333,-0.13518518518518519],[-0.017708333333333333,-0.13333333333333333],[-0.016666666666666666,-0.13148148148148148],[-0.011458333333333333,-0.12777777777777777],[-0.007291666666666667,-0.12407407407407407],[-0.004166666666666667,-0.12037037037037036],[0.003125,-0.11481481481481481],[0.008333333333333333,-0.10740740740740741],[0.0125,-0.1037037037037037],[0.016666666666666666,-0.09814814814814815],[0.020833333333333332,-0.08888888888888889],[0.025,-0.07777777777777778],[0.03229166666666667,-0.05555555555555555],[0.03854166666666667,-0.040740740740740744],[0.04479166666666667,-0.022222222222222223],[0.04895833333333333,0.001851851851851852],[0.05416666666666667,0.022222222222222223],[0.059375,0.04814814814814815],[0.06354166666666666,0.06851851851851852],[0.06770833333333333,0.08888888888888889],[0.075,0.11666666666666667],[0.08541666666666667,0.14814814814814814],[0.096875,0.17962962962962964],[0.109375,0.2111111111111111],[0.11875,0.2388888888888889],[0.13020833333333334,0.26296296296296295],[0.13541666666666666,0.2777777777777778],[0.14270833333333333,0.29259259259259257],[0.15416666666666667,0.31296296296296294],[0.16458333333333333,0.32592592592592595],[0.17395833333333333,0.34074074074074073],[0.18229166666666666,0.35185185185185186],[0.18645833333333334,0.3592592592592593],[0.19166666666666668,0.3648148148148148],[0.19479166666666667,0.36666666666666664],[0.19791666666666666,0.37037037037037035],[0.19791666666666666,0.37037037037037035],[0.19895833333333332,0.37037037037037035],[0.19895833333333332,0.37037037037037035],[0.20104166666666667,0.37222222222222223],[0.20416666666666666,0.37222222222222223],[0.20833333333333334,0.37222222222222223],[0.21979166666666666,0.37222222222222223],[0.23333333333333334,0.37222222222222223],[0.24479166666666666,0.37037037037037035],[0.2604166666666667,0.3685185185185185],[0.27708333333333335,0.3648148148148148],[0.296875,0.3592592592592593],[0.31354166666666666,0.35555555555555557],[0.33541666666666664,0.35],[0.35520833333333335,0.34074074074074073],[0.36041666666666666,0.3388888888888889],[0.36354166666666665,0.337037037037037],[0.36354166666666665,0.337037037037037],[0.36354166666666665,0.337037037037037],[0.36354166666666665,0.337037037037037],[0.36354166666666665,0.337037037037037],[0.36354166666666665,0.337037037037037],[0.36354166666666665,0.337037037037037],[0.36354166666666665,0.337037037037037],[0.36354166666666665,0.337037037037037],[0.36354166666666665,0.337037037037037],[0.36354166666666665,0.337037037037037],[0.36354166666666665,0.337037037037037],[0.36354166666666665,0.337037037037037],[0.36354166666666665,0.337037037037037],[0.36354166666666665,0.337037037037037],[0.36354166666666665,0.337037037037037],[0.36354166666666665,0.337037037037037],[0.36354166666666665,0.337037037037037],[0.36354166666666665,0.337037037037037],[0.36354166666666665,0.337037037037037],[0.36354166666666665,0.337037037037037],[0.36354166666666665,0.337037037037037],[0.36354166666666665,0.337037037037037],[0.36354166666666665,0.337037037037037],[0.36354166666666665,0.337037037037037],[0.36354166666666665,0.337037037037037],[0.36354166666666665,0.337037037037037],[0.36354166666666665,0.337037037037037],[0.36354166666666665,0.337037037037037],[0.36354166666666665,0.337037037037037],[0.36354166666666665,0.337037037037037],[0.36354166666666665,0.337037037037037],[0.36354166666666665,0.337037037037037],[0.36354166666666665,0.337037037037037],[0.36354166666666665,0.337037037037037],[0.36354166666666665,0.337037037037037],[0.36354166666666665,0.337037037037037],[0.36354166666666665,0.337037037037037],[0.36354166666666665,0.337037037037037],[0.36354166666666665,0.337037037037037],[0.36354166666666665,0.337037037037037],[0.36354166666666665,0.337037037037037],[0.36354166666666665,0.337037037037037],[0.36354166666666665,0.337037037037037],[0.36354166666666665,0.337037037037037],[0.36354166666666665,0.337037037037037],[0.36354166666666665,0.337037037037037],[0.36354166666666665,0.337037037037037],[0.36354166666666665,0.337037037037037],[0.36354166666666665,0.337037037037037],[0.36354166666666665,0.337037037037037],[0.36354166666666665,0.337037037037037],[0.36354166666666665,0.337037037037037],[0.36354166666666665,0.337037037037037],[0.36354166666666665,0.337037037037037],[0.36354166666666665,0.337037037037037],[0.36354166666666665,0.337037037037037],[0.36354166666666665,0.337037037037037],[0.36354166666666665,0.337037037037037],[0.36354166666666665,0.337037037037037],[0.36354166666666665,0.337037037037037],[0.36354166666666665,0.337037037037037],[0.36354166666666665,0.337037037037037],[0.36354166666666665,0.337037037037037],[0.36354166666666665,0.337037037037037],[0.36354166666666665,0.337037037037037],[0.36354166666666665,0.337037037037037],[0.36354166666666665,0.337037037037037],[0.36354166666666665,0.337037037037037],[0.36354166666666665,0.337037037037037],[0.36354166666666665,0.337037037037037],[0.36354166666666665,0.337037037037037],[0.36354166666666665,0.337037037037037],[0.36354166666666665,0.337037037037037]]","[[-0.0889583333333333,-0.0001851851851852273],[-0.0889583333333333,-0.0001851851851852273],[-0.10552083333333329,-0.02555555555555547],[-0.12989583333333338,-0.0455555555555556],[-0.15687500000000001,-0.05722222222222218],[-0.16614583333333333,-0.0418518518518519],[-0.16135416666666663,-0.0977777777777778],[-0.16135416666666663,-0.0977777777777778],[-0.20562499999999997,-0.05944444444444449],[-0.2326041666666666,-0.05796296296296299],[-0.2419791666666666,-0.08037037037037033],[-0.2419791666666666,-0.08037037037037033],[-0.23541666666666666,-0.13129629629629624],[-0.2467708333333333,-0.12000000000000002],[-0.2467708333333333,-0.12000000000000002],[-0.25812499999999994,-0.1227777777777778],[-0.23270833333333332,-0.15481481481481485],[-0.23270833333333332,-0.15481481481481485],[-0.19979166666666662,-0.1905555555555555],[-0.20760416666666662,-0.16166666666666668],[-0.19645833333333335,-0.1485185185185185],[-0.19645833333333335,-0.1485185185185185],[-0.18687499999999999,-0.18925925925925924],[-0.19031250000000005,-0.18462962962962962],[-0.18197916666666672,-0.1581481481481481],[-0.19312499999999996,-0.13259259259259262],[-0.1851041666666667,-0.17018518518518513],[-0.1851041666666667,-0.17018518518518513],[-0.18083333333333335,-0.18222222222222217],[-0.18083333333333335,-0.18222222222222217],[-0.17843749999999994,-0.15499999999999997],[-0.20062500000000003,-0.12462962962962965],[-0.1883333333333333,-0.08351851851851856],[-0.2107291666666666,-0.07796296296296301],[-0.225,-0.09537037037037037],[-0.225,-0.09537037037037037],[-0.22364583333333338,-0.08370370370370368],[-0.22364583333333338,-0.08370370370370368],[-0.22260416666666671,-0.044444444444444446],[-0.22260416666666671,-0.044444444444444446],[-0.2515625,-0.03944444444444436],[-0.2515625,-0.03944444444444436],[-0.3047916666666667,0.015370370370370286],[-0.3047916666666667,0.015370370370370286],[-0.3265625,-0.008703703703703788],[-0.3265625,-0.008703703703703788],[-0.36520833333333336,0.028518518518518478],[-0.36520833333333336,0.028518518518518478],[-0.40125000000000005,0.06462962962962959],[-0.4496875000000001,0.0588888888888888],[-0.48239583333333336,0.10444444444444441],[-0.5085416666666667,0.08814814814814818],[-0.5085416666666667,0.08814814814814818],[-0.541875,0.0514814814814814],[-0.5572916666666666,0.008888888888888804],[-0.5660416666666667,0.039629629629629584],[-0.5497916666666666,0.006481481481481481],[-0.5517708333333334,0.10444444444444441],[-0.5459375000000001,0.11518518518518527],[-0.534375,0.09277777777777782],[-0.5223958333333333,0.055000000000000084],[-0.5045833333333333,0.05814814814814811],[-0.5014583333333333,0.14611111111111108],[-0.5080208333333334,0.17888888888888893],[-0.5291666666666667,0.17611111111111116],[-0.541875,0.14833333333333337],[-0.5557291666666667,0.20333333333333325],[-0.5988541666666667,0.1948148148148149],[-0.6333333333333333,0.17759259259259255],[-0.6590625,0.19518518518518516],[-0.6665625,0.19203703703703712],[-0.6746875,0.1875925925925925],[-0.700625,0.17759259259259255],[-0.716875,0.22277777777777769],[-0.7331249999999999,0.26796296296296307],[-0.7128125,0.27037037037037037],[-0.6926041666666667,0.25925925925925924],[-0.6435416666666666,0.2631481481481482],[-0.6075,0.25],[-0.5635416666666667,0.21203703703703702],[-0.543125,0.24814814814814815],[-0.5229166666666667,0.24259259259259258],[-0.48489583333333336,0.24259259259259258],[-0.45197916666666665,0.2638888888888889],[-0.41906249999999995,0.2851851851851852],[-0.4091666666666666,0.29240740740740734],[-0.3992708333333333,0.2996296296296295],[-0.41520833333333335,0.2737037037037036],[-0.4267708333333334,0.2735185185185186],[-0.45645833333333335,0.29018518518518527],[-0.4775,0.2718518518518518],[-0.49624999999999997,0.2933333333333333],[-0.49624999999999997,0.2933333333333333],[-0.49593750000000003,0.30481481481481487],[-0.49593750000000003,0.30481481481481487],[-0.5075,0.285],[-0.5055208333333333,0.2727777777777777],[-0.5070833333333333,0.23648148148148157],[-0.5086458333333334,0.20018518518518522],[-0.5060416666666667,0.2212962962962963],[-0.49864583333333334,0.20333333333333325],[-0.4825,0.2074074074074074],[-0.4716666666666667,0.24759259259259267],[-0.46822916666666664,0.20759259259259263],[-0.48385416666666664,0.17759259259259255],[-0.5077083333333333,0.19388888888888897],[-0.5441666666666667,0.15703703703703695],[-0.5686458333333333,0.1875925925925925],[-0.593125,0.21814814814814806],[-0.6170833333333333,0.15833333333333333],[-0.6458333333333334,0.13759259259259252],[-0.6033333333333334,0.1675925925925926],[-0.5555208333333332,0.16148148148148156],[-0.5555208333333332,0.16148148148148156],[-0.4923958333333333,0.2],[-0.4396875,0.2381481481481482],[-0.35874999999999996,0.2972222222222222],[-0.27875,0.40185185185185185],[-0.22072916666666664,0.4764814814814814],[-0.16270833333333337,0.5511111111111111],[-0.16270833333333337,0.5511111111111111],[-0.058229166666666644,0.7618518518518518],[0.04624999999999998,0.9725925925925927],[0.08791666666666677,1.1594444444444443],[0.12510416666666657,1.35],[0.13718750000000005,1.5201851851851853],[0.15968749999999995,1.6907407407407407],[0.16270833333333337,1.7948148148148149],[0.16572916666666657,1.898888888888889],[0.19406249999999994,1.9937037037037035],[0.21739583333333337,2.0842592592592593],[0.2552083333333333,2.092037037037037],[0.2930208333333333,2.099814814814815],[0.3038541666666667,2.053888888888889],[0.3181250000000001,2.019814814814815],[0.28718750000000004,1.8274074074074074],[0.25625,1.6350000000000002],[0.2365624999999999,1.5031481481481481],[0.2397916666666667,1.3101851851851851],[0.22520833333333337,1.124814814814815],[0.19895833333333332,0.9383333333333335],[0.1326041666666666,0.7522222222222223],[0.07927083333333323,0.5427777777777778],[0.035000000000000024,0.37888888888888894],[-0.042708333333333334,0.172037037037037],[-0.059062500000000046,0.20333333333333325],[-0.04750000000000002,0.1883333333333334],[-0.014479166666666644,0.18296296296296288],[-0.0067708333333333336,0.1742592592592593],[-0.04500000000000005,0.10425925925925918],[-0.06656249999999998,0.039629629629629584],[-0.08354166666666671,0.06407407407407412],[-0.11468750000000003,0.07555555555555547],[-0.11843750000000004,0.0742592592592593],[-0.07958333333333331,0.072037037037037],[-0.04041666666666662,0.024814814814814772],[-0.029166666666666667,0.02388888888888885],[-0.02041666666666669,-0.048333333333333374],[-0.03989583333333328,-0.04314814814814806],[0.0046875,-0.0011111111111111532],[0.04385416666666669,0.005185185185185101],[0.06020833333333329,-0.020740740740740823],[0.10750000000000005,-0.0455555555555556],[0.13833333333333328,-0.09037037037037039],[0.13489583333333333,-0.06462962962962959],[0.12166666666666662,-0.12685185185185185],[0.15635416666666657,-0.14444444444444443],[0.17468750000000005,-0.16018518518518518],[0.17468750000000005,-0.16018518518518518],[0.22916666666666666,-0.21333333333333332],[0.26552083333333343,-0.24203703703703702],[0.26552083333333343,-0.24203703703703702],[0.31312499999999993,-0.25203703703703706],[0.31312499999999993,-0.25203703703703706],[0.35614583333333344,-0.29203703703703704],[0.36041666666666666,-0.297037037037037],[0.3646874999999999,-0.3020370370370371],[0.3646874999999999,-0.3020370370370371],[0.4087500000000001,-0.3133333333333333],[0.4087500000000001,-0.3133333333333333],[0.4367708333333333,-0.277962962962963],[0.4367708333333333,-0.277962962962963],[0.41822916666666665,-0.3001851851851852],[0.4028125000000001,-0.31074074074074076],[0.39645833333333325,-0.33611111111111114],[0.39010416666666664,-0.36148148148148146],[0.36864583333333345,-0.3690740740740741],[0.36864583333333345,-0.3690740740740741],[0.3623958333333334,-0.3727777777777778],[0.36520833333333325,-0.40018518518518525],[0.3650000000000001,-0.42462962962962963],[0.3511458333333332,-0.48499999999999993],[0.3511458333333332,-0.48499999999999993],[0.3607291666666666,-0.5353703703703704],[0.3689583333333334,-0.5727777777777778],[0.3571875000000001,-0.6051851851851852],[0.33083333333333326,-0.5983333333333334],[0.2953125,-0.5481481481481482],[0.27979166666666655,-0.5125925925925926],[0.2599999999999999,-0.5318518518518518],[0.2599999999999999,-0.5318518518518518],[0.24010416666666667,-0.5272222222222221],[0.2321875000000001,-0.5266666666666666],[0.2321875000000001,-0.5266666666666666],[0.20677083333333332,-0.5062962962962962],[0.1837500000000001,-0.47314814814814815],[0.16072916666666662,-0.44000000000000006],[0.1618750000000001,-0.4125925925925926],[0.15885416666666666,-0.38351851851851854],[0.15885416666666666,-0.38351851851851854],[0.16770833333333332,-0.40370370370370373],[0.2091666666666666,-0.44518518518518513],[0.22843749999999996,-0.4262962962962963],[0.24770833333333328,-0.4074074074074074],[0.2751041666666666,-0.3933333333333333],[0.2751041666666666,-0.3933333333333333],[0.32000000000000006,-0.3990740740740741],[0.3285416666666668,-0.35851851851851857],[0.3407291666666666,-0.32222222222222224],[0.34885416666666674,-0.3124074074074074],[0.3611458333333334,-0.3042592592592593],[0.3693749999999999,-0.3072222222222222],[0.3693749999999999,-0.3072222222222222],[0.3398958333333333,-0.27611111111111114],[0.34270833333333334,-0.29240740740740734],[0.31364583333333323,-0.30407407407407405],[0.26749999999999996,-0.3098148148148148],[0.23635416666666675,-0.3477777777777778],[0.2349999999999999,-0.4301851851851852],[0.21989583333333323,-0.4885185185185185],[0.20416666666666666,-0.5227777777777778],[0.1953125,-0.5648148148148148],[0.1953125,-0.5648148148148148],[0.16697916666666662,-0.5740740740740741],[0.14572916666666677,-0.5744444444444444],[0.11749999999999995,-0.5664814814814815],[0.11687500000000005,-0.5725925925925925],[0.11260416666666657,-0.5627777777777777],[0.08958333333333333,-0.4927777777777778],[0.06656249999999998,-0.4227777777777778],[0.06854166666666663,-0.4],[0.06760416666666676,-0.37462962962962965],[0.059791666666666646,-0.34148148148148144],[0.05479166666666669,-0.2922222222222222],[0.035000000000000024,-0.2522222222222222],[0.035000000000000024,-0.2522222222222222],[0.025520833333333333,-0.23185185185185184],[0.004479166666666619,-0.1948148148148148],[-0.004166666666666667,-0.222037037037037],[-0.017499999999999953,-0.22907407407407404],[-0.03083333333333336,-0.2361111111111111],[-0.03083333333333336,-0.2361111111111111],[-0.05447916666666662,-0.21185185185185182],[-0.05572916666666667,-0.2361111111111111],[-0.05697916666666671,-0.2603703703703704],[-0.0702083333333333,-0.2175925925925926],[-0.0655208333333333,-0.28944444444444445],[-0.0655208333333333,-0.28944444444444445],[-0.0859375,-0.2687037037037037],[-0.0829166666666667,-0.23592592592592587]]","[[-0.0889583333333333,-0.0001851851851852273,0.0003000000119186552],[-0.0889583333333333,-0.0001851851851852273,0.034600000023843336],[-0.10552083333333329,-0.02555555555555547,0.04449999999999932],[-0.12989583333333338,-0.0455555555555556,0.06420000001788395],[-0.15687500000000001,-0.05722222222222218,0.08050000000000068],[-0.16614583333333333,-0.0418518518518519,0.09949999999999903],[-0.16135416666666663,-0.0977777777777778,0.11790000000596024],[-0.16135416666666663,-0.0977777777777778,0.1278000000119235],[-0.20562499999999997,-0.05944444444444449,0.1448000000119194],[-0.2326041666666666,-0.05796296296296299,0.16220000001788293],[-0.2419791666666666,-0.08037037037037033,0.17849999999999966],[-0.2419791666666666,-0.08037037037037033,0.19460000002383993],[-0.23541666666666666,-0.13129629629629624,0.21120000001788242],[-0.2467708333333333,-0.12000000000000002,0.23090000000595978],[-0.2467708333333333,-0.12000000000000002,0.24450000000000216],[-0.25812499999999994,-0.1227777777777778,0.2612000000178796],[-0.23270833333333332,-0.15481481481481485,0.2802000000178779],[-0.23270833333333332,-0.15481481481481485,0.29460000002384135],[-0.19979166666666662,-0.1905555555555555,0.31120000001788384],[-0.20760416666666662,-0.16166666666666668,0.32890000000595876],[-0.19645833333333335,-0.1485185185185185,0.3502000000178782],[-0.19645833333333335,-0.1485185185185185,0.3614000000059576],[-0.18687499999999999,-0.18925925925925924,0.37790000000595825],[-0.19031250000000005,-0.18462962962962962,0.39980000001192195],[-0.18197916666666672,-0.1581481481481481,0.4157000000178783],[-0.19312499999999996,-0.13259259259259262,0.43180000001191843],[-0.1851041666666667,-0.17018518518518513,0.45090000000595865],[-0.1851041666666667,-0.17018518518518513,0.4613000000119172],[-0.18083333333333335,-0.18222222222222217,0.47790000000595967],[-0.18083333333333335,-0.18222222222222217,0.49470000001787895],[-0.17843749999999994,-0.15499999999999997,0.5112000000178796],[-0.20062500000000003,-0.12462962962962965,0.531700000017878],[-0.1883333333333333,-0.08351851851851856,0.5473000000119228],[-0.2107291666666666,-0.07796296296296301,0.5639000000059582],[-0.225,-0.09537037037037037,0.5786000000238403],[-0.225,-0.09537037037037037,0.5946000000238385],[-0.22364583333333338,-0.08370370370370368,0.611200000017881],[-0.22364583333333338,-0.08370370370370368,0.6279000000059582],[-0.22260416666666671,-0.044444444444444446,0.6445000000000007],[-0.22260416666666671,-0.044444444444444446,0.6612000000178782],[-0.2515625,-0.03944444444444436,0.6779000000059625],[-0.2515625,-0.03944444444444436,0.6947000000178818],[-0.3047916666666667,0.015370370370370286,0.7112000000178824],[-0.3047916666666667,0.015370370370370286,0.7279000000059597],[-0.3265625,-0.008703703703703788,0.7445000000000022],[-0.3265625,-0.008703703703703788,0.7613000000119214],[-0.36520833333333336,0.028518518518518478,0.7779000000059568],[-0.36520833333333336,0.028518518518518478,0.7946000000238413],[-0.40125000000000005,0.06462962962962959,0.8114000000059605],[-0.4496875000000001,0.0588888888888888,0.8314999999999984],[-0.48239583333333336,0.10444444444444441,0.8467000000178828],[-0.5085416666666667,0.08814814814814818,0.8629999999999995],[-0.5085416666666667,0.08814814814814818,0.8779000000059582],[-0.541875,0.0514814814814814,0.894999999999996],[-0.5572916666666666,0.008888888888888804,0.9111000000238434],[-0.5660416666666667,0.039629629629629584,0.928300000011923],[-0.5497916666666666,0.006481481481481481,0.9444999999999979],[-0.5517708333333334,0.10444444444444441,0.9613000000119172],[-0.5459375000000001,0.11518518518518527,0.9779000000059597],[-0.534375,0.09277777777777782,0.9964999999999975],[-0.5223958333333333,0.055000000000000084,1.0112000000178796],[-0.5045833333333333,0.05814814814814811,1.0279000000059568],[-0.5014583333333333,0.14611111111111108,1.0452000000178785],[-0.5080208333333334,0.17888888888888893,1.061800000011921],[-0.5291666666666667,0.17611111111111116,1.077900000005961],[-0.541875,0.14833333333333337,1.0962000000178804],[-0.5557291666666667,0.20333333333333325,1.1131000000238416],[-0.5988541666666667,0.1948148148148149,1.1281000000238421],[-0.6333333333333333,0.17759259259259255,1.1445000000000007],[-0.6590625,0.19518518518518516,1.16130000001192],[-0.6665625,0.19203703703703712,1.1779000000059625],[-0.6746875,0.1875925925925925,1.1957000000178795],[-0.700625,0.17759259259259255,1.211600000023843],[-0.716875,0.22277777777777769,1.2279000000059597],[-0.7331249999999999,0.26796296296296307,1.2445000000000022],[-0.7128125,0.27037037037037037,1.2612000000178796],[-0.6926041666666667,0.25925925925925924,1.2788000000119197],[-0.6435416666666666,0.2631481481481482,1.2949000000059598],[-0.6075,0.25,1.3112000000178838],[-0.5635416666666667,0.21203703703703702,1.327900000005961],[-0.543125,0.24814814814814815,1.3444999999999965],[-0.5229166666666667,0.24259259259259258,1.361200000017881],[-0.48489583333333336,0.24259259259259258,1.3778000000119235],[-0.45197916666666665,0.2638888888888889,1.3964000000059613],[-0.41906249999999995,0.2851851851851852,1.4112000000178782],[-0.4091666666666666,0.29240740740740734,1.4279000000059625],[-0.3992708333333333,0.2996296296296295,1.4447000000178818],[-0.41520833333333335,0.2737037037037036,1.461400000005959],[-0.4267708333333334,0.2735185185185186,1.4782000000178783],[-0.45645833333333335,0.29018518518518527,1.494700000017879],[-0.4775,0.2718518518518518,1.5112000000178796],[-0.49624999999999997,0.2933333333333333,1.532600000023841],[-0.49624999999999997,0.2933333333333333,1.551700000017881],[-0.49593750000000003,0.30481481481481487,1.5676000000238375],[-0.49593750000000003,0.30481481481481487,1.5778000000119192],[-0.5075,0.285,1.5946000000238385],[-0.5055208333333333,0.2727777777777777,1.611200000017881],[-0.5070833333333333,0.23648148148148157,1.6278000000119235],[-0.5086458333333334,0.20018518518518522,1.6445000000000007],[-0.5060416666666667,0.2212962962962963,1.6612000000178782],[-0.49864583333333334,0.20333333333333325,1.6779000000059625],[-0.4825,0.2074074074074074,1.69460000002384],[-0.4716666666666667,0.24759259259259267,1.7111000000238406],[-0.46822916666666664,0.20759259259259263,1.7279000000059597],[-0.48385416666666664,0.17759259259259255,1.7444000000059603],[-0.5077083333333333,0.19388888888888897,1.7612000000178796],[-0.5441666666666667,0.15703703703703695,1.777800000011922],[-0.5686458333333333,0.1875925925925925,1.7947000000178832],[-0.593125,0.21814814814814806,1.8113000000119186],[-0.6170833333333333,0.15833333333333333,1.827900000005961],[-0.6458333333333334,0.13759259259259252,1.8471000000238433],[-0.6033333333333334,0.1675925925925926,1.8613000000119229],[-0.5555208333333332,0.16148148148148156,1.8788000000119212],[-0.5555208333333332,0.16148148148148156,1.8971000000238405],[-0.4923958333333333,0.2,1.9112000000178782],[-0.4396875,0.2381481481481482,1.9278000000119206],[-0.35874999999999996,0.2972222222222222,1.944499999999998],[-0.27875,0.40185185185185185,1.9612000000178824],[-0.22072916666666664,0.4764814814814814,1.9780000000000015],[-0.16270833333333337,0.5511111111111111,1.9946000000238442],[-0.16270833333333337,0.5511111111111111,2.0112000000178796],[-0.058229166666666644,0.7618518518518518,2.027800000011922],[0.04624999999999998,0.9725925925925927,2.0444999999999993],[0.08791666666666677,1.1594444444444443,2.061200000017884],[0.12510416666666657,1.35,2.077900000005961],[0.13718750000000005,1.5201851851851853,2.09580000001192],[0.15968749999999995,1.6907407407407407,2.111200000017881],[0.16270833333333337,1.7948148148148149,2.1279000000059582],[0.16572916666666657,1.898888888888889,2.1445000000000007],[0.19406249999999994,1.9937037037037035,2.161400000005962],[0.21739583333333337,2.0842592592592593,2.1778000000119206],[0.2552083333333333,2.092037037037037,2.194700000017882],[0.2930208333333333,2.099814814814815,2.2111000000238406],[0.3038541666666667,2.053888888888889,2.227800000011918],[0.3181250000000001,2.019814814814815,2.247],[0.28718750000000004,1.8274074074074074,2.261400000005956],[0.25625,1.6350000000000002,2.2779999999999987],[0.2365624999999999,1.5031481481481481,2.2984000000059623],[0.2397916666666667,1.3101851851851851,2.314100000023842],[0.22520833333333337,1.124814814814815,2.3282000000178797],[0.19895833333333332,0.9383333333333335,2.3471000000238433],[0.1326041666666666,0.7522222222222223,2.3629999999999995],[0.07927083333333323,0.5427777777777778,2.378100000023842],[0.035000000000000024,0.37888888888888894,2.3949000000059613],[-0.042708333333333334,0.172037037037037,2.413600000023841],[-0.059062500000000046,0.20333333333333325,2.4279999999999973],[-0.04750000000000002,0.1883333333333334,2.44460000002384],[-0.014479166666666644,0.18296296296296288,2.4642000000178825],[-0.0067708333333333336,0.1742592592592593,2.478400000005962],[-0.04500000000000005,0.10425925925925918,2.4951000000238395],[-0.06656249999999998,0.039629629629629584,2.5137000000178773],[-0.08354166666666671,0.06407407407407412,2.5281000000238407],[-0.11468750000000003,0.07555555555555547,2.5474999999999994],[-0.11843750000000004,0.0742592592592593,2.5636000000238397],[-0.07958333333333331,0.072037037037037,2.577999999999996],[-0.04041666666666662,0.024814814814814772,2.5948000000119222],[-0.029166666666666667,0.02388888888888885,2.611300000011923],[-0.02041666666666669,-0.048333333333333374,2.631300000011919],[-0.03989583333333328,-0.04314814814814806,2.644999999999996],[0.0046875,-0.0011111111111111532,2.66130000001192],[0.04385416666666669,0.005185185185185101,2.6779000000059625],[0.06020833333333329,-0.020740740740740823,2.6988000000119214],[0.10750000000000005,-0.0455555555555556,2.714600000023843],[0.13833333333333328,-0.09037037037037039,2.7304999999999993],[0.13489583333333333,-0.06462962962962959,2.748600000023842],[0.12166666666666662,-0.12685185185185185,2.764499999999998],[0.15635416666666657,-0.14444444444444443,2.7797000000178826],[0.17468750000000005,-0.16018518518518518,2.794800000011918],[0.17468750000000005,-0.16018518518518518,2.814200000017884],[0.22916666666666666,-0.21333333333333332,2.8282000000178797],[0.26552083333333343,-0.24203703703703702,2.8444999999999965],[0.26552083333333343,-0.24203703703703702,2.861300000011923],[0.31312499999999993,-0.25203703703703706,2.8778000000119235],[0.31312499999999993,-0.25203703703703706,2.897600000023843],[0.35614583333333344,-0.29203703703703704,2.91130000001192],[0.36041666666666666,-0.297037037037037,2.9279999999999973],[0.3646874999999999,-0.3020370370370371,2.9510000000000005],[0.3646874999999999,-0.3020370370370371,2.961300000011917],[0.4087500000000001,-0.3133333333333333,2.9780000000000015],[0.4087500000000001,-0.3133333333333333,2.994800000011921],[0.4367708333333333,-0.277962962962963,3.0161000000238403],[0.4367708333333333,-0.277962962962963,3.0281000000238407],[0.41822916666666665,-0.3001851851851852,3.044700000017883],[0.4028125000000001,-0.31074074074074076,3.0658000000119188],[0.39645833333333325,-0.33611111111111114,3.082800000011922],[0.39010416666666664,-0.36148148148148146,3.0991000000238387],[0.36864583333333345,-0.3690740740740741,3.119500000000002],[0.36864583333333345,-0.3690740740740741,3.1278000000119235],[0.3623958333333334,-0.3727777777777778,3.1446000000238428],[0.36520833333333325,-0.40018518518518525,3.1642000000178783],[0.3650000000000001,-0.42462962962962963,3.1784999999999997],[0.3511458333333332,-0.48499999999999993,3.1972000000178795],[0.3511458333333332,-0.48499999999999993,3.2112000000178824],[0.3607291666666666,-0.5353703703703704,3.2279000000059597],[0.3689583333333334,-0.5727777777777778,3.247],[0.3571875000000001,-0.6051851851851852,3.2637000000178773],[0.33083333333333326,-0.5983333333333334,3.280900000005957],[0.2953125,-0.5481481481481482,3.2989000000059576],[0.27979166666666655,-0.5125925925925926,3.3145000000000024],[0.2599999999999999,-0.5318518518518518,3.3307000000178775],[0.2599999999999999,-0.5318518518518518,3.3446000000238385],[0.24010416666666667,-0.5272222222222221,3.361200000017881],[0.2321875000000001,-0.5266666666666666,3.3779000000059582],[0.2321875000000001,-0.5266666666666666,3.3945000000000007],[0.20677083333333332,-0.5062962962962962,3.4111000000238434],[0.1837500000000001,-0.47314814814814815,3.4309000000059626],[0.16072916666666662,-0.44000000000000006,3.4478000000119167],[0.1618750000000001,-0.4125925925925926,3.466200000017878],[0.15885416666666666,-0.38351851851851854,3.4829000000059622],[0.15885416666666666,-0.38351851851851854,3.494600000023844],[0.16770833333333332,-0.40370370370370373,3.5113000000119214],[0.2091666666666666,-0.44518518518518513,3.532400000005957],[0.22843749999999996,-0.4262962962962963,3.5489000000059576],[0.24770833333333328,-0.4074074074074074,3.5654000000059582],[0.2751041666666666,-0.3933333333333333,3.5823000000119194],[0.2751041666666666,-0.3933333333333333,3.5944999999999965],[0.32000000000000006,-0.3990740740740741,3.611200000017881],[0.3285416666666668,-0.35851851851851857,3.631300000011919],[0.3407291666666666,-0.32222222222222224,3.6477000000178776],[0.34885416666666674,-0.3124074074074074,3.6640000000000015],[0.3611458333333334,-0.3042592592592593,3.6786000000238417],[0.3693749999999999,-0.3072222222222222,3.6984999999999957],[0.3693749999999999,-0.3072222222222222,3.7112000000178824],[0.3398958333333333,-0.27611111111111114,3.727800000011918],[0.34270833333333334,-0.29240740740740734,3.744500000000002],[0.31364583333333323,-0.30407407407407405,3.761400000005956],[0.26749999999999996,-0.3098148148148148,3.777900000005957],[0.23635416666666675,-0.3477777777777778,3.79940000000596],[0.2349999999999999,-0.4301851851851852,3.8144000000059606],[0.21989583333333323,-0.4885185185185185,3.8322000000178775],[0.20416666666666666,-0.5227777777777778,3.8493000000119224],[0.1953125,-0.5648148148148148,3.866700000017879],[0.1953125,-0.5648148148148148,3.8778000000119235],[0.16697916666666662,-0.5740740740740741,3.8947000000178775],[0.14572916666666677,-0.5744444444444444,3.915200000017883],[0.11749999999999995,-0.5664814814814815,3.9308000000119208],[0.11687500000000005,-0.5725925925925925,3.9451000000238423],[0.11260416666666657,-0.5627777777777777,3.9639000000059568],[0.08958333333333333,-0.4927777777777778,3.9804000000059574],[0.06656249999999998,-0.4227777777777778,3.9985],[0.06854166666666663,-0.4,4.015300000011919],[0.06760416666666676,-0.37462962962962965,4.030800000011922],[0.059791666666666646,-0.34148148148148144,4.044499999999999],[0.05479166666666669,-0.2922222222222222,4.064100000023842],[0.035000000000000024,-0.2522222222222222,4.078499999999998],[0.035000000000000024,-0.2522222222222222,4.0944999999999965],[0.025520833333333333,-0.23185185185185184,4.111100000023839],[0.004479166666666619,-0.1948148148148148,4.13060000002384],[-0.004166666666666667,-0.222037037037037,4.144999999999996],[-0.017499999999999953,-0.22907407407407404,4.163800000011918],[-0.03083333333333336,-0.2361111111111111,4.177800000011921],[-0.03083333333333336,-0.2361111111111111,4.19460000002384],[-0.05447916666666662,-0.21185185185185182,4.211200000017882],[-0.05572916666666667,-0.2361111111111111,4.230800000011918],[-0.05697916666666671,-0.2603703703703704,4.244900000005963],[-0.0702083333333333,-0.2175925925925926,4.26120000001788],[-0.0655208333333333,-0.28944444444444445,4.278400000005959],[-0.0655208333333333,-0.28944444444444445,4.294600000023841],[-0.0859375,-0.2687037037037037,4.311300000011919],[-0.0829166666666667,-0.23592592592592587,4.331100000023838]]","[0.0003000000119186552,0.034600000023843336,0.04449999999999932,0.06420000001788395,0.08050000000000068,0.09949999999999903,0.11790000000596024,0.1278000000119235,0.1448000000119194,0.16220000001788293,0.17849999999999966,0.19460000002383993,0.21120000001788242,0.23090000000595978,0.24450000000000216,0.2612000000178796,0.2802000000178779,0.29460000002384135,0.31120000001788384,0.32890000000595876,0.3502000000178782,0.3614000000059576,0.37790000000595825,0.39980000001192195,0.4157000000178783,0.43180000001191843,0.45090000000595865,0.4613000000119172,0.47790000000595967,0.49470000001787895,0.5112000000178796,0.531700000017878,0.5473000000119228,0.5639000000059582,0.5786000000238403,0.5946000000238385,0.611200000017881,0.6279000000059582,0.6445000000000007,0.6612000000178782,0.6779000000059625,0.6947000000178818,0.7112000000178824,0.7279000000059597,0.7445000000000022,0.7613000000119214,0.7779000000059568,0.7946000000238413,0.8114000000059605,0.8314999999999984,0.8467000000178828,0.8629999999999995,0.8779000000059582,0.894999999999996,0.9111000000238434,0.928300000011923,0.9444999999999979,0.9613000000119172,0.9779000000059597,0.9964999999999975,1.0112000000178796,1.0279000000059568,1.0452000000178785,1.061800000011921,1.077900000005961,1.0962000000178804,1.1131000000238416,1.1281000000238421,1.1445000000000007,1.16130000001192,1.1779000000059625,1.1957000000178795,1.211600000023843,1.2279000000059597,1.2445000000000022,1.2612000000178796,1.2788000000119197,1.2949000000059598,1.3112000000178838,1.327900000005961,1.3444999999999965,1.361200000017881,1.3778000000119235,1.3964000000059613,1.4112000000178782,1.4279000000059625,1.4447000000178818,1.461400000005959,1.4782000000178783,1.494700000017879,1.5112000000178796,1.532600000023841,1.551700000017881,1.5676000000238375,1.5778000000119192,1.5946000000238385,1.611200000017881,1.6278000000119235,1.6445000000000007,1.6612000000178782,1.6779000000059625,1.69460000002384,1.7111000000238406,1.7279000000059597,1.7444000000059603,1.7612000000178796,1.777800000011922,1.7947000000178832,1.8113000000119186,1.827900000005961,1.8471000000238433,1.8613000000119229,1.8788000000119212,1.8971000000238405,1.9112000000178782,1.9278000000119206,1.944499999999998,1.9612000000178824,1.9780000000000015,1.9946000000238442,2.0112000000178796,2.027800000011922,2.0444999999999993,2.061200000017884,2.077900000005961,2.09580000001192,2.111200000017881,2.1279000000059582,2.1445000000000007,2.161400000005962,2.1778000000119206,2.194700000017882,2.2111000000238406,2.227800000011918,2.247,2.261400000005956,2.2779999999999987,2.2984000000059623,2.314100000023842,2.3282000000178797,2.3471000000238433,2.3629999999999995,2.378100000023842,2.3949000000059613,2.413600000023841,2.4279999999999973,2.44460000002384,2.4642000000178825,2.478400000005962,2.4951000000238395,2.5137000000178773,2.5281000000238407,2.5474999999999994,2.5636000000238397,2.577999999999996,2.5948000000119222,2.611300000011923,2.631300000011919,2.644999999999996,2.66130000001192,2.6779000000059625,2.6988000000119214,2.714600000023843,2.7304999999999993,2.748600000023842,2.764499999999998,2.7797000000178826,2.794800000011918,2.814200000017884,2.8282000000178797,2.8444999999999965,2.861300000011923,2.8778000000119235,2.897600000023843,2.91130000001192,2.9279999999999973,2.9510000000000005,2.961300000011917,2.9780000000000015,2.994800000011921,3.0161000000238403,3.0281000000238407,3.044700000017883,3.0658000000119188,3.082800000011922,3.0991000000238387,3.119500000000002,3.1278000000119235,3.1446000000238428,3.1642000000178783,3.1784999999999997,3.1972000000178795,3.2112000000178824,3.2279000000059597,3.247,3.2637000000178773,3.280900000005957,3.2989000000059576,3.3145000000000024,3.3307000000178775,3.3446000000238385,3.361200000017881,3.3779000000059582,3.3945000000000007,3.4111000000238434,3.4309000000059626,3.4478000000119167,3.466200000017878,3.4829000000059622,3.494600000023844,3.5113000000119214,3.532400000005957,3.5489000000059576,3.5654000000059582,3.5823000000119194,3.5944999999999965,3.611200000017881,3.631300000011919,3.6477000000178776,3.6640000000000015,3.6786000000238417,3.6984999999999957,3.7112000000178824,3.727800000011918,3.744500000000002,3.761400000005956,3.777900000005957,3.79940000000596,3.8144000000059606,3.8322000000178775,3.8493000000119224,3.866700000017879,3.8778000000119235,3.8947000000178775,3.915200000017883,3.9308000000119208,3.9451000000238423,3.9639000000059568,3.9804000000059574,3.9985,4.015300000011919,4.030800000011922,4.044499999999999,4.064100000023842,4.078499999999998,4.0944999999999965,4.111100000023839,4.13060000002384,4.144999999999996,4.163800000011918,4.177800000011921,4.19460000002384,4.211200000017882,4.230800000011918,4.244900000005963,4.26120000001788,4.278400000005959,4.294600000023841,4.311300000011919,4.331100000023838]","[1732770442169,1732770442197,1732770442207,1732770442226,1732770442243,1732770442262,1732770442280,1732770442290,1732770442307,1732770442324,1732770442340,1732770442357,1732770442373,1732770442393,1732770442407,1732770442423,1732770442442,1732770442457,1732770442473,1732770442491,1732770442512,1732770442523,1732770442540,1732770442562,1732770442578,1732770442594,1732770442613,1732770442623,1732770442640,1732770442657,1732770442673,1732770442694,1732770442709,1732770442726,1732770442741,1732770442757,1732770442773,1732770442790,1732770442807,1732770442823,1732770442840,1732770442857,1732770442873,1732770442890,1732770442907,1732770442923,1732770442940,1732770442957,1732770442973,1732770442994,1732770443009,1732770443025,1732770443040,1732770443057,1732770443073,1732770443090,1732770443107,1732770443123,1732770443140,1732770443159,1732770443173,1732770443190,1732770443207,1732770443224,1732770443240,1732770443258,1732770443275,1732770443290,1732770443307,1732770443323,1732770443340,1732770443358,1732770443374,1732770443390,1732770443407,1732770443423,1732770443441,1732770443457,1732770443473,1732770443490,1732770443507,1732770443523,1732770443540,1732770443558,1732770443573,1732770443590,1732770443607,1732770443623,1732770443640,1732770443657,1732770443673,1732770443695,1732770443714,1732770443730,1732770443740,1732770443757,1732770443773,1732770443790,1732770443807,1732770443823,1732770443840,1732770443857,1732770443873,1732770443890,1732770443906,1732770443923,1732770443940,1732770443957,1732770443973,1732770443990,1732770444009,1732770444023,1732770444041,1732770444059,1732770444073,1732770444090,1732770444107,1732770444123,1732770444140,1732770444157,1732770444173,1732770444190,1732770444207,1732770444223,1732770444240,1732770444258,1732770444273,1732770444290,1732770444307,1732770444323,1732770444340,1732770444357,1732770444373,1732770444390,1732770444409,1732770444423,1732770444440,1732770444460,1732770444476,1732770444490,1732770444509,1732770444525,1732770444540,1732770444557,1732770444576,1732770444590,1732770444607,1732770444626,1732770444640,1732770444657,1732770444676,1732770444690,1732770444709,1732770444726,1732770444740,1732770444757,1732770444773,1732770444793,1732770444807,1732770444823,1732770444840,1732770444861,1732770444877,1732770444893,1732770444911,1732770444927,1732770444942,1732770444957,1732770444976,1732770444990,1732770445007,1732770445023,1732770445040,1732770445060,1732770445073,1732770445090,1732770445113,1732770445123,1732770445140,1732770445157,1732770445178,1732770445190,1732770445207,1732770445228,1732770445245,1732770445261,1732770445282,1732770445290,1732770445307,1732770445326,1732770445340,1732770445359,1732770445373,1732770445390,1732770445409,1732770445426,1732770445443,1732770445461,1732770445477,1732770445493,1732770445507,1732770445523,1732770445540,1732770445557,1732770445573,1732770445593,1732770445610,1732770445628,1732770445645,1732770445657,1732770445673,1732770445694,1732770445711,1732770445727,1732770445744,1732770445757,1732770445773,1732770445793,1732770445810,1732770445826,1732770445841,1732770445861,1732770445873,1732770445890,1732770445906,1732770445923,1732770445940,1732770445961,1732770445976,1732770445994,1732770446011,1732770446029,1732770446040,1732770446057,1732770446077,1732770446093,1732770446107,1732770446126,1732770446142,1732770446161,1732770446177,1732770446193,1732770446207,1732770446226,1732770446240,1732770446257,1732770446273,1732770446293,1732770446307,1732770446326,1732770446340,1732770446357,1732770446373,1732770446393,1732770446407,1732770446423,1732770446440,1732770446457,1732770446473,1732770446493]","[[874.6,539.9],[874.6,539.9],[858.7,526.2],[835.3,515.4],[809.4,509.1],[800.5,517.4],[805.1,487.2],[805.1,487.2],[762.6,507.9],[736.7,508.7],[727.7,496.6],[727.7,496.6],[734,469.1],[723.1,475.2],[723.1,475.2],[712.2,473.7],[736.6,456.4],[736.6,456.4],[768.2,437.1],[760.7,452.7],[771.4,459.8],[771.4,459.8],[780.6,437.8],[777.3,440.3],[785.3,454.6],[774.6,468.4],[782.3,448.1],[782.3,448.1],[786.4,441.6],[786.4,441.6],[788.7,456.3],[767.4,472.7],[779.2,494.9],[757.7,497.9],[744,488.5],[744,488.5],[745.3,494.8],[745.3,494.8],[746.3,516],[746.3,516],[718.5,518.7],[718.5,518.7],[667.4,548.3],[667.4,548.3],[646.5,535.3],[646.5,535.3],[609.4,555.4],[609.4,555.4],[574.8,574.9],[528.3,571.8],[496.9,596.4],[471.8,587.6],[471.8,587.6],[439.8,567.8],[425,544.8],[416.6,561.4],[432.2,543.5],[430.3,596.4],[435.9,602.2],[447,590.1],[458.5,569.7],[475.6,571.4],[478.6,618.9],[472.3,636.6],[452,635.1],[439.8,620.1],[426.5,649.8],[385.1,645.2],[352,635.9],[327.3,645.4],[320.1,643.7],[312.3,641.3],[287.4,635.9],[271.8,660.3],[256.2,684.7],[275.7,686],[295.1,680],[342.2,682.1],[376.8,675],[419,654.5],[438.6,674],[458,671],[494.5,671],[526.1,682.5],[557.7,694],[567.2,697.9],[576.7,701.8],[561.4,687.8],[550.3,687.7],[521.8,696.7],[501.6,686.8],[483.6,698.4],[483.6,698.4],[483.9,704.6],[483.9,704.6],[472.8,693.9],[474.7,687.3],[473.2,667.7],[471.7,648.1],[474.2,659.5],[481.3,649.8],[496.8,652],[507.2,673.7],[510.5,652.1],[495.5,635.9],[472.6,644.7],[437.6,624.8],[414.1,641.3],[390.6,657.8],[367.6,625.5],[340,614.3],[380.8,630.5],[426.7,627.2],[426.7,627.2],[487.3,648],[537.9,668.6],[615.6,700.5],[692.4,757],[748.1,797.3],[803.8,837.6],[803.8,837.6],[904.1,951.4],[1004.4,1065.2],[1044.4,1166.1],[1080.1,1269],[1091.7,1360.9],[1113.3,1453],[1116.2,1509.2],[1119.1,1565.4],[1146.3,1616.6],[1168.7,1665.5],[1205,1669.7],[1241.3,1673.9],[1251.7,1649.1],[1265.4,1630.7],[1235.7,1526.8],[1206,1422.9],[1187.1,1351.7],[1190.2,1247.5],[1176.2,1147.4],[1151,1046.7],[1087.3,946.2],[1036.1,833.1],[993.6,744.6],[919,632.9],[903.3,649.8],[914.4,641.7],[946.1,638.8],[953.5,634.1],[916.8,596.3],[896.1,561.4],[879.8,574.6],[849.9,580.8],[846.3,580.1],[883.6,578.9],[921.2,553.4],[932,552.9],[940.4,513.9],[921.7,516.7],[964.5,539.4],[1002.1,542.8],[1017.8,528.8],[1063.2,515.4],[1092.8,491.2],[1089.5,505.1],[1076.8,471.5],[1110.1,462],[1127.7,453.5],[1127.7,453.5],[1180,424.8],[1214.9,409.3],[1214.9,409.3],[1260.6,403.9],[1260.6,403.9],[1301.9,382.3],[1306,379.6],[1310.1,376.9],[1310.1,376.9],[1352.4,370.8],[1352.4,370.8],[1379.3,389.9],[1379.3,389.9],[1361.5,377.9],[1346.7,372.2],[1340.6,358.5],[1334.5,344.8],[1313.9,340.7],[1313.9,340.7],[1307.9,338.7],[1310.6,323.9],[1310.4,310.7],[1297.1,278.1],[1297.1,278.1],[1306.3,250.9],[1314.2,230.7],[1302.9,213.2],[1277.6,216.9],[1243.5,244],[1228.6,263.2],[1209.6,252.8],[1209.6,252.8],[1190.5,255.3],[1182.9,255.6],[1182.9,255.6],[1158.5,266.6],[1136.4,284.5],[1114.3,302.4],[1115.4,317.2],[1112.5,332.9],[1112.5,332.9],[1121,322],[1160.8,299.6],[1179.3,309.8],[1197.8,320],[1224.1,327.6],[1224.1,327.6],[1267.2,324.5],[1275.4,346.4],[1287.1,366],[1294.9,371.3],[1306.7,375.7],[1314.6,374.1],[1314.6,374.1],[1286.3,390.9],[1289,382.1],[1261.1,375.8],[1216.8,372.7],[1186.9,352.2],[1185.6,307.7],[1171.1,276.2],[1156,257.7],[1147.5,235],[1147.5,235],[1120.3,230],[1099.9,229.8],[1072.8,234.1],[1072.2,230.8],[1068.1,236.1],[1046,273.9],[1023.9,311.7],[1025.8,324],[1024.9,337.7],[1017.4,355.6],[1012.6,382.2],[993.6,403.8],[993.6,403.8],[984.5,414.8],[964.3,434.8],[956,420.1],[943.2,416.3],[930.4,412.5],[930.4,412.5],[907.7,425.6],[906.5,412.5],[905.3,399.4],[892.6,422.5],[897.1,383.7],[897.1,383.7],[877.5,394.9],[880.4,412.6]]","[0,0.3527331528]","[0.3527331528,0.3527331528]","[-0.3527331528,-0.3527331528]","[-0.3527331528,0]","[0,-0.3527331528]","[0.3527331528,-0.3527331528]","[0,0]","[0.3527331528,0]",0,0,0,0,1,2,Tablet,7,1,11,9
