inst1_resp.keys,inst1_resp.rt,calibrationMouse.x,calibrationMouse.y,calibrationMouse.leftButton,calibrationMouse.midButton,calibrationMouse.rightButton,calibrationClick.x,calibrationClick.y,calibrationClick.leftButton,calibrationClick.midButton,calibrationClick.rightButton,calibrationClick.clicked_name,trialsc.thisRepN,trialsc.thisTrialN,trialsc.thisN,trialsc.thisIndex,trialsc.ran,calibration_x,calibration_y,participant,session,date,expName,psychopyVersion,OS,frameRate,ScreenRes_pixels,Camera_pixels,mouse_2.x,mouse_2.y,mouse_2.leftButton,mouse_2.midButton,mouse_2.rightButton,mouse_2.time,mouse_2.clicked_name,mouse.x,mouse.y,mouse.leftButton,mouse.midButton,mouse.rightButton,mouse.time,mouse.clicked_name,Choice,Trial,TrialDuration,MOUSE_GAZE,ET_GAZE,ET_GAZE_x_T,time,unixTime,ET_GAZE_NF,Loc_Option1_label,Loc_Option2_label,Loc_Cost_label,Loc_Qual_label,Loc_Option1_cost,Loc_Option2_cost,Loc_Option1_quality,Loc_Option2_quality,trials.thisRepN,trials.thisTrialN,trials.thisN,trials.thisIndex,trials.ran,Block,Device,cost1,qual1,cost2,qual2
space,1.7562,-0.964583333,-0.931481481,1,0,0,-0.328125,-0.672222222,1,0,0,calibration_square,0,0,0,4,1,-0.33,-0.67,49,001,2024-12-03_14h23.06.091,Attention_exp_legacy,2023.1.0,Win32,60.24096386,,,,,,,,,,,,,,,,,,,,,,,,,,,,,,,,,,,,,,,,,,,,
,,,,,,,0.001041667,0.683333333,1,0,0,,0,1,1,13,1,0,0.67,49,001,2024-12-03_14h23.06.091,Attention_exp_legacy,2023.1.0,Win32,60.24096386,,,,,,,,,,,,,,,,,,,,,,,,,,,,,,,,,,,,,,,,,,,,
,,,,,,,0.334375,-0.324074074,1,0,0,calibration_square,0,2,2,15,1,0.33,-0.33,49,001,2024-12-03_14h23.06.091,Attention_exp_legacy,2023.1.0,Win32,60.24096386,,,,,,,,,,,,,,,,,,,,,,,,,,,,,,,,,,,,,,,,,,,,
,,,,,,,-0.002083333,-0.32037037,1,0,0,calibration_square,0,3,3,10,1,0,-0.33,49,001,2024-12-03_14h23.06.091,Attention_exp_legacy,2023.1.0,Win32,60.24096386,,,,,,,,,,,,,,,,,,,,,,,,,,,,,,,,,,,,,,,,,,,,
,,,,,,,-0.333333333,0.325925926,1,0,0,calibration_square,0,4,4,7,1,-0.33,0.33,49,001,2024-12-03_14h23.06.091,Attention_exp_legacy,2023.1.0,Win32,60.24096386,,,,,,,,,,,,,,,,,,,,,,,,,,,,,,,,,,,,,,,,,,,,
,,,,,,,-0.333333333,0.672222222,1,0,0,calibration_square,0,5,5,8,1,-0.33,0.67,49,001,2024-12-03_14h23.06.091,Attention_exp_legacy,2023.1.0,Win32,60.24096386,,,,,,,,,,,,,,,,,,,,,,,,,,,,,,,,,,,,,,,,,,,,
,,,,,,,-0.663541667,0.337037037,1,0,0,calibration_square,0,6,6,3,1,-0.67,0.33,49,001,2024-12-03_14h23.06.091,Attention_exp_legacy,2023.1.0,Win32,60.24096386,,,,,,,,,,,,,,,,,,,,,,,,,,,,,,,,,,,,,,,,,,,,
,,,,,,,-0.666666667,-0.664814815,1,0,0,calibration_square,0,7,7,0,1,-0.67,-0.67,49,001,2024-12-03_14h23.06.091,Attention_exp_legacy,2023.1.0,Win32,60.24096386,,,,,,,,,,,,,,,,,,,,,,,,,,,,,,,,,,,,,,,,,,,,
,,,,,,,-0.3375,-0.318518519,1,0,0,,0,8,8,5,1,-0.33,-0.33,49,001,2024-12-03_14h23.06.091,Attention_exp_legacy,2023.1.0,Win32,60.24096386,,,,,,,,,,,,,,,,,,,,,,,,,,,,,,,,,,,,,,,,,,,,
,,,,,,,0.669791667,0.67037037,1,0,0,calibration_square,0,9,9,19,1,0.67,0.67,49,001,2024-12-03_14h23.06.091,Attention_exp_legacy,2023.1.0,Win32,60.24096386,,,,,,,,,,,,,,,,,,,,,,,,,,,,,,,,,,,,,,,,,,,,
,,,,,,,-0.00625,0.327777778,1,0,0,calibration_square,0,10,10,12,1,0,0.33,49,001,2024-12-03_14h23.06.091,Attention_exp_legacy,2023.1.0,Win32,60.24096386,,,,,,,,,,,,,,,,,,,,,,,,,,,,,,,,,,,,,,,,,,,,
,,,,,,,-0.66875,0.005555556,1,0,0,calibration_square,0,11,11,2,1,-0.67,0,49,001,2024-12-03_14h23.06.091,Attention_exp_legacy,2023.1.0,Win32,60.24096386,,,,,,,,,,,,,,,,,,,,,,,,,,,,,,,,,,,,,,,,,,,,
,,,,,,,0.330208333,0.32962963,1,0,0,calibration_square,0,12,12,17,1,0.33,0.33,49,001,2024-12-03_14h23.06.091,Attention_exp_legacy,2023.1.0,Win32,60.24096386,,,,,,,,,,,,,,,,,,,,,,,,,,,,,,,,,,,,,,,,,,,,
,,,,,,,0.672916667,-0.666666667,1,0,0,calibration_square,0,13,13,20,1,0.67,-0.67,49,001,2024-12-03_14h23.06.091,Attention_exp_legacy,2023.1.0,Win32,60.24096386,,,,,,,,,,,,,,,,,,,,,,,,,,,,,,,,,,,,,,,,,,,,
,,,,,,,0.330208333,0.661111111,1,0,0,calibration_square,0,14,14,18,1,0.33,0.67,49,001,2024-12-03_14h23.06.091,Attention_exp_legacy,2023.1.0,Win32,60.24096386,,,,,,,,,,,,,,,,,,,,,,,,,,,,,,,,,,,,,,,,,,,,
,,,,,,,-0.00625,-0.67037037,1,0,0,calibration_square,0,15,15,9,1,0,-0.67,49,001,2024-12-03_14h23.06.091,Attention_exp_legacy,2023.1.0,Win32,60.24096386,,,,,,,,,,,,,,,,,,,,,,,,,,,,,,,,,,,,,,,,,,,,
,,,,,,,0.341666667,-0.674074074,1,0,0,,0,16,16,14,1,0.33,-0.67,49,001,2024-12-03_14h23.06.091,Attention_exp_legacy,2023.1.0,Win32,60.24096386,,,,,,,,,,,,,,,,,,,,,,,,,,,,,,,,,,,,,,,,,,,,
,,,,,,,0.342708333,0,1,0,0,,0,17,17,16,1,0.33,0,49,001,2024-12-03_14h23.06.091,Attention_exp_legacy,2023.1.0,Win32,60.24096386,,,,,,,,,,,,,,,,,,,,,,,,,,,,,,,,,,,,,,,,,,,,
,,,,,,,-0.672916667,-0.331481481,1,0,0,calibration_square,0,18,18,1,1,-0.67,-0.33,49,001,2024-12-03_14h23.06.091,Attention_exp_legacy,2023.1.0,Win32,60.24096386,,,,,,,,,,,,,,,,,,,,,,,,,,,,,,,,,,,,,,,,,,,,
,,,,,,,0.004166667,0.011111111,1,0,0,,0,19,19,11,1,0,0,49,001,2024-12-03_14h23.06.091,Attention_exp_legacy,2023.1.0,Win32,60.24096386,,,,,,,,,,,,,,,,,,,,,,,,,,,,,,,,,,,,,,,,,,,,
,,,,,,,-0.327083333,0.003703704,1,0,0,calibration_square,0,20,20,6,1,-0.33,0,49,001,2024-12-03_14h23.06.091,Attention_exp_legacy,2023.1.0,Win32,60.24096386,,,,,,,,,,,,,,,,,,,,,,,,,,,,,,,,,,,,,,,,,,,,
,,,,,,,,,,,,,,,,,,,,49,001,2024-12-03_14h23.06.091,Attention_exp_legacy,2023.1.0,Win32,60.24096386,"[1920,1080]","[640,480]",[-0.008333333333333333],[-0.524074074074074],[1],[0],[0],[1.2465000000000046],"[""StartButton""]",[0.025],[0.15185185185185185],[1],[0],[0],[8.125699999999952],"[""Option1_label""]",Option1_label,1,9.1486,"[[-0.01875,-0.42777777777777776],[-0.01875,-0.42777777777777776],[-0.01875,-0.42777777777777776],[-0.01875,-0.42777777777777776],[-0.01875,-0.42777777777777776],[-0.01875,-0.42777777777777776],[-0.01875,-0.42777777777777776],[-0.01875,-0.42777777777777776],[-0.01875,-0.42777777777777776],[-0.01875,-0.42777777777777776],[-0.01875,-0.42777777777777776],[-0.01875,-0.42777777777777776],[-0.01875,-0.42777777777777776],[-0.01875,-0.42777777777777776],[-0.01875,-0.42777777777777776],[-0.01875,-0.42777777777777776],[-0.01875,-0.42777777777777776],[-0.01875,-0.42777777777777776],[-0.01875,-0.42777777777777776],[-0.01875,-0.42777777777777776],[-0.01875,-0.42777777777777776],[-0.01875,-0.42777777777777776],[-0.01875,-0.42777777777777776],[-0.01875,-0.42777777777777776],[-0.01875,-0.42777777777777776],[-0.01875,-0.42777777777777776],[-0.01875,-0.42777777777777776],[-0.01875,-0.42777777777777776],[-0.01875,-0.42777777777777776],[-0.01875,-0.42777777777777776],[-0.01875,-0.42777777777777776],[-0.01875,-0.42777777777777776],[-0.01875,-0.42777777777777776],[-0.01875,-0.42777777777777776],[-0.01875,-0.42777777777777776],[-0.01875,-0.42777777777777776],[-0.01875,-0.42777777777777776],[-0.01875,-0.42777777777777776],[-0.01875,-0.42777777777777776],[-0.01875,-0.42777777777777776],[-0.01875,-0.42777777777777776],[-0.01875,-0.42777777777777776],[-0.01875,-0.42777777777777776],[-0.01875,-0.42777777777777776],[-0.01875,-0.42777777777777776],[-0.01875,-0.42777777777777776],[-0.01875,-0.42777777777777776],[-0.01875,-0.42777777777777776],[-0.01875,-0.42777777777777776],[-0.01875,-0.42777777777777776],[-0.01875,-0.42777777777777776],[-0.01875,-0.42777777777777776],[-0.01875,-0.42777777777777776],[-0.01875,-0.42777777777777776],[-0.01875,-0.42777777777777776],[-0.01875,-0.42777777777777776],[-0.01875,-0.42777777777777776],[-0.01875,-0.42777777777777776],[-0.01875,-0.42777777777777776],[-0.01875,-0.42777777777777776],[-0.01875,-0.42777777777777776],[-0.01875,-0.42777777777777776],[-0.01875,-0.42777777777777776],[-0.01875,-0.42777777777777776],[-0.01875,-0.42777777777777776],[-0.01875,-0.42777777777777776],[-0.01875,-0.42777777777777776],[-0.01875,-0.42777777777777776],[-0.01875,-0.42777777777777776],[-0.01875,-0.42777777777777776],[-0.01875,-0.42777777777777776],[-0.01875,-0.42777777777777776],[-0.01875,-0.42777777777777776],[-0.01875,-0.42777777777777776],[-0.01875,-0.42777777777777776],[-0.01875,-0.42777777777777776],[-0.01875,-0.42777777777777776],[-0.01875,-0.42777777777777776],[-0.01875,-0.42777777777777776],[-0.01875,-0.42777777777777776],[-0.01875,-0.42777777777777776],[-0.01875,-0.42777777777777776],[-0.01875,-0.42777777777777776],[-0.01875,-0.42777777777777776],[-0.01875,-0.42777777777777776],[-0.01875,-0.42777777777777776],[-0.01875,-0.42777777777777776],[-0.01875,-0.42777777777777776],[-0.01875,-0.42777777777777776],[-0.01875,-0.42777777777777776],[-0.01875,-0.42777777777777776],[-0.01875,-0.42777777777777776],[-0.01875,-0.42777777777777776],[-0.01875,-0.42777777777777776],[-0.01875,-0.42777777777777776],[-0.01875,-0.42777777777777776],[-0.01875,-0.42777777777777776],[-0.01875,-0.42777777777777776],[-0.01875,-0.42777777777777776],[-0.01875,-0.42777777777777776],[-0.01875,-0.42777777777777776],[-0.01875,-0.42777777777777776],[-0.01875,-0.42777777777777776],[-0.01875,-0.42777777777777776],[-0.01875,-0.42777777777777776],[-0.01875,-0.42777777777777776],[-0.01875,-0.42777777777777776],[-0.01875,-0.42777777777777776],[-0.01875,-0.42777777777777776],[-0.01875,-0.42777777777777776],[-0.01875,-0.42777777777777776],[-0.01875,-0.42777777777777776],[-0.01875,-0.42777777777777776],[-0.01875,-0.42777777777777776],[-0.01875,-0.42777777777777776],[-0.01875,-0.42777777777777776],[-0.01875,-0.42777777777777776],[-0.01875,-0.42777777777777776],[-0.01875,-0.42777777777777776],[-0.01875,-0.42777777777777776],[-0.01875,-0.42777777777777776],[-0.01875,-0.42777777777777776],[-0.01875,-0.42777777777777776],[-0.01875,-0.42777777777777776],[-0.01875,-0.42777777777777776],[-0.01875,-0.42777777777777776],[-0.01875,-0.42777777777777776],[-0.01875,-0.42777777777777776],[-0.01875,-0.42777777777777776],[-0.01875,-0.42777777777777776],[-0.01875,-0.42777777777777776],[-0.01875,-0.42777777777777776],[-0.01875,-0.42777777777777776],[-0.01875,-0.42777777777777776],[-0.01875,-0.42777777777777776],[-0.01875,-0.42777777777777776],[-0.01875,-0.42777777777777776],[-0.01875,-0.42777777777777776],[-0.01875,-0.42777777777777776],[-0.01875,-0.42777777777777776],[-0.01875,-0.42777777777777776],[-0.01875,-0.42777777777777776],[-0.01875,-0.42777777777777776],[-0.01875,-0.42777777777777776],[-0.01875,-0.42777777777777776],[-0.01875,-0.42777777777777776],[-0.01875,-0.42777777777777776],[-0.01875,-0.42777777777777776],[-0.01875,-0.42777777777777776],[-0.01875,-0.42777777777777776],[-0.01875,-0.42777777777777776],[-0.01875,-0.42777777777777776],[-0.01875,-0.42777777777777776],[-0.01875,-0.42777777777777776],[-0.01875,-0.42777777777777776],[-0.01875,-0.42777777777777776],[-0.01875,-0.42777777777777776],[-0.01875,-0.42777777777777776],[-0.01875,-0.42777777777777776],[-0.01875,-0.42777777777777776],[-0.01875,-0.42777777777777776],[-0.01875,-0.42777777777777776],[-0.01875,-0.42777777777777776],[-0.01875,-0.42777777777777776],[-0.01875,-0.42777777777777776],[-0.01875,-0.42777777777777776],[-0.01875,-0.42777777777777776],[-0.01875,-0.42777777777777776],[-0.01875,-0.42777777777777776],[-0.01875,-0.42777777777777776],[-0.01875,-0.42777777777777776],[-0.01875,-0.42777777777777776],[-0.01875,-0.42777777777777776],[-0.01875,-0.42777777777777776],[-0.01875,-0.42777777777777776],[-0.01875,-0.42777777777777776],[-0.01875,-0.42777777777777776],[-0.01875,-0.42777777777777776],[-0.01875,-0.42777777777777776],[-0.01875,-0.42777777777777776],[-0.01875,-0.42777777777777776],[-0.01875,-0.42777777777777776],[-0.01875,-0.42777777777777776],[-0.01875,-0.42777777777777776],[-0.01875,-0.42777777777777776],[-0.01875,-0.42777777777777776],[-0.01875,-0.42777777777777776],[-0.01875,-0.42777777777777776],[-0.01875,-0.42777777777777776],[-0.01875,-0.42777777777777776],[-0.01875,-0.42777777777777776],[-0.01875,-0.42777777777777776],[-0.01875,-0.42777777777777776],[-0.01875,-0.42777777777777776],[-0.01875,-0.42777777777777776],[-0.01875,-0.42777777777777776],[-0.01875,-0.42777777777777776],[-0.01875,-0.42777777777777776],[-0.01875,-0.42777777777777776],[-0.01875,-0.42777777777777776],[-0.01875,-0.42777777777777776],[-0.01875,-0.42777777777777776],[-0.01875,-0.42777777777777776],[-0.01875,-0.42777777777777776],[-0.01875,-0.42777777777777776],[-0.01875,-0.42777777777777776],[-0.01875,-0.42777777777777776],[-0.01875,-0.42777777777777776],[-0.01875,-0.42777777777777776],[-0.01875,-0.42777777777777776],[-0.01875,-0.42777777777777776],[-0.01875,-0.42777777777777776],[-0.01875,-0.42777777777777776],[-0.01875,-0.42777777777777776],[-0.01875,-0.42777777777777776],[-0.01875,-0.42777777777777776],[-0.01875,-0.42777777777777776],[-0.01875,-0.42777777777777776],[-0.01875,-0.42777777777777776],[-0.01875,-0.42777777777777776],[-0.01875,-0.42777777777777776],[-0.01875,-0.42777777777777776],[-0.01875,-0.42777777777777776],[-0.01875,-0.42777777777777776],[-0.01875,-0.42777777777777776],[-0.01875,-0.42777777777777776],[-0.01875,-0.42777777777777776],[-0.01875,-0.42777777777777776],[-0.01875,-0.42777777777777776],[-0.01875,-0.42777777777777776],[-0.01875,-0.42777777777777776],[-0.01875,-0.42777777777777776],[-0.01875,-0.42777777777777776],[-0.01875,-0.42777777777777776],[-0.011458333333333333,-0.42777777777777776],[-0.004166666666666667,-0.4222222222222222],[0.004166666666666667,-0.4185185185185185],[0.013541666666666667,-0.412962962962963],[0.017708333333333333,-0.412962962962963],[0.022916666666666665,-0.4074074074074074],[0.028125,-0.4074074074074074],[0.03333333333333333,-0.40370370370370373],[0.04375,-0.39814814814814814],[0.04895833333333333,-0.3962962962962963],[0.052083333333333336,-0.3925925925925926],[0.06145833333333333,-0.3851851851851852],[0.06458333333333334,-0.3814814814814815],[0.06770833333333333,-0.37962962962962965],[0.06979166666666667,-0.37592592592592594],[0.07291666666666667,-0.37407407407407406],[0.075,-0.37037037037037035],[0.07708333333333334,-0.36666666666666664],[0.08020833333333334,-0.3611111111111111],[0.08333333333333333,-0.3574074074074074],[0.08541666666666667,-0.35185185185185186],[0.0875,-0.34629629629629627],[0.08854166666666667,-0.34074074074074073],[0.08958333333333333,-0.337037037037037],[0.090625,-0.3296296296296296],[0.09166666666666666,-0.32407407407407407],[0.09375,-0.31666666666666665],[0.09375,-0.3074074074074074],[0.09375,-0.3],[0.09375,-0.29074074074074074],[0.09479166666666666,-0.2833333333333333],[0.09479166666666666,-0.2740740740740741],[0.09479166666666666,-0.26851851851851855],[0.09479166666666666,-0.2611111111111111],[0.09479166666666666,-0.25555555555555554],[0.09479166666666666,-0.2518518518518518],[0.09479166666666666,-0.2388888888888889],[0.09479166666666666,-0.23333333333333334],[0.09479166666666666,-0.22592592592592592],[0.09479166666666666,-0.22407407407407406],[0.09479166666666666,-0.21851851851851853],[0.09479166666666666,-0.21296296296296297],[0.09479166666666666,-0.2074074074074074],[0.09479166666666666,-0.20555555555555555],[0.09479166666666666,-0.20185185185185187],[0.09479166666666666,-0.2],[0.09479166666666666,-0.19814814814814816],[0.09479166666666666,-0.1925925925925926],[0.09270833333333334,-0.18518518518518517],[0.09270833333333334,-0.18333333333333332],[0.090625,-0.17592592592592593],[0.08958333333333333,-0.17037037037037037],[0.08854166666666667,-0.16666666666666666],[0.08645833333333333,-0.16111111111111112],[0.084375,-0.1537037037037037],[0.08125,-0.14814814814814814],[0.07916666666666666,-0.1425925925925926],[0.078125,-0.1388888888888889],[0.075,-0.13148148148148148],[0.07083333333333333,-0.12222222222222222],[0.06875,-0.11666666666666667],[0.06666666666666667,-0.1111111111111111],[0.06354166666666666,-0.10555555555555556],[0.06145833333333333,-0.09814814814814815],[0.059375,-0.09259259259259259],[0.057291666666666664,-0.08888888888888889],[0.05625,-0.08333333333333333],[0.052083333333333336,-0.07592592592592592],[0.051041666666666666,-0.07222222222222222],[0.04895833333333333,-0.06851851851851852],[0.046875,-0.06481481481481481],[0.046875,-0.06296296296296296],[0.04375,-0.05740740740740741],[0.042708333333333334,-0.05555555555555555],[0.041666666666666664,-0.053703703703703705],[0.03958333333333333,-0.05185185185185185],[0.03854166666666667,-0.05],[0.0375,-0.04814814814814815],[0.036458333333333336,-0.046296296296296294],[0.036458333333333336,-0.046296296296296294],[0.034375,-0.044444444444444446],[0.03125,-0.04259259259259259],[0.030208333333333334,-0.04259259259259259],[0.027083333333333334,-0.03888888888888889],[0.021875,-0.03333333333333333],[0.019791666666666666,-0.02962962962962963],[0.010416666666666666,-0.016666666666666666],[0.003125,-0.005555555555555556],[-0.0010416666666666667,0],[-0.004166666666666667,0.003703703703703704],[-0.005208333333333333,0.005555555555555556],[-0.00625,0.005555555555555556],[-0.00625,0.007407407407407408],[-0.008333333333333333,0.007407407407407408],[-0.008333333333333333,0.007407407407407408],[-0.008333333333333333,0.007407407407407408],[-0.008333333333333333,0.007407407407407408],[-0.008333333333333333,0.007407407407407408],[-0.008333333333333333,0.007407407407407408],[-0.008333333333333333,0.007407407407407408],[-0.008333333333333333,0.007407407407407408],[-0.008333333333333333,0.007407407407407408],[-0.008333333333333333,0.007407407407407408],[-0.008333333333333333,0.007407407407407408],[-0.008333333333333333,0.007407407407407408],[-0.008333333333333333,0.007407407407407408],[-0.008333333333333333,0.007407407407407408],[-0.008333333333333333,0.007407407407407408],[-0.008333333333333333,0.007407407407407408],[-0.008333333333333333,0.007407407407407408],[-0.008333333333333333,0.007407407407407408],[-0.008333333333333333,0.007407407407407408],[-0.008333333333333333,0.007407407407407408],[-0.008333333333333333,0.007407407407407408],[-0.008333333333333333,0.009259259259259259],[-0.008333333333333333,0.012962962962962963],[-0.00625,0.016666666666666666],[-0.0010416666666666667,0.027777777777777776],[0.004166666666666667,0.040740740740740744],[0.009375,0.05740740740740741],[0.013541666666666667,0.07222222222222222],[0.014583333333333334,0.08518518518518518],[0.016666666666666666,0.09444444444444444],[0.017708333333333333,0.10740740740740741],[0.020833333333333332,0.11666666666666667],[0.020833333333333332,0.1259259259259259],[0.020833333333333332,0.12962962962962962],[0.021875,0.13518518518518519],[0.022916666666666665,0.13703703703703704],[0.023958333333333335,0.14074074074074075],[0.023958333333333335,0.14074074074074075],[0.023958333333333335,0.14629629629629629],[0.023958333333333335,0.15],[0.023958333333333335,0.15],[0.023958333333333335,0.15],[0.023958333333333335,0.15],[0.023958333333333335,0.15],[0.023958333333333335,0.15],[0.023958333333333335,0.15],[0.023958333333333335,0.15185185185185185],[0.023958333333333335,0.15185185185185185],[0.023958333333333335,0.15185185185185185],[0.023958333333333335,0.15185185185185185],[0.023958333333333335,0.15185185185185185],[0.023958333333333335,0.15185185185185185],[0.023958333333333335,0.15185185185185185],[0.023958333333333335,0.15185185185185185],[0.023958333333333335,0.15185185185185185],[0.023958333333333335,0.15185185185185185],[0.023958333333333335,0.15185185185185185],[0.023958333333333335,0.15185185185185185],[0.023958333333333335,0.15185185185185185],[0.023958333333333335,0.15185185185185185],[0.023958333333333335,0.15185185185185185],[0.023958333333333335,0.15185185185185185],[0.023958333333333335,0.15185185185185185],[0.023958333333333335,0.15185185185185185],[0.023958333333333335,0.15185185185185185],[0.023958333333333335,0.15185185185185185],[0.023958333333333335,0.15185185185185185],[0.023958333333333335,0.15185185185185185],[0.023958333333333335,0.15185185185185185],[0.023958333333333335,0.15185185185185185],[0.023958333333333335,0.15185185185185185],[0.023958333333333335,0.15185185185185185],[0.023958333333333335,0.15185185185185185],[0.023958333333333335,0.15185185185185185],[0.023958333333333335,0.15185185185185185],[0.023958333333333335,0.15185185185185185],[0.023958333333333335,0.15185185185185185],[0.023958333333333335,0.15185185185185185],[0.023958333333333335,0.15185185185185185],[0.023958333333333335,0.15185185185185185],[0.023958333333333335,0.15185185185185185],[0.023958333333333335,0.15185185185185185],[0.023958333333333335,0.15185185185185185],[0.023958333333333335,0.15185185185185185],[0.023958333333333335,0.15185185185185185],[0.023958333333333335,0.15185185185185185],[0.023958333333333335,0.15185185185185185],[0.023958333333333335,0.15185185185185185],[0.023958333333333335,0.15185185185185185],[0.023958333333333335,0.15185185185185185],[0.023958333333333335,0.15185185185185185],[0.023958333333333335,0.15185185185185185],[0.023958333333333335,0.15185185185185185],[0.023958333333333335,0.15185185185185185],[0.023958333333333335,0.15185185185185185],[0.023958333333333335,0.15185185185185185],[0.023958333333333335,0.15185185185185185],[0.023958333333333335,0.15185185185185185],[0.023958333333333335,0.15185185185185185],[0.023958333333333335,0.15185185185185185],[0.023958333333333335,0.15185185185185185],[0.023958333333333335,0.15185185185185185],[0.023958333333333335,0.15185185185185185],[0.023958333333333335,0.15185185185185185],[0.023958333333333335,0.15185185185185185],[0.023958333333333335,0.15185185185185185],[0.023958333333333335,0.15185185185185185],[0.023958333333333335,0.15185185185185185],[0.023958333333333335,0.15185185185185185],[0.023958333333333335,0.15185185185185185],[0.023958333333333335,0.15185185185185185],[0.023958333333333335,0.15185185185185185],[0.023958333333333335,0.15185185185185185],[0.023958333333333335,0.15185185185185185],[0.023958333333333335,0.15185185185185185],[0.023958333333333335,0.15185185185185185],[0.023958333333333335,0.15185185185185185],[0.023958333333333335,0.15185185185185185],[0.023958333333333335,0.15185185185185185],[0.023958333333333335,0.15185185185185185],[0.023958333333333335,0.15185185185185185],[0.023958333333333335,0.15185185185185185],[0.023958333333333335,0.15185185185185185],[0.023958333333333335,0.15185185185185185],[0.023958333333333335,0.15185185185185185],[0.023958333333333335,0.15185185185185185],[0.023958333333333335,0.15185185185185185],[0.023958333333333335,0.15185185185185185],[0.023958333333333335,0.15185185185185185],[0.023958333333333335,0.15185185185185185],[0.023958333333333335,0.15185185185185185],[0.023958333333333335,0.15185185185185185],[0.023958333333333335,0.15185185185185185],[0.023958333333333335,0.15185185185185185],[0.023958333333333335,0.15185185185185185],[0.023958333333333335,0.15185185185185185],[0.023958333333333335,0.15185185185185185],[0.023958333333333335,0.15185185185185185],[0.023958333333333335,0.15185185185185185],[0.023958333333333335,0.15185185185185185],[0.023958333333333335,0.15185185185185185],[0.023958333333333335,0.15185185185185185],[0.023958333333333335,0.15185185185185185],[0.023958333333333335,0.15185185185185185],[0.025,0.15185185185185185],[0.025,0.15185185185185185],[0.025,0.15185185185185185],[0.025,0.15185185185185185],[0.025,0.15185185185185185],[0.025,0.15185185185185185],[0.025,0.15185185185185185],[0.025,0.15185185185185185],[0.025,0.15185185185185185],[0.025,0.15185185185185185],[0.025,0.15185185185185185],[0.025,0.15185185185185185],[0.025,0.15185185185185185],[0.025,0.15185185185185185],[0.025,0.15185185185185185],[0.025,0.15185185185185185],[0.025,0.15185185185185185],[0.025,0.15185185185185185],[0.025,0.15185185185185185],[0.025,0.15185185185185185],[0.025,0.15185185185185185],[0.025,0.15185185185185185],[0.025,0.15185185185185185],[0.025,0.15185185185185185],[0.025,0.15185185185185185],[0.025,0.15185185185185185],[0.025,0.15185185185185185],[0.025,0.15185185185185185],[0.025,0.15185185185185185],[0.025,0.15185185185185185],[0.025,0.15185185185185185],[0.025,0.15185185185185185],[0.025,0.15185185185185185],[0.025,0.15185185185185185],[0.025,0.15185185185185185],[0.025,0.15185185185185185],[0.025,0.15185185185185185],[0.025,0.15185185185185185],[0.025,0.15185185185185185],[0.025,0.15185185185185185],[0.025,0.15185185185185185],[0.025,0.15185185185185185],[0.025,0.15185185185185185],[0.025,0.15185185185185185],[0.025,0.15185185185185185],[0.025,0.15185185185185185],[0.025,0.15185185185185185],[0.025,0.15185185185185185],[0.025,0.15185185185185185],[0.025,0.15185185185185185],[0.025,0.15185185185185185],[0.025,0.15185185185185185],[0.025,0.15185185185185185],[0.025,0.15185185185185185],[0.025,0.15185185185185185],[0.025,0.15185185185185185],[0.025,0.15185185185185185],[0.025,0.15185185185185185],[0.025,0.15185185185185185],[0.025,0.15185185185185185],[0.025,0.15185185185185185],[0.025,0.15185185185185185],[0.025,0.15185185185185185],[0.025,0.15185185185185185],[0.025,0.15185185185185185],[0.025,0.15185185185185185],[0.025,0.15185185185185185],[0.026041666666666668,0.15185185185185185],[0.026041666666666668,0.15185185185185185],[0.027083333333333334,0.15185185185185185],[0.027083333333333334,0.15185185185185185],[0.027083333333333334,0.15],[0.028125,0.14814814814814814],[0.029166666666666667,0.14444444444444443],[0.029166666666666667,0.1425925925925926],[0.029166666666666667,0.1425925925925926],[0.029166666666666667,0.1425925925925926],[0.029166666666666667,0.14074074074074075]]","[[-0.00614583333333331,0.7974074074074075],[-0.00614583333333331,0.7974074074074075],[0.02000000000000005,0.7862962962962964],[0.050416666666666644,0.8003703703703705],[0.08083333333333324,0.8144444444444444],[0.06687500000000005,0.8024074074074073],[0.0671875,0.8133333333333335],[0.06218750000000005,0.8301851851851851],[0.07333333333333343,0.8555555555555555],[0.05562499999999997,0.8372222222222223],[0.03791666666666664,0.818888888888889],[0.03791666666666664,0.818888888888889],[0.029166666666666667,0.7953703703703704],[0.029166666666666667,0.7953703703703704],[-0.050416666666666644,0.7148148148148148],[-0.050416666666666644,0.7148148148148148],[-0.14072916666666668,0.6177777777777779],[-0.21968749999999998,0.5501851851851852],[-0.21968749999999998,0.5501851851851852],[-0.3,0.4842592592592593],[-0.3,0.4842592592592593],[-0.36124999999999996,0.4053703703703703],[-0.36124999999999996,0.4053703703703703],[-0.44510416666666663,0.3337037037037038],[-0.5132291666666666,0.2537037037037037],[-0.5747916666666666,0.18981481481481483],[-0.6565624999999999,0.11574074074074074],[-0.7255208333333333,0.06185185185185181],[-0.7486458333333333,0.05944444444444449],[-0.7479166666666667,0.08092592592592601],[-0.7585416666666667,0.07296296296296292],[-0.7585416666666667,0.07296296296296292],[-0.6986458333333334,0.11685185185185189],[-0.6661458333333333,0.17981481481481484],[-0.6158333333333333,0.23759259259259252],[-0.5702083333333333,0.3255555555555555],[-0.5235416666666667,0.4125925925925925],[-0.44020833333333337,0.5083333333333333],[-0.3546875,0.5916666666666667],[-0.268125,0.6503703703703705],[-0.20322916666666668,0.6885185185185184],[-0.12427083333333329,0.7422222222222221],[-0.10052083333333334,0.7692592592592592],[-0.04750000000000002,0.7909259259259259],[0.005520833333333286,0.8125925925925925],[0.019270833333333334,0.8042592592592592],[0.03302083333333338,0.7959259259259258],[0.05656249999999995,0.8116666666666665],[0.04552083333333338,0.8298148148148149],[0.06927083333333334,0.856851851851852],[0.05458333333333331,0.8624074074074075],[0.025833333333333285,0.8524074074074073],[0.01260416666666669,0.8222222222222222],[-0.006562499999999953,0.7988888888888889],[-0.02322916666666662,0.7618518518518518],[-0.02635416666666662,0.765],[-0.04479166666666667,0.7675925925925926],[-0.08572916666666662,0.7509259259259259],[-0.09208333333333331,0.731851851851852],[-0.13114583333333332,0.7242592592592593],[-0.1352083333333333,0.7285185185185185],[-0.1408333333333334,0.7433333333333333],[-0.1514583333333333,0.7687037037037038],[-0.1820833333333333,0.8035185185185185],[-0.21749999999999994,0.862037037037037],[-0.23572916666666663,0.8987037037037037],[-0.2407291666666667,0.9307407407407405],[-0.24385416666666668,1.000740740740741],[-0.26114583333333335,1.056851851851852],[-0.2907291666666667,1.1199999999999999],[-0.32687499999999997,1.1970370370370371],[-0.3615625,1.2425925925925927],[-0.39625,1.288148148148148],[-0.4266666666666667,1.3374074074074076],[-0.4547916666666667,1.376666666666667],[-0.48541666666666666,1.4057407407407405],[-0.5060416666666667,1.4281481481481482],[-0.5132291666666666,1.4159259259259258],[-0.5097916666666666,1.4183333333333334],[-0.4748958333333333,1.4064814814814814],[-0.42999999999999994,1.3903703703703703],[-0.4125,1.4224074074074073],[-0.38604166666666667,1.4507407407407409],[-0.3646875,1.4583333333333333],[-0.3433333333333334,1.4659259259259259],[-0.3123958333333333,1.4661111111111111],[-0.28937499999999994,1.4781481481481482],[-0.2830208333333334,1.4824074074074074],[-0.2635416666666667,1.461296296296296],[-0.28500000000000003,1.4675925925925926],[-0.3046875,1.4837037037037037],[-0.3207291666666666,1.4566666666666666],[-0.33187500000000003,1.4338888888888888],[-0.3026041666666667,1.4005555555555556],[-0.2733333333333333,1.3672222222222221],[-0.25843750000000004,1.3483333333333332],[-0.24354166666666663,1.3294444444444447],[-0.2421875,1.3016666666666667],[-0.2504166666666666,1.2985185185185186],[-0.25062500000000004,1.288703703703704],[-0.24604166666666671,1.2827777777777778],[-0.21468750000000003,1.2875925925925924],[-0.19718749999999996,1.2918518518518516],[-0.21937500000000001,1.274814814814815],[-0.24156249999999999,1.2577777777777779],[-0.23812500000000003,1.2562962962962965],[-0.23875000000000005,1.2540740740740741],[-0.23770833333333338,1.2544444444444447],[-0.2404166666666666,1.2583333333333333],[-0.23125,1.2622222222222221],[-0.22864583333333333,1.2524074074074074],[-0.2139583333333333,1.224074074074074],[-0.2,1.2107407407407407],[-0.18697916666666667,1.2007407407407409],[-0.2039583333333333,1.2427777777777775],[-0.18854166666666666,1.2287037037037036],[-0.17302083333333335,1.2105555555555556],[-0.15177083333333338,1.1842592592592593],[-0.11333333333333329,1.1548148148148147],[-0.08916666666666669,1.1529629629629627],[-0.06499999999999997,1.151111111111111],[-0.06843750000000005,1.1544444444444446],[-0.06166666666666672,1.1442592592592595],[-0.04885416666666664,1.1625925925925924],[-0.011979166666666667,1.126666666666667],[-0.025520833333333333,1.1435185185185186],[-0.035104166666666714,1.1651851851851853],[-0.04520833333333331,1.185925925925926],[-0.06875,1.2062962962962964],[-0.08708333333333336,1.194074074074074],[-0.10541666666666671,1.181851851851852],[-0.10541666666666671,1.181851851851852],[-0.10531250000000002,1.1755555555555555],[-0.10531250000000002,1.1755555555555555],[-0.09968750000000005,1.1875925925925925],[-0.09968750000000005,1.1875925925925925],[-0.09916666666666671,1.1848148148148148],[-0.11677083333333335,1.1787037037037038],[-0.11677083333333335,1.1787037037037038],[-0.1530208333333333,1.1600000000000001],[-0.1530208333333333,1.1600000000000001],[-0.1805208333333333,1.1444444444444444],[-0.18802083333333333,1.1348148148148147],[-0.21749999999999994,1.1164814814814816],[-0.21749999999999994,1.1164814814814816],[-0.2391666666666667,1.093888888888889],[-0.25270833333333337,1.0920370370370371],[-0.2924999999999999,1.0953703703703703],[-0.34729166666666667,1.0788888888888888],[-0.39083333333333337,1.0770370370370368],[-0.41031249999999997,1.0807407407407406],[-0.3880208333333333,1.0911111111111111],[-0.39781249999999996,1.095],[-0.41291666666666665,1.1220370370370372],[-0.40604166666666663,1.1577777777777778],[-0.4188541666666667,1.1675925925925925],[-0.4397916666666667,1.1566666666666665],[-0.4409374999999999,1.1724074074074073],[-0.44208333333333333,1.188148148148148],[-0.4552083333333333,1.1885185185185185],[-0.4683333333333334,1.1888888888888889],[-0.491875,1.1977777777777776],[-0.4920833333333333,1.2100000000000002],[-0.5103125,1.1644444444444444],[-0.5285416666666667,1.118888888888889],[-0.5264583333333334,1.1437037037037034],[-0.5007291666666667,1.185925925925926],[-0.5245833333333334,1.1883333333333335],[-0.50125,1.2285185185185188],[-0.47010416666666666,1.2607407407407407],[-0.4389583333333333,1.292962962962963],[-0.43250000000000005,1.2925925925925925],[-0.42604166666666665,1.2922222222222222],[-0.38093750000000004,1.3357407407407407],[-0.34104166666666663,1.3846296296296297],[-0.29708333333333337,1.4294444444444445],[-0.29958333333333337,1.4566666666666666],[-0.26499999999999996,1.4487037037037036],[-0.25895833333333335,1.4016666666666668],[-0.29354166666666665,1.4305555555555556],[-0.309375,1.4351851851851851],[-0.309375,1.4351851851851851],[-0.31489583333333326,1.430925925925926],[-0.31666666666666665,1.4340740740740743],[-0.3494791666666667,1.4385185185185185],[-0.35916666666666663,1.4344444444444442],[-0.3759375,1.4105555555555556],[-0.3759375,1.4105555555555556],[-0.3616666666666667,1.3785185185185187],[-0.33656250000000004,1.3911111111111112],[-0.33947916666666667,1.3961111111111113],[-0.31604166666666667,1.360925925925926],[-0.31666666666666665,1.3455555555555554],[-0.2894791666666666,1.3566666666666665],[-0.26843750000000005,1.3651851851851853],[-0.2522916666666667,1.3616666666666666],[-0.25406249999999997,1.3612962962962962],[-0.2709375,1.3542592592592593],[-0.2960416666666667,1.3555555555555556],[-0.3120833333333334,1.357037037037037],[-0.3132291666666667,1.387962962962963],[-0.28781249999999997,1.3937037037037034],[-0.2570833333333333,1.4038888888888887],[-0.2607291666666666,1.4038888888888887],[-0.2642708333333334,1.4162962962962962],[-0.27229166666666665,1.4164814814814817],[-0.2803125,1.4166666666666667],[-0.255625,1.4046296296296297],[-0.2203125,1.4116666666666666],[-0.19739583333333333,1.4057407407407405],[-0.17999999999999997,1.3792592592592592],[-0.20020833333333338,1.3614814814814815],[-0.2127083333333334,1.3342592592592593],[-0.22302083333333336,1.3205555555555555],[-0.23104166666666662,1.28962962962963],[-0.21375000000000005,1.2775925925925928],[-0.1907291666666667,1.268148148148148],[-0.19895833333333332,1.2361111111111112],[-0.21781250000000002,1.1840740740740743],[-0.22947916666666662,1.1785185185185187],[-0.24114583333333334,1.1729629629629632],[-0.23552083333333335,1.162037037037037],[-0.22468750000000004,1.1651851851851853],[-0.21499999999999997,1.2085185185185183],[-0.20531250000000004,1.2518518518518518],[-0.2171875,1.2785185185185186],[-0.23479166666666665,1.3025925925925927],[-0.24291666666666673,1.350740740740741],[-0.25104166666666666,1.399814814814815],[-0.2367708333333333,1.4055555555555554],[-0.21489583333333329,1.4194444444444445],[-0.22250000000000003,1.4655555555555557],[-0.24739583333333334,1.5035185185185187],[-0.26458333333333334,1.4670370370370371],[-0.28177083333333336,1.4305555555555556],[-0.2603125,1.3177777777777777],[-0.22666666666666668,1.232037037037037],[-0.17416666666666672,1.155185185185185],[-0.12229166666666665,1.0492592592592591],[-0.11979166666666667,0.9711111111111113],[-0.1248958333333333,0.8848148148148147],[-0.09083333333333338,0.8001851851851852],[-0.05697916666666671,0.7127777777777777],[-0.041562499999999974,0.6442592592592592],[-0.0140625,0.5633333333333335],[0.0012500000000000473,0.6233333333333334],[-0.016770833333333356,0.6240740740740741],[-0.04458333333333329,0.6035185185185185],[-0.0625,0.6075925925925927],[-0.03822916666666672,0.590925925925926],[-0.01395833333333331,0.5742592592592592],[0.002291666666666714,0.5540740740740742],[0.01729166666666669,0.5227777777777777],[0.04822916666666662,0.4918518518518519],[0.06708333333333343,0.4733333333333334],[0.0421875,0.46037037037037043],[0.0421875,0.46037037037037043],[0.07520833333333338,0.41518518518518527],[0.0834374999999999,0.3640740740740741],[0.09541666666666657,0.3670370370370371],[0.10989583333333333,0.3918518518518519],[0.096875,0.43129629629629623],[0.096875,0.43129629629629623],[0.09260416666666677,0.4072222222222222],[0.09260416666666677,0.4072222222222222],[0.1118750000000001,0.4225925925925927],[0.1118750000000001,0.4225925925925927],[0.12052083333333338,0.4383333333333334],[0.12052083333333338,0.4383333333333334],[0.13427083333333342,0.4338888888888888],[0.17062499999999994,0.40370370370370373],[0.17062499999999994,0.40370370370370373],[0.16375000000000003,0.3987037037037036],[0.16375000000000003,0.3987037037037036],[0.17083333333333334,0.40314814814814826],[0.15416666666666667,0.39222222222222214],[0.1265625,0.36666666666666664],[0.1078125,0.3042592592592592],[0.11375000000000005,0.28129629629629627],[0.10833333333333334,0.280925925925926],[0.12312500000000005,0.26777777777777784],[0.11322916666666671,0.2661111111111112],[0.10364583333333334,0.24203703703703713],[0.10364583333333334,0.24203703703703713],[0.09229166666666658,0.25629629629629624],[0.09572916666666677,0.2794444444444444],[0.10989583333333333,0.2683333333333333],[0.11281249999999995,0.294074074074074],[0.1352083333333333,0.29981481481481476],[0.1319791666666667,0.3051851851851851],[0.12239583333333333,0.26592592592592595],[0.11052083333333323,0.2485185185185186],[0.10593750000000005,0.23666666666666658],[0.09947916666666666,0.2518518518518518],[0.10125000000000005,0.26796296296296307],[0.10343749999999995,0.25166666666666665],[0.1056250000000001,0.23537037037037042],[0.10843749999999991,0.23592592592592587],[0.10625,0.23296296296296287],[0.10385416666666672,0.2294444444444444],[0.10145833333333343,0.22592592592592592],[0.08718750000000004,0.26129629629629636],[0.08322916666666676,0.2772222222222223],[0.09249999999999996,0.19425925925925921],[0.0953125,0.13222222222222219],[0.0984375,0.13907407407407413],[0.1015625,0.14592592592592585],[0.10489583333333338,0.11481481481481481],[0.10281250000000004,0.10722222222222218],[0.09187500000000005,0.12314814814814815],[0.08677083333333328,0.11592592592592597],[0.08708333333333323,0.08462962962962971],[0.08937499999999995,0.07592592592592592],[0.06531250000000005,0.13851851851851843],[0.04770833333333328,0.1801851851851851],[0.041979166666666616,0.17611111111111116],[0.03083333333333336,0.14129629629629623],[0.026041666666666668,0.10666666666666672],[0.024479166666666666,0.10481481481481486],[0.021562500000000047,0.08907407407407411],[0.012812499999999952,0.09648148148148153],[0.022291666666666644,0.08537037037037042],[0.013854166666666619,0.1037037037037037],[0.029166666666666667,0.09981481481481477],[0.04697916666666669,0.07518518518518523],[0.05020833333333338,0.06370370370370367],[0.058854166666666666,0.08296296296296288],[0.05239583333333329,0.11148148148148157],[0.052291666666666715,0.1294444444444444],[0.03239583333333336,0.1235185185185186],[0.008958333333333356,0.09444444444444444],[-0.021979166666666692,0.04888888888888885],[-0.035000000000000024,-0.026111111111111154],[-0.060104166666666715,-0.09296296296296294],[-0.08770833333333337,-0.13907407407407413],[-0.12062499999999995,-0.19870370370370372],[-0.12062499999999995,-0.19870370370370372],[-0.15354166666666663,-0.25833333333333336],[-0.18458333333333338,-0.3098148148148148],[-0.215625,-0.36129629629629634],[-0.22489583333333332,-0.4009259259259259],[-0.1998958333333333,-0.3977777777777778],[-0.17718750000000003,-0.4235185185185185],[-0.17229166666666665,-0.4007407407407407],[-0.16687500000000005,-0.3574074074074074],[-0.15364583333333334,-0.29518518518518516],[-0.15114583333333337,-0.23333333333333334],[-0.13895833333333332,-0.18407407407407403],[-0.12239583333333333,-0.13185185185185183],[-0.11885416666666669,-0.1272222222222222],[-0.09541666666666669,-0.09518518518518514],[-0.11031249999999998,-0.13925925925925925],[-0.11031249999999998,-0.13925925925925925],[-0.11739583333333338,-0.08222222222222218],[-0.11083333333333331,-0.05462962962962963],[-0.06812499999999998,-0.03296296296296288],[-0.09437500000000003,-0.05277777777777778],[-0.0889583333333333,-0.06870370370370374],[-0.08541666666666667,-0.08333333333333333],[-0.07697916666666664,-0.13092592592592592],[-0.011979166666666667,-0.1257407407407407],[-0.014999999999999977,-0.15185185185185185],[0.03114583333333331,-0.0712962962962963],[0.05499999999999995,-0.06370370370370367],[0.08270833333333343,-0.04518518518518514],[0.06916666666666677,-0.011666666666666582],[0.11552083333333343,0.041111111111111195],[0.1400000000000001,0.06759259259259259],[0.14833333333333343,0.07222222222222222],[0.15979166666666675,0.08425925925925926],[0.12208333333333338,0.102962962962963],[0.15458333333333343,0.1411111111111112],[0.14552083333333338,0.12907407407407415],[0.13177083333333334,0.14648148148148152],[0.11031250000000009,0.09796296296296292],[0.10322916666666657,0.003888888888888931],[0.10322916666666657,0.003888888888888931],[0.09739583333333333,-0.0868518518518518],[0.09427083333333333,-0.12037037037037036],[0.10072916666666672,-0.11203703703703703],[0.08822916666666672,-0.15333333333333335],[0.08250000000000005,-0.1772222222222222],[0.08250000000000005,-0.1772222222222222],[0.06875,-0.20314814814814813],[0.06875,-0.20314814814814813],[0.049374999999999974,-0.20111111111111116],[0.049374999999999974,-0.20111111111111116],[0.0390625,-0.21222222222222226],[0.0265625,-0.21777777777777782],[0.0265625,-0.21777777777777782],[0.0021875000000000236,-0.19759259259259257],[-0.01114583333333338,-0.14648148148148152],[-0.01114583333333338,-0.14648148148148152],[-0.029999999999999954,-0.12092592592592595],[-0.03135416666666669,-0.1264814814814815],[-0.02947916666666662,-0.08574074074074076],[-0.028750000000000022,-0.0742592592592593],[-0.024687500000000046,-0.025925925925925925],[-0.014999999999999977,-0.005555555555555556],[-0.014895833333333285,0.05314814814814823],[-0.00458333333333331,0.14222222222222214],[0.010000000000000024,0.2131481481481482],[0.013541666666666667,0.25314814814814823],[0.012395833333333309,0.31444444444444436],[-0.0068750000000000235,0.39462962962962966],[-0.010000000000000024,0.4462962962962963],[-0.013125000000000024,0.49796296296296294],[-0.018229166666666668,0.519074074074074],[-0.02333333333333331,0.5401851851851853],[-0.026979166666666644,0.48296296296296287],[-0.024062500000000025,0.4668518518518519],[-0.024895833333333308,0.4383333333333334],[-0.0171875,0.4072222222222222],[-0.013645833333333357,0.3170370370370371],[-0.019375000000000024,0.2412962962962962],[-0.017083333333333308,0.2411111111111112],[-0.013437499999999976,0.23407407407407405],[-0.01906249999999995,0.18370370370370379],[-0.024687500000000046,0.13333333333333333],[-0.0018749999999999527,0.13925925925925933],[0.009895833333333333,0.11074074074074065],[0.024374999999999977,0.12777777777777777],[0.036145833333333384,0.1537037037037037],[0.04041666666666662,0.17740740740740732],[0.07729166666666672,0.2361111111111111],[0.09083333333333338,0.2698148148148149],[0.12750000000000009,0.28592592592592586],[0.1368750000000001,0.3096296296296297],[0.14187500000000006,0.3537037037037037],[0.14187500000000006,0.3537037037037037],[0.1390625,0.3683333333333333],[0.12447916666666667,0.41648148148148145],[0.13645833333333332,0.45740740740740743],[0.1287499999999999,0.47907407407407415],[0.14479166666666668,0.5712962962962963],[0.1368750000000001,0.6175925925925926],[0.1502083333333334,0.606851851851852],[0.15031249999999996,0.6374074074074075],[0.1765625,0.6905555555555555],[0.2085416666666667,0.7201851851851852],[0.22802083333333342,0.762962962962963],[0.25770833333333343,0.7335185185185186],[0.27625000000000005,0.722037037037037],[0.27625000000000005,0.722037037037037],[0.27010416666666665,0.7055555555555556],[0.28010416666666677,0.675],[0.2837500000000001,0.6501851851851852],[0.2543750000000001,0.6198148148148149],[0.21375000000000005,0.5725925925925927],[0.19739583333333333,0.549074074074074],[0.17312500000000006,0.5327777777777779],[0.14322916666666666,0.49907407407407406],[0.11979166666666667,0.5131481481481482],[0.0953125,0.5009259259259259],[0.09708333333333338,0.5044444444444444],[0.08260416666666662,0.45740740740740743],[0.08708333333333323,0.4005555555555555],[0.11458333333333333,0.4137037037037037],[0.14208333333333342,0.42685185185185187],[0.1476041666666667,0.4412962962962962],[0.15968749999999995,0.4516666666666666],[0.17739583333333328,0.4794444444444444],[0.1834374999999999,0.48518518518518516],[0.1896874999999999,0.4503703703703705],[0.1837500000000001,0.397037037037037],[0.1658333333333334,0.3764814814814814],[0.13145833333333337,0.3848148148148147],[0.13322916666666676,0.3866666666666666],[0.11614583333333334,0.3633333333333334],[0.11989583333333324,0.3512962962962964],[0.10885416666666667,0.3514814814814814],[0.0990624999999999,0.34444444444444444],[0.08895833333333343,0.26703703703703713],[0.06791666666666671,0.23499999999999996],[0.06593749999999995,0.2492592592592593],[0.06593749999999995,0.2492592592592593],[0.08687500000000009,0.23129629629629625],[0.10416666666666667,0.1624074074074075],[0.08499999999999991,0.08833333333333342],[0.07312500000000005,0.04092592592592597],[0.04770833333333328,-0.05092592592592592],[0.034687499999999954,-0.11148148148148146],[0.02041666666666669,-0.1648148148148148],[0.017708333333333333,-0.14148148148148143],[0.0012500000000000473,-0.10944444444444448],[0.034062500000000044,-0.13055555555555556],[0.04989583333333331,-0.10648148148148148],[0.08489583333333334,-0.05259259259259255],[0.10750000000000005,-0.02833333333333325],[0.14520833333333344,0.03185185185185194],[0.17333333333333342,0.10018518518518522],[0.21416666666666656,0.11666666666666667],[0.25499999999999995,0.1331481481481481],[0.24749999999999991,0.15037037037037046],[0.26239583333333344,0.11888888888888897],[0.2367708333333333,0.11870370370370374],[0.21447916666666675,0.10444444444444441],[0.1959374999999999,0.08518518518518518],[0.16822916666666668,0.10185185185185185],[0.13562500000000005,0.05462962962962963],[0.10614583333333343,0.014074074074074116],[0.065625,0.027777777777777776],[0.065625,0.027777777777777776],[0.02510416666666669,0.04148148148148144],[0.04239583333333338,0.013703703703703662],[0.04239583333333338,0.013703703703703662],[0.059895833333333336,0.0514814814814814],[0.058854166666666666,0.09888888888888885],[0.04635416666666667,0.0962962962962963],[0.04635416666666667,0.0962962962962963],[0.030624999999999975,0.0933333333333333],[0.04093749999999995,0.07074074074074083],[0.05260416666666667,0.07462962962962955],[0.05260416666666667,0.07462962962962955],[0.0853125000000001,0.09240740740740737],[0.11531250000000005,0.040740740740740744],[0.1118750000000001,0.010370370370370412],[0.10666666666666676,-0.053148148148148125],[0.11197916666666667,-0.10925925925925926],[0.1345833333333334,-0.17],[0.16697916666666662,-0.17462962962962966],[0.17916666666666667,-0.18407407407407403],[0.1931250000000001,-0.20629629629629626],[0.2068749999999999,-0.17759259259259255],[0.19656250000000006,-0.16722222222222224],[0.18499999999999991,-0.19907407407407407],[0.1977083333333333,-0.25],[0.2101041666666667,-0.21518518518518517],[0.20166666666666658,-0.21277777777777773],[0.2025000000000001,-0.19277777777777783],[0.21302083333333333,-0.20481481481481487],[0.23156249999999995,-0.2103703703703704],[0.23802083333333332,-0.15648148148148147],[0.24697916666666658,-0.15981481481481483],[0.25583333333333325,-0.1653703703703704],[0.23552083333333323,-0.12611111111111115],[0.2517708333333334,-0.08148148148148149],[0.24343750000000006,-0.02388888888888885],[0.25270833333333326,0.02833333333333325],[0.25281250000000005,0.027407407407407325],[0.23041666666666671,0.05981481481481473],[0.19416666666666677,0.102962962962963],[0.1642708333333334,0.09407407407407399],[0.14708333333333337,0.06666666666666667],[0.13739583333333344,0.06777777777777783],[0.1428124999999999,0.06148148148148157],[0.12010416666666662,0.0455555555555556],[0.10760416666666663,-0.002962962962963005],[0.0775000000000001,-0.04611111111111107]]","[[-0.00614583333333331,0.7974074074074075,0.00029999999993179927],[-0.00614583333333331,0.7974074074074075,0.03879999999993089],[0.02000000000000005,0.7862962962962964,0.04919999999995639],[0.050416666666666644,0.8003703703703705,0.06379999999992947],[0.08083333333333324,0.8144444444444444,0.07879999999993004],[0.06687500000000005,0.8024074074074073,0.09539999999991267],[0.0671875,0.8133333333333335,0.11269999999995406],[0.06218750000000005,0.8301851851851851,0.1287999999999343],[0.07333333333333343,0.8555555555555555,0.14879999999993032],[0.05562499999999997,0.8372222222222223,0.16209999999998104],[0.03791666666666664,0.818888888888889,0.17879999999993146],[0.03791666666666664,0.818888888888889,0.19539999999990698],[0.029166666666666667,0.7953703703703704,0.2121999999999531],[0.029166666666666667,0.7953703703703704,0.22879999999993572],[-0.050416666666666644,0.7148148148148148,0.24559999999998183],[-0.050416666666666644,0.7148148148148148,0.26229999999993225],[-0.14072916666666668,0.6177777777777779,0.2787999999999329],[-0.21968749999999998,0.5501851851851852,0.30450000000000443],[-0.21968749999999998,0.5501851851851852,0.3135999999999797],[-0.3,0.4842592592592593,0.32879999999993004],[-0.3,0.4842592592592593,0.34539999999991267],[-0.36124999999999996,0.4053703703703703,0.3620999999999768],[-0.36124999999999996,0.4053703703703703,0.3787999999999343],[-0.44510416666666663,0.3337037037037038,0.3953999999999098],[-0.5132291666666666,0.2537037037037037,0.4125999999999763],[-0.5747916666666666,0.18981481481481483,0.42869999999995656],[-0.6565624999999999,0.11574074074074074,0.445399999999907],[-0.7255208333333333,0.06185185185185181,0.4620999999999782],[-0.7486458333333333,0.05944444444444449,0.4787999999999357],[-0.7479166666666667,0.08092592592592601,0.49549999999999983],[-0.7585416666666667,0.07296296296296292,0.5165000000000006],[-0.7585416666666667,0.07296296296296292,0.5310000000000059],[-0.6986458333333334,0.11685185185185189,0.5453999999999084],[-0.6661458333333333,0.17981481481481484,0.5620999999999796],[-0.6158333333333333,0.23759259259259252,0.57879999999993],[-0.5702083333333333,0.3255555555555555,0.5953999999999127],[-0.5235416666666667,0.4125925925925925,0.6125000000000043],[-0.44020833333333337,0.5083333333333333,0.6287999999999343],[-0.3546875,0.5916666666666667,0.6453999999999098],[-0.268125,0.6503703703703705,0.6621999999999559],[-0.20322916666666668,0.6885185185185184,0.6787999999999315],[-0.12427083333333329,0.7422222222222221,0.6955000000000027],[-0.10052083333333334,0.7692592592592592,0.7142999999999304],[-0.04750000000000002,0.7909259259259259,0.7286999999999537],[0.005520833333333286,0.8125925925925925,0.7453999999999112],[0.019270833333333334,0.8042592592592592,0.7620999999999825],[0.03302083333333338,0.7959259259259258,0.7787999999999329],[0.05656249999999995,0.8116666666666665,0.7955000000000041],[0.04552083333333338,0.8298148148148149,0.8120000000000047],[0.06927083333333334,0.856851851851852,0.8286999999999551],[0.05458333333333331,0.8624074074074075,0.8455000000000013],[0.025833333333333285,0.8524074074074073,0.8620999999999768],[0.01260416666666669,0.8222222222222222,0.8800000000000026],[-0.006562499999999953,0.7988888888888889,0.8953999999999098],[-0.02322916666666662,0.7618518518518518,0.912099999999981],[-0.02635416666666662,0.765,0.9287999999999315],[-0.04479166666666667,0.7675925925925926,0.945399999999907],[-0.08572916666666662,0.7509259259259259,0.9620999999999782],[-0.09208333333333331,0.731851851851852,0.9786999999999537],[-0.13114583333333332,0.7242592592592593,0.9984999999999999],[-0.1352083333333333,0.7285185185185185,1.0145999999999802],[-0.1408333333333334,0.7433333333333333,1.0287999999999329],[-0.1514583333333333,0.7687037037037038,1.0453999999999084],[-0.1820833333333333,0.8035185185185185,1.0620999999999796],[-0.21749999999999994,0.862037037037037,1.0786999999999551],[-0.23572916666666663,0.8987037037037037,1.0953999999999127],[-0.2407291666666667,0.9307407407407405,1.1120000000000019],[-0.24385416666666668,1.000740740740741,1.1286999999999523],[-0.26114583333333335,1.056851851851852,1.1453999999999098],[-0.2907291666666667,1.1199999999999999,1.161999999999999],[-0.32687499999999997,1.1970370370370371,1.1786999999999566],[-0.3615625,1.2425925925925927,1.195399999999907],[-0.39625,1.288148148148148,1.2128999999999124],[-0.4266666666666667,1.3374074074074076,1.2286999999999537],[-0.4547916666666667,1.376666666666667,1.2453999999999112],[-0.48541666666666666,1.4057407407407405,1.2620999999999825],[-0.5060416666666667,1.4281481481481482,1.2787999999999329],[-0.5132291666666666,1.4159259259259258,1.2953999999999084],[-0.5097916666666666,1.4183333333333334,1.3145999999999773],[-0.4748958333333333,1.4064814814814814,1.3286999999999551],[-0.42999999999999994,1.3903703703703703,1.3453999999999127],[-0.4125,1.4224074074074073,1.3620000000000019],[-0.38604166666666667,1.4507407407407409,1.3787999999999343],[-0.3646875,1.4583333333333333,1.3953999999999098],[-0.3433333333333334,1.4659259259259259,1.412099999999981],[-0.3123958333333333,1.4661111111111111,1.4287999999999315],[-0.28937499999999994,1.4781481481481482,1.445399999999907],[-0.2830208333333334,1.4824074074074074,1.4620000000000033],[-0.2635416666666667,1.461296296296296,1.4786999999999537],[-0.28500000000000003,1.4675925925925926,1.4954999999999998],[-0.3046875,1.4837037037037037,1.5122999999999323],[-0.3207291666666666,1.4566666666666666,1.528699999999958],[-0.33187500000000003,1.4338888888888888,1.5460999999999814],[-0.3026041666666667,1.4005555555555556,1.5620999999999796],[-0.2733333333333333,1.3672222222222221,1.5786999999999551],[-0.25843750000000004,1.3483333333333332,1.5953999999999127],[-0.24354166666666663,1.3294444444444447,1.6156999999999542],[-0.2421875,1.3016666666666667,1.6287999999999343],[-0.2504166666666666,1.2985185185185186,1.6453999999999098],[-0.25062500000000004,1.288703703703704,1.662099999999981],[-0.24604166666666671,1.2827777777777778,1.6786999999999566],[-0.21468750000000003,1.2875925925925924,1.695399999999907],[-0.19718749999999996,1.2918518518518516,1.7150000000000034],[-0.21937500000000001,1.274814814814815,1.7287999999999357],[-0.24156249999999999,1.2577777777777779,1.7452999999999292],[-0.23812500000000003,1.2562962962962965,1.7620999999999825],[-0.23875000000000005,1.2540740740740741,1.778699999999958],[-0.23770833333333338,1.2544444444444447,1.795500000000004],[-0.2404166666666666,1.2583333333333333,1.812599999999982],[-0.23125,1.2622222222222221,1.8286999999999551],[-0.22864583333333333,1.2524074074074074,1.8453999999999127],[-0.2139583333333333,1.224074074074074,1.8620999999999768],[-0.2,1.2107407407407407,1.8787999999999343],[-0.18697916666666667,1.2007407407407409,1.8955000000000055],[-0.2039583333333333,1.2427777777777775,1.9123999999999057],[-0.18854166666666666,1.2287037037037036,1.9310999999999794],[-0.17302083333333335,1.2105555555555556,1.945399999999907],[-0.15177083333333338,1.1842592592592593,1.9620000000000033],[-0.11333333333333329,1.1548148148148147,1.9786999999999537],[-0.08916666666666669,1.1529629629629627,1.9953999999999112],[-0.06499999999999997,1.151111111111111,2.0120999999999825],[-0.06843750000000005,1.1544444444444446,2.028699999999958],[-0.06166666666666672,1.1442592592592595,2.0453999999999084],[-0.04885416666666664,1.1625925925925924,2.0620000000000047],[-0.011979166666666667,1.126666666666667,2.078899999999912],[-0.025520833333333333,1.1435185185185186,2.0952999999999307],[-0.035104166666666714,1.1651851851851853,2.1122999999999337],[-0.04520833333333331,1.185925925925926,2.1286999999999523],[-0.06875,1.2062962962962964,2.14539999999991],[-0.08708333333333336,1.194074074074074,2.161999999999999],[-0.10541666666666671,1.181851851851852,2.1847999999999317],[-0.10541666666666671,1.181851851851852,2.195399999999907],[-0.10531250000000002,1.1755555555555555,2.212099999999978],[-0.10531250000000002,1.1755555555555555,2.2287999999999357],[-0.09968750000000005,1.1875925925925925,2.2455],[-0.09968750000000005,1.1875925925925925,2.2620000000000005],[-0.09916666666666671,1.1848148148148148,2.278699999999958],[-0.11677083333333335,1.1787037037037038,2.2992999999999313],[-0.11677083333333335,1.1787037037037038,2.3121999999999545],[-0.1530208333333333,1.1600000000000001,2.32879999999993],[-0.1530208333333333,1.1600000000000001,2.3453999999999127],[-0.1805208333333333,1.1444444444444444,2.3620999999999768],[-0.18802083333333333,1.1348148148148147,2.3807999999999296],[-0.21749999999999994,1.1164814814814816,2.395299999999935],[-0.21749999999999994,1.1164814814814816,2.412099999999981],[-0.2391666666666667,1.093888888888889,2.4288999999999064],[-0.25270833333333337,1.0920370370370371,2.4470000000000027],[-0.2924999999999999,1.0953703703703703,2.4620000000000033],[-0.34729166666666667,1.0788888888888888,2.4786999999999537],[-0.39083333333333337,1.0770370370370368,2.4953999999999112],[-0.41031249999999997,1.0807407407407406,2.5150999999999826],[-0.3880208333333333,1.0911111111111111,2.528799999999933],[-0.39781249999999996,1.095,2.5453999999999084],[-0.41291666666666665,1.1220370370370372,2.5620999999999796],[-0.40604166666666663,1.1577777777777778,2.578699999999955],[-0.4188541666666667,1.1675925925925925,2.5953999999999127],[-0.4397916666666667,1.1566666666666665,2.6120999999999768],[-0.4409374999999999,1.1724074074074073,2.6286999999999523],[-0.44208333333333333,1.188148148148148,2.6463999999999075],[-0.4552083333333333,1.1885185185185185,2.662099999999981],[-0.4683333333333334,1.1888888888888889,2.6786999999999566],[-0.491875,1.1977777777777776,2.695399999999907],[-0.4920833333333333,1.2100000000000002,2.714500000000001],[-0.5103125,1.1644444444444444,2.7286999999999537],[-0.5285416666666667,1.118888888888889,2.7453999999999112],[-0.5264583333333334,1.1437037037037034,2.7620999999999825],[-0.5007291666666667,1.185925925925926,2.778799999999933],[-0.5245833333333334,1.1883333333333335,2.7953999999999084],[-0.50125,1.2285185185185188,2.8120999999999796],[-0.47010416666666666,1.2607407407407407,2.828699999999955],[-0.4389583333333333,1.292962962962963,2.8453999999999127],[-0.43250000000000005,1.2925925925925925,2.8620999999999768],[-0.42604166666666665,1.2922222222222222,2.8787999999999343],[-0.38093750000000004,1.3357407407407407,2.895299999999935],[-0.34104166666666663,1.3846296296296297,2.9126999999999583],[-0.29708333333333337,1.4294444444444445,2.9300999999999817],[-0.29958333333333337,1.4566666666666666,2.945399999999907],[-0.26499999999999996,1.4487037037037036,2.962099999999978],[-0.25895833333333335,1.4016666666666668,2.9786999999999537],[-0.29354166666666665,1.4305555555555556,2.9953999999999112],[-0.309375,1.4351851851851851,3.0167999999999324],[-0.309375,1.4351851851851851,3.0326999999999558],[-0.31489583333333326,1.430925925925926,3.0453999999999084],[-0.31666666666666665,1.4340740740740743,3.0620000000000047],[-0.3494791666666667,1.4385185185185185,3.078699999999955],[-0.35916666666666663,1.4344444444444442,3.0953999999999127],[-0.3759375,1.4105555555555556,3.1123999999999086],[-0.3759375,1.4105555555555556,3.1287999999999343],[-0.3616666666666667,1.3785185185185187,3.14539999999991],[-0.33656250000000004,1.3911111111111112,3.162199999999956],[-0.33947916666666667,1.3961111111111113,3.1786999999999566],[-0.31604166666666667,1.360925925925926,3.195299999999932],[-0.31666666666666665,1.3455555555555554,3.212099999999978],[-0.2894791666666666,1.3566666666666665,3.229399999999906],[-0.26843750000000005,1.3651851851851853,3.2475000000000023],[-0.2522916666666667,1.3616666666666666,3.2620999999999825],[-0.25406249999999997,1.3612962962962962,3.2795999999999808],[-0.2709375,1.3542592592592593,3.2953999999999084],[-0.2960416666666667,1.3555555555555556,3.3122999999999294],[-0.3120833333333334,1.357037037037037,3.328699999999955],[-0.3132291666666667,1.387962962962963,3.3455000000000013],[-0.28781249999999997,1.3937037037037034,3.3623999999999086],[-0.2570833333333333,1.4038888888888887,3.381199999999957],[-0.2607291666666666,1.4038888888888887,3.396000000000001],[-0.2642708333333334,1.4162962962962962,3.412099999999981],[-0.27229166666666665,1.4164814814814817,3.4286999999999566],[-0.2803125,1.4166666666666667,3.445399999999907],[-0.255625,1.4046296296296297,3.4620000000000033],[-0.2203125,1.4116666666666666,3.482299999999931],[-0.19739583333333333,1.4057407407407405,3.4953999999999112],[-0.17999999999999997,1.3792592592592592,3.5120999999999825],[-0.20020833333333338,1.3614814814814815,3.528799999999933],[-0.2127083333333334,1.3342592592592593,3.5452999999999335],[-0.22302083333333336,1.3205555555555555,3.5620999999999796],[-0.23104166666666662,1.28962962962963,3.578699999999955],[-0.21375000000000005,1.2775925925925928,3.5952999999999307],[-0.1907291666666667,1.268148148148148,3.612000000000002],[-0.19895833333333332,1.2361111111111112,3.6286999999999523],[-0.21781250000000002,1.1840740740740743,3.64539999999991],[-0.22947916666666662,1.1785185185185187,3.662099999999981],[-0.24114583333333334,1.1729629629629632,3.6786999999999566],[-0.23552083333333335,1.162037037037037,3.69609999999998],[-0.22468750000000004,1.1651851851851853,3.71239999999991],[-0.21499999999999997,1.2085185185185183,3.7287999999999357],[-0.20531250000000004,1.2518518518518518,3.7452999999999292],[-0.2171875,1.2785185185185186,3.7620000000000005],[-0.23479166666666665,1.3025925925925927,3.778699999999958],[-0.24291666666666673,1.350740740740741,3.7953999999999084],[-0.25104166666666666,1.399814814814815,3.8120999999999796],[-0.2367708333333333,1.4055555555555554,3.828699999999955],[-0.21489583333333329,1.4194444444444445,3.8453999999999127],[-0.22250000000000003,1.4655555555555557,3.862000000000002],[-0.24739583333333334,1.5035185185185187,3.8786999999999523],[-0.26458333333333334,1.4670370370370371,3.8960999999999757],[-0.28177083333333336,1.4305555555555556,3.9156999999999584],[-0.2603125,1.3177777777777777,3.932000000000002],[-0.22666666666666668,1.232037037037037,3.9455999999999776],[-0.17416666666666672,1.155185185185185,3.962099999999978],[-0.12229166666666665,1.0492592592592591,3.9820999999999813],[-0.11979166666666667,0.9711111111111113,3.996099999999977],[-0.1248958333333333,0.8848148148148147,4.012199999999957],[-0.09083333333333338,0.8001851851851852,4.031799999999933],[-0.05697916666666671,0.7127777777777777,4.048699999999954],[-0.041562499999999974,0.6442592592592592,4.064599999999977],[-0.0140625,0.5633333333333335,4.08289999999991],[0.0012500000000000473,0.6233333333333334,4.097999999999999],[-0.016770833333333356,0.6240740740740741,4.115599999999979],[-0.04458333333333329,0.6035185185185185,4.131799999999934],[-0.0625,0.6075925925925927,4.14559999999998],[-0.03822916666666672,0.590925925925926,4.162099999999981],[-0.01395833333333331,0.5742592592592592,4.1787999999999315],[0.002291666666666714,0.5540740740740742,4.198699999999953],[0.01729166666666669,0.5227777777777777,4.214500000000001],[0.04822916666666662,0.4918518518518519,4.228899999999911],[0.06708333333333343,0.4733333333333334,4.245599999999982],[0.0421875,0.46037037037037043,4.26459999999998],[0.0421875,0.46037037037037043,4.2790000000000035],[0.07520833333333338,0.41518518518518527,4.295899999999911],[0.0834374999999999,0.3640740740740741,4.318000000000005],[0.09541666666666657,0.3670370370370371,4.332399999999907],[0.10989583333333333,0.3918518518518519,4.348299999999931],[0.096875,0.43129629629629623,4.3645],[0.096875,0.43129629629629623,4.384599999999978],[0.09260416666666677,0.4072222222222222,4.39559999999998],[0.09260416666666677,0.4072222222222222,4.412399999999906],[0.1118750000000001,0.4225925925925927,4.434000000000005],[0.1118750000000001,0.4225925925925927,4.445500000000003],[0.12052083333333338,0.4383333333333334,4.462500000000006],[0.12052083333333338,0.4383333333333334,4.484899999999911],[0.13427083333333342,0.4338888888888888,4.495699999999957],[0.17062499999999994,0.40370370370370373,4.51909999999998],[0.17062499999999994,0.40370370370370373,4.528899999999908],[0.16375000000000003,0.3987037037037036,4.552500000000002],[0.16375000000000003,0.3987037037037036,4.562399999999911],[0.17083333333333334,0.40314814814814826,4.578899999999912],[0.15416666666666667,0.39222222222222214,4.595699999999958],[0.1265625,0.36666666666666664,4.615599999999979],[0.1078125,0.3042592592592592,4.63079999999993],[0.11375000000000005,0.28129629629629627,4.6455000000000055],[0.10833333333333334,0.280925925925926,4.662199999999956],[0.12312500000000005,0.26777777777777784,4.682799999999929],[0.11322916666666671,0.2661111111111112,4.696799999999932],[0.10364583333333334,0.24203703703703713,4.723699999999958],[0.10364583333333334,0.24203703703703713,4.738500000000002],[0.09229166666666658,0.25629629629629624,4.7455],[0.09572916666666677,0.2794444444444444,4.762299999999932],[0.10989583333333333,0.2683333333333333,4.781799999999933],[0.11281249999999995,0.294074074074074,4.797299999999936],[0.1352083333333333,0.29981481481481476,4.812299999999929],[0.1319791666666667,0.3051851851851851,4.829099999999983],[0.12239583333333333,0.26592592592592595,4.845500000000001],[0.11052083333333323,0.2485185185185186,4.865199999999959],[0.10593750000000005,0.23666666666666658,4.879000000000005],[0.09947916666666666,0.2518518518518518,4.896699999999953],[0.10125000000000005,0.26796296296296307,4.916499999999999],[0.10343749999999995,0.25166666666666665,4.931399999999911],[0.1056250000000001,0.23537037037037042,4.945500000000003],[0.10843749999999991,0.23592592592592587,4.962099999999978],[0.10625,0.23296296296296287,4.981000000000002],[0.10385416666666672,0.2294444444444444,4.995599999999982],[0.10145833333333343,0.22592592592592592,5.012699999999953],[0.08718750000000004,0.26129629629629636,5.03089999999991],[0.08322916666666676,0.2772222222222223,5.045399999999908],[0.09249999999999996,0.19425925925925921,5.0621999999999545],[0.0953125,0.13222222222222219,5.082000000000001],[0.0984375,0.13907407407407413,5.095599999999976],[0.1015625,0.14592592592592585,5.114299999999929],[0.10489583333333338,0.11481481481481481,5.1315999999999775],[0.10281250000000004,0.10722222222222218,5.145899999999912],[0.09187500000000005,0.12314814814814815,5.162199999999956],[0.08677083333333328,0.11592592592592597,5.182000000000002],[0.08708333333333323,0.08462962962962971,5.19759999999998],[0.08937499999999995,0.07592592592592592,5.212299999999935],[0.06531250000000005,0.13851851851851843,5.228699999999954],[0.04770833333333328,0.1801851851851851,5.250099999999982],[0.041979166666666616,0.17611111111111116,5.264500000000005],[0.03083333333333336,0.14129629629629623,5.279199999999953],[0.026041666666666668,0.10666666666666672,5.299699999999959],[0.024479166666666666,0.10481481481481486,5.315599999999982],[0.021562500000000047,0.08907407407407411,5.32879999999993],[0.012812499999999952,0.09648148148148153,5.345500000000001],[0.022291666666666644,0.08537037037037042,5.364099999999979],[0.013854166666666619,0.1037037037037037,5.378899999999909],[0.029166666666666667,0.09981481481481477,5.397500000000001],[0.04697916666666669,0.07518518518518523,5.4155000000000015],[0.05020833333333338,0.06370370370370367,5.428899999999906],[0.058854166666666666,0.08296296296296288,5.445500000000003],[0.05239583333333329,0.11148148148148157,5.462199999999953],[0.052291666666666715,0.1294444444444444,5.478699999999954],[0.03239583333333336,0.1235185185185186,5.495399999999911],[0.008958333333333356,0.09444444444444444,5.514099999999978],[-0.021979166666666692,0.04888888888888885,5.528699999999958],[-0.035000000000000024,-0.026111111111111154,5.5452999999999335],[-0.060104166666666715,-0.09296296296296294,5.562399999999911],[-0.08770833333333337,-0.13907407407407413,5.578699999999955],[-0.12062499999999995,-0.19870370370370372,5.595299999999931],[-0.12062499999999995,-0.19870370370370372,5.612099999999977],[-0.15354166666666663,-0.25833333333333336,5.628699999999952],[-0.18458333333333338,-0.3098148148148148,5.645299999999935],[-0.215625,-0.36129629629629634,5.661999999999999],[-0.22489583333333332,-0.4009259259259259,5.681299999999929],[-0.1998958333333333,-0.3977777777777778,5.695299999999932],[-0.17718750000000003,-0.4235185185185185,5.716099999999976],[-0.17229166666666665,-0.4007407407407407,5.730699999999956],[-0.16687500000000005,-0.3574074074074074,5.747599999999977],[-0.15364583333333334,-0.29518518518518516,5.761899999999912],[-0.15114583333333337,-0.23333333333333334,5.778799999999933],[-0.13895833333333332,-0.18407407407407403,5.7952999999999335],[-0.12239583333333333,-0.13185185185185183,5.815599999999982],[-0.11885416666666669,-0.1272222222222222,5.8307999999999325],[-0.09541666666666669,-0.09518518518518514,5.845500000000001],[-0.11031249999999998,-0.13925925925925925,5.862099999999977],[-0.11031249999999998,-0.13925925925925925,5.881399999999907],[-0.11739583333333338,-0.08222222222222218,5.8955000000000055],[-0.11083333333333331,-0.05462962962962963,5.9133999999999105],[-0.06812499999999998,-0.03296296296296288,5.933099999999982],[-0.09437500000000003,-0.05277777777777778,5.948699999999953],[-0.0889583333333333,-0.06870370370370374,5.962199999999953],[-0.08541666666666667,-0.08333333333333333,5.978899999999911],[-0.07697916666666664,-0.13092592592592592,5.998399999999911],[-0.011979166666666667,-0.1257407407407407,6.01479999999993],[-0.014999999999999977,-0.15185185185185185,6.030199999999958],[0.03114583333333331,-0.0712962962962963,6.045500000000004],[0.05499999999999995,-0.06370370370370367,6.0653999999999115],[0.08270833333333343,-0.04518518518518514,6.079000000000001],[0.06916666666666677,-0.011666666666666582,6.095699999999958],[0.11552083333333343,0.041111111111111195,6.116899999999909],[0.1400000000000001,0.06759259259259259,6.131],[0.14833333333333343,0.07222222222222222,6.14539999999991],[0.15979166666666675,0.08425925925925926,6.161999999999999],[0.12208333333333338,0.102962962962963,6.178699999999957],[0.15458333333333343,0.1411111111111112,6.195299999999932],[0.14552083333333338,0.12907407407407415,6.212000000000003],[0.13177083333333334,0.14648148148148152,6.2311999999999585],[0.11031250000000009,0.09796296296296292,6.245799999999932],[0.10322916666666657,0.003888888888888931,6.262500000000003],[0.10322916666666657,0.003888888888888931,6.281399999999913],[0.09739583333333333,-0.0868518518518518,6.2952999999999335],[0.09427083333333333,-0.12037037037037036,6.312000000000005],[0.10072916666666672,-0.11203703703703703,6.328699999999955],[0.08822916666666672,-0.15333333333333335,6.345299999999931],[0.08250000000000005,-0.1772222222222222,6.361899999999906],[0.08250000000000005,-0.1772222222222222,6.378699999999952],[0.06875,-0.20314814814814813,6.39539999999991],[0.06875,-0.20314814814814813,6.412099999999981],[0.049374999999999974,-0.20111111111111116,6.428699999999957],[0.049374999999999974,-0.20111111111111116,6.445299999999932],[0.0390625,-0.21222222222222226,6.462000000000003],[0.0265625,-0.21777777777777782,6.484799999999936],[0.0265625,-0.21777777777777782,6.4955],[0.0021875000000000236,-0.19759259259259257,6.5120999999999825],[-0.01114583333333338,-0.14648148148148152,6.533699999999953],[-0.01114583333333338,-0.14648148148148152,6.545399999999908],[-0.029999999999999954,-0.12092592592592595,6.562000000000005],[-0.03135416666666669,-0.1264814814814815,6.58139999999991],[-0.02947916666666662,-0.08574074074074076,6.595299999999931],[-0.028750000000000022,-0.0742592592592593,6.615699999999954],[-0.024687500000000046,-0.025925925925925925,6.628799999999934],[-0.014999999999999977,-0.005555555555555556,6.64539999999991],[-0.014895833333333285,0.05314814814814823,6.661999999999999],[-0.00458333333333331,0.14222222222222214,6.679000000000002],[0.010000000000000024,0.2131481481481482,6.695399999999907],[0.013541666666666667,0.25314814814814823,6.715099999999978],[0.012395833333333309,0.31444444444444436,6.730599999999981],[-0.0068750000000000235,0.39462962962962966,6.745199999999954],[-0.010000000000000024,0.4462962962962963,6.7620000000000005],[-0.013125000000000024,0.49796296296296294,6.778599999999976],[-0.018229166666666668,0.519074074074074,6.795399999999908],[-0.02333333333333331,0.5401851851851853,6.8121999999999545],[-0.026979166666666644,0.48296296296296287,6.82879999999993],[-0.024062500000000025,0.4668518518518519,6.845299999999931],[-0.024895833333333308,0.4383333333333334,6.861899999999906],[-0.0171875,0.4072222222222222,6.878599999999977],[-0.013645833333333357,0.3170370370370371,6.895299999999935],[-0.019375000000000024,0.2412962962962962,6.911999999999999],[-0.017083333333333308,0.2411111111111112,6.9287999999999315],[-0.013437499999999976,0.23407407407407405,6.945299999999932],[-0.01906249999999995,0.18370370370370379,6.962000000000003],[-0.024687500000000046,0.13333333333333333,6.978599999999979],[-0.0018749999999999527,0.13925925925925933,6.995399999999911],[0.009895833333333333,0.11074074074074065,7.011899999999912],[0.024374999999999977,0.12777777777777777,7.028699999999958],[0.036145833333333384,0.1537037037037037,7.0452999999999335],[0.04041666666666662,0.17740740740740732,7.062000000000005],[0.07729166666666672,0.2361111111111111,7.078699999999955],[0.09083333333333338,0.2698148148148149,7.095299999999931],[0.12750000000000009,0.28592592592592586,7.112000000000002],[0.1368750000000001,0.3096296296296297,7.128699999999952],[0.14187500000000006,0.3537037037037037,7.14539999999991],[0.14187500000000006,0.3537037037037037,7.162199999999956],[0.1390625,0.3683333333333333,7.178699999999957],[0.12447916666666667,0.41648148148148145,7.195399999999907],[0.13645833333333332,0.45740740740740743,7.212000000000003],[0.1287499999999999,0.47907407407407415,7.228799999999936],[0.14479166666666668,0.5712962962962963,7.245199999999954],[0.1368750000000001,0.6175925925925926,7.261899999999912],[0.1502083333333334,0.606851851851852,7.278599999999976],[0.15031249999999996,0.6374074074074075,7.295500000000004],[0.1765625,0.6905555555555555,7.312299999999929],[0.2085416666666667,0.7201851851851852,7.328699999999955],[0.22802083333333342,0.762962962962963,7.345399999999913],[0.25770833333333343,0.7335185185185186,7.361899999999906],[0.27625000000000005,0.722037037037037,7.378699999999952],[0.27625000000000005,0.722037037037037,7.3955000000000055],[0.27010416666666665,0.7055555555555556,7.412099999999981],[0.28010416666666677,0.675,7.428699999999957],[0.2837500000000001,0.6501851851851852,7.445299999999932],[0.2543750000000001,0.6198148148148149,7.461899999999908],[0.21375000000000005,0.5725925925925927,7.478799999999936],[0.19739583333333333,0.549074074074074,7.495299999999929],[0.17312500000000006,0.5327777777777779,7.514099999999978],[0.14322916666666666,0.49907407407407406,7.528699999999958],[0.11979166666666667,0.5131481481481482,7.5452999999999335],[0.0953125,0.5009259259259259,7.562000000000005],[0.09708333333333338,0.5044444444444444,7.578699999999955],[0.08260416666666662,0.45740740740740743,7.595500000000001],[0.08708333333333323,0.4005555555555555,7.612099999999977],[0.11458333333333333,0.4137037037037037,7.628599999999977],[0.14208333333333342,0.42685185185185187,7.64539999999991],[0.1476041666666667,0.4412962962962962,7.664399999999908],[0.15968749999999995,0.4516666666666666,7.6787999999999315],[0.17739583333333328,0.4794444444444444,7.695299999999932],[0.1834374999999999,0.48518518518518516,7.711899999999908],[0.1896874999999999,0.4503703703703705,7.728599999999979],[0.1837500000000001,0.397037037037037,7.745299999999929],[0.1658333333333334,0.3764814814814814,7.7620000000000005],[0.13145833333333337,0.3848148148148147,7.778699999999958],[0.13322916666666676,0.3866666666666666,7.797299999999936],[0.11614583333333334,0.3633333333333334,7.812699999999957],[0.11989583333333324,0.3512962962962964,7.82879999999993],[0.10885416666666667,0.3514814814814814,7.845299999999931],[0.0990624999999999,0.34444444444444444,7.865099999999977],[0.08895833333333343,0.26703703703703713,7.878699999999952],[0.06791666666666671,0.23499999999999996,7.89539999999991],[0.06593749999999995,0.2492592592592593,7.920599999999979],[0.06593749999999995,0.2492592592592593,7.934699999999957],[0.08687500000000009,0.23129629629629625,7.945299999999932],[0.10416666666666667,0.1624074074074075,7.962000000000003],[0.08499999999999991,0.08833333333333342,7.978599999999979],[0.07312500000000005,0.04092592592592597,7.995299999999929],[0.04770833333333328,-0.05092592592592592,8.01329999999993],[0.034687499999999954,-0.11148148148148146,8.028799999999933],[0.02041666666666669,-0.1648148148148148,8.045299999999934],[0.017708333333333333,-0.14148148148148143,8.062000000000005],[0.0012500000000000473,-0.10944444444444448,8.078699999999955],[0.034062500000000044,-0.13055555555555556,8.09529999999993],[0.04989583333333331,-0.10648148148148148,8.112500000000004],[0.08489583333333334,-0.05259259259259255,8.128699999999952],[0.10750000000000005,-0.02833333333333325,8.14839999999991],[0.14520833333333344,0.03185185185185194,8.161999999999999],[0.17333333333333342,0.10018518518518522,8.178599999999982],[0.21416666666666656,0.11666666666666667,8.195299999999932],[0.25499999999999995,0.1331481481481481,8.212000000000003],[0.24749999999999991,0.15037037037037046,8.228699999999954],[0.26239583333333344,0.11888888888888897,8.245399999999911],[0.2367708333333333,0.11870370370370374,8.262],[0.21447916666666675,0.10444444444444441,8.278599999999976],[0.1959374999999999,0.08518518518518518,8.295299999999934],[0.16822916666666668,0.10185185185185185,8.312000000000005],[0.13562500000000005,0.05462962962962963,8.328699999999955],[0.10614583333333343,0.014074074074074116,8.34529999999993],[0.065625,0.027777777777777776,8.362000000000002],[0.065625,0.027777777777777776,8.378699999999952],[0.02510416666666669,0.04148148148148144,8.395299999999935],[0.04239583333333338,0.013703703703703662,8.417699999999954],[0.04239583333333338,0.013703703703703662,8.428699999999957],[0.059895833333333336,0.0514814814814814,8.445299999999932],[0.058854166666666666,0.09888888888888885,8.466299999999933],[0.04635416666666667,0.0962962962962963,8.4865],[0.04635416666666667,0.0962962962962963,8.49529999999993],[0.030624999999999975,0.0933333333333333,8.512],[0.04093749999999995,0.07074074074074083,8.52939999999991],[0.05260416666666667,0.07462962962962955,8.548899999999911],[0.05260416666666667,0.07462962962962955,8.561899999999909],[0.0853125000000001,0.09240740740740737,8.578699999999955],[0.11531250000000005,0.040740740740740744,8.595399999999913],[0.1118750000000001,0.010370370370370412,8.611899999999906],[0.10666666666666676,-0.053148148148148125,8.628699999999952],[0.11197916666666667,-0.10925925925925926,8.645199999999953],[0.1345833333333334,-0.17,8.661999999999999],[0.16697916666666662,-0.17462962962962966,8.678699999999957],[0.17916666666666667,-0.18407407407407403,8.695299999999932],[0.1931250000000001,-0.20629629629629626,8.712000000000003],[0.2068749999999999,-0.17759259259259255,8.728799999999936],[0.19656250000000006,-0.16722222222222224,8.745199999999954],[0.18499999999999991,-0.19907407407407407,8.762],[0.1977083333333333,-0.25,8.778599999999976],[0.2101041666666667,-0.21518518518518517,8.795399999999908],[0.20166666666666658,-0.21277777777777773,8.81209999999998],[0.2025000000000001,-0.19277777777777783,8.82879999999993],[0.21302083333333333,-0.20481481481481487,8.84529999999993],[0.23156249999999995,-0.2103703703703704,8.861899999999906],[0.23802083333333332,-0.15648148148148147,8.878599999999977],[0.24697916666666658,-0.15981481481481483,8.89539999999991],[0.25583333333333325,-0.1653703703703704,8.914599999999979],[0.23552083333333323,-0.12611111111111115,8.928699999999957],[0.2517708333333334,-0.08148148148148149,8.945299999999932],[0.24343750000000006,-0.02388888888888885,8.962000000000003],[0.25270833333333326,0.02833333333333325,8.982099999999981],[0.25281250000000005,0.027407407407407325,8.99529999999993],[0.23041666666666671,0.05981481481481473,9.01609999999998],[0.19416666666666677,0.102962962962963,9.029899999999913],[0.1642708333333334,0.09407407407407399,9.048000000000002],[0.14708333333333337,0.06666666666666667,9.06209999999998],[0.13739583333333344,0.06777777777777783,9.078699999999955],[0.1428124999999999,0.06148148148148157,9.098500000000001],[0.12010416666666662,0.0455555555555556,9.112699999999954],[0.10760416666666663,-0.002962962962963005,9.128599999999977],[0.0775000000000001,-0.04611111111111107,9.14859999999998]]","[0.00029999999993179927,0.03879999999993089,0.04919999999995639,0.06379999999992947,0.07879999999993004,0.09539999999991267,0.11269999999995406,0.1287999999999343,0.14879999999993032,0.16209999999998104,0.17879999999993146,0.19539999999990698,0.2121999999999531,0.22879999999993572,0.24559999999998183,0.26229999999993225,0.2787999999999329,0.30450000000000443,0.3135999999999797,0.32879999999993004,0.34539999999991267,0.3620999999999768,0.3787999999999343,0.3953999999999098,0.4125999999999763,0.42869999999995656,0.445399999999907,0.4620999999999782,0.4787999999999357,0.49549999999999983,0.5165000000000006,0.5310000000000059,0.5453999999999084,0.5620999999999796,0.57879999999993,0.5953999999999127,0.6125000000000043,0.6287999999999343,0.6453999999999098,0.6621999999999559,0.6787999999999315,0.6955000000000027,0.7142999999999304,0.7286999999999537,0.7453999999999112,0.7620999999999825,0.7787999999999329,0.7955000000000041,0.8120000000000047,0.8286999999999551,0.8455000000000013,0.8620999999999768,0.8800000000000026,0.8953999999999098,0.912099999999981,0.9287999999999315,0.945399999999907,0.9620999999999782,0.9786999999999537,0.9984999999999999,1.0145999999999802,1.0287999999999329,1.0453999999999084,1.0620999999999796,1.0786999999999551,1.0953999999999127,1.1120000000000019,1.1286999999999523,1.1453999999999098,1.161999999999999,1.1786999999999566,1.195399999999907,1.2128999999999124,1.2286999999999537,1.2453999999999112,1.2620999999999825,1.2787999999999329,1.2953999999999084,1.3145999999999773,1.3286999999999551,1.3453999999999127,1.3620000000000019,1.3787999999999343,1.3953999999999098,1.412099999999981,1.4287999999999315,1.445399999999907,1.4620000000000033,1.4786999999999537,1.4954999999999998,1.5122999999999323,1.528699999999958,1.5460999999999814,1.5620999999999796,1.5786999999999551,1.5953999999999127,1.6156999999999542,1.6287999999999343,1.6453999999999098,1.662099999999981,1.6786999999999566,1.695399999999907,1.7150000000000034,1.7287999999999357,1.7452999999999292,1.7620999999999825,1.778699999999958,1.795500000000004,1.812599999999982,1.8286999999999551,1.8453999999999127,1.8620999999999768,1.8787999999999343,1.8955000000000055,1.9123999999999057,1.9310999999999794,1.945399999999907,1.9620000000000033,1.9786999999999537,1.9953999999999112,2.0120999999999825,2.028699999999958,2.0453999999999084,2.0620000000000047,2.078899999999912,2.0952999999999307,2.1122999999999337,2.1286999999999523,2.14539999999991,2.161999999999999,2.1847999999999317,2.195399999999907,2.212099999999978,2.2287999999999357,2.2455,2.2620000000000005,2.278699999999958,2.2992999999999313,2.3121999999999545,2.32879999999993,2.3453999999999127,2.3620999999999768,2.3807999999999296,2.395299999999935,2.412099999999981,2.4288999999999064,2.4470000000000027,2.4620000000000033,2.4786999999999537,2.4953999999999112,2.5150999999999826,2.528799999999933,2.5453999999999084,2.5620999999999796,2.578699999999955,2.5953999999999127,2.6120999999999768,2.6286999999999523,2.6463999999999075,2.662099999999981,2.6786999999999566,2.695399999999907,2.714500000000001,2.7286999999999537,2.7453999999999112,2.7620999999999825,2.778799999999933,2.7953999999999084,2.8120999999999796,2.828699999999955,2.8453999999999127,2.8620999999999768,2.8787999999999343,2.895299999999935,2.9126999999999583,2.9300999999999817,2.945399999999907,2.962099999999978,2.9786999999999537,2.9953999999999112,3.0167999999999324,3.0326999999999558,3.0453999999999084,3.0620000000000047,3.078699999999955,3.0953999999999127,3.1123999999999086,3.1287999999999343,3.14539999999991,3.162199999999956,3.1786999999999566,3.195299999999932,3.212099999999978,3.229399999999906,3.2475000000000023,3.2620999999999825,3.2795999999999808,3.2953999999999084,3.3122999999999294,3.328699999999955,3.3455000000000013,3.3623999999999086,3.381199999999957,3.396000000000001,3.412099999999981,3.4286999999999566,3.445399999999907,3.4620000000000033,3.482299999999931,3.4953999999999112,3.5120999999999825,3.528799999999933,3.5452999999999335,3.5620999999999796,3.578699999999955,3.5952999999999307,3.612000000000002,3.6286999999999523,3.64539999999991,3.662099999999981,3.6786999999999566,3.69609999999998,3.71239999999991,3.7287999999999357,3.7452999999999292,3.7620000000000005,3.778699999999958,3.7953999999999084,3.8120999999999796,3.828699999999955,3.8453999999999127,3.862000000000002,3.8786999999999523,3.8960999999999757,3.9156999999999584,3.932000000000002,3.9455999999999776,3.962099999999978,3.9820999999999813,3.996099999999977,4.012199999999957,4.031799999999933,4.048699999999954,4.064599999999977,4.08289999999991,4.097999999999999,4.115599999999979,4.131799999999934,4.14559999999998,4.162099999999981,4.1787999999999315,4.198699999999953,4.214500000000001,4.228899999999911,4.245599999999982,4.26459999999998,4.2790000000000035,4.295899999999911,4.318000000000005,4.332399999999907,4.348299999999931,4.3645,4.384599999999978,4.39559999999998,4.412399999999906,4.434000000000005,4.445500000000003,4.462500000000006,4.484899999999911,4.495699999999957,4.51909999999998,4.528899999999908,4.552500000000002,4.562399999999911,4.578899999999912,4.595699999999958,4.615599999999979,4.63079999999993,4.6455000000000055,4.662199999999956,4.682799999999929,4.696799999999932,4.723699999999958,4.738500000000002,4.7455,4.762299999999932,4.781799999999933,4.797299999999936,4.812299999999929,4.829099999999983,4.845500000000001,4.865199999999959,4.879000000000005,4.896699999999953,4.916499999999999,4.931399999999911,4.945500000000003,4.962099999999978,4.981000000000002,4.995599999999982,5.012699999999953,5.03089999999991,5.045399999999908,5.0621999999999545,5.082000000000001,5.095599999999976,5.114299999999929,5.1315999999999775,5.145899999999912,5.162199999999956,5.182000000000002,5.19759999999998,5.212299999999935,5.228699999999954,5.250099999999982,5.264500000000005,5.279199999999953,5.299699999999959,5.315599999999982,5.32879999999993,5.345500000000001,5.364099999999979,5.378899999999909,5.397500000000001,5.4155000000000015,5.428899999999906,5.445500000000003,5.462199999999953,5.478699999999954,5.495399999999911,5.514099999999978,5.528699999999958,5.5452999999999335,5.562399999999911,5.578699999999955,5.595299999999931,5.612099999999977,5.628699999999952,5.645299999999935,5.661999999999999,5.681299999999929,5.695299999999932,5.716099999999976,5.730699999999956,5.747599999999977,5.761899999999912,5.778799999999933,5.7952999999999335,5.815599999999982,5.8307999999999325,5.845500000000001,5.862099999999977,5.881399999999907,5.8955000000000055,5.9133999999999105,5.933099999999982,5.948699999999953,5.962199999999953,5.978899999999911,5.998399999999911,6.01479999999993,6.030199999999958,6.045500000000004,6.0653999999999115,6.079000000000001,6.095699999999958,6.116899999999909,6.131,6.14539999999991,6.161999999999999,6.178699999999957,6.195299999999932,6.212000000000003,6.2311999999999585,6.245799999999932,6.262500000000003,6.281399999999913,6.2952999999999335,6.312000000000005,6.328699999999955,6.345299999999931,6.361899999999906,6.378699999999952,6.39539999999991,6.412099999999981,6.428699999999957,6.445299999999932,6.462000000000003,6.484799999999936,6.4955,6.5120999999999825,6.533699999999953,6.545399999999908,6.562000000000005,6.58139999999991,6.595299999999931,6.615699999999954,6.628799999999934,6.64539999999991,6.661999999999999,6.679000000000002,6.695399999999907,6.715099999999978,6.730599999999981,6.745199999999954,6.7620000000000005,6.778599999999976,6.795399999999908,6.8121999999999545,6.82879999999993,6.845299999999931,6.861899999999906,6.878599999999977,6.895299999999935,6.911999999999999,6.9287999999999315,6.945299999999932,6.962000000000003,6.978599999999979,6.995399999999911,7.011899999999912,7.028699999999958,7.0452999999999335,7.062000000000005,7.078699999999955,7.095299999999931,7.112000000000002,7.128699999999952,7.14539999999991,7.162199999999956,7.178699999999957,7.195399999999907,7.212000000000003,7.228799999999936,7.245199999999954,7.261899999999912,7.278599999999976,7.295500000000004,7.312299999999929,7.328699999999955,7.345399999999913,7.361899999999906,7.378699999999952,7.3955000000000055,7.412099999999981,7.428699999999957,7.445299999999932,7.461899999999908,7.478799999999936,7.495299999999929,7.514099999999978,7.528699999999958,7.5452999999999335,7.562000000000005,7.578699999999955,7.595500000000001,7.612099999999977,7.628599999999977,7.64539999999991,7.664399999999908,7.6787999999999315,7.695299999999932,7.711899999999908,7.728599999999979,7.745299999999929,7.7620000000000005,7.778699999999958,7.797299999999936,7.812699999999957,7.82879999999993,7.845299999999931,7.865099999999977,7.878699999999952,7.89539999999991,7.920599999999979,7.934699999999957,7.945299999999932,7.962000000000003,7.978599999999979,7.995299999999929,8.01329999999993,8.028799999999933,8.045299999999934,8.062000000000005,8.078699999999955,8.09529999999993,8.112500000000004,8.128699999999952,8.14839999999991,8.161999999999999,8.178599999999982,8.195299999999932,8.212000000000003,8.228699999999954,8.245399999999911,8.262,8.278599999999976,8.295299999999934,8.312000000000005,8.328699999999955,8.34529999999993,8.362000000000002,8.378699999999952,8.395299999999935,8.417699999999954,8.428699999999957,8.445299999999932,8.466299999999933,8.4865,8.49529999999993,8.512,8.52939999999991,8.548899999999911,8.561899999999909,8.578699999999955,8.595399999999913,8.611899999999906,8.628699999999952,8.645199999999953,8.661999999999999,8.678699999999957,8.695299999999932,8.712000000000003,8.728799999999936,8.745199999999954,8.762,8.778599999999976,8.795399999999908,8.81209999999998,8.82879999999993,8.84529999999993,8.861899999999906,8.878599999999977,8.89539999999991,8.914599999999979,8.928699999999957,8.945299999999932,8.962000000000003,8.982099999999981,8.99529999999993,9.01609999999998,9.029899999999913,9.048000000000002,9.06209999999998,9.078699999999955,9.098500000000001,9.112699999999954,9.128599999999977,9.14859999999998]","[1733207030784,1733207030815,1733207030826,1733207030840,1733207030855,1733207030872,1733207030889,1733207030905,1733207030925,1733207030938,1733207030955,1733207030972,1733207030989,1733207031005,1733207031022,1733207031039,1733207031055,1733207031081,1733207031090,1733207031105,1733207031122,1733207031139,1733207031155,1733207031172,1733207031189,1733207031205,1733207031222,1733207031238,1733207031255,1733207031272,1733207031293,1733207031307,1733207031322,1733207031339,1733207031355,1733207031372,1733207031389,1733207031405,1733207031422,1733207031439,1733207031455,1733207031472,1733207031491,1733207031505,1733207031522,1733207031539,1733207031555,1733207031572,1733207031588,1733207031605,1733207031622,1733207031639,1733207031656,1733207031672,1733207031689,1733207031705,1733207031722,1733207031738,1733207031755,1733207031775,1733207031791,1733207031805,1733207031822,1733207031838,1733207031855,1733207031872,1733207031888,1733207031905,1733207031922,1733207031938,1733207031955,1733207031972,1733207031989,1733207032005,1733207032022,1733207032038,1733207032055,1733207032072,1733207032091,1733207032105,1733207032122,1733207032139,1733207032155,1733207032172,1733207032188,1733207032205,1733207032222,1733207032239,1733207032255,1733207032272,1733207032289,1733207032305,1733207032323,1733207032339,1733207032355,1733207032372,1733207032392,1733207032405,1733207032422,1733207032438,1733207032455,1733207032472,1733207032491,1733207032505,1733207032522,1733207032538,1733207032555,1733207032572,1733207032589,1733207032605,1733207032622,1733207032639,1733207032655,1733207032672,1733207032689,1733207032708,1733207032722,1733207032738,1733207032755,1733207032772,1733207032788,1733207032805,1733207032822,1733207032838,1733207032855,1733207032872,1733207032889,1733207032905,1733207032922,1733207032938,1733207032961,1733207032972,1733207032989,1733207033005,1733207033022,1733207033038,1733207033055,1733207033076,1733207033089,1733207033105,1733207033122,1733207033139,1733207033157,1733207033172,1733207033189,1733207033205,1733207033223,1733207033238,1733207033255,1733207033272,1733207033292,1733207033305,1733207033322,1733207033338,1733207033355,1733207033372,1733207033389,1733207033405,1733207033423,1733207033438,1733207033455,1733207033472,1733207033491,1733207033505,1733207033522,1733207033539,1733207033555,1733207033572,1733207033588,1733207033605,1733207033622,1733207033638,1733207033655,1733207033672,1733207033689,1733207033706,1733207033722,1733207033739,1733207033755,1733207033772,1733207033793,1733207033809,1733207033822,1733207033838,1733207033855,1733207033872,1733207033889,1733207033905,1733207033922,1733207033939,1733207033955,1733207033972,1733207033988,1733207034006,1733207034024,1733207034038,1733207034056,1733207034072,1733207034089,1733207034105,1733207034122,1733207034139,1733207034158,1733207034172,1733207034188,1733207034205,1733207034222,1733207034238,1733207034259,1733207034272,1733207034288,1733207034305,1733207034322,1733207034338,1733207034355,1733207034372,1733207034388,1733207034405,1733207034422,1733207034439,1733207034455,1733207034472,1733207034489,1733207034505,1733207034522,1733207034538,1733207034555,1733207034572,1733207034588,1733207034605,1733207034622,1733207034638,1733207034655,1733207034672,1733207034692,1733207034708,1733207034722,1733207034739,1733207034759,1733207034773,1733207034789,1733207034808,1733207034825,1733207034841,1733207034859,1733207034874,1733207034892,1733207034908,1733207034922,1733207034939,1733207034955,1733207034975,1733207034991,1733207035005,1733207035022,1733207035041,1733207035055,1733207035072,1733207035094,1733207035109,1733207035125,1733207035141,1733207035161,1733207035172,1733207035189,1733207035210,1733207035222,1733207035239,1733207035261,1733207035272,1733207035295,1733207035305,1733207035329,1733207035339,1733207035355,1733207035372,1733207035392,1733207035407,1733207035422,1733207035439,1733207035459,1733207035473,1733207035500,1733207035515,1733207035522,1733207035539,1733207035558,1733207035574,1733207035589,1733207035605,1733207035622,1733207035642,1733207035655,1733207035673,1733207035693,1733207035708,1733207035722,1733207035739,1733207035757,1733207035772,1733207035789,1733207035807,1733207035822,1733207035839,1733207035858,1733207035872,1733207035891,1733207035908,1733207035922,1733207035939,1733207035958,1733207035974,1733207035989,1733207036005,1733207036027,1733207036041,1733207036056,1733207036076,1733207036092,1733207036105,1733207036122,1733207036140,1733207036155,1733207036174,1733207036192,1733207036205,1733207036222,1733207036239,1733207036255,1733207036272,1733207036290,1733207036305,1733207036322,1733207036339,1733207036355,1733207036372,1733207036389,1733207036405,1733207036422,1733207036438,1733207036458,1733207036472,1733207036493,1733207036507,1733207036524,1733207036538,1733207036555,1733207036572,1733207036592,1733207036607,1733207036622,1733207036639,1733207036658,1733207036672,1733207036690,1733207036710,1733207036725,1733207036739,1733207036755,1733207036775,1733207036791,1733207036807,1733207036822,1733207036842,1733207036855,1733207036872,1733207036893,1733207036907,1733207036922,1733207036938,1733207036955,1733207036972,1733207036988,1733207037008,1733207037022,1733207037039,1733207037058,1733207037072,1733207037088,1733207037105,1733207037122,1733207037138,1733207037155,1733207037172,1733207037188,1733207037205,1733207037222,1733207037238,1733207037261,1733207037272,1733207037288,1733207037310,1733207037322,1733207037338,1733207037358,1733207037372,1733207037392,1733207037405,1733207037422,1733207037438,1733207037455,1733207037472,1733207037491,1733207037507,1733207037522,1733207037538,1733207037555,1733207037572,1733207037589,1733207037605,1733207037622,1733207037638,1733207037655,1733207037672,1733207037688,1733207037705,1733207037722,1733207037738,1733207037755,1733207037772,1733207037788,1733207037805,1733207037822,1733207037838,1733207037855,1733207037872,1733207037888,1733207037905,1733207037922,1733207037939,1733207037955,1733207037972,1733207037988,1733207038005,1733207038022,1733207038038,1733207038055,1733207038072,1733207038089,1733207038105,1733207038122,1733207038138,1733207038155,1733207038172,1733207038189,1733207038205,1733207038222,1733207038238,1733207038255,1733207038272,1733207038291,1733207038305,1733207038322,1733207038338,1733207038355,1733207038372,1733207038389,1733207038405,1733207038422,1733207038441,1733207038455,1733207038472,1733207038488,1733207038505,1733207038522,1733207038538,1733207038555,1733207038574,1733207038589,1733207038605,1733207038622,1733207038642,1733207038655,1733207038672,1733207038697,1733207038711,1733207038722,1733207038738,1733207038755,1733207038772,1733207038790,1733207038805,1733207038822,1733207038838,1733207038855,1733207038872,1733207038889,1733207038910,1733207038925,1733207038938,1733207038955,1733207038972,1733207038988,1733207039005,1733207039022,1733207039038,1733207039055,1733207039072,1733207039088,1733207039105,1733207039122,1733207039138,1733207039155,1733207039172,1733207039194,1733207039205,1733207039222,1733207039243,1733207039263,1733207039272,1733207039288,1733207039306,1733207039325,1733207039338,1733207039355,1733207039372,1733207039388,1733207039405,1733207039422,1733207039438,1733207039455,1733207039472,1733207039488,1733207039505,1733207039522,1733207039538,1733207039555,1733207039572,1733207039589,1733207039605,1733207039622,1733207039638,1733207039655,1733207039672,1733207039691,1733207039705,1733207039722,1733207039738,1733207039758,1733207039772,1733207039793,1733207039806,1733207039824,1733207039839,1733207039855,1733207039875,1733207039889,1733207039905,1733207039925]","[[954.1,970.6],[954.1,970.6],[979.2,964.6],[1008.4,972.2],[1037.6,979.8],[1024.2,973.3],[1024.5,979.2],[1019.7,988.3],[1030.4,1002],[1013.4,992.1],[996.4,982.2],[996.4,982.2],[988,969.5],[988,969.5],[911.6,926],[911.6,926],[824.9,873.6],[749.1,837.1],[749.1,837.1],[672,801.5],[672,801.5],[613.2,758.9],[613.2,758.9],[532.7,720.2],[467.3,677],[408.2,642.5],[329.7,602.5],[263.5,573.4],[241.3,572.1],[242,583.7],[231.8,579.4],[231.8,579.4],[289.3,603.1],[320.5,637.1],[368.8,668.3],[412.6,715.8],[457.4,762.8],[537.4,814.5],[619.5,859.5],[702.6,891.2],[764.9,911.8],[840.7,940.8],[863.5,955.4],[914.4,967.1],[965.3,978.8],[978.5,974.3],[991.7,969.8],[1014.3,978.3],[1003.7,988.1],[1026.5,1002.7],[1012.4,1005.7],[984.8,1000.3],[972.1,984],[953.7,971.4],[937.7,951.4],[934.7,953.1],[917,954.5],[877.7,945.5],[871.6,935.2],[834.1,931.1],[830.2,933.4],[824.8,941.4],[814.6,955.1],[785.2,973.9],[751.2,1005.5],[733.7,1025.3],[728.9,1042.6],[725.9,1080.4],[709.3,1110.7],[680.9,1144.8],[646.2,1186.4],[612.9,1211],[579.6,1235.6],[550.4,1262.2],[523.4,1283.4],[494,1299.1],[474.2,1311.2],[467.3,1304.6],[470.6,1305.9],[504.1,1299.5],[547.2,1290.8],[564,1308.1],[589.4,1323.4],[609.9,1327.5],[630.4,1331.6],[660.1,1331.7],[682.2,1338.2],[688.3,1340.5],[707,1329.1],[686.4,1332.5],[667.5,1341.2],[652.1,1326.6],[641.4,1314.3],[669.5,1296.3],[697.6,1278.3],[711.9,1268.1],[726.2,1257.9],[727.5,1242.9],[719.6,1241.2],[719.4,1235.9],[723.8,1232.7],[753.9,1235.3],[770.7,1237.6],[749.4,1228.4],[728.1,1219.2],[731.4,1218.4],[730.8,1217.2],[731.8,1217.4],[729.2,1219.5],[738,1221.6],[740.5,1216.3],[754.6,1201],[768,1193.8],[780.5,1188.4],[764.2,1211.1],[779,1203.5],[793.9,1193.7],[814.3,1179.5],[851.2,1163.6],[874.4,1162.6],[897.6,1161.6],[894.3,1163.4],[900.8,1157.9],[913.1,1167.8],[948.5,1148.4],[935.5,1157.5],[926.3,1169.2],[916.6,1180.4],[894,1191.4],[876.4,1184.8],[858.8,1178.2],[858.8,1178.2],[858.9,1174.8],[858.9,1174.8],[864.3,1181.3],[864.3,1181.3],[864.8,1179.8],[847.9,1176.5],[847.9,1176.5],[813.1,1166.4],[813.1,1166.4],[786.7,1158],[779.5,1152.8],[751.2,1142.9],[751.2,1142.9],[730.4,1130.7],[717.4,1129.7],[679.2,1131.5],[626.6,1122.6],[584.8,1121.6],[566.1,1123.6],[587.5,1129.2],[578.1,1131.3],[563.6,1145.9],[570.2,1165.2],[557.9,1170.5],[537.8,1164.6],[536.7,1173.1],[535.6,1181.6],[523,1181.8],[510.4,1182],[487.8,1186.8],[487.6,1193.4],[470.1,1168.8],[452.6,1144.2],[454.6,1157.6],[479.3,1180.4],[456.4,1181.7],[478.8,1203.4],[508.7,1220.8],[538.6,1238.2],[544.8,1238],[551,1237.8],[594.3,1261.3],[632.6,1287.7],[674.8,1311.9],[6