inst1_resp.keys,inst1_resp.rt,calibrationMouse.x,calibrationMouse.y,calibrationMouse.leftButton,calibrationMouse.midButton,calibrationMouse.rightButton,calibrationClick.x,calibrationClick.y,calibrationClick.leftButton,calibrationClick.midButton,calibrationClick.rightButton,trialsc.thisRepN,trialsc.thisTrialN,trialsc.thisN,trialsc.thisIndex,trialsc.ran,calibration_x,calibration_y,participant,session,date,expName,psychopyVersion,OS,frameRate,calibrationClick.clicked_name,ScreenRes_pixels,Camera_pixels,mouse_2.x,mouse_2.y,mouse_2.leftButton,mouse_2.midButton,mouse_2.rightButton,mouse_2.time,mouse_2.clicked_name,mouse.x,mouse.y,mouse.leftButton,mouse.midButton,mouse.rightButton,mouse.time,mouse.clicked_name,Choice,Trial,TrialDuration,MOUSE_GAZE,ET_GAZE,ET_GAZE_x_T,time,unixTime,ET_GAZE_NF,Loc_Option1_label,Loc_Option2_label,Loc_Cost_label,Loc_Qual_label,Loc_Option1_cost,Loc_Option2_cost,Loc_Option1_quality,Loc_Option2_quality,trials.thisRepN,trials.thisTrialN,trials.thisN,trials.thisIndex,trials.ran,Block,Device,cost1,qual1,cost2,qual2
space,1.7368,0.107291667,-0.257407407,1,0,0,0.084375,-0.248148148,0,0,0,0,0,0,3,1,-0.67,0.33,36,001,2024-12-06_11h44.25.505,Attention_exp_legacy,2023.1.0,Win32,59.52380952,,,,,,,,,,,,,,,,,,,,,,,,,,,,,,,,,,,,,,,,,,,,,
,,,,,,,0.020833333,-0.25,0,0,0,0,1,1,11,1,0,0,36,001,2024-12-06_11h44.25.505,Attention_exp_legacy,2023.1.0,Win32,59.52380952,,,,,,,,,,,,,,,,,,,,,,,,,,,,,,,,,,,,,,,,,,,,,
,,,,,,,0.054166667,-0.22037037,0,0,0,0,2,2,14,1,0.33,-0.67,36,001,2024-12-06_11h44.25.505,Attention_exp_legacy,2023.1.0,Win32,59.52380952,,,,,,,,,,,,,,,,,,,,,,,,,,,,,,,,,,,,,,,,,,,,,
,,,,,,,0.054166667,-0.22037037,0,0,0,0,3,3,20,1,0.67,-0.67,36,001,2024-12-06_11h44.25.505,Attention_exp_legacy,2023.1.0,Win32,59.52380952,,,,,,,,,,,,,,,,,,,,,,,,,,,,,,,,,,,,,,,,,,,,,
,,,,,,,0.054166667,-0.218518519,0,0,0,0,4,4,17,1,0.33,0.33,36,001,2024-12-06_11h44.25.505,Attention_exp_legacy,2023.1.0,Win32,59.52380952,,,,,,,,,,,,,,,,,,,,,,,,,,,,,,,,,,,,,,,,,,,,,
,,,,,,,0.055208333,-0.22037037,0,0,0,0,5,5,9,1,0,-0.67,36,001,2024-12-06_11h44.25.505,Attention_exp_legacy,2023.1.0,Win32,59.52380952,,,,,,,,,,,,,,,,,,,,,,,,,,,,,,,,,,,,,,,,,,,,,
,,,,,,,0.055208333,-0.22037037,0,0,0,0,6,6,19,1,0.67,0.67,36,001,2024-12-06_11h44.25.505,Attention_exp_legacy,2023.1.0,Win32,59.52380952,,,,,,,,,,,,,,,,,,,,,,,,,,,,,,,,,,,,,,,,,,,,,
,,,,,,,0.055208333,-0.22037037,0,0,0,0,7,7,2,1,-0.67,0,36,001,2024-12-06_11h44.25.505,Attention_exp_legacy,2023.1.0,Win32,59.52380952,,,,,,,,,,,,,,,,,,,,,,,,,,,,,,,,,,,,,,,,,,,,,
,,,,,,,0.055208333,-0.22037037,0,0,0,0,8,8,4,1,-0.33,-0.67,36,001,2024-12-06_11h44.25.505,Attention_exp_legacy,2023.1.0,Win32,59.52380952,,,,,,,,,,,,,,,,,,,,,,,,,,,,,,,,,,,,,,,,,,,,,
,,,,,,,0.055208333,-0.22037037,0,0,0,0,9,9,15,1,0.33,-0.33,36,001,2024-12-06_11h44.25.505,Attention_exp_legacy,2023.1.0,Win32,59.52380952,,,,,,,,,,,,,,,,,,,,,,,,,,,,,,,,,,,,,,,,,,,,,
,,,,,,,0.055208333,-0.222222222,0,0,0,0,10,10,10,1,0,-0.33,36,001,2024-12-06_11h44.25.505,Attention_exp_legacy,2023.1.0,Win32,59.52380952,,,,,,,,,,,,,,,,,,,,,,,,,,,,,,,,,,,,,,,,,,,,,
,,,,,,,-0.010416667,-0.214814815,1,0,0,0,11,11,5,1,-0.33,-0.33,36,001,2024-12-06_11h44.25.505,Attention_exp_legacy,2023.1.0,Win32,59.52380952,,,,,,,,,,,,,,,,,,,,,,,,,,,,,,,,,,,,,,,,,,,,,
,,,,,,,-0.010416667,0.348148148,0,0,0,0,12,12,12,1,0,0.33,36,001,2024-12-06_11h44.25.505,Attention_exp_legacy,2023.1.0,Win32,59.52380952,,,,,,,,,,,,,,,,,,,,,,,,,,,,,,,,,,,,,,,,,,,,,
,,,,,,,-0.659375,-0.32962963,1,0,0,0,13,13,1,1,-0.67,-0.33,36,001,2024-12-06_11h44.25.505,Attention_exp_legacy,2023.1.0,Win32,59.52380952,,,,,,,,,,,,,,,,,,,,,,,,,,,,,,,,,,,,,,,,,,,,,
,,,,,,,-0.323958333,0.001851852,1,0,0,0,14,14,6,1,-0.33,0,36,001,2024-12-06_11h44.25.505,Attention_exp_legacy,2023.1.0,Win32,59.52380952,calibration_square,,,,,,,,,,,,,,,,,,,,,,,,,,,,,,,,,,,,,,,,,,,,
,,,,,,,0.325,0.672222222,1,0,0,0,15,15,18,1,0.33,0.67,36,001,2024-12-06_11h44.25.505,Attention_exp_legacy,2023.1.0,Win32,59.52380952,calibration_square,,,,,,,,,,,,,,,,,,,,,,,,,,,,,,,,,,,,,,,,,,,,
,,,,,,,-0.007291667,0.664814815,1,0,0,0,16,16,13,1,0,0.67,36,001,2024-12-06_11h44.25.505,Attention_exp_legacy,2023.1.0,Win32,59.52380952,calibration_square,,,,,,,,,,,,,,,,,,,,,,,,,,,,,,,,,,,,,,,,,,,,
,,,,,,,0.347916667,-0.011111111,1,0,0,0,17,17,16,1,0.33,0,36,001,2024-12-06_11h44.25.505,Attention_exp_legacy,2023.1.0,Win32,59.52380952,,,,,,,,,,,,,,,,,,,,,,,,,,,,,,,,,,,,,,,,,,,,,
,,,,,,,-0.094791667,0.248148148,1,0,0,0,18,18,8,1,-0.33,0.67,36,001,2024-12-06_11h44.25.505,Attention_exp_legacy,2023.1.0,Win32,59.52380952,,,,,,,,,,,,,,,,,,,,,,,,,,,,,,,,,,,,,,,,,,,,,
,,,,,,,-0.155208333,0.264814815,1,0,0,0,19,19,7,1,-0.33,0.33,36,001,2024-12-06_11h44.25.505,Attention_exp_legacy,2023.1.0,Win32,59.52380952,,,,,,,,,,,,,,,,,,,,,,,,,,,,,,,,,,,,,,,,,,,,,
,,,,,,,-0.154166667,0.264814815,1,0,0,0,20,20,0,1,-0.67,-0.67,36,001,2024-12-06_11h44.25.505,Attention_exp_legacy,2023.1.0,Win32,59.52380952,,,,,,,,,,,,,,,,,,,,,,,,,,,,,,,,,,,,,,,,,,,,,
,,,,,,,,,,,,,,,,,,,36,001,2024-12-06_11h44.25.505,Attention_exp_legacy,2023.1.0,Win32,59.52380952,,"[1920,1080]","[640,480]",[0.01875],[-0.48518518518518516],[1],[0],[0],[3.1462000000029775],"[""StartButton""]",[0.0125],[0.3],[1],[0],[0],[11.384100000008942],"[""Option1_label""]",Option1_label,1,12.3917,"[[-0.0010416666666666667,0.07222222222222222],[-0.0010416666666666667,0.07222222222222222],[-0.0010416666666666667,0.07222222222222222],[-0.0010416666666666667,0.07222222222222222],[-0.0010416666666666667,0.07222222222222222],[-0.0010416666666666667,0.07222222222222222],[-0.0010416666666666667,0.07222222222222222],[-0.0010416666666666667,0.07222222222222222],[-0.0010416666666666667,0.07222222222222222],[-0.0010416666666666667,0.07222222222222222],[-0.0010416666666666667,0.07222222222222222],[-0.0010416666666666667,0.07222222222222222],[-0.0010416666666666667,0.07222222222222222],[-0.0010416666666666667,0.07222222222222222],[-0.0010416666666666667,0.07222222222222222],[-0.0010416666666666667,0.07222222222222222],[-0.0010416666666666667,0.07222222222222222],[-0.0010416666666666667,0.07222222222222222],[-0.0010416666666666667,0.07222222222222222],[-0.0010416666666666667,0.07222222222222222],[-0.0010416666666666667,0.07222222222222222],[-0.0010416666666666667,0.07222222222222222],[-0.0010416666666666667,0.07222222222222222],[-0.0010416666666666667,0.07222222222222222],[-0.0010416666666666667,0.07222222222222222],[-0.0010416666666666667,0.07222222222222222],[-0.0010416666666666667,0.07222222222222222],[-0.0010416666666666667,0.07222222222222222],[-0.0010416666666666667,0.07222222222222222],[-0.0010416666666666667,0.07222222222222222],[-0.0010416666666666667,0.07222222222222222],[-0.0010416666666666667,0.07222222222222222],[-0.0010416666666666667,0.07222222222222222],[-0.0010416666666666667,0.07222222222222222],[-0.0010416666666666667,0.07222222222222222],[-0.0010416666666666667,0.07222222222222222],[-0.0010416666666666667,0.07222222222222222],[-0.0010416666666666667,0.07222222222222222],[-0.0010416666666666667,0.07222222222222222],[-0.0010416666666666667,0.07222222222222222],[-0.0010416666666666667,0.07222222222222222],[-0.0010416666666666667,0.07222222222222222],[-0.0010416666666666667,0.07222222222222222],[-0.0010416666666666667,0.07222222222222222],[-0.0010416666666666667,0.07222222222222222],[-0.0010416666666666667,0.07222222222222222],[-0.0010416666666666667,0.07222222222222222],[-0.0010416666666666667,0.07222222222222222],[-0.0010416666666666667,0.07222222222222222],[-0.0010416666666666667,0.07222222222222222],[-0.0010416666666666667,0.07222222222222222],[-0.0010416666666666667,0.07222222222222222],[-0.0010416666666666667,0.07222222222222222],[-0.0010416666666666667,0.07222222222222222],[-0.0010416666666666667,0.07222222222222222],[-0.0010416666666666667,0.07222222222222222],[-0.0010416666666666667,0.07222222222222222],[-0.0010416666666666667,0.07222222222222222],[-0.0010416666666666667,0.07222222222222222],[0.005208333333333333,0.07592592592592592],[0.014583333333333334,0.07592592592592592],[0.022916666666666665,0.07592592592592592],[0.027083333333333334,0.07592592592592592],[0.042708333333333334,0.07592592592592592],[0.05416666666666667,0.07592592592592592],[0.06979166666666667,0.07407407407407407],[0.07395833333333333,0.07222222222222222],[0.0875,0.07037037037037037],[0.09375,0.07037037037037037],[0.10729166666666666,0.06481481481481481],[0.11145833333333334,0.06296296296296296],[0.13125,0.05740740740740741],[0.14270833333333333,0.05555555555555555],[0.15625,0.05185185185185185],[0.17708333333333334,0.046296296296296294],[0.2,0.040740740740740744],[0.20729166666666668,0.03888888888888889],[0.21458333333333332,0.037037037037037035],[0.22604166666666667,0.03518518518518519],[0.240625,0.03148148148148148],[0.24791666666666667,0.02962962962962963],[0.259375,0.025925925925925925],[0.26666666666666666,0.022222222222222223],[0.27291666666666664,0.020370370370370372],[0.278125,0.016666666666666666],[0.28020833333333334,0.016666666666666666],[0.28125,0.014814814814814815],[0.28125,0.014814814814814815],[0.28125,0.014814814814814815],[0.28125,0.014814814814814815],[0.28020833333333334,0.009259259259259259],[0.22708333333333333,0.005555555555555556],[0.153125,0.005555555555555556],[0.09166666666666666,-0.003703703703703704],[0.046875,-0.011111111111111112],[0.016666666666666666,-0.020370370370370372],[0.0020833333333333333,-0.02962962962962963],[-0.00625,-0.037037037037037035],[-0.011458333333333333,-0.04259259259259259],[-0.014583333333333334,-0.04814814814814815],[-0.01875,-0.053703703703703705],[-0.025,-0.06111111111111111],[-0.03333333333333333,-0.07407407407407407],[-0.035416666666666666,-0.07777777777777778],[-0.040625,-0.08703703703703704],[-0.04895833333333333,-0.10740740740740741],[-0.053125,-0.12222222222222222],[-0.053125,-0.13148148148148148],[-0.05416666666666667,-0.14074074074074075],[-0.05625,-0.15],[-0.05625,-0.15925925925925927],[-0.058333333333333334,-0.1814814814814815],[-0.058333333333333334,-0.2037037037037037],[-0.058333333333333334,-0.23703703703703705],[-0.058333333333333334,-0.26666666666666666],[-0.058333333333333334,-0.29259259259259257],[-0.052083333333333336,-0.32222222222222224],[-0.05,-0.3314814814814815],[-0.04791666666666667,-0.337037037037037],[-0.046875,-0.3425925925925926],[-0.04583333333333333,-0.34444444444444444],[-0.04479166666666667,-0.34444444444444444],[-0.04479166666666667,-0.34444444444444444],[-0.04479166666666667,-0.34444444444444444],[-0.04479166666666667,-0.34444444444444444],[-0.04479166666666667,-0.34444444444444444],[-0.04479166666666667,-0.34444444444444444],[-0.04479166666666667,-0.34444444444444444],[-0.04375,-0.34444444444444444],[-0.04375,-0.34444444444444444],[-0.042708333333333334,-0.34444444444444444],[-0.041666666666666664,-0.34444444444444444],[-0.041666666666666664,-0.34444444444444444],[-0.040625,-0.3425925925925926],[-0.040625,-0.34074074074074073],[-0.040625,-0.3388888888888889],[-0.03958333333333333,-0.337037037037037],[-0.03854166666666667,-0.3351851851851852],[-0.03854166666666667,-0.3351851851851852],[-0.0375,-0.3314814814814815],[-0.0375,-0.3314814814814815],[-0.0375,-0.3296296296296296],[-0.0375,-0.32592592592592595],[-0.036458333333333336,-0.32407407407407407],[-0.036458333333333336,-0.32222222222222224],[-0.036458333333333336,-0.32037037037037036],[-0.035416666666666666,-0.31666666666666665],[-0.035416666666666666,-0.3148148148148148],[-0.034375,-0.31296296296296294],[-0.034375,-0.3111111111111111],[-0.034375,-0.3111111111111111],[-0.034375,-0.30925925925925923],[-0.034375,-0.30925925925925923],[-0.034375,-0.3074074074074074],[-0.03333333333333333,-0.3074074074074074],[-0.03333333333333333,-0.3055555555555556],[-0.03229166666666667,-0.3037037037037037],[-0.03125,-0.30185185185185187],[-0.028125,-0.2962962962962963],[-0.019791666666666666,-0.2796296296296296],[-0.0020833333333333333,-0.24444444444444444],[0.029166666666666667,-0.15],[0.053125,-0.06851851851851852],[0.06041666666666667,-0.03518518518518519],[0.065625,0.05],[0.06354166666666666,0.15185185185185185],[0.053125,0.18703703703703703],[0.04479166666666667,0.21481481481481482],[0.036458333333333336,0.23703703703703705],[0.03229166666666667,0.24814814814814815],[0.029166666666666667,0.2537037037037037],[0.026041666666666668,0.2574074074074074],[0.023958333333333335,0.2574074074074074],[0.023958333333333335,0.2574074074074074],[0.023958333333333335,0.2574074074074074],[0.023958333333333335,0.2574074074074074],[0.023958333333333335,0.2574074074074074],[0.023958333333333335,0.2574074074074074],[0.023958333333333335,0.2574074074074074],[0.023958333333333335,0.2574074074074074],[0.023958333333333335,0.2574074074074074],[0.025,0.2574074074074074],[0.04583333333333333,0.2574074074074074],[0.07708333333333334,0.2518518518518518],[0.12291666666666666,0.24074074074074073],[0.16875,0.22777777777777777],[0.221875,0.21296296296296297],[0.23020833333333332,0.21296296296296297],[0.2375,0.21296296296296297],[0.2375,0.21296296296296297],[0.2375,0.21296296296296297],[0.2375,0.21296296296296297],[0.2375,0.2111111111111111],[0.22916666666666666,0.19074074074074074],[0.215625,0.15555555555555556],[0.19479166666666667,0.10740740740740741],[0.17395833333333333,0.046296296296296294],[0.13645833333333332,-0.06666666666666667],[0.11979166666666667,-0.1111111111111111],[0.08645833333333333,-0.2111111111111111],[0.05,-0.337037037037037],[0.03125,-0.4111111111111111],[0.021875,-0.45],[0.01875,-0.4685185185185185],[0.01875,-0.4759259259259259],[0.01875,-0.48148148148148145],[0.01875,-0.48333333333333334],[0.01875,-0.48333333333333334],[0.01875,-0.48333333333333334],[0.01875,-0.48333333333333334],[0.01875,-0.48333333333333334],[0.01875,-0.48333333333333334],[0.01875,-0.48333333333333334],[0.01875,-0.48333333333333334],[0.01875,-0.48148148148148145],[0.01875,-0.48148148148148145],[0.01875,-0.47962962962962963],[0.019791666666666666,-0.4759259259259259],[0.022916666666666665,-0.4703703703703704],[0.03125,-0.46111111111111114],[0.040625,-0.45555555555555555],[0.05,-0.45],[0.065625,-0.43703703703703706],[0.07083333333333333,-0.43703703703703706],[0.08125,-0.43148148148148147],[0.09270833333333334,-0.42407407407407405],[0.1,-0.4222222222222222],[0.10208333333333333,-0.4203703703703704],[0.103125,-0.4203703703703704],[0.10625,-0.4203703703703704],[0.109375,-0.4203703703703704],[0.11145833333333334,-0.4203703703703704],[0.11458333333333333,-0.4203703703703704],[0.11666666666666667,-0.4203703703703704],[0.12083333333333333,-0.4203703703703704],[0.12291666666666666,-0.4203703703703704],[0.12708333333333333,-0.4203703703703704],[0.13020833333333334,-0.4203703703703704],[0.13333333333333333,-0.4203703703703704],[0.13645833333333332,-0.4203703703703704],[0.140625,-0.4203703703703704],[0.14375,-0.4203703703703704],[0.14583333333333334,-0.4203703703703704],[0.14895833333333333,-0.4203703703703704],[0.15208333333333332,-0.4203703703703704],[0.15625,-0.4203703703703704],[0.16354166666666667,-0.4203703703703704],[0.16979166666666667,-0.4203703703703704],[0.175,-0.4203703703703704],[0.18333333333333332,-0.4203703703703704],[0.1875,-0.4203703703703704],[0.19479166666666667,-0.4203703703703704],[0.19895833333333332,-0.4203703703703704],[0.20208333333333334,-0.4203703703703704],[0.20625,-0.4203703703703704],[0.20833333333333334,-0.4203703703703704],[0.21145833333333333,-0.4203703703703704],[0.2125,-0.4203703703703704],[0.215625,-0.4203703703703704],[0.21875,-0.4185185185185185],[0.22083333333333333,-0.4185185185185185],[0.221875,-0.4166666666666667],[0.22395833333333334,-0.4166666666666667],[0.22395833333333334,-0.4166666666666667],[0.22395833333333334,-0.4166666666666667],[0.22395833333333334,-0.4166666666666667],[0.22395833333333334,-0.4166666666666667],[0.22395833333333334,-0.4166666666666667],[0.22395833333333334,-0.4166666666666667],[0.22395833333333334,-0.4166666666666667],[0.22395833333333334,-0.4166666666666667],[0.22395833333333334,-0.4166666666666667],[0.22395833333333334,-0.4166666666666667],[0.22395833333333334,-0.4166666666666667],[0.225,-0.4148148148148148],[0.225,-0.412962962962963],[0.22395833333333334,-0.40925925925925927],[0.21770833333333334,-0.40370370370370373],[0.21041666666666667,-0.39444444444444443],[0.20208333333333334,-0.3907407407407407],[0.1875,-0.37777777777777777],[0.16458333333333333,-0.3574074074074074],[0.13541666666666666,-0.3388888888888889],[0.13020833333333334,-0.3351851851851852],[0.12395833333333334,-0.3296296296296296],[0.10833333333333334,-0.3148148148148148],[0.10104166666666667,-0.3074074074074074],[0.09895833333333333,-0.3037037037037037],[0.09583333333333334,-0.30185185185185187],[0.09479166666666666,-0.29814814814814816],[0.09375,-0.2962962962962963],[0.09270833333333334,-0.2962962962962963],[0.09166666666666666,-0.29444444444444445],[0.09166666666666666,-0.29259259259259257],[0.090625,-0.29074074074074074],[0.08958333333333333,-0.29074074074074074],[0.08958333333333333,-0.28888888888888886],[0.08854166666666667,-0.2851851851851852],[0.0875,-0.2833333333333333],[0.08541666666666667,-0.2759259259259259],[0.08333333333333333,-0.26851851851851855],[0.08229166666666667,-0.25555555555555554],[0.07916666666666666,-0.24074074074074073],[0.078125,-0.22592592592592592],[0.078125,-0.21666666666666667],[0.078125,-0.20925925925925926],[0.078125,-0.2037037037037037],[0.07708333333333334,-0.20185185185185187],[0.07708333333333334,-0.2],[0.07708333333333334,-0.2],[0.07708333333333334,-0.2],[0.07708333333333334,-0.2],[0.07708333333333334,-0.2],[0.07708333333333334,-0.2],[0.07708333333333334,-0.2],[0.07708333333333334,-0.2],[0.07708333333333334,-0.2],[0.07708333333333334,-0.2],[0.07708333333333334,-0.2],[0.07708333333333334,-0.19814814814814816],[0.078125,-0.1962962962962963],[0.08229166666666667,-0.19444444444444445],[0.08541666666666667,-0.19444444444444445],[0.090625,-0.1925925925925926],[0.09479166666666666,-0.1925925925925926],[0.09895833333333333,-0.19074074074074074],[0.10416666666666667,-0.19074074074074074],[0.11041666666666666,-0.18888888888888888],[0.115625,-0.18888888888888888],[0.121875,-0.18888888888888888],[0.12708333333333333,-0.18888888888888888],[0.134375,-0.18888888888888888],[0.13958333333333334,-0.18888888888888888],[0.14583333333333334,-0.18888888888888888],[0.15,-0.18888888888888888],[0.15416666666666667,-0.18888888888888888],[0.159375,-0.18888888888888888],[0.16354166666666667,-0.18888888888888888],[0.16666666666666666,-0.18888888888888888],[0.16875,-0.18888888888888888],[0.17083333333333334,-0.18888888888888888],[0.17291666666666666,-0.18888888888888888],[0.17395833333333333,-0.18888888888888888],[0.175,-0.18888888888888888],[0.175,-0.18888888888888888],[0.175,-0.18888888888888888],[0.175,-0.18888888888888888],[0.175,-0.18888888888888888],[0.175,-0.18888888888888888],[0.175,-0.18888888888888888],[0.175,-0.18888888888888888],[0.175,-0.18888888888888888],[0.175,-0.18888888888888888],[0.175,-0.18888888888888888],[0.175,-0.18703703703703703],[0.175,-0.18703703703703703],[0.175,-0.18703703703703703],[0.17395833333333333,-0.18703703703703703],[0.17083333333333334,-0.18703703703703703],[0.16458333333333333,-0.18703703703703703],[0.16145833333333334,-0.18703703703703703],[0.15729166666666666,-0.18703703703703703],[0.15625,-0.18703703703703703],[0.153125,-0.18518518518518517],[0.15208333333333332,-0.18518518518518517],[0.146875,-0.18333333333333332],[0.140625,-0.1814814814814815],[0.12916666666666668,-0.17962962962962964],[0.11770833333333333,-0.17592592592592593],[0.1,-0.17037037037037037],[0.08854166666666667,-0.1685185185185185],[0.07604166666666666,-0.16111111111111112],[0.06458333333333334,-0.15925925925925927],[0.04895833333333333,-0.15555555555555556],[0.0375,-0.15],[0.025,-0.14444444444444443],[0.01875,-0.1388888888888889],[0.014583333333333334,-0.13518518518518519],[0.0125,-0.12962962962962962],[0.007291666666666667,-0.1111111111111111],[0.0020833333333333333,-0.09074074074074075],[-0.003125,-0.06851851851851852],[-0.008333333333333333,-0.040740740740740744],[-0.013541666666666667,-0.011111111111111112],[-0.01875,0.018518518518518517],[-0.023958333333333335,0.05],[-0.025,0.07037037037037037],[-0.027083333333333334,0.09259259259259259],[-0.029166666666666667,0.12222222222222222],[-0.030208333333333334,0.13333333333333333],[-0.03229166666666667,0.14629629629629629],[-0.03229166666666667,0.15925925925925927],[-0.03229166666666667,0.17407407407407408],[-0.03229166666666667,0.19074074074074074],[-0.03229166666666667,0.2037037037037037],[-0.03229166666666667,0.21481481481481482],[-0.03229166666666667,0.22777777777777777],[-0.03229166666666667,0.23148148148148148],[-0.03229166666666667,0.2351851851851852],[-0.03229166666666667,0.2388888888888889],[-0.03229166666666667,0.24444444444444444],[-0.030208333333333334,0.25],[-0.027083333333333334,0.2574074074074074],[-0.027083333333333334,0.2574074074074074],[-0.023958333333333335,0.2611111111111111],[-0.020833333333333332,0.26481481481481484],[-0.017708333333333333,0.27037037037037037],[-0.014583333333333334,0.2740740740740741],[-0.013541666666666667,0.2759259259259259],[-0.011458333333333333,0.2777777777777778],[-0.011458333333333333,0.2777777777777778],[-0.010416666666666666,0.2796296296296296],[-0.009375,0.2814814814814815],[-0.008333333333333333,0.2814814814814815],[-0.007291666666666667,0.2814814814814815],[-0.00625,0.2814814814814815],[-0.00625,0.2814814814814815],[-0.004166666666666667,0.2814814814814815],[-0.004166666666666667,0.2833333333333333],[-0.0020833333333333333,0.2851851851851852],[-0.0010416666666666667,0.2851851851851852],[0,0.28888888888888886],[0.003125,0.29074074074074074],[0.005208333333333333,0.29259259259259257],[0.00625,0.29444444444444445],[0.008333333333333333,0.29444444444444445],[0.010416666666666666,0.29814814814814816],[0.010416666666666666,0.29814814814814816],[0.0125,0.29814814814814816],[0.0125,0.3],[0.0125,0.3],[0.0125,0.3],[0.0125,0.3],[0.0125,0.3],[0.0125,0.3],[0.0125,0.3],[0.0125,0.3],[0.0125,0.3],[0.0125,0.3],[0.0125,0.3],[0.0125,0.3],[0.0125,0.3],[0.0125,0.3],[0.0125,0.3],[0.0125,0.3],[0.0125,0.3],[0.0125,0.3],[0.0125,0.3],[0.0125,0.3],[0.0125,0.3],[0.0125,0.3],[0.0125,0.3],[0.0125,0.3],[0.0125,0.3],[0.0125,0.3],[0.0125,0.3],[0.0125,0.3],[0.0125,0.3],[0.0125,0.3],[0.0125,0.3],[0.0125,0.3],[0.0125,0.3],[0.0125,0.3],[0.0125,0.3],[0.0125,0.3],[0.0125,0.3],[0.0125,0.3],[0.0125,0.3],[0.0125,0.3],[0.0125,0.3],[0.0125,0.3],[0.0125,0.3],[0.0125,0.3],[0.0125,0.3],[0.0125,0.3],[0.0125,0.3],[0.0125,0.3],[0.0125,0.3],[0.0125,0.3],[0.0125,0.3],[0.0125,0.3],[0.0125,0.3],[0.0125,0.3],[0.0125,0.3],[0.0125,0.3],[0.0125,0.3],[0.0125,0.3],[0.0125,0.3],[0.0125,0.3],[0.0125,0.3],[0.0125,0.3],[0.0125,0.3],[0.0125,0.3],[0.0125,0.3],[0.0125,0.3],[0.0125,0.3],[0.0125,0.3],[0.0125,0.3],[0.0125,0.3],[0.0125,0.3],[0.0125,0.3],[0.0125,0.3],[0.0125,0.3],[0.0125,0.3],[0.0125,0.3],[0.0125,0.3],[0.0125,0.3],[0.0125,0.3],[0.0125,0.3],[0.0125,0.3],[0.0125,0.3],[0.0125,0.3],[0.0125,0.3],[0.0125,0.3],[0.0125,0.3],[0.0125,0.3],[0.0125,0.3],[0.0125,0.3],[0.0125,0.3],[0.0125,0.3],[0.0125,0.3],[0.0125,0.3],[0.0125,0.3],[0.0125,0.3],[0.0125,0.3],[0.0125,0.3],[0.0125,0.3],[0.0125,0.3],[0.0125,0.3],[0.0125,0.3],[0.0125,0.3],[0.0125,0.3],[0.0125,0.3],[0.0125,0.3],[0.0125,0.3],[0.0125,0.3],[0.0125,0.3],[0.0125,0.3],[0.0125,0.3],[0.0125,0.3],[0.0125,0.3],[0.0125,0.3],[0.0125,0.3],[0.0125,0.3],[0.0125,0.3],[0.0125,0.3],[0.0125,0.3],[0.0125,0.3],[0.0125,0.3],[0.0125,0.3],[0.0125,0.3],[0.0125,0.3],[0.0125,0.3],[0.0125,0.3],[0.0125,0.3],[0.0125,0.3],[0.0125,0.3],[0.0125,0.3],[0.0125,0.3],[0.0125,0.3],[0.0125,0.3],[0.0125,0.3],[0.0125,0.3],[0.0125,0.3],[0.0125,0.3],[0.0125,0.3],[0.0125,0.3],[0.0125,0.3],[0.0125,0.3],[0.0125,0.3],[0.0125,0.3],[0.0125,0.3],[0.0125,0.3],[0.0125,0.3],[0.0125,0.3],[0.0125,0.3],[0.0125,0.3],[0.0125,0.3],[0.0125,0.3],[0.0125,0.3],[0.0125,0.3],[0.0125,0.3],[0.0125,0.3],[0.0125,0.3],[0.0125,0.3],[0.0125,0.3],[0.0125,0.3],[0.0125,0.3],[0.0125,0.3],[0.0125,0.3],[0.0125,0.3],[0.0125,0.3],[0.0125,0.3],[0.0125,0.3],[0.0125,0.3],[0.0125,0.3],[0.0125,0.3],[0.0125,0.3],[0.0125,0.3],[0.0125,0.3],[0.0125,0.3],[0.0125,0.3],[0.0125,0.3],[0.0125,0.3],[0.0125,0.3],[0.0125,0.3],[0.0125,0.3],[0.0125,0.3],[0.0125,0.3],[0.0125,0.3],[0.0125,0.3],[0.0125,0.3],[0.0125,0.3],[0.0125,0.3],[0.0125,0.3],[0.0125,0.3],[0.0125,0.3],[0.0125,0.3],[0.0125,0.3],[0.0125,0.3],[0.0125,0.3],[0.0125,0.3],[0.0125,0.3],[0.0125,0.3],[0.0125,0.3],[0.0125,0.3],[0.0125,0.3],[0.0125,0.3],[0.0125,0.3],[0.0125,0.3],[0.0125,0.3],[0.0125,0.3],[0.0125,0.3],[0.0125,0.3],[0.0125,0.3],[0.0125,0.3],[0.0125,0.3],[0.0125,0.3],[0.0125,0.3],[0.0125,0.3],[0.0125,0.3],[0.0125,0.3],[0.0125,0.3],[0.0125,0.3],[0.0125,0.3],[0.0125,0.3],[0.0125,0.3],[0.0125,0.3],[0.0125,0.3],[0.0125,0.3],[0.0125,0.3],[0.0125,0.3],[0.0125,0.3],[0.0125,0.3],[0.0125,0.3],[0.0125,0.3],[0.0125,0.3],[0.0125,0.3],[0.0125,0.3],[0.0125,0.3],[0.0125,0.3],[0.0125,0.3],[0.0125,0.3],[0.0125,0.3],[0.0125,0.3],[0.0125,0.3],[0.0125,0.3],[0.0125,0.3],[0.0125,0.3],[0.0125,0.3],[0.0125,0.3],[0.0125,0.3],[0.0125,0.3],[0.0125,0.3],[0.0125,0.3],[0.0125,0.3],[0.0125,0.3],[0.0125,0.3],[0.0125,0.3],[0.0125,0.3],[0.0125,0.3],[0.0125,0.3],[0.0125,0.3],[0.0125,0.3],[0.0125,0.3],[0.0125,0.3],[0.0125,0.3],[0.0125,0.3],[0.0125,0.3],[0.0125,0.3],[0.0125,0.3],[0.0125,0.3],[0.0125,0.3],[0.0125,0.3],[0.0125,0.3],[0.0125,0.3],[0.0125,0.3],[0.0125,0.3],[0.0125,0.3],[0.0125,0.3],[0.0125,0.3],[0.0125,0.3],[0.0125,0.3],[0.0125,0.3],[0.0125,0.3],[0.0125,0.3],[0.0125,0.3],[0.0125,0.3],[0.0125,0.3],[0.0125,0.3],[0.0125,0.3],[0.0125,0.3],[0.0125,0.3],[0.0125,0.3],[0.0125,0.3],[0.0125,0.3],[0.0125,0.3],[0.0125,0.3],[0.0125,0.3],[0.0125,0.3],[0.0125,0.3],[0.0125,0.3],[0.0125,0.3],[0.0125,0.3],[0.0125,0.3],[0.0125,0.3],[0.0125,0.3],[0.0125,0.3],[0.0125,0.3],[0.0125,0.3],[0.0125,0.3],[0.0125,0.3],[0.0125,0.3],[0.0125,0.3],[0.0125,0.3],[0.0125,0.3],[0.0125,0.3],[0.0125,0.3],[0.0125,0.3],[0.0125,0.3],[0.0125,0.3],[0.0125,0.3],[0.0125,0.3]]","[[0.058854166666666666,0.2411111111111112],[0.058854166666666666,0.2411111111111112],[0.05510416666666664,0.24611111111111106],[0.05510416666666664,0.24611111111111106],[0.04468749999999998,0.23796296296296296],[0.04468749999999998,0.23796296296296296],[0.043229166666666666,0.24833333333333338],[0.043229166666666666,0.24833333333333338],[0.040625,0.2598148148148147],[0.040625,0.2598148148148147],[0.02791666666666662,0.2755555555555555],[0.02791666666666662,0.2755555555555555],[0.02791666666666662,0.2755555555555555],[0.02791666666666662,0.2755555555555555],[0.008333333333333333,0.31129629629629635],[0.008333333333333333,0.31129629629629635],[0.008333333333333333,0.31129629629629635],[0.008333333333333333,0.31129629629629635],[-0.007083333333333286,0.3424074074074074],[-0.007083333333333286,0.3424074074074074],[-0.011874999999999976,0.3464814814814815],[-0.011874999999999976,0.3464814814814815],[-0.03114583333333331,0.33240740740740743],[-0.03114583333333331,0.33240740740740743],[-0.03166666666666664,0.34],[-0.03166666666666664,0.34],[-0.028645833333333332,0.3487037037037036],[-0.028645833333333332,0.3487037037037036],[-0.028645833333333332,0.3487037037037036],[-0.024479166666666666,0.3520370370370371],[-0.024479166666666666,0.3520370370370371],[-0.018229166666666668,0.3588888888888888],[-0.018229166666666668,0.3588888888888888],[-0.016770833333333356,0.3616666666666666],[-0.016770833333333356,0.3616666666666666],[-0.001145833333333357,0.34574074074074085],[-0.001145833333333357,0.34574074074074085],[-0.004270833333333357,0.3512962962962964],[-0.004270833333333357,0.3512962962962964],[0.00625,0.3592592592592593],[0.00625,0.3592592592592593],[0.0006250000000000236,0.35648148148148145],[0.0006250000000000236,0.35648148148148145],[0.011874999999999976,0.38333333333333336],[0.011874999999999976,0.38333333333333336],[0.011874999999999976,0.38333333333333336],[0.03812500000000003,0.3594444444444445],[0.03812500000000003,0.3594444444444445],[0.03812500000000003,0.3594444444444445],[0.03812500000000003,0.3594444444444445],[0.041979166666666616,0.3762962962962964],[0.041979166666666616,0.3762962962962964],[0.0625,0.38351851851851854],[0.0625,0.38351851851851854],[0.08447916666666658,0.3653703703703703],[0.08447916666666658,0.3653703703703703],[0.10072916666666672,0.3596296296296297],[0.10072916666666672,0.3596296296296297],[0.10072916666666672,0.3596296296296297],[0.11197916666666667,0.3670370370370371],[0.11197916666666667,0.3670370370370371],[0.1319791666666667,0.3301851851851851],[0.1319791666666667,0.3301851851851851],[0.13677083333333329,0.2935185185185185],[0.13677083333333329,0.2935185185185185],[0.15833333333333333,0.27444444444444455],[0.15833333333333333,0.27444444444444455],[0.14500000000000005,0.23796296296296296],[0.14500000000000005,0.23796296296296296],[0.12604166666666666,0.22592592592592592],[0.12604166666666666,0.22592592592592592],[0.12166666666666662,0.19462962962962968],[0.12166666666666662,0.19462962962962968],[0.11645833333333329,0.1725925925925927],[0.11645833333333329,0.1725925925925927],[0.10520833333333333,0.15314814814814823],[0.10520833333333333,0.15314814814814823],[0.06739583333333338,0.1477777777777777],[0.03854166666666667,0.13240740740740742],[0.03854166666666667,0.13240740740740742],[-0.008437500000000023,0.1411111111111112],[-0.0140625,0.12296296296296293],[-0.01395833333333331,0.12444444444444452],[-0.0020833333333333333,0.11037037037037041],[-0.0020833333333333333,0.11037037037037041],[-0.014374999999999952,0.1007407407407407],[-0.003125,0.08129629629629626],[-0.04552083333333338,0.08222222222222218],[-0.04552083333333338,0.08222222222222218],[-0.04729166666666664,0.08555555555555563],[-0.04500000000000005,0.07074074074074083],[-0.0078125,0.0551851851851851],[0.028645833333333332,0.04944444444444453],[0.028645833333333332,0.04944444444444453],[0.008124999999999953,0.06351851851851843],[0.0109375,0.0338888888888888],[0.023958333333333335,0.03314814814814811],[0.036145833333333384,0.014629629629629588],[0.036145833333333384,0.014629629629629588],[0.02010416666666662,0.01648148148148144],[0.04656250000000005,0.03185185185185194],[0.040625,0.0235185185185186],[0.035520833333333356,0.025],[0.035520833333333356,0.025],[0.03083333333333336,0.0242592592592593],[0.027083333333333334,0.025925925925925925],[0.044479166666666715,0.03037037037037033],[0.02374999999999995,0.0742592592592593],[0.02374999999999995,0.0742592592592593],[0.013645833333333357,0.11685185185185189],[0.025520833333333333,0.1638888888888889],[0.04552083333333338,0.1896296296296296],[0.059583333333333384,0.16888888888888898],[0.051145833333333356,0.1735185185185186],[0.051145833333333356,0.1735185185185186],[0.06281249999999995,0.19962962962962955],[0.06333333333333328,0.19722222222222222],[0.09229166666666658,0.17222222222222222],[0.09229166666666658,0.17222222222222222],[0.128125,0.1411111111111112],[0.1554166666666667,0.1270370370370371],[0.15510416666666677,0.1337037037037038],[0.14291666666666672,0.13925925925925933],[0.11947916666666672,0.12481481481481477],[0.11947916666666672,0.12481481481481477],[0.10708333333333328,0.16370370370370366],[0.1053124999999999,0.18925925925925935],[0.1053124999999999,0.18925925925925935],[0.12406249999999991,0.16074074074074066],[0.10229166666666671,0.20666666666666672],[0.10229166666666671,0.20666666666666672],[0.0821875000000001,0.24888888888888885],[0.04104166666666664,0.2711111111111111],[0.04104166666666664,0.2711111111111111],[0.012916666666666642,0.147037037037037],[0.0009374999999999763,0.01055555555555564],[-0.04802083333333336,-0.009814814814814731],[-0.04802083333333336,-0.009814814814814731],[-0.05010416666666669,-0.012777777777777735],[-0.0796875,-0.03888888888888889],[-0.07708333333333334,-0.047037037037036995],[-0.07260416666666672,-0.08888888888888889],[-0.06281249999999995,-0.11722222222222224],[-0.06281249999999995,-0.11722222222222224],[-0.07062499999999995,-0.1668518518518519],[-0.07427083333333329,-0.15981481481481483],[-0.07875000000000003,-0.03185185185185194],[-0.059895833333333336,0.07703703703703708],[-0.008124999999999953,0.09222222222222214],[-0.008124999999999953,0.09222222222222214],[-0.0010416666666666667,0.07685185185185185],[0.029166666666666667,0.08925925925925934],[0.03218749999999997,0.09203703703703713],[0.03218749999999997,0.09203703703703713],[0.017604166666666643,0.12907407407407415],[0.0034374999999999527,0.14074074074074075],[0.0171875,0.1625925925925925],[0.0171875,0.1625925925925925],[0.02354166666666669,0.15481481481481485],[0.017916666666666713,0.14944444444444452],[-0.002395833333333286,0.1655555555555555],[-0.01270833333333338,0.16018518518518518],[-0.02802083333333331,0.20925925925925926],[-0.02802083333333331,0.20925925925925926],[-0.03770833333333338,0.1933333333333333],[-0.0484375,0.1838888888888888],[-0.051250000000000046,0.15259259259259256],[-0.07083333333333333,0.15648148148148147],[-0.10072916666666672,0.1714814814814815],[-0.11427083333333338,0.20185185185185187],[-0.09645833333333335,0.16537037037037028],[-0.08770833333333337,0.14611111111111108],[-0.08489583333333334,0.1259259259259259],[-0.06541666666666662,0.07259259259259268],[-0.05302083333333331,0.052962962962963],[-0.05447916666666662,0.05351851851851848],[-0.06062500000000005,0.09185185185185189],[-0.051979166666666646,0.06740740740740736],[-0.051979166666666646,0.06740740740740736],[-0.043333333333333356,0.04296296296296305],[-0.03093750000000005,0.005555555555555556],[-0.04562499999999995,0.02092592592592584],[-0.06020833333333329,0.008703703703703788],[-0.06020833333333329,0.008703703703703788],[-0.06031249999999998,-0.02111111111111107],[-0.07739583333333329,-0.05944444444444449],[-0.08833333333333329,-0.056296296296296254],[-0.08833333333333329,-0.056296296296296254],[-0.11083333333333331,-0.06796296296296295],[-0.11739583333333338,-0.075],[-0.11937500000000002,-0.0742592592592593],[-0.1172916666666667,-0.0794444444444444],[-0.1234375,-0.08370370370370368],[-0.1234375,-0.08370370370370368],[-0.07937500000000004,-0.10999999999999996],[-0.05541666666666671,-0.08629629629629634],[-0.057083333333333285,-0.04666666666666675],[-0.02302083333333336,-0.003333333333333249],[-0.02302083333333336,-0.003333333333333249],[-0.007083333333333286,0.018703703703703747],[0.022604166666666713,0.02907407407407416],[0.05479166666666669,0.04018518518518527],[0.08697916666666666,0.05129629629629638],[0.1140625,0.06111111111111111],[0.1368750000000001,0.08833333333333342],[0.11145833333333334,0.12222222222222222],[0.10666666666666676,0.10481481481481486],[0.10666666666666676,0.10481481481481486],[0.12083333333333333,0.10240740740740732],[0.12083333333333333,0.10240740740740732],[0.10750000000000005,0.12370370370370362],[0.11552083333333343,0.14574074074074084],[0.10822916666666677,0.2153703703703703],[0.10791666666666658,0.24870370370370362],[0.10760416666666663,0.282037037037037],[0.10760416666666663,0.282037037037037],[0.11072916666666661,0.2916666666666667],[0.1046875,0.3074074074074074],[0.1053124999999999,0.34092592592592597],[0.1265625,0.3527777777777778],[0.13729166666666662,0.3622222222222223],[0.14197916666666663,0.3798148148148149],[0.12885416666666671,0.3851851851851852],[0.12885416666666671,0.3851851851851852],[0.14895833333333333,0.32611111111111113],[0.16156249999999991,0.2862962962962963],[0.1642708333333334,0.2646296296296296],[0.18447916666666658,0.21388888888888888],[0.18447916666666658,0.21388888888888888],[0.1892708333333334,0.21333333333333343],[0.16572916666666657,0.23203703703703696],[0.12156250000000005,0.27240740740740743],[0.0696875000000001,0.27148148148148155],[0.04104166666666664,0.247037037037037],[0.04104166666666664,0.247037037037037],[0.018333333333333358,0.22888888888888892],[0.018333333333333358,0.22888888888888892],[0.004479166666666619,0.22240740740740744],[-0.02166666666666662,0.23499999999999996],[-0.03218749999999997,0.22592592592592592],[-0.03218749999999997,0.22592592592592592],[-0.0578125,0.2996296296296295],[-0.06572916666666669,0.3153703703703703],[-0.03312499999999995,0.2868518518518518],[-0.0037500000000000237,0.27259259259259266],[0.03968750000000002,0.28944444444444434],[0.06604166666666664,0.3362962962962963],[0.06604166666666664,0.3362962962962963],[0.09500000000000004,0.33425925925925926],[0.12281250000000009,0.37111111111111106],[0.13812499999999991,0.3905555555555555],[0.13729166666666662,0.397037037037037],[0.13354166666666673,0.3798148148148149],[0.13354166666666673,0.3798148148148149],[0.14541666666666658,0.35999999999999993],[0.14854166666666657,0.3735185185185186],[0.14854166666666657,0.3735185185185186],[0.16833333333333325,0.37759259259259254],[0.17520833333333338,0.3755555555555555],[0.1881249999999999,0.35185185185185186],[0.1881249999999999,0.35185185185185186],[0.17937500000000003,0.37462962962962953],[0.16770833333333332,0.3707407407407408],[0.16770833333333332,0.3707407407407408],[0.16937499999999991,0.38555555555555565],[0.16604166666666675,0.4024074074074073],[0.15875000000000009,0.4161111111111112],[0.14572916666666677,0.4338888888888888],[0.12625000000000006,0.4503703703703705],[0.09812500000000005,0.4588888888888888],[0.07927083333333323,0.4727777777777777],[0.04468749999999998,0.4644444444444444],[0.0328125,0.44888888888888884],[0.009583333333333381,0.4492592592592593],[-0.017083333333333308,0.4418518518518519],[-0.011874999999999976,0.42981481481481487],[-0.00458333333333331,0.42185185185185176],[-0.00458333333333331,0.42185185185185176],[-0.000416666666666643,0.41722222222222216],[0.02010416666666662,0.40481481481481485],[0.03947916666666664,0.3757407407407407],[0.03947916666666664,0.3757407407407407],[0.057395833333333354,0.375],[0.057395833333333354,0.375],[0.0709374999999999,0.3972222222222222],[0.08760416666666657,0.4203703703703704],[0.12999999999999995,0.4053703703703703],[0.1568749999999999,0.387037037037037],[0.1568749999999999,0.387037037037037],[0.16375000000000003,0.38796296296296295],[0.18885416666666663,0.38944444444444437],[0.2115624999999999,0.36444444444444435],[0.19989583333333344,0.3544444444444444],[0.1990624999999999,0.3683333333333333],[0.1990624999999999,0.3683333333333333],[0.18333333333333332,0.3538888888888889],[0.1929166666666667,0.3081481481481481],[0.1929166666666667,0.3081481481481481],[0.20010416666666658,0.285],[0.19322916666666667,0.26944444444444443],[0.19666666666666663,0.2588888888888888],[0.19666666666666663,0.2588888888888888],[0.2099999999999999,0.24740740740740744],[0.20510416666666675,0.23537037037037042],[0.20510416666666675,0.23537037037037042],[0.19541666666666657,0.24240740740740738],[0.2085416666666667,0.25314814814814823],[0.1859375,0.2675925925925926],[0.1779166666666666,0.2772222222222223],[0.17385416666666675,0.30759259259259264],[0.16791666666666671,0.30907407407407406],[0.15031249999999996,0.3292592592592592],[0.13489583333333333,0.34685185185185174],[0.13489583333333333,0.34685185185185174],[0.11072916666666661,0.35722222222222216],[0.09343750000000005,0.32833333333333325],[0.07479166666666662,0.30685185185185193],[0.04750000000000002,0.21370370370370367],[0.041458333333333285,0.11277777777777774],[0.024062500000000025,0.01648148148148144],[0.02312500000000005,0.002777777777777778],[0.00927083333333331,-0.05592592592592591],[-0.004270833333333357,-0.11944444444444445],[-0.003333333333333381,-0.13444444444444448],[0,-0.14148148148148143],[0.01229166666666662,-0.12296296296296293],[0.01229166666666662,-0.12296296296296293],[0.022395833333333334,-0.11555555555555551],[0.022604166666666713,-0.021296296296296296],[0.022604166666666713,-0.021296296296296296],[0.03958333333333333,0.05055555555555547],[0.057187499999999974,0.13722222222222227],[0.06770833333333333,0.15999999999999995],[0.06770833333333333,0.15999999999999995],[0.08458333333333339,0.22092592592592583],[0.09593749999999991,0.2946296296296297],[0.10177083333333338,0.32037037037037036],[0.10177083333333338,0.32037037037037036],[0.09802083333333324,0.3274074074074073],[0.09802083333333324,0.3274074074074073],[0.08447916666666658,0.3242592592592593],[0.08447916666666658,0.3242592592592593],[0.07479166666666662,0.34574074074074085],[0.06614583333333333,0.30907407407407406],[0.06614583333333333,0.30907407407407406],[0.07145833333333323,0.3088888888888888],[0.06489583333333329,0.3007407407407407],[0.04864583333333338,0.29907407407407405],[0.03760416666666669,0.30092592592592593],[0.016458333333333287,0.25833333333333336],[-0.008124999999999953,0.21888888888888897],[-0.025520833333333333,0.20537037037037034],[-0.057083333333333285,0.19129629629629621],[-0.07739583333333329,0.14314814814814805],[-0.05479166666666669,0.16518518518518527],[-0.05479166666666669,0.16518518518518527],[-0.051874999999999956,0.15185185185185185],[-0.027187500000000024,0.14351851851851852],[-0.015625,0.11648148148148144],[-0.0016666666666666904,0.11055555555555564],[0.027499999999999976,0.1270370370370371],[0.04885416666666664,0.14462962962962966],[0.07447916666666667,0.1455555555555556],[0.07447916666666667,0.1455555555555556],[0.10041666666666677,0.1646296296296296],[0.12541666666666676,0.19296296296296306],[0.1326041666666666,0.18370370370370379],[0.1326041666666666,0.18370370370370379],[0.11531250000000005,0.20722222222222217],[0.11531250000000005,0.20722222222222217],[0.10718750000000009,0.21962962962962967],[0.10510416666666676,0.22907407407407415],[0.09916666666666671,0.21203703703703702],[0.09916666666666671,0.21203703703703702],[0.08302083333333338,0.20537037037037034],[0.0818749999999999,0.1764814814814814],[0.07249999999999991,0.15777777777777785],[0.07249999999999991,0.15777777777777785],[0.0671875,0.17518518518518522],[0.06937499999999991,0.1735185185185186],[0.05416666666666667,0.17759259259259255],[0.05416666666666667,0.17759259259259255],[0.06031249999999998,0.16518518518518527],[0.06697916666666662,0.15314814814814823],[0.06041666666666667,0.13648148148148156],[0.06041666666666667,0.13648148148148156],[0.06468750000000002,0.14314814814814805],[0.07635416666666663,0.15185185185185185],[0.06302083333333333,0.14444444444444443],[0.06385416666666661,0.15925925925925927],[0.058749999999999976,0.14666666666666675],[0.058749999999999976,0.14666666666666675],[0.057500000000000044,0.12722222222222232],[0.05354166666666664,0.13055555555555556],[0.04510416666666662,0.1270370370370371],[0.021875,0.1205555555555556],[0.009791666666666643,0.12629629629629638],[0.009791666666666643,0.12629629629629638],[-0.003958333333333286,0.09870370370370361],[-0.013645833333333357,0.0448148148148149],[0.003958333333333286,0.05055555555555547],[0.013750000000000047,0.03333333333333333],[0.030520833333333285,0.02629629629629638],[0.030520833333333285,0.02629629629629638],[0.024062500000000025,0.04537037037037037],[0.02687499999999995,0.025370370370370456],[0.024583333333333356,0.011111111111111112],[0.024583333333333356,0.011111111111111112],[0.041770833333333354,-0.011481481481481566],[0.04593750000000003,-0.025925925925925925],[0.04010416666666667,-0.023333333333333376],[0.05447916666666662,-0.025185185185185227],[0.035520833333333356,-0.04129629629629621],[0.016562499999999977,-0.034074074074074034],[0.0003124999999999526,-0.03944444444444436],[0.0046875,-0.1051851851851852],[0.003958333333333286,-0.1383333333333333],[0.0002083333333333807,-0.14222222222222225],[-0.015312500000000047,-0.13574074074074077],[-0.015312500000000047,-0.13574074074074077],[-0.008020833333333382,-0.15111111111111114],[-0.008749999999999977,-0.12185185185185188],[-0.027708333333333356,-0.08370370370370368],[-0.027708333333333356,-0.08370370370370368],[-0.027604166666666666,-0.05907407407407403],[-0.01729166666666669,-0.062407407407407384],[-0.024479166666666666,-0.07092592592592595],[-0.024479166666666666,-0.07092592592592595],[-0.02041666666666669,-0.03888888888888889],[-0.02041666666666669,-0.03888888888888889],[-0.010416666666666666,-0.034999999999999955],[0.002499999999999976,-0.056666666666666705],[0.013541666666666667,-0.07777777777777778],[0.013541666666666667,-0.07777777777777778],[0.005833333333333357,-0.04981481481481477],[0.011041666666666691,-0.07074074074074072],[0.013437499999999976,-0.07296296296296292],[0.00947916666666669,-0.09796296296296292],[-0.0015625,-0.10777777777777775],[0.022708333333333285,-0.12629629629629627],[0.026145833333333358,-0.12444444444444443],[0.01593749999999995,-0.09425925925925922],[0.007500000000000047,-0.06166666666666669],[0.0021875000000000236,-0.06333333333333331],[0.00614583333333331,-0.10166666666666663],[0.019791666666666666,-0.11074074074074076],[0.016250000000000025,-0.0977777777777778],[0.016770833333333356,-0.08611111111111111],[0.016458333333333287,-0.08314814814814811],[0.0140625,-0.053703703703703705],[0.001145833333333357,-0.0883333333333333],[0.001145833333333357,-0.0883333333333333],[0.002916666666666619,-0.0977777777777778],[0.0046875,-0.10722222222222218],[-0.0015625,-0.0816666666666667],[-0.002291666666666714,-0.05907407407407403],[-0.015104166666666667,-0.0514814814814814],[-0.00927083333333331,-0.062407407407407384],[-0.0018749999999999527,-0.04759259259259268],[0.003125,-0.032407407407407406],[-0.007604166666666619,-0.029814814814814856],[-0.011770833333333286,0.007962962962962878],[-0.014687500000000023,-0.0003703703703704546],[-0.014687500000000023,-0.0003703703703704546],[-0.011562500000000024,-0.021851851851851768],[0.011979166666666667,-0.01796296296296305],[0.029999999999999954,-0.011111111111111112],[0.057395833333333354,-0.005370370370370328],[0.08375000000000009,-0.005370370370370328],[0.10239583333333328,-0.010740740740740657],[0.11062500000000004,-0.0198148148148149],[0.1234375,-0.022777777777777692],[0.1365624999999999,0.0011111111111111532],[0.15114583333333323,0.013888888888888888],[0.16375000000000003,0.03722222222222227],[0.16375000000000003,0.03722222222222227],[0.1453125,0.012962962962962963],[0.1252083333333334,-0.0418518518518519],[0.096875,-0.10388888888888893],[0.07291666666666667,-0.1648148148148148],[0.05604166666666662,-0.21777777777777782],[0.05291666666666662,-0.2633333333333333],[0.04520833333333331,-0.31500000000000006],[0.04072916666666669,-0.3085185185185186],[0.03093750000000005,-0.2890740740740741],[0.025520833333333333,-0.2846296296296296],[0.0375,-0.25925925925925924],[0.04458333333333329,-0.18351851851851855],[0.04458333333333329,-0.18351851851851855],[0.05166666666666669,-0.10777777777777775],[0.05166666666666669,-0.04055555555555551],[0.050416666666666644,0.040740740740740744],[0.04593750000000003,0.11611111111111119],[0.04593750000000003,0.11611111111111119],[0.03979166666666671,0.18518518518518517],[0.03583333333333331,0.1881481481481482],[0.018124999999999978,0.19129629629629621],[0.018124999999999978,0.19129629629629621],[-0.01729166666666669,0.2111111111111111],[-0.049270833333333285,0.24296296296296305],[-0.06916666666666664,0.256111111111111],[-0.04864583333333338,0.2492592592592593],[-0.030624999999999975,0.2625925925925925],[-0.030624999999999975,0.2625925925925925],[0.000833333333333286,0.25203703703703706],[0.013437499999999976,0.25203703703703706],[0.026145833333333358,0.2609259259259259],[0.05531250000000002,0.26648148148148143],[0.09822916666666662,0.2718518518518518],[0.14458333333333329,0.2718518518518518],[0.1875,0.2598148148148147],[0.1875,0.2598148148148147],[0.22197916666666656,0.2712962962962963],[0.21541666666666662,0.293888888888889],[0.21364583333333323,0.305925925925926],[0.21104166666666657,0.3081481481481481],[0.22729166666666673,0.29981481481481476],[0.24666666666666662,0.3037037037037037],[0.24958333333333324,0.3109259259259259],[0.2525000000000001,0.31814814814814807],[0.2542708333333332,0.3346296296296297],[0.2560416666666666,0.35111111111111115],[0.25,0.3375925925925925],[0.25,0.3375925925925925],[0.2445833333333333,0.3329629629629629],[0.2591666666666666,0.32388888888888884],[0.24656250000000005,0.34333333333333327],[0.23791666666666675,0.3592592592592593],[0.22770833333333323,0.3603703703703704],[0.20833333333333334,0.3651851851851853],[0.18895833333333342,0.36999999999999994],[0.18270833333333342,0.38351851851851854],[0.17645833333333344,0.397037037037037],[0.17645833333333344,0.397037037037037],[0.1798958333333334,0.4111111111111111],[0.18958333333333333,0.4075925925925926],[0.16854166666666662,0.42018518518518516],[0.1803124999999999,0.41092592592592586],[0.1803124999999999,0.41092592592592586],[0.17687499999999995,0.4275925925925925],[0.17916666666666667,0.4251851851851852],[0.18083333333333323,0.42907407407407416],[0.1818749999999999,0.4301851851851851],[0.17739583333333328,0.42240740740740745],[0.17739583333333328,0.42240740740740745],[0.18583333333333343,0.4027777777777778],[0.1868750000000001,0.39240740740740737],[0.19229166666666658,0.39537037037037037],[0.19229166666666658,0.39537037037037037],[0.20843749999999991,0.3866666666666666],[0.20281250000000003,0.38944444444444437],[0.20885416666666667,0.3757407407407407],[0.20791666666666658,0.380925925925926],[0.22510416666666658,0.36814814814814806],[0.24291666666666673,0.3581481481481481],[0.2634375000000001,0.32518518518518524],[0.27104166666666674,0.30407407407407416],[0.28395833333333326,0.2851851851851852],[0.28624999999999995,0.2705555555555556],[0.2763541666666666,0.24981481481481477],[0.26239583333333344,0.24055555555555552],[0.26593749999999994,0.23722222222222225],[0.27072916666666674,0.23407407407407405],[0.2646874999999999,0.2170370370370371],[0.2586458333333333,0.2],[0.26197916666666665,0.20999999999999996],[0.26531250000000006,0.21999999999999992],[0.2717708333333334,0.22333333333333338],[0.27614583333333326,0.22777777777777777],[0.29270833333333335,0.23833333333333342],[0.2961458333333333,0.24777777777777768],[0.2961458333333333,0.24777777777777768],[0.2920833333333334,0.25500000000000006],[0.2828125,0.25870370370370377],[0.2834374999999999,0.2705555555555556],[0.27333333333333343,0.27981481481481485],[0.25052083333333336,0.2822222222222222],[0.25052083333333336,0.2822222222222222],[0.21572916666666658,0.20666666666666672],[0.18624999999999994,0.11500000000000005],[0.15885416666666666,0.022222222222222223],[0.11895833333333337,-0.06277777777777774],[0.10395833333333329,-0.17259259259259258],[0.07604166666666666,-0.24444444444444444],[0.07604166666666666,-0.24444444444444444],[0.058124999999999954,-0.3005555555555556],[0.058124999999999954,-0.3005555555555556],[0.028645833333333332,-0.3190740740740741],[0.01895833333333338,-0.3405555555555555],[-0.016458333333333287,-0.36370370370370364],[-0.03572916666666662,-0.3125925925925926],[-0.06031249999999998,-0.24537037037037038],[-0.09135416666666671,-0.1381481481481482],[-0.10989583333333333,-0.038703703703703664],[-0.11499999999999998,0.04796296296296292],[-0.11499999999999998,0.04796296296296292],[-0.1258333333333333,0.07314814814814814],[-0.14270833333333333,0.11277777777777774],[-0.1554166666666667,0.12851851851851848],[-0.17385416666666664,0.13833333333333342],[-0.16656249999999997,0.14981481481481476],[-0.16114583333333338,0.18796296296296297],[-0.14489583333333336,0.21722222222222215],[-0.14489583333333336,0.21722222222222215],[-0.1397916666666667,0.21425925925925934],[-0.14177083333333335,0.20333333333333325],[-0.15427083333333336,0.21148148148148158],[-0.15729166666666666,0.2524074074074073],[-0.15729166666666666,0.2524074074074073],[-0.15687500000000001,0.25925925925925924],[-0.14791666666666667,0.24314814814814806],[-0.16156250000000003,0.24259259259259258],[-0.17520833333333338,0.24203703703703713],[-0.18333333333333332,0.22759259259259254],[-0.2015625,0.22148148148148153],[-0.2029166666666666,0.2081481481481481],[-0.1935416666666666,0.19518518518518516],[-0.1961458333333333,0.1985185185185186],[-0.19041666666666662,0.16777777777777783],[-0.18416666666666662,0.14148148148148143],[-0.19979166666666662,0.15055555555555547],[-0.1970833333333334,0.15703703703703695],[-0.1686458333333333,0.18370370370370379],[-0.14187500000000006,0.19611111111111107],[-0.11687500000000005,0.21444444444444435],[-0.0967708333333333,0.24314814814814806],[-0.08031250000000002,0.2794444444444444],[-0.05322916666666669,0.29907407407407405],[-0.03427083333333331,0.3346296296296297],[-0.03427083333333331,0.3346296296296297],[-0.027187500000000024,0.39166666666666666],[0.002916666666666619,0.4072222222222222],[0.04052083333333331,0.41796296296296304],[0.04052083333333331,0.41796296296296304],[0.06072916666666662,0.4233333333333334],[0.07947916666666661,0.4292592592592592],[0.09572916666666677,0.4155555555555555],[0.11624999999999991,0.3846296296296297],[0.13677083333333329,0.3537037037037037],[0.13677083333333329,0.3537037037037037],[0.15343749999999995,0.3301851851851851],[0.16197916666666667,0.325],[0.18781249999999997,0.29444444444444445],[0.2015625,0.3020370370370371],[0.2087500000000001,0.31296296296296294],[0.20750000000000005,0.2855555555555556],[0.2015625,0.2627777777777777],[0.2015625,0.2627777777777777],[0.1929166666666667,0.2653703703703703],[0.1701041666666666,0.2833333333333333],[0.14729166666666677,0.3012962962962964],[0.1368750000000001,0.33055555555555555],[0.13312499999999997,0.34074074074074073],[0.13312499999999997,0.34074074074074073],[0.12572916666666673,0.3418518518518519],[0.12000000000000005,0.3359259259259259],[0.0990624999999999,0.3512962962962964],[0.07270833333333329,0.39388888888888896],[0.04635416666666667,0.4364814814814816],[0.04708333333333338,0.4564814814814815],[0.06333333333333328,0.4674074074074074],[0.06333333333333328,0.4674074074074074],[0.07270833333333329,0.4596296296296297],[0.0696875000000001,0.44055555555555553],[0.06145833333333333,0.422037037037037],[0.04874999999999995,0.41944444444444445],[0.04354166666666662,0.4366666666666666],[0.04354166666666662,0.4366666666666666],[0.043020833333333286,0.43074074074074076],[0.043020833333333286,0.43074074074074076],[0.04802083333333336,0.42111111111111105],[0.059687499999999956,0.39592592592592585],[0.05333333333333338,0.372037037037037],[0.05333333333333338,0.372037037037037],[0.04635416666666667,0.3698148148148149],[0.05489583333333338,0.3794444444444444],[0.06343749999999998,0.3890740740740741],[0.08031249999999991,0.3831481481481481],[0.0953125,0.3755555555555555],[0.09854166666666657,0.36425925925925934],[0.11010416666666671,0.3587037037037038],[0.12614583333333323,0.3537037037037037],[0.13416666666666663,0.3616666666666666],[0.140625,0.36944444444444446],[0.1525000000000001,0.3507407407407407],[0.1482291666666666,0.33833333333333343],[0.14291666666666672,0.33203703703703696],[0.13552083333333323,0.3346296296296297],[0.13552083333333323,0.3346296296296297],[0.13031249999999991,0.342962962962963],[0.12374999999999996,0.3131481481481482],[0.11489583333333328,0.23925925925925934],[0.09395833333333338,0.22333333333333338],[0.07822916666666657,0.1933333333333333],[0.06124999999999995,0.1737037037037036],[0.03947916666666664,0.1727777777777777],[0.02520833333333338,0.17240740740740745],[-0.007604166666666619,0.16629629629629622],[-0.041458333333333285,0.16629629629629622],[-0.06041666666666667,0.17296296296296293],[-0.07302083333333335,0.19962962962962955],[-0.07770833333333335,0.24833333333333338],[-0.07239583333333334,0.23592592592592587],[-0.07229166666666664,0.23537037037037042],[-0.07229166666666664,0.23537037037037042],[-0.0704166666666667,0.23277777777777786],[-0.0828125,0.2205555555555556],[-0.08645833333333333,0.2198148148148149],[-0.065625,0.21722222222222215],[-0.04031250000000005,0.19000000000000003],[-0.030208333333333334,0.15203703703703708],[-0.02010416666666662,0.11407407407407412],[-0.009062500000000048,0.11333333333333341],[-0.000416666666666643,0.11518518518518527],[-0.0020833333333333333,0.10703703703703696],[0.004270833333333357,0.10388888888888893],[0.027083333333333334,0.10129629629629638],[0.027083333333333334,0.10129629629629638],[0.024687500000000046,0.09259259259259259],[0.021562500000000047,0.1037037037037037],[0.01395833333333331,0.13944444444444437],[0.01395833333333331,0.13944444444444437],[-0.0010416666666666667,0.16574074074074074],[-0.012083333333333357,0.20962962962962972],[-0.027499999999999976,0.23444444444444448],[-0.03333333333333333,0.24259259259259258],[-0.027499999999999976,0.2655555555555555],[-0.027499999999999976,0.2655555555555555],[-0.035625000000000046,0.2862962962962963],[-0.035625000000000046,0.2862962962962963],[-0.05552083333333328,0.272037037037037],[-0.057187499999999974,0.18888888888888888],[-0.07114583333333328,0.10333333333333325],[-0.07781250000000005,0.010370370370370412],[-0.06447916666666664,-0.0809259259259259],[-0.05510416666666664,-0.18981481481481483],[-0.03697916666666667,-0.2537037037037037],[-0.04229166666666669,-0.31851851851851853],[-0.036562500000000026,-0.3661111111111111],[-0.036562500000000026,-0.3661111111111111],[-0.029166666666666667,-0.3901851851851852],[-0.012187500000000047,-0.384074074074074],[-0.0005208333333333333,-0.3051851851851852]]","[[0.058854166666666666,0.2411111111111112,0.00020000000297670795],[0.058854166666666666,0.2411111111111112,0.035799999997010445],[0.05510416666666664,0.24611111111111106,0.05659999999403453],[0.05510416666666664,0.24611111111111106,0.06399999999999295],[0.04468749999999998,0.23796296296296296,0.08979999999701249],[0.04468749999999998,0.23796296296296296,0.09790000000595],[0.043229166666666666,0.24833333333333338,0.12829999999701158],[0.043229166666666666,0.24833333333333338,0.13809999999404],[0.040625,0.2598148148148147,0.15890000000595705],[0.040625,0.2598148148148147,0.16599999999999682],[0.02791666666666662,0.2755555555555555,0.19149999999999068],[0.02791666666666662,0.2755555555555555,0.20120000000297011],[0.02791666666666662,0.2755555555555555,0.2059000000059541],[0.02791666666666662,0.2755555555555555,0.22449999999999193],[0.008333333333333333,0.31129629629629635,0.25849999999999795],[0.008333333333333333,0.31129629629629635,0.26620000000298205],[0.008333333333333333,0.31129629629629635,0.27249999999999375],[0.008333333333333333,0.31129629629629635,0.2927000000029807],[-0.007083333333333286,0.3424074074074074,0.3267999999970215],[-0.007083333333333286,0.3424074074074074,0.33499999999999375],[-0.011874999999999976,0.3464814814814815,0.3589000000059599],[-0.011874999999999976,0.3464814814814815,0.36809999999402976],[-0.03114583333333331,0.33240740740740743,0.3914999999999935],[-0.03114583333333331,0.33240740740740743,0.3992000000029776],[-0.03166666666666664,0.34,0.4247000000029715],[-0.03166666666666664,0.34,0.43459999999403465],[-0.028645833333333332,0.3487037037037036,0.46070000000297284],[-0.028645833333333332,0.3487037037037036,0.4692000000029708],[-0.028645833333333332,0.3487037037037036,0.47540000000596194],[-0.024479166666666666,0.3520370370370371,0.5082000000029723],[-0.024479166666666666,0.3520370370370371,0.5159000000059564],[-0.018229166666666668,0.3588888888888888,0.542400000005955],[-0.018229166666666668,0.3588888888888888,0.5507000000029763],[-0.016770833333333356,0.3616666666666666,0.5745999999940352],[-0.016770833333333356,0.3616666666666666,0.5825999999940308],[-0.001145833333333357,0.34574074074074085,0.6064999999999969],[-0.001145833333333357,0.34574074074074085,0.6139000000059553],[-0.004270833333333357,0.3512962962962964,0.641200000002982],[-0.004270833333333357,0.3512962962962964,0.6482000000029728],[0.00625,0.3592592592592593,0.6730999999940366],[0.00625,0.3592592592592593,0.6805999999940298],[0.0006250000000000236,0.35648148148148145,0.7104999999999961],[0.0006250000000000236,0.35648148148148145,0.7172000000029755],[0.011874999999999976,0.38333333333333336,0.7424000000059578],[0.011874999999999976,0.38333333333333336,0.7492999999970209],[0.011874999999999976,0.38333333333333336,0.7559000000059513],[0.03812500000000003,0.3594444444444445,0.7922999999970131],[0.03812500000000003,0.3594444444444445,0.8002999999970086],[0.03812500000000003,0.3594444444444445,0.8057999999970207],[0.03812500000000003,0.3594444444444445,0.8245999999940352],[0.041979166666666616,0.3762962962962964,0.8564999999999969],[0.041979166666666616,0.3762962962962964,0.8639000000059553],[0.0625,0.38351851851851854,0.8897999999970096],[0.0625,0.38351851851851854,0.8977000000029705],[0.08447916666666658,0.3653703703703703,0.926700000002981],[0.08447916666666658,0.3653703703703703,0.9375999999940348],[0.10072916666666672,0.3596296296296297,0.9607999999970218],[0.10072916666666672,0.3596296296296297,0.9687999999970174],[0.10072916666666672,0.3596296296296297,0.9734000000059524],[0.11197916666666667,0.3670370370370371,1.0112000000029724],[0.11197916666666667,0.3670370370370371,1.0212999999970123],[0.1319791666666667,0.3301851851851851,1.0440999999940317],[0.1319791666666667,0.3301851851851851,1.050799999997011],[0.13677083333333329,0.2935185185185185,1.0782000000029797],[0.13677083333333329,0.2935185185185185,1.0860999999940333],[0.15833333333333333,0.27444444444444455,1.108799999997018],[0.15833333333333333,0.27444444444444455,1.1177999999970183],[0.14500000000000005,0.23796296296296296,1.1437000000029798],[0.14500000000000005,0.23796296296296296,1.151299999997022],[0.12604166666666666,0.22592592592592592,1.1732999999970133],[0.12604166666666666,0.22592592592592592,1.1805999999940298],[0.12166666666666662,0.19462962962962968,1.214400000005952],[0.12166666666666662,0.19462962962962968,1.222999999999999],[0.11645833333333329,0.1725925925925927,1.2425999999940416],[0.11645833333333329,0.1725925925925927,1.2794000000059498],[0.10520833333333333,0.15314814814814823,1.2872999999970176],[0.10520833333333333,0.15314814814814823,1.294599999994034],[0.06739583333333338,0.1477777777777777,1.3059999999999974],[0.03854166666666667,0.13240740740740742,1.32559999999404],[0.03854166666666667,0.13240740740740742,1.33929999999701],[-0.008437500000000023,0.1411111111111112,1.3560999999940293],[-0.0140625,0.12296296296296293,1.3762999999970162],[-0.01395833333333331,0.12444444444444452,1.3909000000059564],[-0.0020833333333333333,0.11037037037037041,1.4060999999940407],[-0.0020833333333333333,0.11037037037037041,1.4225999999940342],[-0.014374999999999952,0.1007407407407407,1.4419000000059583],[-0.003125,0.08129629629629626,1.4597000000029823],[-0.04552083333333338,0.08222222222222218,1.4749999999999943],[-0.04552083333333338,0.08222222222222218,1.489200000002981],[-0.04729166666666664,0.08555555555555563,1.5057999999970093],[-0.04500000000000005,0.07074074074074083,1.52470000000298],[-0.0078125,0.0551851851851851,1.5435999999940293],[0.028645833333333332,0.04944444444444453,1.5580999999940417],[0.028645833333333332,0.04944444444444453,1.5762000000029701],[0.008124999999999953,0.06351851851851843,1.58929999999701],[0.0109375,0.0338888888888888,1.6059999999999945],[0.023958333333333335,0.03314814814814811,1.6227999999970137],[0.036145833333333384,0.014629629629629588,1.6429000000059517],[0.036145833333333384,0.014629629629629588,1.655900000005957],[0.02010416666666662,0.01648148148148144,1.672799999997011],[0.04656250000000005,0.03185185185185194,1.6892999999970186],[0.040625,0.0235185185185186,1.709900000005959],[0.035520833333333356,0.025,1.7249999999999943],[0.035520833333333356,0.025,1.7392999999970158],[0.03083333333333336,0.0242592592592593,1.7577999999970189],[0.027083333333333334,0.025925925925925925,1.7727999999970194],[0.044479166666666715,0.03037037037037033,1.789299999997013],[0.02374999999999995,0.0742592592592593,1.8089999999999975],[0.02374999999999995,0.0742592592592593,1.8225999999940399],[0.013645833333333357,0.11685185185185189,1.839400000005952],[0.025520833333333333,0.1638888888888889,1.8559000000059598],[0.04552083333333338,0.1896296296296296,1.8765999999940277],[0.059583333333333384,0.16888888888888898,1.8914000000059588],[0.051145833333333356,0.1735185185185186,1.9074999999999989],[0.051145833333333356,0.1735185185185186,1.9227000000029761],[0.06281249999999995,0.19962962962962955,1.9445999999940398],[0.06333333333333328,0.19722222222222222,1.9599999999999937],[0.09229166666666658,0.17222222222222222,1.9749999999999943],[0.09229166666666658,0.17222222222222222,1.9892999999970158],[0.128125,0.1411111111111112,2.0087000000029747],[0.1554166666666667,0.1270370370370371,2.0229000000059614],[0.15510416666666677,0.1337037037037038,2.039299999997013],[0.14291666666666672,0.13925925925925933,2.057099999994037],[0.11947916666666672,0.12481481481481477,2.072400000005956],[0.11947916666666672,0.12481481481481477,2.0890999999940334],[0.10708333333333328,0.16370370370370366,2.10590000000596],[0.1053124999999999,0.18925925925925935,2.122499999999988],[0.1053124999999999,0.18925925925925935,2.1392000000029725],[0.12406249999999991,0.16074074074074066,2.1579000000059523],[0.10229166666666671,0.20666666666666672,2.1747000000029715],[0.10229166666666671,0.20666666666666672,2.1892999999970186],[0.0821875000000001,0.24888888888888885,2.2099999999999937],[0.04104166666666664,0.2711111111111111,2.2249999999999943],[0.04104166666666664,0.2711111111111111,2.239200000002981],[0.012916666666666642,0.147037037037037,2.2559000000059513],[0.0009374999999999763,0.01055555555555564,2.2747999999970148],[-0.04802083333333336,-0.009814814814814731,2.294799999997011],[-0.04802083333333336,-0.009814814814814731,2.306200000002974],[-0.05010416666666669,-0.012777777777777735,2.322499999999991],[-0.0796875,-0.03888888888888889,2.343299999997015],[-0.07708333333333334,-0.047037037037036995,2.358799999997018],[-0.07260416666666672,-0.08888888888888889,2.3767000000029697],[-0.06281249999999995,-0.11722222222222224,2.391299999997017],[-0.06281249999999995,-0.11722222222222224,2.4087000000029803],[-0.07062499999999995,-0.1668518518518519,2.422700000002976],[-0.07427083333333329,-0.15981481481481483,2.440400000005951],[-0.07875000000000003,-0.03185185185185194,2.4599999999999937],[-0.059895833333333336,0.07703703703703708,2.474599999994041],[-0.008124999999999953,0.09222222222222214,2.489299999997016],[-0.008124999999999953,0.09222222222222214,2.507900000005961],[-0.0010416666666666667,0.07685185185185185,2.5224999999999937],[0.029166666666666667,0.08925925925925934,2.539400000005955],[0.03218749999999997,0.09203703703703713,2.556900000005953],[0.03218749999999997,0.09203703703703713,2.5745000000000005],[0.017604166666666643,0.12907407407407415,2.58929999999701],[0.0034374999999999527,0.14074074074074075,2.6059999999999945],[0.0171875,0.1625925925925925,2.6285999999940373],[0.0171875,0.1625925925925925,2.639400000005949],[0.02354166666666669,0.15481481481481485,2.6559999999999917],[0.017916666666666713,0.14944444444444452,2.672700000002976],[-0.002395833333333286,0.1655555555555555,2.691299999997014],[-0.01270833333333338,0.16018518518518518,2.709799999997017],[-0.02802083333333331,0.20925925925925926,2.725200000002971],[-0.02802083333333331,0.20925925925925926,2.7412000000029764],[-0.03770833333333338,0.1933333333333333,2.7560000000000002],[-0.0484375,0.1838888888888888,2.7727999999970194],[-0.051250000000000046,0.15259259259259256,2.7935999999940293],[-0.07083333333333333,0.15648148148148147,2.8079999999999927],[-0.10072916666666672,0.1714814814814815,2.822700000002982],[-0.11427083333333338,0.20185185185185187,2.8412000000029707],[-0.09645833333333335,0.16537037037037028,2.8559999999999945],[-0.08770833333333337,0.14611111111111108,2.8727999999970137],[-0.08489583333333334,0.1259259259259259,2.8922999999970216],[-0.06541666666666662,0.07259259259259268,2.9069000000059617],[-0.05302083333333331,0.052962962962963,2.9224000000059505],[-0.05447916666666662,0.05351851851851848,2.9409000000059535],[-0.06062500000000005,0.09185185185185189,2.9594000000059566],[-0.051979166666666646,0.06740740740740736,2.9749000000059596],[-0.051979166666666646,0.06740740740740736,2.989099999994039],[-0.043333333333333356,0.04296296296296305,3.0057999999970093],[-0.03093750000000005,0.005555555555555556,3.0229000000059614],[-0.04562499999999995,0.02092592592592584,3.045299999997013],[-0.06020833333333329,0.008703703703703788,3.059299999997009],[-0.06020833333333329,0.008703703703703788,3.072700000002982],[-0.06031249999999998,-0.02111111111111107,3.089400000005952],[-0.07739583333333329,-0.05944444444444449,3.108200000002981],[-0.08833333333333329,-0.056296296296296254,3.128900000005956],[-0.08833333333333329,-0.056296296296296254,3.1392999999970215],[-0.11083333333333331,-0.06796296296296295,3.16040000000595],[-0.11739583333333338,-0.075,3.175799999997011],[-0.11937500000000002,-0.0742592592592593,3.191299999997014],[-0.1172916666666667,-0.0794444444444444,3.2099999999999937],[-0.1234375,-0.08370370370370368,3.229099999994034],[-0.1234375,-0.08370370370370368,3.239299999997016],[-0.07937500000000004,-0.10999999999999996,3.2559000000059513],[-0.05541666666666671,-0.08629629629629634,3.2727000000029705],[-0.057083333333333285,-0.04666666666666675,3.293200000002969],[-0.02302083333333336,-0.003333333333333249,3.3089000000059485],[-0.02302083333333336,-0.003333333333333249,3.32259999999404],[-0.007083333333333286,0.018703703703703747,3.3429000000059546],[0.022604166666666713,0.02907407407407416,3.3614000000059576],[0.05479166666666669,0.04018518518518527,3.377200000002972],[0.08697916666666666,0.05129629629629638,3.393599999994038],[0.1140625,0.06111111111111111,3.4099999999999966],[0.1368750000000001,0.08833333333333342,3.425799999997011],[0.11145833333333334,0.12222222222222222,3.4415999999940396],[0.10666666666666676,0.10481481481481486,3.4624999999999915],[0.10666666666666676,0.10481481481481486,3.472400000005962],[0.12083333333333333,0.10240740740740732,3.489099999994039],[0.12083333333333333,0.10240740740740732,3.5057999999970093],[0.10750000000000005,0.12370370370370362,3.5224999999999937],[0.11552083333333343,0.14574074074074084,3.5420999999940364],[0.10822916666666677,0.2153703703703703,3.558499999999995],[0.10791666666666658,0.24870370370370362,3.575700000002982],[0.10760416666666663,0.282037037037037,3.5939000000059593],[0.10760416666666663,0.282037037037037,3.60590000000596],[0.11072916666666661,0.2916666666666667,3.622700000002979],[0.1046875,0.3074074074074074,3.6439999999999912],[0.1053124999999999,0.34092592592592597,3.659099999994041],[0.1265625,0.3527777777777778,3.674999999999997],[0.13729166666666662,0.3622222222222223,3.690400000005951],[0.14197916666666663,0.3798148148148149,3.7102000000029705],[0.12885416666666671,0.3851851851851852,3.725999999999999],[0.12885416666666671,0.3851851851851852,3.739200000002981],[0.14895833333333333,0.32611111111111113,3.7560000000000002],[0.16156249999999991,0.2862962962962963,3.777900000005957],[0.1642708333333334,0.2646296296296296,3.7934999999999945],[0.18447916666666658,0.21388888888888888,3.809400000005951],[0.18447916666666658,0.21388888888888888,3.826999999999998],[0.1892708333333334,0.21333333333333343,3.83929999999701],[0.16572916666666657,0.23203703703703696,3.8559999999999945],[0.12156250000000005,0.27240740740740743,3.8769999999999953],[0.0696875000000001,0.27148148148148155,3.891999999999996],[0.04104166666666664,0.247037037037037,3.906599999994029],[0.04104166666666664,0.247037037037037,3.922599999994034],[0.018333333333333358,0.22888888888888892,3.944499999999991],[0.018333333333333358,0.22888888888888892,3.955900000005954],[0.004479166666666619,0.22240740740740744,3.972799999997008],[-0.02166666666666662,0.23499999999999996,3.989299999997016],[-0.03218749999999997,0.22592592592592592,4.0140999999940306],[-0.03218749999999997,0.22592592592592592,4.022799999997019],[-0.0578125,0.2996296296296295,4.039400000005955],[-0.06572916666666669,0.3153703703703703,4.057299999997014],[-0.03312499999999995,0.2868518518518518,4.076400000005961],[-0.0037500000000000237,0.27259259259259266,4.090999999999994],[0.03968750000000002,0.28944444444444434,4.107200000002976],[0.06604166666666664,0.3362962962962963,4.127700000002974],[0.06604166666666664,0.3362962962962963,4.1392999999970215],[0.09500000000000004,0.33425925925925926,4.155999999999992],[0.12281250000000009,0.37111111111111106,4.176799999997016],[0.13812499999999991,0.3905555555555555,4.19159999999404],[0.13729166666666662,0.397037037037037,4.210599999994031],[0.13354166666666673,0.3798148148148149,4.229500000000002],[0.13354166666666673,0.3798148148148149,4.239200000002981],[0.14541666666666658,0.35999999999999993,4.255900000005951],[0.14854166666666657,0.3735185185185186,4.2725999999940285],[0.14854166666666657,0.3735185185185186,4.29379999999702],[0.16833333333333325,0.37759259259259254,4.305999999999997],[0.17520833333333338,0.3755555555555555,4.322700000002982],[0.1881249999999999,0.35185185185185186,4.343799999997017],[0.1881249999999999,0.35185185185185186,4.3559999999999945],[0.17937500000000003,0.37462962962962953,4.372900000005956],[0.16770833333333332,0.3707407407407408,4.39470000000297],[0.16770833333333332,0.3707407407407408,4.405799999997015],[0.16937499999999991,0.38555555555555565,4.422599999994034],[0.16604166666666675,0.4024074074074073,4.4409000000059535],[0.15875000000000009,0.4161111111111112,4.455700000002977],[0.14572916666666677,0.4338888888888888,4.474700000002969],[0.12625000000000006,0.4503703703703705,4.489099999994039],[0.09812500000000005,0.4588888888888888,4.508900000005951],[0.07927083333333323,0.4727777777777777,4.524299999997012],[0.04468749999999998,0.4644444444444444,4.543700000002971],[0.0328125,0.44888888888888884,4.5589999999999975],[0.009583333333333381,0.4492592592592593,4.575799999997017],[-0.017083333333333308,0.4418518518518519,4.593299999997015],[-0.011874999999999976,0.42981481481481487,4.608999999999995],[-0.00458333333333331,0.42185185185185176,4.628299999997012],[-0.00458333333333331,0.42185185185185176,4.6392000000029725],[-0.000416666666666643,0.41722222222222216,4.658999999999992],[0.02010416666666662,0.40481481481481485,4.6747000000029715],[0.03947916666666664,0.3757407407407407,4.691400000005956],[0.03947916666666664,0.3757407407407407,4.726200000002976],[0.057395833333333354,0.375,4.734200000002971],[0.057395833333333354,0.375,4.74290000000596],[0.0709374999999999,0.3972222222222222,4.756],[0.08760416666666657,0.4203703703703704,4.775200000002982],[0.12999999999999995,0.4053703703703703,4.7934999999999945],[0.1568749999999999,0.387037037037037,4.808799999997021],[0.1568749999999999,0.387037037037037,4.825700000002982],[0.16375000000000003,0.38796296296296295,4.83929999999701],[0.18885416666666663,0.38944444444444437,4.85590000000596],[0.2115624999999999,0.36444444444444435,4.876299999997016],[0.19989583333333344,0.3544444444444444,4.889499999999998],[0.1990624999999999,0.3683333333333333,4.905900000005957],[0.1990624999999999,0.3683333333333333,4.924900000005962],[0.18333333333333332,0.3538888888888889,4.939299999997019],[0.1929166666666667,0.3081481481481481,4.955900000005954],[0.1929166666666667,0.3081481481481481,4.9749000000059596],[0.20010416666666658,0.285,4.989299999997016],[0.19322916666666667,0.26944444444444443,5.008700000002975],[0.19666666666666663,0.2588888888888888,5.028200000002968],[0.19666666666666663,0.2588888888888888,5.039200000002978],[0.2099999999999999,0.24740740740740744,5.055999999999997],[0.20510416666666675,0.23537037037037042,5.072700000002982],[0.20510416666666675,0.23537037037037042,5.090900000005959],[0.19541666666666657,0.24240740740740738,5.10590000000596],[0.2085416666666667,0.25314814814814823,5.122700000002979],[0.1859375,0.2675925925925926,5.143000000000001],[0.1779166666666666,0.2772222222222223,5.158999999999992],[0.17385416666666675,0.30759259259259264,5.173799999997016],[0.16791666666666671,0.30907407407407406,5.189099999994028],[0.15031249999999996,0.3292592592592592,5.205799999997012],[0.13489583333333333,0.34685185185185174,5.225400000005962],[0.13489583333333333,0.34685185185185174,5.239099999994039],[0.11072916666666661,0.35722222222222216,5.255799999997009],[0.09343750000000005,0.32833333333333325,5.272499999999994],[0.07479166666666662,0.30685185185185193,5.2890000000000015],[0.04750000000000002,0.21370370370370367,5.306299999997009],[0.041458333333333285,0.11277777777777774,5.322400000005956],[0.024062500000000025,0.01648148148148144,5.341400000005962],[0.02312500000000005,0.002777777777777778,5.3559999999999945],[0.00927083333333331,-0.05592592592592591,5.372700000002979],[-0.004270833333333357,-0.11944444444444445,5.393000000000001],[-0.003333333333333381,-0.13444444444444448,5.408900000005957],[0,-0.14148148148148143,5.426299999997013],[0.01229166666666662,-0.12296296296296293,5.44559999999403],[0.01229166666666662,-0.12296296296296293,5.455999999999989],[0.022395833333333334,-0.11555555555555551,5.472799999997008],[0.022604166666666713,-0.021296296296296296,5.489200000002981],[0.022604166666666713,-0.021296296296296296,5.507999999999996],[0.03958333333333333,0.05055555555555547,5.522999999999996],[0.057187499999999974,0.13722222222222227,5.54340000000596],[0.06770833333333333,0.15999999999999995,5.560400000005956],[0.06770833333333333,0.15999999999999995,5.572799999997017],[0.08458333333333339,0.22092592592592583,5.58929999999701],[0.09593749999999991,0.2946296296296297,5.60590000000596],[0.10177083333333338,0.32037037037037036,5.628099999994035],[0.10177083333333338,0.32037037037037036,5.639400000005949],[0.09802083333333324,0.3274074074074073,5.656099999994041],[0.09802083333333324,0.3274074074074073,5.672599999994034],[0.08447916666666658,0.3242592592592593,5.69159999999404],[0.08447916666666658,0.3242592592592593,5.705900000005954],[0.07479166666666662,0.34574074074074085,5.722599999994031],[0.06614583333333333,0.30907407407407406,5.740900000005951],[0.06614583333333333,0.30907407407407406,5.755900000005951],[0.07145833333333323,0.3088888888888888,5.772400000005959],[0.06489583333333329,0.3007407407407407,5.789099999994036],[0.04864583333333338,0.29907407407407405,5.807400000005956],[0.03760416666666669,0.30092592592592593,5.822499999999991],[0.016458333333333287,0.25833333333333336,5.841200000002971],[-0.008124999999999953,0.21888888888888897,5.855799999997018],[-0.025520833333333333,0.20537037037037034,5.872499999999988],[-0.057083333333333285,0.19129629629629621,5.889599999994033],[-0.07739583333333329,0.14314814814814805,5.90570000000298],[-0.05479166666666669,0.16518518518518527,5.92740000000596],[-0.05479166666666669,0.16518518518518527,5.938999999999993],[-0.051874999999999956,0.15185185185185185,5.955900000005954],[-0.027187500000000024,0.14351851851851852,5.974599999994041],[-0.015625,0.11648148148148144,5.992299999997016],[-0.0016666666666666904,0.11055555555555564,6.00709999999404],[0.027499999999999976,0.1270370370370371,6.0227000000029705],[0.04885416666666664,0.14462962962962966,6.042700000002981],[0.07447916666666667,0.1455555555555556,6.05749999999999],[0.07447916666666667,0.1455555555555556,6.07259999999404],[0.10041666666666677,0.1646296296296296,6.091799999997008],[0.12541666666666676,0.19296296296296306,6.106400000005962],[0.1326041666666666,0.18370370370370379,6.122599999994037],[0.1326041666666666,0.18370370370370379,6.14109999999404],[0.11531250000000005,0.20722222222222217,6.156099999994041],[0.11531250000000005,0.20722222222222217,6.172499999999999],[0.10718750000000009,0.21962962962962967,6.191799999997016],[0.10510416666666676,0.22907407407407415,6.209799999997017],[0.09916666666666671,0.21203703703703702,6.225400000005962],[0.09916666666666671,0.21203703703703702,6.242099999994039],[0.08302083333333338,0.20537037037037034,6.255900000005951],[0.0818749999999999,0.1764814814814814,6.2727000000029705],[0.07249999999999991,0.15777777777777785,6.293299999997018],[0.07249999999999991,0.15777777777777785,6.305999999999997],[0.0671875,0.17518518518518522,6.322799999997017],[0.06937499999999991,0.1735185185185186,6.342500000000001],[0.05416666666666667,0.17759259259259255,6.357799999997013],[0.05416666666666667,0.17759259259259255,6.372700000002979],[0.06031249999999998,0.16518518518518527,6.3892999999970215],[0.06697916666666662,0.15314814814814823,6.41040000000595],[0.06041666666666667,0.13648148148148156,6.4270999999940415],[0.06041666666666667,0.13648148148148156,6.43920000000297],[0.06468750000000002,0.14314814814814805,6.456099999994038],[0.07635416666666663,0.15185185185185185,6.476099999994034],[0.06302083333333333,0.14444444444444443,6.492299999997016],[0.06385416666666661,0.15925925925925927,6.507400000005958],[0.058749999999999976,0.14666666666666675,6.5227000000029705],[0.058749999999999976,0.14666666666666675,6.543200000002969],[0.057500000000000044,0.12722222222222232,6.555900000005963],[0.05354166666666664,0.13055555555555556,6.572700000002982],[0.04510416666666662,0.1270370370370371,6.5922000000029755],[0.021875,0.1205555555555556,6.6084000000059575],[0.009791666666666643,0.12629629629629638,6.628700000002979],[0.009791666666666643,0.12629629629629638,6.6392999999970215],[-0.003958333333333286,0.09870370370370361,6.659499999999994],[-0.013645833333333357,0.0448148148148149,6.675400000005951],[0.003958333333333286,0.05055555555555547,6.689799999997021],[0.013750000000000047,0.03333333333333333,6.709799999997017],[0.030520833333333285,0.02629629629629638,6.726700000002978],[0.030520833333333285,0.02629629629629638,6.739099999994039],[0.024062500000000025,0.04537037037037037,6.759999999999991],[0.02687499999999995,0.025370370370370456,6.775499999999994],[0.024583333333333356,0.011111111111111112,6.794200000002974],[0.024583333333333356,0.011111111111111112,6.80840000000596],[0.041770833333333354,-0.011481481481481566,6.822799999997017],[0.04593750000000003,-0.025925925925925925,6.840599999994041],[0.04010416666666667,-0.023333333333333376,6.855700000002969],[0.05447916666666662,-0.025185185185185227,6.876900000005961],[0.035520833333333356,-0.04129629629629621,6.891999999999996],[0.016562499999999977,-0.034074074074074034,6.906499999999994],[0.0003124999999999526,-0.03944444444444436,6.922599999994034],[0.0046875,-0.1051851851851852,6.941799999997016],[0.003958333333333286,-0.1383333333333333,6.960299999997019],[0.0002083333333333807,-0.14222222222222225,6.975799999997008],[-0.015312500000000047,-0.13574074074074077,6.994599999994037],[-0.015312500000000047,-0.13574074074074077,7.005799999997009],[-0.008020833333333382,-0.15111111111111114,7.0225999999940285],[-0.008749999999999977,-0.12185185185185188,7.042400000005955],[-0.027708333333333356,-0.08370370370370368,7.059799999997011],[-0.027708333333333356,-0.08370370370370368,7.072700000002982],[-0.027604166666666666,-0.05907407407407403,7.089200000002975],[-0.01729166666666669,-0.062407407407407384,7.1059999999999945],[-0.024479166666666666,-0.07092592592592595,7.128599999994037],[-0.024479166666666666,-0.07092592592592595,7.1390999999940306],[-0.02041666666666669,-0.03888888888888889,7.155900000005957],[-0.02041666666666669,-0.03888888888888889,7.172599999994034],[-0.010416666666666666,-0.034999999999999955,7.189099999994028],[0.002499999999999976,-0.056666666666666705,7.205799999997012],[0.013541666666666667,-0.07777777777777778,7.225499999999997],[0.013541666666666667,-0.07777777777777778,7.23899999999999],[0.005833333333333357,-0.04981481481481477,7.2557000000029745],[0.011041666666666691,-0.07074074074074072,7.2725999999940285],[0.013437499999999976,-0.07296296296296292,7.2890000000000015],[0.00947916666666669,-0.09796296296296292,7.308299999997018],[-0.0015625,-0.10777777777777775,7.322400000005956],[0.022708333333333285,-0.12629629629629627,7.341400000005962],[0.026145833333333358,-0.12444444444444443,7.355799999997018],[0.01593749999999995,-0.09425925925925922,7.372499999999988],[0.007500000000000047,-0.06166666666666669,7.390900000005956],[0.0021875000000000236,-0.06333333333333331,7.40870000000298],[0.00614583333333331,-0.10166666666666663,7.426400000005955],[0.019791666666666666,-0.11074074074074076,7.44459999999404],[0.016250000000000025,-0.0977777777777778,7.4602000000029705],[0.016770833333333356,-0.08611111111111111,7.475799999997008],[0.016458333333333287,-0.08314814814814811,7.492200000002981],[0.0140625,-0.053703703703703705,7.509299999997012],[0.001145833333333357,-0.0883333333333333,7.527999999999992],[0.001145833333333357,-0.0883333333333333,7.539099999994036],[0.002916666666666619,-0.0977777777777778,7.555799999997021],[0.0046875,-0.10722222222222218,7.572400000005956],[-0.0015625,-0.0816666666666667,7.590099999994038],[-0.002291666666666714,-0.05907407407407403,7.60629999999702],[-0.015104166666666667,-0.0514814814814814,7.622400000005953],[-0.00927083333333331,-0.062407407407407384,7.642400000005949],[-0.0018749999999999527,-0.04759259259259268,7.65740000000595],[0.003125,-0.032407407407407406,7.6745999999940295],[-0.007604166666666619,-0.029814814814814856,7.689299999997019],[-0.011770833333333286,0.007962962962962878,7.705799999997012],[-0.014687500000000023,-0.0003703703703704546,7.725200000002971],[-0.014687500000000023,-0.0003703703703704546,7.73899999999999],[-0.011562500000000024,-0.021851851851851768,7.755799999997009],[0.011979166666666667,-0.01796296296296305,7.772400000005959],[0.029999999999999954,-0.011111111111111112,7.7890000000000015],[0.057395833333333354,-0.005370370370370328,7.807900000005958],[0.08375000000000009,-0.005370370370370328,7.82559999999404],[0.10239583333333328,-0.010740740740740657,7.842400000005952],[0.11062500000000004,-0.0198148148148149,7.85629999999702],[0.1234375,-0.022777777777777692,7.872400000005953],[0.1365624999999999,0.0011111111111111532,7.891599999994028],[0.15114583333333323,0.013888888888888888,7.90570000000298],[0.16375000000000003,0.03722222222222227,7.926799999997016],[0.16375000000000003,0.03722222222222227,7.93920000000297],[0.1453125,0.012962962962962963,7.955799999997012],[0.1252083333333334,-0.0418518518518519,7.975499999999997],[0.096875,-0.10388888888888893,7.991],[0.07291666666666667,-0.1648148148148148,8.00770000000297],[0.05604166666666662,-0.21777777777777782,8.022499999999994],[0.05291666666666662,-0.2633333333333333,8.042099999994036],[0.04520833333333331,-0.31500000000000006,8.057900000005958],[0.04072916666666669,-0.3085185185185186,8.072900000005959],[0.03093750000000005,-0.2890740740740741,8.08929999999701],[0.025520833333333333,-0.2846296296296296,8.105700000002969],[0.0375,-0.25925925925925924,8.122400000005953],[0.04458333333333329,-0.18351851851851855,8.14240000000595],[0.04458333333333329,-0.18351851851851855,8.155799999997015],[0.05166666666666669,-0.10777777777777775,8.172700000002976],[0.05166666666666669,-0.04055555555555551,8.188999999999993],[0.050416666666666644,0.040740740740740744,8.205799999997012],[0.04593750000000003,0.11611111111111119,8.224799999997018],[0.04593750000000003,0.11611111111111119,8.239099999994039],[0.03979166666666671,0.18518518518518517,8.25579999999701],[0.03583333333333331,0.1881481481481482,8.277799999997015],[0.018124999999999978,0.19129629629629621,8.294299999997008],[0.018124999999999978,0.19129629629629621,8.305700000002972],[-0.01729166666666669,0.2111111111111111,8.322400000005956],[-0.049270833333333285,0.24296296296296305,8.341499999999996],[-0.06916666666666664,0.256111111111111,8.358099999994039],[-0.04864583333333338,0.2492592592592593,8.37709999999403],[-0.030624999999999975,0.2625925925925925,8.39240000000595],[-0.030624999999999975,0.2625925925925925,8.40570000000298],[0.000833333333333286,0.25203703703703706,8.4225],[0.013437499999999976,0.25203703703703706,8.441400000005956],[0.026145833333333358,0.2609259259259259,8.459900000005959],[0.05531250000000002,0.26648148148148143,8.475599999994031],[0.09822916666666662,0.2718518518518518,8.49209999999404],[0.14458333333333329,0.2718518518518518,8.508299999997021],[0.1875,0.2598148148148147,8.528499999999994],[0.1875,0.2598148148148147,8.539000000000001],[0.22197916666666656,0.2712962962962963,8.555700000002972],[0.21541666666666662,0.293888888888889,8.572400000005956],[0.21364583333333323,0.305925925925926,8.589099999994033],[0.21104166666666657,0.3081481481481481,8.605700000002969],[0.22729166666666673,0.29981481481481476,8.622400000005953],[0.24666666666666662,0.3037037037037037,8.64209999999403],[0.24958333333333324,0.3109259259259259,8.656999999999996],[0.2525000000000001,0.31814814814814807,8.674499999999995],[0.2542708333333332,0.3346296296296297,8.689299999997019],[0.2560416666666666,0.35111111111111115,8.705700000002977],[0.25,0.3375925925925925,8.724700000002969],[0.25,0.3375925925925925,8.739099999994039],[0.2445833333333333,0.3329629629629629,8.75579999999701],[0.2591666666666666,0.32388888888888884,8.772400000005959],[0.24656250000000005,0.34333333333333327,8.789000000000001],[0.23791666666666675,0.3592592592592593,8.807900000005958],[0.22770833333333323,0.3603703703703704,8.822799999997017],[0.20833333333333334,0.3651851851851853,8.841700000002973],[0.18895833333333342,0.36999999999999994,8.85609999999403],[0.18270833333333342,0.38351851851851854,8.872400000005953],[0.17645833333333344,0.397037037037037,8.891400000005959],[0.17645833333333344,0.397037037037037,8.905799999997015],[0.1798958333333334,0.4111111111111111,8.9225],[0.18958333333333333,0.4075925925925926,8.940900000005954],[0.16854166666666662,0.42018518518518516,8.955700000002977],[0.1803124999999999,0.41092592592592586,8.974999999999994],[0.1803124999999999,0.41092592592592586,8.989099999994039],[0.17687499999999995,0.4275925925925925,9.005700000002975],[0.17916666666666667,0.4251851851851852,9.022400000005959],[0.18083333333333323,0.42907407407407416,9.042200000002978],[0.1818749999999999,0.4301851851851851,9.057799999997016],[0.17739583333333328,0.42240740740740745,9.072700000002982],[0.17739583333333328,0.42240740740740745,9.088999999999999],[0.18583333333333343,0.4027777777777778,9.105799999997018],[0.1868750000000001,0.39240740740740737,9.122400000005953],[0.19229166666666658,0.39537037037037037,9.14279999999701],[0.19229166666666658,0.39537037037037037,9.15570000000298],[0.20843749999999991,0.3866666666666666,9.172599999994034],[0.20281250000000003,0.38944444444444437,9.188999999999993],[0.20885416666666667,0.3757407407407407,9.208799999997012],[0.20791666666666658,0.380925925925926,9.225799999997008],[0.22510416666666658,0.36814814814814806,9.24329999999702],[0.24291666666666673,0.3581481481481481,9.257799999997019],[0.2634375000000001,0.32518518518518524,9.272400000005959],[0.27104166666666674,0.30407407407407416,9.289099999994036],[0.28395833333333326,0.2851851851851852,9.307799999997016],[0.28624999999999995,0.2705555555555556,9.324099999994033],[0.2763541666666666,0.24981481481481477,9.341099999994029],[0.26239583333333344,0.24055555555555552,9.355700000002969],[0.26593749999999994,0.23722222222222225,9.372400000005953],[0.27072916666666674,0.23407407407407405,9.390999999999991],[0.2646874999999999,0.2170370370370371,9.406900000005962],[0.2586458333333333,0.2,9.424299999997018],[0.26197916666666665,0.20999999999999996,9.440900000005954],[0.26531250000000006,0.21999999999999992,9.456700000002982],[0.2717708333333334,0.22333333333333338,9.474299999997015],[0.27614583333333326,0.22777777777777777,9.48899999999999],[0.29270833333333335,0.23833333333333342,9.508900000005951],[0.2961458333333333,0.24777777777777768,9.527999999999992],[0.2961458333333333,0.24777777777777768,9.539000000000001],[0.2920833333333334,0.25500000000000006,9.555700000002972],[0.2828125,0.25870370370370377,9.572400000005956],[0.2834374999999999,0.2705555555555556,9.59320000000298],[0.27333333333333343,0.27981481481481485,9.611200000002981],[0.25052083333333336,0.2822222222222222,9.628099999994035],[0.25052083333333336,0.2822222222222222,9.638999999999996],[0.21572916666666658,0.20666666666666672,9.65570000000298],[0.18624999999999994,0.11500000000000005,9.675900000005953],[0.15885416666666666,0.022222222222222223,9.6905],[0.11895833333333337,-0.06277777777777774,9.708599999994036],[0.10395833333333329,-0.17259259259259258,9.72399999999999],[0.07604166666666666,-0.24444444444444444,9.740200000002972],[0.07604166666666666,-0.24444444444444444,9.75579999999701],[0.058124999999999954,-0.3005555555555556,9.772599999994029],[0.058124999999999954,-0.3005555555555556,9.789000000000001],[0.028645833333333332,-0.3190740740740741,9.80579999999702],[0.01895833333333338,-0.3405555555555555,9.822400000005956],[-0.016458333333333287,-0.36370370370370364,9.84090000000596],[-0.03572916666666662,-0.3125925925925926,9.85590000000596],[-0.06031249999999998,-0.24537037037037038,9.872499999999988],[-0.09135416666666671,-0.1381481481481482,9.891900000005961],[-0.10989583333333333,-0.038703703703703664,9.906999999999996],[-0.11499999999999998,0.04796296296296292,9.926299999997013],[-0.11499999999999998,0.04796296296296292,9.939099999994028],[-0.1258333333333333,0.07314814814814814,9.955900000005954],[-0.14270833333333333,0.11277777777777774,9.97490000000596],[-0.1554166666666667,0.12851851851851848,9.98899999999999],[-0.17385416666666664,0.13833333333333342,10.006],[-0.16656249999999997,0.14981481481481476,10.022299999997017],[-0.16114583333333338,0.18796296296296297,10.04340000000596],[-0.14489583333333336,0.21722222222222215,10.058999999999997],[-0.14489583333333336,0.21722222222222215,10.072400000005956],[-0.1397916666666667,0.21425925925925934,10.088999999999999],[-0.14177083333333335,0.20333333333333325,10.105799999997018],[-0.15427083333333336,0.21148148148148158,10.122400000005953],[-0.15729166666666666,0.2524074074074073,10.142599999994033],[-0.15729166666666666,0.2524074074074073,10.155799999997015],[-0.15687500000000001,0.25925925925925924,10.172599999994034],[-0.14791666666666667,0.24314814814814806,10.188999999999993],[-0.16156250000000003,0.24259259259259258,10.205700000002977],[-0.17520833333333338,0.24203703703703713,10.225799999997008],[-0.18333333333333332,0.22759259259259254,10.242599999994042],[-0.2015625,0.22148148148148153,10.258200000002972],[-0.2029166666666666,0.2081481481481481,10.27379999999701],[-0.1935416666666666,0.19518518518518516,10.289000000000001],[-0.1961458333333333,0.1985185185185186,10.30749999999999],[-0.19041666666666662,0.16777777777777783,10.322400000005956],[-0.18416666666666662,0.14148148148148143,10.34090000000596],[-0.19979166666666662,0.15055555555555547,10.355700000002969],[-0.1970833333333334,0.15703703703703695,10.372400000005953],[-0.1686458333333333,0.18370370370370379,10.391299999997017],[-0.14187500000000006,0.19611111111111107,10.407499999999999],[-0.11687500000000005,0.21444444444444435,10.426099999994037],[-0.0967708333333333,0.24314814814814806,10.441799999997016],[-0.08031250000000002,0.2794444444444444,10.459999999999994],[-0.05322916666666669,0.29907407407407405,10.476599999994036],[-0.03427083333333331,0.3346296296296297,10.493799999997009],[-0.03427083333333331,0.3346296296296297,10.50579999999701],[-0.027187500000000024,0.39166666666666666,10.522499999999994],[0.002916666666666619,0.4072222222222222,10.54379999999702],[0.04052083333333331,0.41796296296296304,10.5595],[0.04052083333333331,0.41796296296296304,10.572299999997014],[0.06072916666666662,0.4233333333333334,10.589099999994033],[0.07947916666666661,0.4292592592592592,10.605700000002969],[0.09572916666666677,0.4155555555555555,10.622299999997011],[0.11624999999999991,0.3846296296296297,10.642200000002973],[0.13677083333333329,0.3537037037037037,10.656900000005962],[0.13677083333333329,0.3537037037037037,10.67240000000595],[0.15343749999999995,0.3301851851851851,10.689299999997019],[0.16197916666666667,0.325,10.708599999994036],[0.18781249999999997,0.29444444444444445,10.725700000002973],[0.2015625,0.3020370370370371,10.74270000000297],[0.2087500000000001,0.31296296296296294,10.75790000000596],[0.20750000000000005,0.2855555555555556,10.77470000000298],[0.2015625,0.2627777777777777,10.793700000002971],[0.2015625,0.2627777777777777,10.805700000002972],[0.1929166666666667,0.2653703703703703,10.822400000005956],[0.1701041666666666,0.2833333333333333,10.84190000000595],[0.14729166666666677,0.3012962962962964,10.857],[0.1368750000000001,0.33055555555555555,10.876799999997019],[0.13312499999999997,0.34074074074074073,10.891999999999996],[0.13312499999999997,0.34074074074074073,10.90570000000298],[0.12572916666666673,0.3418518518518519,10.9225],[0.12000000000000005,0.3359259259259259,10.94120000000298],[0.0990624999999999,0.3512962962962964,10.959900000005959],[0.07270833333333329,0.39388888888888896,10.975599999994031],[0.04635416666666667,0.4364814814814816,10.989999999999995],[0.04708333333333338,0.4564814814814815,11.007999999999996],[0.06333333333333328,0.4674074074074074,11.024799999997015],[0.06333333333333328,0.4674074074074074,11.039000000000001],[0.07270833333333329,0.4596296296296297,11.055700000002972],[0.0696875000000001,0.44055555555555553,11.072299999997014],[0.06145833333333333,0.422037037037037,11.08999999999999],[0.04874999999999995,0.41944444444444445,11.105700000002969],[0.04354166666666662,0.4366666666666666,11.12709999999403],[0.04354166666666662,0.4366666666666666,11.138999999999996],[0.043020833333333286,0.43074074074074076,11.15570000000298],[0.043020833333333286,0.43074074074074076,11.17240000000595],[0.04802083333333336,0.42111111111111105,11.18920000000297],[0.059687499999999956,0.39592592592592585,11.21090000000595],[0.05333333333333338,0.372037037037037,11.22699999999999],[0.05333333333333338,0.372037037037037,11.23899999999999],[0.04635416666666667,0.3698148148148149,11.255700000002975],[0.05489583333333338,0.3794444444444444,11.272400000005959],[0.06343749999999998,0.3890740740740741,11.289000000000001],[0.08031249999999991,0.3831481481481481,11.307900000005958],[0.0953125,0.3755555555555555,11.322400000005956],[0.09854166666666657,0.36425925925925934,11.342200000002975],[0.11010416666666671,0.3587037037037038,11.35690000000595],[0.12614583333333323,0.3537037037037037,11.372799999997014],[0.13416666666666663,0.3616666666666666,11.391599999994028],[0.140625,0.36944444444444446,11.408799999997015],[0.1525000000000001,0.3507407407407407,11.426200000002979],[0.1482291666666666,0.33833333333333343,11.441999999999993],[0.14291666666666672,0.33203703703703696,11.460099999994029],[0.13552083333333323,0.3346296296296297,11.475599999994031],[0.13552083333333323,0.3346296296296297,11.48899999999999],[0.13031249999999991,0.342962962962963,11.505700000002975],[0.12374999999999996,0.3131481481481482,11.522400000005959],[0.11489583333333328,0.23925925925925934,11.539599999994039],[0.09395833333333338,0.22333333333333338,11.557400000005956],[0.07822916666666657,0.1933333333333333,11.572700000002982],[0.06124999999999995,0.1737037037037036,11.590999999999994],[0.03947916666666664,0.1727777777777777,11.60609999999403],[0.02520833333333338,0.17240740740740745,11.622299999997011],[-0.007604166666666619,0.16629629629629622,11.64240000000595],[-0.041458333333333285,0.16629629629629622,11.657700000002976],[-0.06041666666666667,0.17296296296296293,11.67459999999403],[-0.07302083333333335,0.19962962962962955,11.688999999999993],[-0.07770833333333335,0.24833333333333338,11.705599999994035],[-0.07239583333333334,0.23592592592592587,11.724799999997018],[-0.07229166666666664,0.23537037037037042,11.742200000002981],[-0.07229166666666664,0.23537037037037042,11.755900000005951],[-0.0704166666666667,0.23277777777777786,11.772499999999994],[-0.0828125,0.2205555555555556,11.789000000000001],[-0.08645833333333333,0.2198148148148149,11.80820000000297],[-0.065625,0.21722222222222215,11.824200000002975],[-0.04031250000000005,0.19000000000000003,11.841700000002973],[-0.030208333333333334,0.15203703703703708,11.857799999997013],[-0.02010416666666662,0.11407407407407412,11.87670000000297],[-0.009062500000000048,0.11333333333333341,11.891499999999994],[-0.000416666666666643,0.11518518518518527,11.907900000005952],[-0.0020833333333333333,0.10703703703703696,11.926400000005955],[0.004270833333333357,0.10388888888888893,11.94449999999999],[0.027083333333333334,0.10129629629629638,11.96029999999702],[0.027083333333333334,0.10129629629629638,11.972400000005962],[0.024687500000000046,0.09259259259259259,11.98899999999999],[0.021562500000000047,0.1037037037037037,12.006],[0.01395833333333331,0.13944444444444437,12.024799999997015],[0.01395833333333331,0.13944444444444437,12.039000000000001],[-0.0010416666666666667,0.16574074074074074,12.055700000002972],[-0.012083333333333357,0.20962962962962972,12.072400000005956],[-0.027499999999999976,0.23444444444444448,12.092200000002975],[-0.03333333333333333,0.24259259259259258,12.10799999999999],[-0.027499999999999976,0.2655555555555555,12.128799999997014],[-0.027499999999999976,0.2655555555555555,12.138999999999996],[-0.035625000000000046,0.2862962962962963