inst1_resp.keys,inst1_resp.rt,calibrationMouse.x,calibrationMouse.y,calibrationMouse.leftButton,calibrationMouse.midButton,calibrationMouse.rightButton,calibrationClick.x,calibrationClick.y,calibrationClick.leftButton,calibrationClick.midButton,calibrationClick.rightButton,trialsc.thisRepN,trialsc.thisTrialN,trialsc.thisN,trialsc.thisIndex,trialsc.ran,calibration_x,calibration_y,participant,session,date,expName,psychopyVersion,OS,frameRate,calibrationClick.clicked_name,ScreenRes_pixels,Camera_pixels,mouse_2.x,mouse_2.y,mouse_2.leftButton,mouse_2.midButton,mouse_2.rightButton,mouse_2.time,mouse_2.clicked_name,mouse.x,mouse.y,mouse.leftButton,mouse.midButton,mouse.rightButton,mouse.time,mouse.clicked_name,Choice,Trial,TrialDuration,MOUSE_GAZE,ET_GAZE,ET_GAZE_x_T,time,unixTime,ET_GAZE_NF,Loc_Option1_label,Loc_Option2_label,Loc_Cost_label,Loc_Qual_label,Loc_Option1_cost,Loc_Option2_cost,Loc_Option1_quality,Loc_Option2_quality,trials.thisRepN,trials.thisTrialN,trials.thisN,trials.thisIndex,trials.ran,Block,Device,cost1,qual1,cost2,qual2
space,1.8361,0.230208333,-0.307407407,1,0,0,0.220833333,-0.314814815,0,0,0,0,0,0,1,1,-0.67,-0.33,04,001,2024-12-04_12h02.16.039,Attention_exp_legacy,2023.1.0,Win32,60.24096386,,,,,,,,,,,,,,,,,,,,,,,,,,,,,,,,,,,,,,,,,,,,,
,,,,,,,0.225,-0.32037037,0,0,0,0,1,1,3,1,-0.67,0.33,04,001,2024-12-04_12h02.16.039,Attention_exp_legacy,2023.1.0,Win32,60.24096386,,,,,,,,,,,,,,,,,,,,,,,,,,,,,,,,,,,,,,,,,,,,,
,,,,,,,0.226041667,-0.325925926,0,0,0,0,2,2,9,1,0,-0.67,04,001,2024-12-04_12h02.16.039,Attention_exp_legacy,2023.1.0,Win32,60.24096386,,,,,,,,,,,,,,,,,,,,,,,,,,,,,,,,,,,,,,,,,,,,,
,,,,,,,-0.34375,-0.67962963,1,0,0,0,3,3,4,1,-0.33,-0.67,04,001,2024-12-04_12h02.16.039,Attention_exp_legacy,2023.1.0,Win32,60.24096386,,,,,,,,,,,,,,,,,,,,,,,,,,,,,,,,,,,,,,,,,,,,,
,,,,,,,0.688541667,-0.681481481,1,0,0,0,4,4,20,1,0.67,-0.67,04,001,2024-12-04_12h02.16.039,Attention_exp_legacy,2023.1.0,Win32,60.24096386,,,,,,,,,,,,,,,,,,,,,,,,,,,,,,,,,,,,,,,,,,,,,
,,,,,,,-0.01875,0.67962963,1,0,0,0,5,5,13,1,0,0.67,04,001,2024-12-04_12h02.16.039,Attention_exp_legacy,2023.1.0,Win32,60.24096386,,,,,,,,,,,,,,,,,,,,,,,,,,,,,,,,,,,,,,,,,,,,,
,,,,,,,-0.002083333,-0.3,1,0,0,0,6,6,10,1,0,-0.33,04,001,2024-12-04_12h02.16.039,Attention_exp_legacy,2023.1.0,Win32,60.24096386,,,,,,,,,,,,,,,,,,,,,,,,,,,,,,,,,,,,,,,,,,,,,
,,,,,,,0.659375,0.685185185,1,0,0,0,7,7,19,1,0.67,0.67,04,001,2024-12-04_12h02.16.039,Attention_exp_legacy,2023.1.0,Win32,60.24096386,,,,,,,,,,,,,,,,,,,,,,,,,,,,,,,,,,,,,,,,,,,,,
,,,,,,,0.336458333,-0.32962963,1,0,0,0,8,8,15,1,0.33,-0.33,04,001,2024-12-04_12h02.16.039,Attention_exp_legacy,2023.1.0,Win32,60.24096386,calibration_square,,,,,,,,,,,,,,,,,,,,,,,,,,,,,,,,,,,,,,,,,,,,
,,,,,,,-0.322916667,-0.32962963,1,0,0,0,9,9,5,1,-0.33,-0.33,04,001,2024-12-04_12h02.16.039,Attention_exp_legacy,2023.1.0,Win32,60.24096386,calibration_square,,,,,,,,,,,,,,,,,,,,,,,,,,,,,,,,,,,,,,,,,,,,
,,,,,,,-0.320833333,0.311111111,1,0,0,0,10,10,7,1,-0.33,0.33,04,001,2024-12-04_12h02.16.039,Attention_exp_legacy,2023.1.0,Win32,60.24096386,,,,,,,,,,,,,,,,,,,,,,,,,,,,,,,,,,,,,,,,,,,,,
,,,,,,,-0.322916667,0.001851852,1,0,0,0,11,11,6,1,-0.33,0,04,001,2024-12-04_12h02.16.039,Attention_exp_legacy,2023.1.0,Win32,60.24096386,calibration_square,,,,,,,,,,,,,,,,,,,,,,,,,,,,,,,,,,,,,,,,,,,,
,,,,,,,0.326041667,0.327777778,1,0,0,0,12,12,17,1,0.33,0.33,04,001,2024-12-04_12h02.16.039,Attention_exp_legacy,2023.1.0,Win32,60.24096386,calibration_square,,,,,,,,,,,,,,,,,,,,,,,,,,,,,,,,,,,,,,,,,,,,
,,,,,,,-0.004166667,0.335185185,1,0,0,0,13,13,12,1,0,0.33,04,001,2024-12-04_12h02.16.039,Attention_exp_legacy,2023.1.0,Win32,60.24096386,calibration_square,,,,,,,,,,,,,,,,,,,,,,,,,,,,,,,,,,,,,,,,,,,,
,,,,,,,0.3375,-0.668518519,1,0,0,0,14,14,14,1,0.33,-0.67,04,001,2024-12-04_12h02.16.039,Attention_exp_legacy,2023.1.0,Win32,60.24096386,calibration_square,,,,,,,,,,,,,,,,,,,,,,,,,,,,,,,,,,,,,,,,,,,,
,,,,,,,-0.675,-0.67037037,1,0,0,0,15,15,0,1,-0.67,-0.67,04,001,2024-12-04_12h02.16.039,Attention_exp_legacy,2023.1.0,Win32,60.24096386,calibration_square,,,,,,,,,,,,,,,,,,,,,,,,,,,,,,,,,,,,,,,,,,,,
,,,,,,,-0.327083333,0.675925926,1,0,0,0,16,16,8,1,-0.33,0.67,04,001,2024-12-04_12h02.16.039,Attention_exp_legacy,2023.1.0,Win32,60.24096386,calibration_square,,,,,,,,,,,,,,,,,,,,,,,,,,,,,,,,,,,,,,,,,,,,
,,,,,,,0.314583333,0.666666667,1,0,0,0,17,17,18,1,0.33,0.67,04,001,2024-12-04_12h02.16.039,Attention_exp_legacy,2023.1.0,Win32,60.24096386,,,,,,,,,,,,,,,,,,,,,,,,,,,,,,,,,,,,,,,,,,,,,
,,,,,,,0.328125,-0.007407407,1,0,0,0,18,18,16,1,0.33,0,04,001,2024-12-04_12h02.16.039,Attention_exp_legacy,2023.1.0,Win32,60.24096386,calibration_square,,,,,,,,,,,,,,,,,,,,,,,,,,,,,,,,,,,,,,,,,,,,
,,,,,,,-0.673958333,0.001851852,1,0,0,0,19,19,2,1,-0.67,0,04,001,2024-12-04_12h02.16.039,Attention_exp_legacy,2023.1.0,Win32,60.24096386,calibration_square,,,,,,,,,,,,,,,,,,,,,,,,,,,,,,,,,,,,,,,,,,,,
,,,,,,,-0.0125,0.012962963,1,0,0,0,20,20,11,1,0,0,04,001,2024-12-04_12h02.16.039,Attention_exp_legacy,2023.1.0,Win32,60.24096386,,,,,,,,,,,,,,,,,,,,,,,,,,,,,,,,,,,,,,,,,,,,,
,,,,,,,,,,,,,,,,,,,04,001,2024-12-04_12h02.16.039,Attention_exp_legacy,2023.1.0,Win32,60.24096386,,"[1920,1080]","[640,480]",[0.028125],[-0.512962962962963],[1],[0],[0],[1.030200000002985],"[""StartButton""]","[0.05,-0.0125]","[-0.12222222222222222,0.32222222222222224]","[1,1]","[0,0]","[0,0]","[2.9806000000014876,4.511800000004463]","[""Option1_label""]",Option1_label,1,5.5364,"[[0.0010416666666666667,-0.37777777777777777],[0.0010416666666666667,-0.37777777777777777],[0.0010416666666666667,-0.37777777777777777],[0.0010416666666666667,-0.37777777777777777],[0.0010416666666666667,-0.37777777777777777],[0.0010416666666666667,-0.37777777777777777],[0.0010416666666666667,-0.37777777777777777],[0.0010416666666666667,-0.37777777777777777],[0.0010416666666666667,-0.37777777777777777],[0.0010416666666666667,-0.37777777777777777],[0.0010416666666666667,-0.37777777777777777],[0.0010416666666666667,-0.37777777777777777],[0.0010416666666666667,-0.37777777777777777],[0.0010416666666666667,-0.37777777777777777],[0.0010416666666666667,-0.37777777777777777],[0.0010416666666666667,-0.37777777777777777],[0.0010416666666666667,-0.37777777777777777],[0.0010416666666666667,-0.37777777777777777],[0.0010416666666666667,-0.37777777777777777],[0.0010416666666666667,-0.37777777777777777],[0.0010416666666666667,-0.37777777777777777],[0.0010416666666666667,-0.37777777777777777],[0.0010416666666666667,-0.37777777777777777],[0.0010416666666666667,-0.37777777777777777],[0.0010416666666666667,-0.37777777777777777],[0.0010416666666666667,-0.37777777777777777],[0.0010416666666666667,-0.37777777777777777],[0.0010416666666666667,-0.37777777777777777],[0.0010416666666666667,-0.37777777777777777],[0.0010416666666666667,-0.37777777777777777],[0.0010416666666666667,-0.37777777777777777],[0.0010416666666666667,-0.37777777777777777],[0.0010416666666666667,-0.37777777777777777],[0.0010416666666666667,-0.37777777777777777],[0.0010416666666666667,-0.37777777777777777],[0.0010416666666666667,-0.37777777777777777],[0.0010416666666666667,-0.37777777777777777],[0.0010416666666666667,-0.37777777777777777],[0.0010416666666666667,-0.37777777777777777],[0.0010416666666666667,-0.37777777777777777],[0.0010416666666666667,-0.37777777777777777],[0.0010416666666666667,-0.37777777777777777],[0.0010416666666666667,-0.37777777777777777],[0.0010416666666666667,-0.37777777777777777],[0.0010416666666666667,-0.37777777777777777],[0.0010416666666666667,-0.37777777777777777],[0.0010416666666666667,-0.37777777777777777],[0.0010416666666666667,-0.37777777777777777],[0.0010416666666666667,-0.37777777777777777],[0.0010416666666666667,-0.37777777777777777],[0.0010416666666666667,-0.37777777777777777],[0.0010416666666666667,-0.37777777777777777],[0.0010416666666666667,-0.37777777777777777],[0.0010416666666666667,-0.37777777777777777],[0.0010416666666666667,-0.37777777777777777],[0.0010416666666666667,-0.37777777777777777],[0.0010416666666666667,-0.37777777777777777],[0.0010416666666666667,-0.37777777777777777],[0.0010416666666666667,-0.37777777777777777],[0.0010416666666666667,-0.37777777777777777],[0.0010416666666666667,-0.37777777777777777],[0.0010416666666666667,-0.37777777777777777],[0.0010416666666666667,-0.37777777777777777],[0.0010416666666666667,-0.37777777777777777],[0.0010416666666666667,-0.37777777777777777],[0.0010416666666666667,-0.37777777777777777],[0.0010416666666666667,-0.37777777777777777],[0.0010416666666666667,-0.37777777777777777],[0.0010416666666666667,-0.37777777777777777],[0.0010416666666666667,-0.37777777777777777],[0.0010416666666666667,-0.37777777777777777],[0.0010416666666666667,-0.37777777777777777],[0.0010416666666666667,-0.37777777777777777],[0.0010416666666666667,-0.37777777777777777],[0.0010416666666666667,-0.37777777777777777],[0.0010416666666666667,-0.37777777777777777],[0.0010416666666666667,-0.37777777777777777],[0.0010416666666666667,-0.37777777777777777],[0.0010416666666666667,-0.37777777777777777],[0.0010416666666666667,-0.37777777777777777],[0.0010416666666666667,-0.37777777777777777],[0.0010416666666666667,-0.37777777777777777],[0.0010416666666666667,-0.37777777777777777],[0.0010416666666666667,-0.37777777777777777],[0.0010416666666666667,-0.37777777777777777],[0.0010416666666666667,-0.37777777777777777],[0.0010416666666666667,-0.37777777777777777],[0.0010416666666666667,-0.37777777777777777],[0.0010416666666666667,-0.37777777777777777],[0.0010416666666666667,-0.37777777777777777],[0.0010416666666666667,-0.37777777777777777],[0.0010416666666666667,-0.37777777777777777],[0.0010416666666666667,-0.37777777777777777],[0.0010416666666666667,-0.37777777777777777],[0.0010416666666666667,-0.37777777777777777],[0.0010416666666666667,-0.37777777777777777],[0.0010416666666666667,-0.37777777777777777],[0.0010416666666666667,-0.37777777777777777],[0.0010416666666666667,-0.37777777777777777],[0.0010416666666666667,-0.37777777777777777],[0.0010416666666666667,-0.37777777777777777],[0.0010416666666666667,-0.37777777777777777],[0.0010416666666666667,-0.37777777777777777],[0.0010416666666666667,-0.37777777777777777],[0.0010416666666666667,-0.37777777777777777],[0.0010416666666666667,-0.37777777777777777],[0.0010416666666666667,-0.37777777777777777],[0.0010416666666666667,-0.37777777777777777],[0.004166666666666667,-0.37222222222222223],[0.004166666666666667,-0.37407407407407406],[0.004166666666666667,-0.37222222222222223],[0.004166666666666667,-0.37222222222222223],[0.004166666666666667,-0.37222222222222223],[0.004166666666666667,-0.37222222222222223],[0.004166666666666667,-0.37222222222222223],[0.004166666666666667,-0.37222222222222223],[0.004166666666666667,-0.37222222222222223],[0.004166666666666667,-0.37222222222222223],[0.004166666666666667,-0.37222222222222223],[0.004166666666666667,-0.37222222222222223],[0.004166666666666667,-0.37222222222222223],[0.004166666666666667,-0.37222222222222223],[0.004166666666666667,-0.37222222222222223],[0.004166666666666667,-0.37222222222222223],[0.004166666666666667,-0.37222222222222223],[0.004166666666666667,-0.37222222222222223],[0.004166666666666667,-0.37222222222222223],[0.00625,-0.36666666666666664],[0.00625,-0.36666666666666664],[0.004166666666666667,-0.35],[0.004166666666666667,-0.34814814814814815],[0.0010416666666666667,-0.3111111111111111],[0.010416666666666666,-0.3111111111111111],[0.010416666666666666,-0.3111111111111111],[0.010416666666666666,-0.3111111111111111],[0.008333333333333333,-0.2759259259259259],[0.008333333333333333,-0.2759259259259259],[0.014583333333333334,-0.26851851851851855],[0.014583333333333334,-0.26851851851851855],[0.014583333333333334,-0.26296296296296295],[0.015625,-0.25555555555555554],[0.01875,-0.24074074074074073],[0.017708333333333333,-0.2388888888888889],[0.020833333333333332,-0.22037037037037038],[0.020833333333333332,-0.22037037037037038],[0.020833333333333332,-0.21851851851851853],[0.022916666666666665,-0.20925925925925926],[0.022916666666666665,-0.19814814814814816],[0.022916666666666665,-0.19814814814814816],[0.022916666666666665,-0.19814814814814816],[0.022916666666666665,-0.19814814814814816],[0.022916666666666665,-0.19814814814814816],[0.022916666666666665,-0.19814814814814816],[0.020833333333333332,-0.17592592592592593],[0.023958333333333335,-0.17037037037037037],[0.027083333333333334,-0.15555555555555556],[0.034375,-0.1259259259259259],[0.034375,-0.1259259259259259],[0.034375,-0.11851851851851852],[0.034375,-0.1111111111111111],[0.034375,-0.1111111111111111],[0.034375,-0.1111111111111111],[0.034375,-0.1037037037037037],[0.034375,-0.1037037037037037],[0.034375,-0.1],[0.05416666666666667,-0.13518518518518519],[0.05520833333333333,-0.12962962962962962],[0.04895833333333333,-0.12222222222222222],[0.04895833333333333,-0.12222222222222222],[0.05,-0.12222222222222222],[0.05,-0.12222222222222222],[0.05,-0.12222222222222222],[0.05,-0.12222222222222222],[0.05,-0.12222222222222222],[0.05,-0.12222222222222222],[0.05,-0.12222222222222222],[0.05,-0.12222222222222222],[0.05,-0.12222222222222222],[0.05,-0.12222222222222222],[0.051041666666666666,-0.12222222222222222],[0.051041666666666666,-0.12222222222222222],[0.052083333333333336,-0.12222222222222222],[0.05416666666666667,-0.11666666666666667],[0.05520833333333333,-0.1037037037037037],[0.05520833333333333,-0.1037037037037037],[0.057291666666666664,-0.11296296296296296],[0.057291666666666664,-0.11296296296296296],[0.052083333333333336,-0.11666666666666667],[0.052083333333333336,-0.11666666666666667],[0.053125,-0.11851851851851852],[0.053125,-0.12037037037037036],[0.053125,-0.12037037037037036],[0.053125,-0.12037037037037036],[0.053125,-0.12037037037037036],[0.053125,-0.12037037037037036],[0.053125,-0.12037037037037036],[0.053125,-0.12037037037037036],[0.053125,-0.12037037037037036],[0.05416666666666667,-0.12037037037037036],[0.053125,-0.12037037037037036],[0.05,-0.12037037037037036],[0.05,-0.12037037037037036],[0.04583333333333333,-0.12037037037037036],[0.04583333333333333,-0.12037037037037036],[0.04583333333333333,-0.12037037037037036],[0.041666666666666664,-0.11296296296296296],[0.041666666666666664,-0.11296296296296296],[0.041666666666666664,-0.11296296296296296],[0.041666666666666664,-0.11296296296296296],[0.041666666666666664,-0.11296296296296296],[0.041666666666666664,-0.11296296296296296],[0.041666666666666664,-0.11296296296296296],[0.041666666666666664,-0.11296296296296296],[0.041666666666666664,-0.11296296296296296],[0.041666666666666664,-0.11296296296296296],[0.041666666666666664,-0.11296296296296296],[0.041666666666666664,-0.11296296296296296],[0.041666666666666664,-0.11296296296296296],[0.041666666666666664,-0.11296296296296296],[0.041666666666666664,-0.11296296296296296],[0.041666666666666664,-0.11296296296296296],[0.041666666666666664,-0.11296296296296296],[0.041666666666666664,-0.11296296296296296],[0.041666666666666664,-0.11296296296296296],[0.041666666666666664,-0.11296296296296296],[0.041666666666666664,-0.11296296296296296],[0.00625,-0.08333333333333333],[0.007291666666666667,-0.06851851851851852],[0.0020833333333333333,0.009259259259259259],[-0.003125,0.05740740740740741],[-0.03958333333333333,0.29814814814814816],[-0.06770833333333333,0.4685185185185185],[-0.10104166666666667,0.7018518518518518],[-0.10625,0.7648148148148148],[-0.10833333333333334,0.9],[-0.10729166666666666,0.9333333333333333],[-0.10520833333333333,0.9740740740740741],[-0.10520833333333333,0.9740740740740741],[-0.10520833333333333,0.9740740740740741],[-0.10520833333333333,0.9740740740740741],[-0.10520833333333333,0.9740740740740741],[-0.10520833333333333,0.9740740740740741],[-0.10520833333333333,0.9740740740740741],[-0.10520833333333333,0.9740740740740741],[-0.08020833333333334,0.9333333333333333],[-0.065625,0.8925925925925926],[-0.053125,0.8537037037037037],[-0.042708333333333334,0.8111111111111111],[-0.035416666666666666,0.7555555555555555],[-0.029166666666666667,0.6981481481481482],[-0.027083333333333334,0.6481481481481481],[-0.025,0.6092592592592593],[-0.025,0.5814814814814815],[-0.023958333333333335,0.5537037037037037],[-0.022916666666666665,0.524074074074074],[-0.022916666666666665,0.48518518518518516],[-0.022916666666666665,0.45],[-0.022916666666666665,0.4222222222222222],[-0.022916666666666665,0.4185185185185185],[-0.019791666666666666,0.40555555555555556],[-0.017708333333333333,0.3814814814814815],[-0.014583333333333334,0.34444444444444444],[-0.0125,0.31666666666666665],[-0.0125,0.31296296296296294],[-0.0125,0.31296296296296294],[-0.0125,0.31296296296296294],[-0.0125,0.3148148148148148],[-0.0125,0.32037037037037036],[-0.0125,0.32222222222222224],[-0.0125,0.32222222222222224],[-0.0125,0.32222222222222224],[-0.0125,0.32222222222222224],[-0.0125,0.32222222222222224],[-0.011458333333333333,0.32407407407407407],[-0.011458333333333333,0.32407407407407407],[-0.011458333333333333,0.32407407407407407],[-0.011458333333333333,0.32407407407407407],[-0.011458333333333333,0.32407407407407407],[-0.011458333333333333,0.32407407407407407],[-0.011458333333333333,0.32407407407407407],[-0.011458333333333333,0.32407407407407407],[-0.011458333333333333,0.32407407407407407],[-0.011458333333333333,0.32407407407407407],[-0.011458333333333333,0.32407407407407407],[-0.011458333333333333,0.32407407407407407],[-0.011458333333333333,0.32407407407407407],[-0.011458333333333333,0.32407407407407407],[-0.011458333333333333,0.32407407407407407],[-0.011458333333333333,0.32407407407407407],[-0.011458333333333333,0.32407407407407407],[-0.011458333333333333,0.32407407407407407],[-0.011458333333333333,0.32407407407407407],[-0.011458333333333333,0.32407407407407407],[-0.011458333333333333,0.32407407407407407],[-0.011458333333333333,0.32407407407407407],[-0.011458333333333333,0.32407407407407407],[-0.011458333333333333,0.32407407407407407],[-0.011458333333333333,0.32407407407407407],[-0.011458333333333333,0.32407407407407407],[-0.011458333333333333,0.32407407407407407],[-0.008333333333333333,0.32222222222222224],[-0.00625,0.30925925925925923],[-0.0010416666666666667,0.29074074074074074],[0.005208333333333333,0.26296296296296295],[0.014583333333333334,0.22777777777777777],[0.020833333333333332,0.2],[0.026041666666666668,0.17407407407407408],[0.030208333333333334,0.14629629629629629],[0.03125,0.13333333333333333],[0.03333333333333333,0.12407407407407407],[0.03333333333333333,0.12037037037037036],[0.034375,0.12037037037037036],[0.034375,0.12037037037037036],[0.034375,0.12037037037037036],[0.034375,0.12037037037037036],[0.034375,0.12037037037037036],[0.034375,0.12037037037037036],[0.034375,0.12037037037037036],[0.034375,0.12037037037037036],[0.034375,0.12037037037037036],[0.034375,0.12037037037037036],[0.034375,0.12037037037037036],[0.034375,0.12037037037037036],[0.034375,0.12037037037037036],[0.034375,0.12777777777777777],[0.034375,0.1388888888888889],[0.03229166666666667,0.15555555555555556],[0.028125,0.18703703703703703],[0.022916666666666665,0.22407407407407406],[0.017708333333333333,0.2611111111111111],[0.011458333333333333,0.2962962962962963]]","[[0.0978125000000001,0.40037037037037043],[0.0978125000000001,0.40037037037037043],[0.10895833333333324,0.368888888888889],[0.10947916666666657,0.3768518518518518],[0.10947916666666657,0.3768518518518518],[0.08156249999999995,0.43129629629629623],[0.04791666666666667,0.4264814814814814],[0.04239583333333338,0.41648148148148145],[0.04614583333333329,0.38203703703703695],[0.013125000000000024,0.38981481481481484],[-0.0016666666666666904,0.37592592592592594],[-0.0067708333333333336,0.3911111111111112],[-0.018333333333333358,0.3883333333333334],[-0.02322916666666662,0.41277777777777774],[-0.017499999999999953,0.3977777777777777],[-0.001145833333333357,0.3446296296296297],[0.04354166666666662,0.33796296296296297],[0.060104166666666715,0.33648148148148155],[0.060104166666666715,0.33648148148148155],[0.10041666666666677,0.3359259259259259],[0.13010416666666677,0.3274074074074073],[0.12062499999999995,0.34666666666666673],[0.15499999999999994,0.32314814814814813],[0.18291666666666656,0.2853703703703704],[0.19989583333333344,0.27240740740740743],[0.21197916666666666,0.259074074074074],[0.22520833333333337,0.24814814814814815],[0.23968749999999991,0.26074074074074066],[0.25416666666666665,0.2733333333333334],[0.2423958333333334,0.2735185185185186],[0.2621875000000001,0.2742592592592593],[0.3081249999999999,0.2624074074074075],[0.32302083333333326,0.24944444444444452],[0.3296875,0.19814814814814816],[0.31885416666666655,0.11870370370370374],[0.3631249999999999,0.07462962962962955],[0.40739583333333323,0.030555555555555555],[0.3991666666666667,-0.019999999999999917],[0.4021874999999999,-0.08537037037037042],[0.3945833333333333,-0.12888888888888894],[0.41124999999999995,-0.19148148148148145],[0.4039583333333333,-0.2531481481481481],[0.3338541666666667,-0.24648148148148152],[0.3051041666666668,-0.22388888888888886],[0.26322916666666674,-0.18518518518518517],[0.17114583333333327,-0.1814814814814815],[0.09968750000000005,-0.19166666666666668],[0.08104166666666662,-0.19537037037037036],[0.04500000000000005,-0.1896296296296296],[0.007187499999999976,-0.20166666666666663],[-0.04364583333333331,-0.18740740740740738],[-0.08218749999999998,-0.14777777777777779],[-0.03927083333333338,-0.15629629629629627],[-0.06302083333333333,-0.1479629629629629],[-0.057395833333333354,-0.14944444444444444],[-0.049270833333333285,-0.15481481481481485],[-0.065625,-0.10981481481481484],[-0.10291666666666661,-0.13518518518518519],[-0.13156249999999994,-0.12129629629629629],[-0.14229166666666668,-0.12925925925925927],[-0.17260416666666673,-0.12888888888888894],[-0.18062499999999998,-0.18185185185185182],[-0.20125000000000004,-0.21592592592592597],[-0.1811458333333333,-0.22777777777777777],[-0.20645833333333338,-0.2212962962962963],[-0.20843750000000003,-0.23074074074074077],[-0.22875000000000004,-0.2753703703703704],[-0.22687499999999997,-0.28111111111111114],[-0.18322916666666664,-0.27148148148148155],[-0.1326041666666666,-0.2505555555555556],[-0.12250000000000003,-0.2611111111111111],[-0.1328125,-0.23185185185185184],[-0.1328125,-0.23185185185185184],[-0.12239583333333333,-0.23203703703703707],[-0.12239583333333333,-0.23203703703703707],[-0.11802083333333328,-0.21648148148148144],[-0.09510416666666661,-0.22777777777777777],[-0.0328125,-0.23481481481481484],[0.03302083333333338,-0.2207407407407407],[0.07760416666666667,-0.18055555555555555],[0.07791666666666662,-0.1896296296296296],[0.06895833333333339,-0.1514814814814815],[0.11833333333333323,-0.0794444444444444],[0.14802083333333324,-0.06129629629629634],[0.19989583333333344,-0.03425925925925926],[0.23041666666666671,-0.009444444444444486],[0.27541666666666675,0.012592592592592508],[0.2513541666666666,0.0551851851851851],[0.22947916666666662,0.06481481481481481],[0.2271874999999999,0.045740740740740825],[0.22854166666666675,0.048333333333333374],[0.21395833333333342,-0.0003703703703704546],[0.18322916666666675,-0.0735185185185185],[0.1640625,-0.059814814814814835],[0.11145833333333334,-0.07759259259259255],[0.09520833333333342,-0.09037037037037039],[0.0821875000000001,-0.10055555555555558],[0.07197916666666657,-0.09740740740740746],[0.07822916666666657,-0.08370370370370368],[0.06104166666666669,-0.07000000000000002],[0.01729166666666669,-0.06314814814814819],[0.0171875,-0.024629629629629547],[0.03166666666666664,0.018148148148148063],[0.03572916666666662,-0.003333333333333249],[0.042916666666666714,0.008333333333333333],[0.01739583333333338,0.024629629629629547],[0.01739583333333338,0.024629629629629547],[-0.018437500000000048,0.04537037037037037],[-0.042499999999999954,0.045740740740740825],[-0.05583333333333336,0.07296296296296292],[-0.05947916666666669,0.13037037037037033],[-0.05947916666666669,0.13037037037037033],[-0.05947916666666669,0.13037037037037033],[-0.04020833333333336,0.17296296296296293],[-0.04020833333333336,0.17296296296296293],[-0.03802083333333333,0.2],[-0.03802083333333333,0.2],[-0.03104166666666662,0.23722222222222225],[-0.03104166666666662,0.23722222222222225],[-0.03104166666666662,0.23722222222222225],[-0.04718749999999995,0.2803703703703703],[-0.04718749999999995,0.2803703703703703],[-0.049479166666666664,0.3133333333333334],[-0.049479166666666664,0.3133333333333334],[-0.049479166666666664,0.3133333333333334],[-0.06458333333333334,0.32444444444444454],[-0.06458333333333334,0.32444444444444454],[-0.06541666666666662,0.368888888888889],[-0.06541666666666662,0.368888888888889],[-0.05291666666666662,0.3761111111111112],[-0.05291666666666662,0.3761111111111112],[-0.0484375,0.3507407407407407],[-0.0484375,0.3507407407407407],[0.0007291666666667141,0.32611111111111113],[0.0007291666666667141,0.32611111111111113],[0.04989583333333331,0.3014814814814814],[0.04989583333333331,0.3014814814814814],[0.05135416666666662,0.29685185185185176],[0.05135416666666662,0.29685185185185176],[0.04802083333333336,0.282037037037037],[0.04802083333333336,0.282037037037037],[0.05458333333333331,0.2711111111111111],[0.05458333333333331,0.2711111111111111],[0.058749999999999976,0.2774074074074073],[0.058749999999999976,0.2774074074074073],[0.058749999999999976,0.2774074074074073],[0.058749999999999976,0.2774074074074073],[0.11375000000000005,0.2755555555555555],[0.11375000000000005,0.2755555555555555],[0.11375000000000005,0.2755555555555555],[0.11375000000000005,0.2755555555555555],[0.11552083333333343,0.2737037037037036],[0.11552083333333343,0.2737037037037036],[0.11635416666666672,0.293888888888889],[0.11635416666666672,0.293888888888889],[0.11635416666666672,0.293888888888889],[0.11635416666666672,0.293888888888889],[0.1430208333333333,0.3103703703703704],[0.1430208333333333,0.3103703703703704],[0.10291666666666661,0.3111111111111111],[0.10291666666666661,0.3111111111111111],[0.10291666666666661,0.3111111111111111],[0.10291666666666661,0.3111111111111111],[0.07739583333333329,0.24592592592592585],[0.07739583333333329,0.24592592592592585],[0.07739583333333329,0.22277777777777769],[0.07739583333333329,0.22277777777777769],[0.06437499999999995,0.16925925925925922],[0.06437499999999995,0.16925925925925922],[0.10802083333333339,0.1742592592592593],[0.10802083333333339,0.1742592592592593],[0.09500000000000004,0.16129629629629633],[0.09500000000000004,0.16129629629629633],[0.07635416666666663,0.15685185185185194],[0.07635416666666663,0.15685185185185194],[0.09468750000000009,0.13185185185185194],[0.09468750000000009,0.13185185185185194],[0.09468750000000009,0.13185185185185194],[0.09468750000000009,0.13185185185185194],[0.09468750000000009,0.13185185185185194],[0.09468750000000009,0.13185185185185194],[0.09468750000000009,0.13185185185185194],[0.09468750000000009,0.13185185185185194],[0.1,0.11666666666666667],[0.1,0.11666666666666667],[0.06229166666666662,0.14518518518518514],[0.06229166666666662,0.14518518518518514],[0.036562500000000026,0.1581481481481481],[0.036562500000000026,0.1581481481481481],[0.028854166666666715,0.24351851851851852],[0.028854166666666715,0.24351851851851852],[0.028854166666666715,0.24351851851851852],[0.028854166666666715,0.24351851851851852],[0.028854166666666715,0.24351851851851852],[0.028854166666666715,0.24351851851851852],[0.028854166666666715,0.24351851851851852],[0.028854166666666715,0.24351851851851852],[0.028854166666666715,0.24351851851851852],[0.01260416666666669,0.2716666666666668],[0.01260416666666669,0.2716666666666668],[0.01260416666666669,0.2716666666666668],[0.01260416666666669,0.2716666666666668],[-0.0037500000000000237,0.30055555555555546],[-0.0037500000000000237,0.30055555555555546],[-0.0037500000000000237,0.30055555555555546],[-0.0037500000000000237,0.30055555555555546],[-0.06489583333333329,0.28481481481481474],[-0.06489583333333329,0.28481481481481474],[-0.04385416666666669,0.28777777777777774],[-0.04385416666666669,0.28777777777777774],[-0.04385416666666669,0.28777777777777774],[-0.04385416666666669,0.28777777777777774],[-0.02312500000000005,0.2566666666666667],[-0.02312500000000005,0.2566666666666667],[-0.014895833333333285,0.23111111111111102],[-0.014895833333333285,0.23111111111111102],[-0.014895833333333285,0.23111111111111102],[-0.014895833333333285,0.23111111111111102],[-0.004062499999999977,0.19074074074074074],[-0.004062499999999977,0.19074074074074074],[-0.00458333333333331,0.15611111111111103],[-0.00458333333333331,0.15611111111111103],[-0.00458333333333331,0.15611111111111103],[-0.00458333333333331,0.15611111111111103],[0.018437500000000048,0.14907407407407408],[0.018437500000000048,0.14907407407407408],[0.01416666666666669,0.13629629629629633],[0.01416666666666669,0.13629629629629633],[0.0046875,0.08574074074074066],[0.0046875,0.08574074074074066],[0.06104166666666669,0.08425925925925926],[0.06104166666666669,0.08425925925925926],[0.07937500000000004,0.04092592592592597],[0.07937500000000004,0.04092592592592597],[0.06114583333333338,0.0242592592592593],[0.06114583333333338,0.0242592592592593],[0.04677083333333331,0.06351851851851843],[0.04677083333333331,0.06351851851851843],[0.0578125,0.11037037037037041],[0.0578125,0.11037037037037041],[0.04760416666666671,0.11592592592592597],[0.04760416666666671,0.11592592592592597],[0.04874999999999995,0.052407407407407326],[0.04874999999999995,0.052407407407407326],[0.0515625,-0.03814814814814819],[0.0515625,-0.03814814814814819],[0.01593749999999995,-0.16277777777777774],[0.01593749999999995,-0.16277777777777774],[0.0048958333333333805,-0.2485185185185185],[0.0048958333333333805,-0.2485185185185185],[-0.019270833333333334,-0.2903703703703704],[-0.019270833333333334,-0.2903703703703704],[-0.030520833333333285,-0.3218518518518519],[-0.030520833333333285,-0.3218518518518519],[-0.034166666666666616,-0.3424074074074074],[-0.034166666666666616,-0.3424074074074074],[-0.02958333333333331,-0.47537037037037033],[-0.03864583333333336,-0.529074074074074],[-0.03864583333333336,-0.529074074074074],[-0.04593750000000003,-0.6096296296296296],[-0.04593750000000003,-0.6096296296296296],[-0.04479166666666667,-0.6327777777777778],[-0.04479166666666667,-0.6327777777777778],[-0.044166666666666646,-0.6164814814814814],[-0.030624999999999975,-0.5748148148148148],[-0.030624999999999975,-0.5748148148148148],[-0.028541666666666642,-0.5362962962962964],[-0.028541666666666642,-0.5362962962962964],[-0.03093750000000005,-0.5690740740740741],[0.011458333333333333,-0.5559259259259259],[0.019166666666666644,-0.6014814814814815],[0.019583333333333286,-0.5835185185185185],[0.025729166666666713,-0.6755555555555556],[0.03864583333333336,-0.6772222222222222],[0.04802083333333336,-0.6455555555555555],[0.026979166666666644,-0.667037037037037],[0.021041666666666715,-0.6596296296296296],[0.027708333333333356,-0.6594444444444445],[-0.0018749999999999527,-0.640925925925926],[-0.011562500000000024,-0.6259259259259259],[0.005416666666666714,-0.5975925925925926],[-0.02833333333333338,-0.5687037037037037],[-0.06187499999999998,-0.5370370370370371],[-0.06187499999999998,-0.5370370370370371],[-0.06583333333333338,-0.5214814814814815],[-0.0875,-0.5803703703703703],[-0.06645833333333329,-0.549074074074074],[-0.04031250000000005,-0.5387037037037037],[-0.01854166666666662,-0.5007407407407407],[-0.00302083333333331,-0.5114814814814814],[0.005416666666666714,-0.5231481481481481],[-0.001979166666666643,-0.5338888888888889],[0.0007291666666667141,-0.5357407407407407],[0.035312499999999976,-0.5355555555555556],[0.051979166666666646,-0.48277777777777775],[0.09427083333333333,-0.4272222222222222],[0.10083333333333329,-0.3811111111111111],[0.08947916666666676,-0.31851851851851853],[0.08958333333333333,-0.24833333333333338],[0.08166666666666676,-0.16814814814814816],[0.07374999999999995,-0.09185185185185189],[0.06458333333333334,-0.07796296296296301],[0.0821875000000001,-0.05055555555555547],[0.07833333333333338,0.025],[0.06229166666666662,0.06407407407407412],[0.0678124999999999,0.07518518518518523],[0.058541666666666714,0.06129629629629634],[0.08895833333333343,0.03814814814814819],[0.1134375000000001,-0.027037037037037078],[0.15177083333333338,-0.05055555555555547],[0.14729166666666677,-0.1007407407407407],[0.15145833333333342,-0.08074074074074078],[0.14427083333333332,-0.04870370370370362],[0.12135416666666667,-0.09537037037037037],[0.09166666666666666,-0.13648148148148145],[0.0421875,-0.14740740740740746],[0.03864583333333336,-0.15092592592592594],[0.007291666666666667,-0.16962962962962966],[-0.014479166666666644,-0.1814814814814815],[-0.046875,-0.20481481481481487],[-0.04989583333333331,-0.1940740740740741],[-0.044479166666666715,-0.192037037037037],[-0.06229166666666662,-0.18833333333333332],[-0.06124999999999995,-0.16833333333333328],[-0.03916666666666669,-0.15777777777777777],[-0.011354166666666643,-0.14000000000000004],[-0.009791666666666643,-0.1412962962962963],[-0.03937499999999995,-0.11870370370370374],[-0.07093750000000003,-0.10259259259259255],[-0.07093750000000003,-0.10259259259259255],[-0.059062500000000046,-0.06425925925925924]]","[[0.0978125000000001,0.40037037037037043,0.00029999999701857405],[0.0978125000000001,0.40037037037037043,0.04119999999552704],[0.10895833333333324,0.368888888888889,0.05299999999999727],[0.10947916666666657,0.3768518518518518,0.07469999999552357],[0.10947916666666657,0.3768518518518518,0.08619999999552874],[0.08156249999999995,0.43129629629629623,0.10299999999999443],[0.04791666666666667,0.4264814814814814,0.11960000000148341],[0.04239583333333338,0.41648148148148145,0.13629999999701425],[0.04614583333333329,0.38203703703703695,0.15289999999850323],[0.013125000000000024,0.38981481481481484,0.16960000000148767],[-0.0016666666666666904,0.37592592592592594,0.18619999999552306],[-0.0067708333333333336,0.3911111111111112,0.2028999999985075],[-0.018333333333333358,0.3883333333333334,0.22019999999552908],[-0.02322916666666662,0.41277777777777774,0.23629999999701568],[-0.017499999999999953,0.3977777777777777,0.25289999999850465],[-0.001145833333333357,0.3446296296296297,0.2696000000014891],[0.04354166666666662,0.33796296296296297,0.2861999999955245],[0.060104166666666715,0.33648148148148155,0.3028999999985089],[0.060104166666666715,0.33648148148148155,0.31960000000148625],[0.10041666666666677,0.3359259259259259,0.3362999999970171],[0.13010416666666677,0.3274074074074073,0.3528999999985061],[0.12062499999999995,0.34666666666666673,0.3696000000014834],[0.15499999999999994,0.32314814814814813,0.38629999999701425],[0.18291666666666656,0.2853703703703704,0.40379999999701965],[0.19989583333333344,0.27240740740740743,0.42039999999850863],[0.21197916666666666,0.259074074074074,0.43919999999552317],[0.22520833333333337,0.24814814814814815,0.45319999999552607],[0.23968749999999991,0.26074074074074066,0.46960000000148483],[0.25416666666666665,0.2733333333333334,0.4862999999970157],[0.2423958333333334,0.2735185185185186,0.502999999999993],[0.2621875000000001,0.2742592592592593,0.5194999999999936],[0.3081249999999999,0.2624074074074075,0.5361999999955245],[0.32302083333333326,0.24944444444444452,0.5528999999985089],[0.3296875,0.19814814814814816,0.5713999999985049],[0.31885416666666655,0.11870370370370374,0.5862999999970171],[0.3631249999999999,0.07462962962962955,0.6037999999970154],[0.40739583333333323,0.030555555555555555,0.6208999999985068],[0.3991666666666667,-0.019999999999999917,0.6366999999955283],[0.4021874999999999,-0.08537037037037042,0.6528999999985032],[0.3945833333333333,-0.12888888888888894,0.6696000000014877],[0.41124999999999995,-0.19148148148148145,0.6862999999970185],[0.4039583333333333,-0.2531481481481481,0.7028999999985075],[0.3338541666666667,-0.24648148148148152,0.7209999999999965],[0.3051041666666668,-0.22388888888888886,0.7361999999955273],[0.26322916666666674,-0.18518518518518517,0.752999999999993],[0.17114583333333327,-0.1814814814814815,0.7696000000014891],[0.09968750000000005,-0.19166666666666668,0.7861999999955245],[0.08104166666666662,-0.19537037037037036,0.8036999999955228],[0.04500000000000005,-0.1896296296296296,0.8219999999999956],[0.007187499999999976,-0.20166666666666663,0.8363999999985055],[-0.04364583333333331,-0.18740740740740738,0.8529999999999944],[-0.08218749999999998,-0.14777777777777779,0.8696000000014834],[-0.03927083333333338,-0.15629629629629627,0.8861999999955259],[-0.06302083333333333,-0.1479629629629629,0.9029999999999987],[-0.057395833333333354,-0.14944444444444444,0.9196000000014877],[-0.049270833333333285,-0.15481481481481485,0.9362999999970185],[-0.065625,-0.10981481481481484,0.9528999999985075],[-0.10291666666666661,-0.13518518518518519,0.9708999999985082],[-0.13156249999999994,-0.12129629629629629,0.9862999999970157],[-0.14229166666666668,-0.12925925925925927,1.004499999999993],[-0.17260416666666673,-0.12888888888888894,1.0197999999970193],[-0.18062499999999998,-0.18185185185185182,1.0387999999970177],[-0.20125000000000004,-0.21592592592592597,1.0529999999999973],[-0.1811458333333333,-0.22777777777777777,1.0696000000014863],[-0.20645833333333338,-0.2212962962962963,1.086299999997017],[-0.20843750000000003,-0.23074074074074077,1.1062999999970131],[-0.22875000000000004,-0.2753703703703704,1.1222999999970185],[-0.22687499999999997,-0.28111111111111114,1.1373999999985074],[-0.18322916666666664,-0.27148148148148155,1.1528999999985032],[-0.1326041666666666,-0.2505555555555556,1.1696000000014877],[-0.12250000000000003,-0.2611111111111111,1.1868999999985093],[-0.1328125,-0.23185185185185184,1.2081000000014868],[-0.1328125,-0.23185185185185184,1.219799999997015],[-0.12239583333333333,-0.23203703703703707,1.2362999999970157],[-0.12239583333333333,-0.23203703703703707,1.252999999999993],[-0.11802083333333328,-0.21648148148148144,1.2697999999970193],[-0.09510416666666661,-0.22777777777777777,1.2861999999955245],[-0.0328125,-0.23481481481481484,1.3036999999955228],[0.03302083333333338,-0.2207407407407407,1.3206999999955258],[0.07760416666666667,-0.18055555555555555,1.3361999999955287],[0.07791666666666662,-0.1896296296296296,1.3541000000014876],[0.06895833333333339,-0.1514814814814815,1.3701999999955277],[0.11833333333333323,-0.0794444444444444,1.3862999999970143],[0.14802083333333324,-0.06129629629629634,1.4066000000014895],[0.19989583333333344,-0.03425925925925926,1.4217999999970132],[0.23041666666666671,-0.009444444444444486,1.4362999999970185],[0.27541666666666675,0.012592592592592508,1.4528999999985075],[0.2513541666666666,0.0551851851851851,1.4699999999999989],[0.22947916666666662,0.06481481481481481,1.4861999999955273],[0.2271874999999999,0.045740740740740825,1.5059999999999931],[0.22854166666666675,0.048333333333333374,1.5231999999955264],[0.21395833333333342,-0.0003703703703704546,1.538499999999999],[0.18322916666666675,-0.0735185185185185,1.552899999998509],[0.1640625,-0.059814814814814835,1.5696000000014863],[0.11145833333333334,-0.07759259259259255,1.5861999999955287],[0.09520833333333342,-0.09037037037037039,1.6057999999970178],[0.0821875000000001,-0.10055555555555558,1.6226000000014835],[0.07197916666666657,-0.09740740740740746,1.6389999999999958],[0.07822916666666657,-0.08370370370370368,1.653100000001487],[0.06104166666666669,-0.07000000000000002,1.6696000000014877],[0.01729166666666669,-0.06314814814814819,1.686199999995523],[0.0171875,-0.024629629629629547,1.704100000001489],[0.03166666666666664,0.018148148148148063,1.7208999999985082],[0.03572916666666662,-0.003333333333333249,1.7362999999970157],[0.042916666666666714,0.008333333333333333,1.7528999999985047],[0.01739583333333338,0.024629629629629547,1.769600000001489],[0.01739583333333338,0.024629629629629547,1.7863999999985083],[-0.018437500000000048,0.04537037037037037,1.802899999998509],[-0.042499999999999954,0.045740740740740825,1.8227999999970166],[-0.05583333333333336,0.07296296296296292,1.8396000000014894],[-0.05947916666666669,0.13037037037037033,1.853699999995527],[-0.05947916666666669,0.13037037037037033,1.8696999999955253],[-0.05947916666666669,0.13037037037037033,1.888799999997019],[-0.04020833333333336,0.17296296296296293,1.9241999999955297],[-0.04020833333333336,0.17296296296296293,1.9333999999985068],[-0.03802083333333333,0.2,1.9581999999955286],[-0.03802083333333333,0.2,1.9654999999999987],[-0.03104166666666662,0.23722222222222225,1.9919999999999973],[-0.03104166666666662,0.23722222222222225,1.9994999999999976],[-0.03104166666666662,0.23722222222222225,2.0102999999970166],[-0.04718749999999995,0.2803703703703703,2.0406999999955246],[-0.04718749999999995,0.2803703703703703,2.047600000001488],[-0.049479166666666664,0.3133333333333334,2.072100000001484],[-0.049479166666666664,0.3133333333333334,2.0801999999955285],[-0.049479166666666664,0.3133333333333334,2.0874999999999986],[-0.06458333333333334,0.32444444444444454,2.1241000000014836],[-0.06458333333333334,0.32444444444444454,2.1311999999955233],[-0.06541666666666662,0.368888888888889,2.1596000000014897],[-0.06541666666666662,0.368888888888889,2.1669999999999945],[-0.05291666666666662,0.3761111111111112,2.190199999995528],[-0.05291666666666662,0.3761111111111112,2.1969999999999956],[-0.0484375,0.3507407407407407,2.2262999999970177],[-0.0484375,0.3507407407407407,2.233399999998504],[0.0007291666666667141,0.32611111111111113,2.2572999999970165],[0.0007291666666667141,0.32611111111111113,2.263999999999996],[0.04989583333333331,0.3014814814814814,2.2944999999999993],[0.04989583333333331,0.3014814814814814,2.3012999999970134],[0.05135416666666662,0.29685185185185176,2.322199999995526],[0.05135416666666662,0.29685185185185176,2.3286999999955285],[0.04802083333333336,0.282037037037037,2.357799999997013],[0.04802083333333336,0.282037037037037,2.365199999995525],[0.05458333333333331,0.2711111111111111,2.389199999995526],[0.05458333333333331,0.2711111111111111,2.396100000001489],[0.058749999999999976,0.2774074074074073,2.424299999997018],[0.058749999999999976,0.2774074074074073,2.430899999998509],[0.058749999999999976,0.2774074074074073,2.4362999999970185],[0.058749999999999976,0.2774074074074073,2.45489999999851],[0.11375000000000005,0.2755555555555555,2.490899999998504],[0.11375000000000005,0.2755555555555555,2.498100000001486],[0.11375000000000005,0.2755555555555555,2.5028999999985047],[0.11375000000000005,0.2755555555555555,2.5212999999970194],[0.11552083333333343,0.2737037037037036,2.555100000001488],[0.11552083333333343,0.2737037037037036,2.564199999995523],[0.11635416666666672,0.293888888888889,2.5911000000014894],[0.11635416666666672,0.293888888888889,2.598799999997013],[0.11635416666666672,0.293888888888889,2.60310000000149],[0.11635416666666672,0.293888888888889,2.621399999998509],[0.1430208333333333,0.3103703703703704,2.6537999999970197],[0.1430208333333333,0.3103703703703704,2.671699999995525],[0.10291666666666661,0.3111111111111111,2.688699999995528],[0.10291666666666661,0.3111111111111111,2.6964999999999932],[0.10291666666666661,0.3111111111111111,2.7028999999985075],[0.10291666666666661,0.3111111111111111,2.738499999999995],[0.07739583333333329,0.24592592592592585,2.755100000001484],[0.07739583333333329,0.24592592592592585,2.763399999998505],[0.07739583333333329,0.22277777777777769,2.7916000000014876],[0.07739583333333329,0.22277777777777769,2.7989999999999995],[0.06437499999999995,0.16925925925925922,2.8227999999970166],[0.06437499999999995,0.16925925925925922,2.830699999995524],[0.10802083333333339,0.1742592592592593,2.856499999999997],[0.10802083333333339,0.1742592592592593,2.8637999999970134],[0.09500000000000004,0.16129629629629633,2.8884999999999934],[0.09500000000000004,0.16129629629629633,2.896199999995524],[0.07635416666666663,0.15685185185185194,2.9226999999955297],[0.07635416666666663,0.15685185185185194,2.941499999999998],[0.09468750000000009,0.13185185185185194,2.9549999999999983],[0.09468750000000009,0.13185185185185194,2.964299999997017],[0.09468750000000009,0.13185185185185194,2.969600000001485],[0.09468750000000009,0.13185185185185194,2.9881999999955227],[0.09468750000000009,0.13185185185185194,3.005699999995528],[0.09468750000000009,0.13185185185185194,3.021199999995524],[0.09468750000000009,0.13185185185185194,3.0379999999999967],[0.09468750000000009,0.13185185185185194,3.0546999999955275],[0.1,0.11666666666666667,3.0871000000014845],[0.1,0.11666666666666667,3.0952999999970174],[0.06229166666666662,0.14518518518518514,3.1205],[0.06229166666666662,0.14518518518518514,3.127699999995528],[0.036562500000000026,0.1581481481481481,3.1537999999970197],[0.036562500000000026,0.1581481481481481,3.1613999999985083],[0.028854166666666715,0.24351851851851852,3.188299999997014],[0.028854166666666715,0.24351851851851852,3.206799999997017],[0.028854166666666715,0.24351851851851852,3.2084999999999937],[0.028854166666666715,0.24351851851851852,3.2224999999999966],[0.028854166666666715,0.24351851851851852,3.2379999999999995],[0.028854166666666715,0.24351851851851852,3.2546999999955233],[0.028854166666666715,0.24351851851851852,3.2713999999985077],[0.028854166666666715,0.24351851851851852,3.2879999999999967],[0.028854166666666715,0.24351851851851852,3.3067999999970183],[0.01260416666666669,0.2716666666666668,3.3411000000014894],[0.01260416666666669,0.2716666666666668,3.347999999999999],[0.01260416666666669,0.2716666666666668,3.3529999999999944],[0.01260416666666669,0.2716666666666668,3.371399999998509],[-0.0037500000000000237,0.30055555555555546,3.4067999999970198],[-0.0037500000000000237,0.30055555555555546,3.4137999999970177],[-0.0037500000000000237,0.30055555555555546,3.4196000000014877],[-0.0037500000000000237,0.30055555555555546,3.4381000000014836],[-0.06489583333333329,0.28481481481481474,3.471699999995529],[-0.06489583333333329,0.28481481481481474,3.478600000001485],[-0.04385416666666669,0.28777777777777774,3.5058999999985048],[-0.04385416666666669,0.28777777777777774,3.5131000000014865],[-0.04385416666666669,0.28777777777777774,3.519600000001489],[-0.04385416666666669,0.28777777777777774,3.5379999999999967],[-0.02312500000000005,0.2566666666666667,3.570399999998507],[-0.02312500000000005,0.2566666666666667,3.5786999999955285],[-0.014895833333333285,0.23111111111111102,3.605799999997018],[-0.014895833333333285,0.23111111111111102,3.613499999999995],[-0.014895833333333285,0.23111111111111102,3.6196000000014834],[-0.014895833333333285,0.23111111111111102,3.6381000000014865],[-0.004062499999999977,0.19074074074074074,3.67160000000149],[-0.004062499999999977,0.19074074074074074,3.6784999999999997],[-0.00458333333333331,0.15611111111111103,3.705699999995524],[-0.00458333333333331,0.15611111111111103,3.7131000000014893],[-0.00458333333333331,0.15611111111111103,3.719600000001485],[-0.00458333333333331,0.15611111111111103,3.7379999999999995],[0.018437500000000048,0.14907407407407408,3.7717999999970147],[0.018437500000000048,0.14907407407407408,3.7791000000014847],[0.01416666666666669,0.13629629629629633,3.8086999999955253],[0.01416666666666669,0.13629629629629633,3.8161000000014837],[0.0046875,0.08574074074074066,3.8386000000014846],[0.0046875,0.08574074074074066,3.846100000001485],[0.06104166666666669,0.08425925925925926,3.8739999999999952],[0.06104166666666669,0.08425925925925926,3.8811999999955233],[0.07937500000000004,0.04092592592592597,3.907299999997015],[0.07937500000000004,0.04092592592592597,3.915399999998506],[0.06114583333333338,0.0242592592592593,3.9403999999985047],[0.06114583333333338,0.0242592592592593,3.9473999999985097],[0.04677083333333331,0.06351851851851843,3.9716000000014873],[0.04677083333333331,0.06351851851851843,3.9796999999955247],[0.0578125,0.11037037037037041,4.005999999999993],[0.0578125,0.11037037037037041,4.013199999995528],[0.04760416666666671,0.11592592592592597,4.037299999997018],[0.04760416666666671,0.11592592592592597,4.044799999997018],[0.04874999999999995,0.052407407407407326,4.070399999998507],[0.04874999999999995,0.052407407407407326,4.078199999995526],[0.0515625,-0.03814814814814819,4.1145],[0.0515625,-0.03814814814814819,4.1233999999985045],[0.01593749999999995,-0.16277777777777774,4.13639999999851],[0.01593749999999995,-0.16277777777777774,4.153100000001487],[0.0048958333333333805,-0.2485185185185185,4.174799999997013],[0.0048958333333333805,-0.2485185185185185,4.186399999998507],[-0.019270833333333334,-0.2903703703703704,4.203299999997014],[-0.019270833333333334,-0.2903703703703704,4.2236999999955245],[-0.030520833333333285,-0.3218518518518519,4.236600000001481],[-0.030520833333333285,-0.3218518518518519,4.2531000000014885],[-0.034166666666666616,-0.3424074074074074,4.275799999997012],[-0.034166666666666616,-0.3424074074074074,4.286399999998501],[-0.02958333333333331,-0.47537037037037033,4.303299999997016],[-0.03864583333333336,-0.529074074074074,4.325600000001494],[-0.03864583333333336,-0.529074074074074,4.336499999999994],[-0.04593750000000003,-0.6096296296296296,4.353100000001483],[-0.04593750000000003,-0.6096296296296296,4.369799999997021],[-0.04479166666666667,-0.6327777777777778,4.3903999999985],[-0.04479166666666667,-0.6327777777777778,4.403199999995529],[-0.044166666666666646,-0.6164814814814814,4.420199999995525],[-0.030624999999999975,-0.5748148148148148,4.439899999998509],[-0.030624999999999975,-0.5748148148148148,4.4528999999985],[-0.028541666666666642,-0.5362962962962964,4.472799999997015],[-0.028541666666666642,-0.5362962962962964,4.4864999999999995],[-0.03093750000000005,-0.5690740740740741,4.503199999995523],[0.011458333333333333,-0.5559259259259259,4.519600000001482],[0.019166666666666644,-0.6014814814814815,4.5361999999955245],[0.019583333333333286,-0.5835185185185185,4.5527999999970135],[0.025729166666666713,-0.6755555555555556,4.569799999997009],[0.03864583333333336,-0.6772222222222222,4.5863999999985126],[0.04802083333333336,-0.6455555555555555,4.6030000000000015],[0.026979166666666644,-0.667037037037037,4.6196000000014905],[0.021041666666666715,-0.6596296296296296,4.636199999995533],[0.027708333333333356,-0.6594444444444445,4.652899999998503],[-0.0018749999999999527,-0.640925925925926,4.669600000001488],[-0.011562500000000024,-0.6259259259259259,4.68619999999553],[0.005416666666666714,-0.5975925925925926,4.702999999999996],[-0.02833333333333338,-0.5687037037037037,4.719500000000004],[-0.06187499999999998,-0.5370370370370371,4.739799999997011],[-0.06187499999999998,-0.5370370370370371,4.752899999998512],[-0.06583333333333338,-0.5214814814814815,4.769500000000001],[-0.0875,-0.5803703703703703,4.78610000000149],[-0.06645833333333329,-0.549074074074074,4.803699999995523],[-0.04031250000000005,-0.5387037037037037,4.82],[-0.01854166666666662,-0.5007407407407407,4.836499999999994],[-0.00302083333333331,-0.5114814814814814,4.852899999998506],[0.005416666666666714,-0.5231481481481481,4.869499999999995],[-0.001979166666666643,-0.5338888888888889,4.886100000001484],[0.0007291666666667141,-0.5357407407407407,4.904299999997015],[0.035312499999999976,-0.5355555555555556,4.923199999995525],[0.051979166666666646,-0.48277777777777775,4.938899999998505],[0.09427083333333333,-0.4272222222222222,4.9528999999985],[0.10083333333333329,-0.3811111111111111,4.969600000001485],[0.08947916666666676,-0.31851851851851853,4.986199999995527],[0.08958333333333333,-0.24833333333333338,5.003699999995526],[0.08166666666666676,-0.16814814814814816,5.019899999998508],[0.07374999999999995,-0.09185185185185189,5.038699999995522],[0.06458333333333334,-0.07796296296296301,5.05299999999999],[0.0821875000000001,-0.05055555555555547,5.0701999999955305],[0.07833333333333338,0.025,5.0863999999985126],[0.06229166666666662,0.06407407407407412,5.105899999998506],[0.0678124999999999,0.07518518518518523,5.120299999997023],[0.058541666666666714,0.06129629629629634,5.136499999999991],[0.08895833333333343,0.03814814814814819,5.156899999998508],[0.1134375000000001,-0.027037037037037078,5.171899999998509],[0.15177083333333338,-0.05055555555555547,5.186299999997011],[0.14729166666666677,-0.1007407407407407,5.20679999999701],[0.15145833333333342,-0.08074074074074078,5.2232999999970176],[0.14427083333333332,-0.04870370370370362,5.237899999998511],[0.12135416666666667,-0.09537037037037037,5.252899999998512],[0.09166666666666666,-0.13648148148148145,5.269799999997012],[0.0421875,-0.14740740740740746,5.286399999998501],[0.03864583333333336,-0.15092592592592594,5.304899999998504],[0.007291666666666667,-0.16962962962962966,5.3226000000014935],[-0.014479166666666644,-0.1814814814814815,5.336199999995522],[-0.046875,-0.20481481481481487,5.352799999997011],[-0.04989583333333331,-0.1940740740740741,5.369499999999995],[-0.044479166666666715,-0.192037037037037,5.386499999999991],[-0.06229166666666662,-0.18833333333333332,5.4037999999970125],[-0.06124999999999995,-0.16833333333333328,5.420799999997023],[-0.03916666666666669,-0.15777777777777777,5.440199999995521],[-0.011354166666666643,-0.14000000000000004,5.4543999999985076],[-0.009791666666666643,-0.1412962962962963,5.469799999997015],[-0.03937499999999995,-0.11870370370370374,5.486299999997023],[-0.07093750000000003,-0.10259259259259255,5.505699999995521],[-0.07093750000000003,-0.10259259259259255,5.519600000001482],[-0.059062500000000046,-0.06425925925925924,5.536399999998501]]","[0.00029999999701857405,0.04119999999552704,0.05299999999999727,0.07469999999552357,0.08619999999552874,0.10299999999999443,0.11960000000148341,0.13629999999701425,0.15289999999850323,0.16960000000148767,0.18619999999552306,0.2028999999985075,0.22019999999552908,0.23629999999701568,0.25289999999850465,0.2696000000014891,0.2861999999955245,0.3028999999985089,0.31960000000148625,0.3362999999970171,0.3528999999985061,0.3696000000014834,0.38629999999701425,0.40379999999701965,0.42039999999850863,0.43919999999552317,0.45319999999552607,0.46960000000148483,0.4862999999970157,0.502999999999993,0.5194999999999936,0.5361999999955245,0.5528999999985089,0.5713999999985049,0.5862999999970171,0.6037999999970154,0.6208999999985068,0.6366999999955283,0.6528999999985032,0.6696000000014877,0.6862999999970185,0.7028999999985075,0.7209999999999965,0.7361999999955273,0.752999999999993,0.7696000000014891,0.7861999999955245,0.8036999999955228,0.8219999999999956,0.8363999999985055,0.8529999999999944,0.8696000000014834,0.8861999999955259,0.9029999999999987,0.9196000000014877,0.9362999999970185,0.9528999999985075,0.9708999999985082,0.9862999999970157,1.004499999999993,1.0197999999970193,1.0387999999970177,1.0529999999999973,1.0696000000014863,1.086299999997017,1.1062999999970131,1.1222999999970185,1.1373999999985074,1.1528999999985032,1.1696000000014877,1.1868999999985093,1.2081000000014868,1.219799999997015,1.2362999999970157,1.252999999999993,1.2697999999970193,1.2861999999955245,1.3036999999955228,1.3206999999955258,1.3361999999955287,1.3541000000014876,1.3701999999955277,1.3862999999970143,1.4066000000014895,1.4217999999970132,1.4362999999970185,1.4528999999985075,1.4699999999999989,1.4861999999955273,1.5059999999999931,1.5231999999955264,1.538499999999999,1.552899999998509,1.5696000000014863,1.5861999999955287,1.6057999999970178,1.6226000000014835,1.6389999999999958,1.653100000001487,1.6696000000014877,1.686199999995523,1.704100000001489,1.7208999999985082,1.7362999999970157,1.7528999999985047,1.769600000001489,1.7863999999985083,1.802899999998509,1.8227999999970166,1.8396000000014894,1.853699999995527,1.8696999999955253,1.888799999997019,1.9241999999955297,1.9333999999985068,1.9581999999955286,1.9654999999999987,1.9919999999999973,1.9994999999999976,2.0102999999970166,2.0406999999955246,2.047600000001488,2.072100000001484,2.0801999999955285,2.0874999999999986,2.1241000000014836,2.1311999999955233,2.1596000000014897,2.1669999999999945,2.190199999995528,2.1969999999999956,2.2262999999970177,2.233399999998504,2.2572999999970165,2.263999999999996,2.2944999999999993,2.3012999999970134,2.322199999995526,2.3286999999955285,2.357799999997013,2.365199999995525,2.389199999995526,2.396100000001489,2.424299999997018,2.430899999998509,2.4362999999970185,2.45489999999851,2.490899999998504,2.498100000001486,2.5028999999985047,2.5212999999970194,2.555100000001488,2.564199999995523,2.5911000000014894,2.598799999997013,2.60310000000149,2.621399999998509,2.6537999999970197,2.671699999995525,2.688699999995528,2.6964999999999932,2.7028999999985075,2.738499999999995,2.755100000001484,2.763399999998505,2.7916000000014876,2.7989999999999995,2.8227999999970166,2.830699999995524,2.856499999999997,2.8637999999970134,2.8884999999999934,2.896199999995524,2.9226999999955297,2.941499999999998,2.9549999999999983,2.964299999997017,2.969600000001485,2.9881999999955227,3.005699999995528,3.021199999995524,3.0379999999999967,3.0546999999955275,3.0871000000014845,3.0952999999970174,3.1205,3.127699999995528,3.1537999999970197,3.1613999999985083,3.188299999997014,3.206799999997017,3.2084999999999937,3.2224999999999966,3.2379999999999995,3.2546999999955233,3.2713999999985077,3.2879999999999967,3.3067999999970183,3.3411000000014894,3.347999999999999,3.3529999999999944,3.371399999998509,3.4067999999970198,3.4137999999970177,3.4196000000014877,3.4381000000014836,3.471699999995529,3.478600000001485,3.5058999999985048,3.5131000000014865,3.519600000001489,3.5379999999999967,3.570399999998507,3.5786999999955285,3.605799999997018,3.613499999999995,3.6196000000014834,3.6381000000014865,3.67160000000149,3.6784999999999997,3.705699999995524,3.7131000000014893,3.719600000001485,3.7379999999999995,3.7717999999970147,3.7791000000014847,3.8086999999955253,3.8161000000014837,3.8386000000014846,3.846100000001485,3.8739999999999952,3.8811999999955233,3.907299999997015,3.915399999998506,3.9403999999985047,3.9473999999985097,3.9716000000014873,3.9796999999955247,4.005999999999993,4.013199999995528,4.037299999997018,4.044799999997018,4.070399999998507,4.078199999995526,4.1145,4.1233999999985045,4.13639999999851,4.153100000001487,4.174799999997013,4.186399999998507,4.203299999997014,4.2236999999955245,4.236600000001481,4.2531000000014885,4.275799999997012,4.286399999998501,4.303299999997016,4.325600000001494,4.336499999999994,4.353100000001483,4.369799999997021,4.3903999999985,4.403199999995529,4.420199999995525,4.439899999998509,4.4528999999985,4.472799999997015,4.4864999999999995,4.503199999995523,4.519600000001482,4.5361999999955245,4.5527999999970135,4.569799999997009,4.5863999999985126,4.6030000000000015,4.6196000000014905,4.636199999995533,4.652899999998503,4.669600000001488,4.68619999999553,4.702999999999996,4.719500000000004,4.739799999997011,4.752899999998512,4.769500000000001,4.78610000000149,4.803699999995523,4.82,4.836499999999994,4.852899999998506,4.869499999999995,4.886100000001484,4.904299999997015,4.923199999995525,4.938899999998505,4.9528999999985,4.969600000001485,4.986199999995527,5.003699999995526,5.019899999998508,5.038699999995522,5.05299999999999,5.0701999999955305,5.0863999999985126,5.105899999998506,5.120299999997023,5.136499999999991,5.156899999998508,5.171899999998509,5.186299999997011,5.20679999999701,5.2232999999970176,5.237899999998511,5.252899999998512,5.269799999997012,5.286399999998501,5.304899999998504,5.3226000000014935,5.336199999995522,5.352799999997011,5.369499999999995,5.386499999999991,5.4037999999970125,5.420799999997023,5.440199999995521,5.4543999999985076,5.469799999997015,5.486299999997023,5.505699999995521,5.519600000001482,5.536399999998501]","[1733284987276,1733284987309,1733284987321,1733284987343,1733284987354,1733284987371,1733284987388,1733284987404,1733284987421,1733284987438,1733284987454,1733284987471,1733284987488,1733284987504,1733284987521,1733284987538,1733284987554,1733284987571,1733284987588,1733284987604,1733284987621,1733284987638,1733284987654,1733284987672,1733284987688,1733284987707,1733284987721,1733284987738,1733284987754,1733284987771,1733284987788,1733284987804,1733284987821,1733284987839,1733284987854,1733284987872,1733284987889,1733284987905,1733284987921,1733284987938,1733284987954,1733284987971,1733284987989,1733284988004,1733284988021,1733284988038,1733284988054,1733284988072,1733284988090,1733284988104,1733284988121,1733284988138,1733284988154,1733284988171,1733284988188,1733284988204,1733284988221,1733284988239,1733284988254,1733284988273,1733284988288,1733284988307,1733284988321,1733284988338,1733284988354,1733284988374,1733284988390,1733284988405,1733284988421,1733284988438,1733284988455,1733284988476,1733284988488,1733284988504,1733284988521,1733284988538,1733284988554,1733284988572,1733284988589,1733284988604,1733284988622,1733284988638,1733284988654,1733284988675,1733284988690,1733284988704,1733284988721,1733284988738,1733284988754,1733284988774,1733284988791,1733284988807,1733284988821,1733284988838,1733284988854,1733284988874,1733284988891,1733284988907,1733284988921,1733284988938,1733284988954,1733284988972,1733284988989,1733284989004,1733284989021,1733284989038,1733284989054,1733284989071,1733284989091,1733284989108,1733284989122,1733284989138,1733284989157,1733284989192,1733284989201,1733284989226,1733284989234,1733284989260,1733284989268,1733284989278,1733284989309,1733284989316,1733284989340,1733284989348,1733284989356,1733284989392,1733284989399,1733284989428,1733284989435,1733284989458,1733284989465,1733284989494,1733284989501,1733284989525,1733284989532,1733284989563,1733284989569,1733284989590,1733284989597,1733284989626,1733284989633,1733284989657,1733284989664,1733284989692,1733284989699,1733284989704,1733284989723,1733284989759,1733284989766,1733284989771,1733284989789,1733284989823,1733284989832,1733284989859,1733284989867,1733284989871,1733284989889,1733284989922,1733284989940,1733284989957,1733284989965,1733284989971,1733284990007,1733284990023,1733284990031,1733284990060,1733284990067,1733284990091,1733284990099,1733284990125,1733284990132,1733284990156,1733284990164,1733284990191,1733284990210,1733284990223,1733284990232,1733284990238,1733284990256,1733284990274,1733284990289,1733284990306,1733284990323,1733284990355,1733284990363,1733284990388,1733284990396,1733284990422,1733284990429,1733284990456,1733284990475,1733284990477,1733284990491,1733284990506,1733284990523,1733284990539,1733284990556,1733284990575,1733284990609,1733284990616,1733284990621,1733284990639,1733284990675,1733284990682,1733284990688,1733284990706,1733284990740,1733284990747,1733284990774,1733284990781,1733284990788,1733284990806,1733284990838,1733284990847,1733284990874,1733284990882,1733284990888,1733284990906,1733284990940,1733284990947,1733284990974,1733284990981,1733284990988,1733284991006,1733284991040,1733284991047,1733284991077,1733284991084,1733284991107,1733284991114,1733284991142,1733284991149,1733284991175,1733284991183,1733284991208,1733284991215,1733284991240,1733284991248,1733284991274,1733284991281,1733284991305,1733284991313,1733284991339,1733284991346,1733284991383,1733284991391,1733284991404,1733284991421,1733284991443,1733284991454,1733284991471,1733284991492,1733284991505,1733284991521,1733284991544,1733284991554,1733284991571,1733284991594,1733284991605,1733284991621,1733284991638,1733284991658,1733284991671,1733284991688,1733284991708,1733284991721,1733284991741,1733284991754,1733284991771,1733284991788,1733284991804,1733284991821,1733284991838,1733284991854,1733284991871,1733284991888,1733284991904,1733284991921,1733284991938,1733284991954,1733284991971,1733284991988,1733284992008,1733284992021,1733284992038,1733284992054,1733284992072,1733284992088,1733284992105,1733284992121,1733284992138,1733284992154,1733284992172,1733284992191,1733284992207,1733284992221,1733284992238,1733284992254,1733284992272,1733284992288,1733284992307,1733284992321,1733284992338,1733284992354,1733284992374,1733284992388,1733284992405,1733284992425,1733284992440,1733284992454,1733284992475,1733284992491,1733284992506,1733284992521,1733284992538,1733284992554,1733284992573,1733284992591,1733284992604,1733284992621,1733284992638,1733284992655,1733284992672,1733284992689,1733284992708,1733284992722,1733284992738,1733284992754,1733284992774,1733284992788,1733284992804]","[[1053.9,756.2],[1053.9,756.2],[1064.6,739.2],[1065.1,743.5],[1065.1,743.5],[1038.3,772.9],[1006,770.3],[1000.7,764.9],[1004.3,746.3],[972.6,750.5],[958.4,743],[953.5,751.2],[942.4,749.7],[937.7,762.9],[943.2,754.8],[958.9,726.1],[1001.8,722.5],[1017.7,721.7],[1017.7,721.7],[1056.4,721.4],[1084.9,716.8],[1075.8,727.2],[1108.8,714.5],[1135.6,694.1],[1151.9,687.1],[1163.5,679.9],[1176.2,674],[1190.1,680.8],[1204,687.6],[1192.7,687.7],[1211.7,688.1],[1255.8,681.7],[1270.1,674.7],[1276.5,647],[1266.1,604.1],[1308.6,580.3],[1351.1,556.5],[1343.2,529.2],[1346.1,493.9],[1338.8,470.4],[1354.8,436.6],[1347.8,403.3],[1280.5,406.9],[1252.9,419.1],[1212.7,440],[1124.3,442],[1055.7,436.5],[1037.8,434.5],[1003.2,437.6],[966.9,431.1],[918.1,438.8],[881.1,460.2],[922.3,455.6],[899.5,460.1],[904.9,459.3],[912.7,456.4],[897,480.7],[861.2,467],[833.7,474.5],[823.4,470.2],[794.3,470.4],[786.6,441.8],[766.8,423.4],[786.1,417],[761.8,420.5],[759.9,415.4],[740.4,391.3],[742.2,388.2],[784.1,393.4],[832.7,404.7],[842.4,399],[832.5,414.8],[832.5,414.8],[842.5,414.7],[842.5,414.7],[846.7,423.1],[868.7,417],[928.5,413.2],[991.7,420.8],[1034.5,442.5],[1034.8,437.6],[1026.2,458.2],[1073.6,497.1],[1102.1,506.9],[1151.9,521.5],[1181.2,534.9],[1224.4,546.8],[1201.3,569.8],[1180.3,575],[1178.1,564.7],[1179.4,566.1],[1165.4,539.8],[1135.9,500.3],[1117.5,507.7],[1067,498.1],[1051.4,491.2],[1038.9,485.7],[1029.1,487.4],[1035.1,494.8],[1018.6,502.2],[976.6,505.9],[976.5,526.7],[990.4,549.8],[994.3,538.2],[1001.2,544.5],[976.7,553.3],[976.7,553.3],[942.3,564.5],[919.2,564.7],[906.4,579.4],[902.9,610.4],[902.9,610.4],[902.9,610.4],[921.4,633.4],[921.4,633.4],[923.5,648],[923.5,648],[930.2,668.1],[930.2,668.1],[930.2,668.1],[914.7,691.4],[914.7,691.4],[912.5,709.2],[912.5,709.2],[912.5,709.2],[898,715.2],[898,715.2],[897.2,739.2],[897.2,739.2],[909.2,743.1],[909.2,743.1],[913.5,729.4],[913.5,729.4],[960.7,716.1],[960.7,716.1],[1007.9,702.8],[1007.9,702.8],[1009.3,700.3],[1009.3,700.3],[1006.1,692.3],[1006.1,692.3],[1012.4,686.4],[1012.4,686.4],[1016.4,689.8],[1016.4,689.8],[1016.4,689.8],[1016.4,689.8],[1069.2,688.8],[1069.2,688.8],[1069.2,688.8],[1069.2,688.8],[1070.9,687.8],[1070.9,687.8],[1071.7,698.7],[1071.7,698.7],[1071.7,698.7],[1071.7,698.7],[1097.3,707.6],[1097.3,707.6],[1058.8,708],[1058.8,708],[1058.8,708],[1058.8,708],[1034.3,672.8],[1034.3,672.8],[1034.3,660.3],[1034.3,660.3],[1021.8,631.4],[1021.8,631.4],[1063.7,634.1],[1063.7,634.1],[1051.2,627.1],[1051.2,627.1],[1033.3,624.7],[1033.3,624.7],[1050.9,611.2],[1050.9,611.2],[1050.9,611.2],[1050.9,611.2],[1050.9,611.2],[1050.9,611.2],[1050.9,611.2],[1050.9,611.2],[1056,603],[1056,603],[1019.8,618.4],[1019.8,618.4],[995.1,625.4],[995.1,625.4],[987.7,671.5],[987.7,671.5],[987.7,671.5],[987.7,671.5],[987.7,671.5],[987.7,671.5],[987.7,671.5],[987.7,671.5],[987.7,671.5],[972.1,686.7],[972.1,686.7],[972.1,686.7],[972.1,686.7],[956.4,702.3],[956.4,702.3],[956.4,702.3],[956.4,702.3],[897.7,693.8],[897.7,693.8],[917.9,695.4],[917.9,695.4],[917.9,695.4],[917.9,695.4],[937.8,678.6],[937.8,678.6],[945.7,664.8],[945.7,664.8],[945.7,664.8],[945.7,664.8],[956.1,643],[956.1,643],[955.6,624.3],[955.6,624.3],[955.6,624.3],[955.6,624.3],[977.7,620.5],[977.7,620.5],[973.6,613.6],[973.6,613.6],[964.5,586.3],[964.5,586.3],[1018.6,585.5],[1018.6,585.5],[1036.2,562.1],[1036.2,562.1],[1018.7,553.1],[1018.7,553.1],[1004.9,574.3],[1004.9,574.3],[1015.5,599.6],[1015.5,599.6],[1005.7,602.6],[1005.7,602.6],[1006.8,568.3],[1006.8,568.3],[1009.5,519.4],[1009.5,519.4],[975.3,452.1],[975.3,452.1],[964.7,405.8],[964.7,405.8],[941.5,383.2],[941.5,383.2],[930.7,366.2],[930.7,366.2],[927.2,355.1],[927.2,355.1],[931.6,283.3],[922.9,254.3],[922.9,254.3],[915.9,210.8],[915.9,210.8],[917,198.3],[917,198.3],[917.6,207.1],[930.6,229.6],[930.6,229.6],[932.6,250.4],[932.6,250.4],[930.3,232.7],[971,239.8],[978.4,215.2],[978.8,224.9],[984.7,175.2],[997.1,174.3],[1006.1,191.4],[985.9,179.8],[980.2,183.8],[986.6,183.9],[958.2,193.9],[948.9,202],[965.2,217.3],[932.8,232.9],[900.6,250],[900.6,250],[896.8,258.4],[876,226.6],[896.2,243.5],[921.3,249.1],[942.2,269.6],[957.1,263.8],[965.2,257.5],[958.1,251.7],[960.7,250.7],[993.9,250.8],[1009.9,279.3],[1050.5,309.3],[1056.8,334.2],[1045.9,368],[1046,405.9],[1038.4,449.2],[1030.8,490.4],[1022,497.9],[1038.9,512.7],[1035.2,553.5],[1019.8,574.6],[1025.1,580.6],[1016.2,573.1],[1045.4,560.6],[1068.9,525.4],[1105.7,512.7],[1101.4,485.6],[1105.4,496.4],[1098.5,513.7],[1076.5,488.5],[1048,466.3],[1000.5,460.4],[997.1,458.5],[967,448.4],[946.1,442],[915,429.4],[912.1,435.2],[917.3,436.3],[900.2,438.3],[901.2,449.1],[922.4,454.8],[949.1,464.4],[950.6,463.7],[922.2,475.9],[891.9,484.6],[891.9,484.6],[903.3,505.3]]","[0,0.37864299999999995]","[0.37864299999999995,0.37864299999999995]","[-0.37864299999999995,-0.37864299999999995]","[-0.37864299999999995,0]","[0,-0.37864299999999995]","[0.37864299999999995,-0.37864299999999995]","[0,0]","[0.37864299999999995,0]",0,0,0,0,1,3,Laptop,11,9,9,1
