inst1_resp.keys,inst1_resp.rt,calibrationMouse.x,calibrationMouse.y,calibrationMouse.leftButton,calibrationMouse.midButton,calibrationMouse.rightButton,calibrationClick.x,calibrationClick.y,calibrationClick.leftButton,calibrationClick.midButton,calibrationClick.rightButton,calibrationClick.clicked_name,trialsc.thisRepN,trialsc.thisTrialN,trialsc.thisN,trialsc.thisIndex,trialsc.ran,calibration_x,calibration_y,participant,session,date,expName,psychopyVersion,OS,frameRate,ScreenRes_pixels,Camera_pixels,mouse_2.x,mouse_2.y,mouse_2.leftButton,mouse_2.midButton,mouse_2.rightButton,mouse_2.time,mouse_2.clicked_name,mouse.x,mouse.y,mouse.leftButton,mouse.midButton,mouse.rightButton,mouse.time,mouse.clicked_name,Choice,Trial,TrialDuration,MOUSE_GAZE,ET_GAZE,ET_GAZE_x_T,time,unixTime,ET_GAZE_NF,Loc_Option1_label,Loc_Option2_label,Loc_Cost_label,Loc_Qual_label,Loc_Option1_cost,Loc_Option2_cost,Loc_Option1_quality,Loc_Option2_quality,trials.thisRepN,trials.thisTrialN,trials.thisN,trials.thisIndex,trials.ran,Block,Device,cost1,qual1,cost2,qual2
space,3.0853,0.20625,0.22962963,1,0,0,0.004166667,0.661111111,1,0,0,calibration_square,0,0,0,13,1,0,0.67,47,001,2024-12-04_11h11.06.378,Attention_exp_legacy,2023.1.0,Win32,60.24096386,,,,,,,,,,,,,,,,,,,,,,,,,,,,,,,,,,,,,,,,,,,,
,,,,,,,0.001041667,0.32962963,1,0,0,calibration_square,0,1,1,12,1,0,0.33,47,001,2024-12-04_11h11.06.378,Attention_exp_legacy,2023.1.0,Win32,60.24096386,,,,,,,,,,,,,,,,,,,,,,,,,,,,,,,,,,,,,,,,,,,,
,,,,,,,-0.010416667,-0.675925926,1,0,0,,0,2,2,9,1,0,-0.67,47,001,2024-12-04_11h11.06.378,Attention_exp_legacy,2023.1.0,Win32,60.24096386,,,,,,,,,,,,,,,,,,,,,,,,,,,,,,,,,,,,,,,,,,,,
,,,,,,,0.323958333,0.009259259,1,0,0,calibration_square,0,3,3,16,1,0.33,0,47,001,2024-12-04_11h11.06.378,Attention_exp_legacy,2023.1.0,Win32,60.24096386,,,,,,,,,,,,,,,,,,,,,,,,,,,,,,,,,,,,,,,,,,,,
,,,,,,,-0.653125,-0.318518519,1,0,0,,0,4,4,1,1,-0.67,-0.33,47,001,2024-12-04_11h11.06.378,Attention_exp_legacy,2023.1.0,Win32,60.24096386,,,,,,,,,,,,,,,,,,,,,,,,,,,,,,,,,,,,,,,,,,,,
,,,,,,,-0.672916667,0.316666667,1,0,0,,0,5,5,3,1,-0.67,0.33,47,001,2024-12-04_11h11.06.378,Attention_exp_legacy,2023.1.0,Win32,60.24096386,,,,,,,,,,,,,,,,,,,,,,,,,,,,,,,,,,,,,,,,,,,,
,,,,,,,0.317708333,-0.662962963,1,0,0,,0,6,6,14,1,0.33,-0.67,47,001,2024-12-04_11h11.06.378,Attention_exp_legacy,2023.1.0,Win32,60.24096386,,,,,,,,,,,,,,,,,,,,,,,,,,,,,,,,,,,,,,,,,,,,
,,,,,,,0.670833333,-0.662962963,1,0,0,calibration_square,0,7,7,20,1,0.67,-0.67,47,001,2024-12-04_11h11.06.378,Attention_exp_legacy,2023.1.0,Win32,60.24096386,,,,,,,,,,,,,,,,,,,,,,,,,,,,,,,,,,,,,,,,,,,,
,,,,,,,-0.333333333,0.664814815,1,0,0,calibration_square,0,8,8,8,1,-0.33,0.67,47,001,2024-12-04_11h11.06.378,Attention_exp_legacy,2023.1.0,Win32,60.24096386,,,,,,,,,,,,,,,,,,,,,,,,,,,,,,,,,,,,,,,,,,,,
,,,,,,,-0.326041667,-0.664814815,1,0,0,calibration_square,0,9,9,4,1,-0.33,-0.67,47,001,2024-12-04_11h11.06.378,Attention_exp_legacy,2023.1.0,Win32,60.24096386,,,,,,,,,,,,,,,,,,,,,,,,,,,,,,,,,,,,,,,,,,,,
,,,,,,,-0.663541667,-0.661111111,1,0,0,calibration_square,0,10,10,0,1,-0.67,-0.67,47,001,2024-12-04_11h11.06.378,Attention_exp_legacy,2023.1.0,Win32,60.24096386,,,,,,,,,,,,,,,,,,,,,,,,,,,,,,,,,,,,,,,,,,,,
,,,,,,,-0.00625,-0.32037037,1,0,0,calibration_square,0,11,11,10,1,0,-0.33,47,001,2024-12-04_11h11.06.378,Attention_exp_legacy,2023.1.0,Win32,60.24096386,,,,,,,,,,,,,,,,,,,,,,,,,,,,,,,,,,,,,,,,,,,,
,,,,,,,-0.007291667,0.014814815,1,0,0,,0,12,12,11,1,0,0,47,001,2024-12-04_11h11.06.378,Attention_exp_legacy,2023.1.0,Win32,60.24096386,,,,,,,,,,,,,,,,,,,,,,,,,,,,,,,,,,,,,,,,,,,,
,,,,,,,0.327083333,-0.333333333,1,0,0,calibration_square,0,13,13,15,1,0.33,-0.33,47,001,2024-12-04_11h11.06.378,Attention_exp_legacy,2023.1.0,Win32,60.24096386,,,,,,,,,,,,,,,,,,,,,,,,,,,,,,,,,,,,,,,,,,,,
,,,,,,,-0.3375,-0.335185185,1,0,0,calibration_square,0,14,14,5,1,-0.33,-0.33,47,001,2024-12-04_11h11.06.378,Attention_exp_legacy,2023.1.0,Win32,60.24096386,,,,,,,,,,,,,,,,,,,,,,,,,,,,,,,,,,,,,,,,,,,,
,,,,,,,0.672916667,0.672222222,1,0,0,calibration_square,0,15,15,19,1,0.67,0.67,47,001,2024-12-04_11h11.06.378,Attention_exp_legacy,2023.1.0,Win32,60.24096386,,,,,,,,,,,,,,,,,,,,,,,,,,,,,,,,,,,,,,,,,,,,
,,,,,,,-0.673958333,-0.007407407,1,0,0,calibration_square,0,16,16,2,1,-0.67,0,47,001,2024-12-04_11h11.06.378,Attention_exp_legacy,2023.1.0,Win32,60.24096386,,,,,,,,,,,,,,,,,,,,,,,,,,,,,,,,,,,,,,,,,,,,
,,,,,,,0.330208333,0.674074074,1,0,0,calibration_square,0,17,17,18,1,0.33,0.67,47,001,2024-12-04_11h11.06.378,Attention_exp_legacy,2023.1.0,Win32,60.24096386,,,,,,,,,,,,,,,,,,,,,,,,,,,,,,,,,,,,,,,,,,,,
,,,,,,,-0.333333333,0.32962963,1,0,0,calibration_square,0,18,18,7,1,-0.33,0.33,47,001,2024-12-04_11h11.06.378,Attention_exp_legacy,2023.1.0,Win32,60.24096386,,,,,,,,,,,,,,,,,,,,,,,,,,,,,,,,,,,,,,,,,,,,
,,,,,,,-0.338541667,0.011111111,1,0,0,,0,19,19,6,1,-0.33,0,47,001,2024-12-04_11h11.06.378,Attention_exp_legacy,2023.1.0,Win32,60.24096386,,,,,,,,,,,,,,,,,,,,,,,,,,,,,,,,,,,,,,,,,,,,
,,,,,,,0.336458333,0.316666667,1,0,0,,0,20,20,17,1,0.33,0.33,47,001,2024-12-04_11h11.06.378,Attention_exp_legacy,2023.1.0,Win32,60.24096386,,,,,,,,,,,,,,,,,,,,,,,,,,,,,,,,,,,,,,,,,,,,
,,,,,,,,,,,,,,,,,,,,47,001,2024-12-04_11h11.06.378,Attention_exp_legacy,2023.1.0,Win32,60.24096386,"[1920,1080]","[640,480]",[0.0375],[-0.5370370370370371],[1],[0],[0],[2.180899999998516],"[""StartButton""]",[0.005208333333333333],[0.14814814814814814],[1],[0],[0],[3.5889999999999986],"[""Option1_label""]",Option1_label,1,4.6118,"[[0.010416666666666666,-0.5111111111111111],[0.010416666666666666,-0.5111111111111111],[0.010416666666666666,-0.5111111111111111],[0.010416666666666666,-0.5111111111111111],[0.010416666666666666,-0.5111111111111111],[0.010416666666666666,-0.5111111111111111],[0.010416666666666666,-0.5111111111111111],[0.010416666666666666,-0.5111111111111111],[0.010416666666666666,-0.5111111111111111],[0.010416666666666666,-0.5111111111111111],[0.010416666666666666,-0.5111111111111111],[0.010416666666666666,-0.5111111111111111],[0.010416666666666666,-0.5111111111111111],[0.010416666666666666,-0.5111111111111111],[0.010416666666666666,-0.5111111111111111],[0.010416666666666666,-0.5111111111111111],[0.010416666666666666,-0.5111111111111111],[0.010416666666666666,-0.5111111111111111],[0.010416666666666666,-0.5111111111111111],[0.010416666666666666,-0.5111111111111111],[0.010416666666666666,-0.5111111111111111],[0.010416666666666666,-0.5111111111111111],[0.010416666666666666,-0.5111111111111111],[0.010416666666666666,-0.5111111111111111],[0.010416666666666666,-0.5111111111111111],[0.010416666666666666,-0.5111111111111111],[0.010416666666666666,-0.5111111111111111],[0.010416666666666666,-0.5111111111111111],[0.010416666666666666,-0.5111111111111111],[0.010416666666666666,-0.5111111111111111],[0.010416666666666666,-0.5111111111111111],[0.010416666666666666,-0.5111111111111111],[0.010416666666666666,-0.5111111111111111],[0.010416666666666666,-0.5111111111111111],[0.010416666666666666,-0.5111111111111111],[0.010416666666666666,-0.5111111111111111],[0.010416666666666666,-0.5111111111111111],[0.010416666666666666,-0.5111111111111111],[0.010416666666666666,-0.5111111111111111],[0.010416666666666666,-0.5111111111111111],[0.010416666666666666,-0.5111111111111111],[0.010416666666666666,-0.5111111111111111],[0.010416666666666666,-0.5111111111111111],[0.010416666666666666,-0.5111111111111111],[0.010416666666666666,-0.5111111111111111],[0.010416666666666666,-0.5111111111111111],[0.010416666666666666,-0.5111111111111111],[0.010416666666666666,-0.5111111111111111],[0.010416666666666666,-0.5111111111111111],[0.010416666666666666,-0.5111111111111111],[0.010416666666666666,-0.5111111111111111],[0.010416666666666666,-0.5111111111111111],[0.010416666666666666,-0.5111111111111111],[0.010416666666666666,-0.5111111111111111],[0.010416666666666666,-0.5111111111111111],[0.010416666666666666,-0.5111111111111111],[0.010416666666666666,-0.5111111111111111],[0.010416666666666666,-0.5111111111111111],[0.010416666666666666,-0.5111111111111111],[0.010416666666666666,-0.5111111111111111],[0.010416666666666666,-0.5111111111111111],[0.010416666666666666,-0.5111111111111111],[0.010416666666666666,-0.5111111111111111],[0.010416666666666666,-0.5111111111111111],[0.010416666666666666,-0.5111111111111111],[0.010416666666666666,-0.5111111111111111],[0.010416666666666666,-0.5111111111111111],[0.010416666666666666,-0.5111111111111111],[0.010416666666666666,-0.5111111111111111],[0.010416666666666666,-0.5111111111111111],[0.010416666666666666,-0.5111111111111111],[0.010416666666666666,-0.5111111111111111],[0.010416666666666666,-0.5111111111111111],[0.010416666666666666,-0.5111111111111111],[0.010416666666666666,-0.5111111111111111],[0.010416666666666666,-0.5111111111111111],[0.010416666666666666,-0.5111111111111111],[0.010416666666666666,-0.5111111111111111],[0.010416666666666666,-0.5111111111111111],[0.010416666666666666,-0.5111111111111111],[0.010416666666666666,-0.5111111111111111],[0.010416666666666666,-0.5111111111111111],[0.010416666666666666,-0.5111111111111111],[0.010416666666666666,-0.5111111111111111],[0.010416666666666666,-0.5111111111111111],[0.010416666666666666,-0.5111111111111111],[0.010416666666666666,-0.5111111111111111],[0.010416666666666666,-0.5111111111111111],[0.010416666666666666,-0.5111111111111111],[0.010416666666666666,-0.5111111111111111],[0.010416666666666666,-0.5111111111111111],[0.010416666666666666,-0.5111111111111111],[0.010416666666666666,-0.5111111111111111],[0.010416666666666666,-0.5111111111111111],[0.010416666666666666,-0.5111111111111111],[0.010416666666666666,-0.5111111111111111],[0.010416666666666666,-0.5111111111111111],[0.010416666666666666,-0.5111111111111111],[0.010416666666666666,-0.5111111111111111],[0.010416666666666666,-0.5111111111111111],[0.010416666666666666,-0.5111111111111111],[0.010416666666666666,-0.5111111111111111],[0.010416666666666666,-0.5111111111111111],[0.010416666666666666,-0.5111111111111111],[0.010416666666666666,-0.5111111111111111],[0.010416666666666666,-0.5111111111111111],[0.010416666666666666,-0.5111111111111111],[0.010416666666666666,-0.5111111111111111],[0.010416666666666666,-0.5111111111111111],[0.010416666666666666,-0.5111111111111111],[0.010416666666666666,-0.5111111111111111],[0.010416666666666666,-0.5111111111111111],[0.010416666666666666,-0.5111111111111111],[0.010416666666666666,-0.5111111111111111],[0.010416666666666666,-0.5111111111111111],[0.010416666666666666,-0.5111111111111111],[0.010416666666666666,-0.5111111111111111],[0.010416666666666666,-0.5111111111111111],[0.010416666666666666,-0.5111111111111111],[0.010416666666666666,-0.5111111111111111],[0.010416666666666666,-0.5111111111111111],[0.010416666666666666,-0.5111111111111111],[0.010416666666666666,-0.5111111111111111],[0.010416666666666666,-0.5111111111111111],[0.010416666666666666,-0.5111111111111111],[0.010416666666666666,-0.5111111111111111],[0.010416666666666666,-0.5111111111111111],[0.010416666666666666,-0.5111111111111111],[0.010416666666666666,-0.5111111111111111],[0.010416666666666666,-0.5111111111111111],[0.010416666666666666,-0.5111111111111111],[0.010416666666666666,-0.5111111111111111],[0.010416666666666666,-0.5111111111111111],[0.010416666666666666,-0.5111111111111111],[0.010416666666666666,-0.5111111111111111],[0.010416666666666666,-0.5111111111111111],[0.010416666666666666,-0.5111111111111111],[0.010416666666666666,-0.5111111111111111],[0.010416666666666666,-0.5111111111111111],[0.010416666666666666,-0.5111111111111111],[0.010416666666666666,-0.5111111111111111],[0.010416666666666666,-0.5111111111111111],[0.010416666666666666,-0.5111111111111111],[0.010416666666666666,-0.5111111111111111],[0.010416666666666666,-0.5111111111111111],[0.010416666666666666,-0.5111111111111111],[0.010416666666666666,-0.5111111111111111],[0.010416666666666666,-0.5111111111111111],[0.010416666666666666,-0.5111111111111111],[0.010416666666666666,-0.5111111111111111],[0.010416666666666666,-0.5111111111111111],[0.010416666666666666,-0.5111111111111111],[0.010416666666666666,-0.5111111111111111],[0.010416666666666666,-0.5111111111111111],[0.010416666666666666,-0.5111111111111111],[0.010416666666666666,-0.5111111111111111],[0.010416666666666666,-0.5111111111111111],[0.010416666666666666,-0.5111111111111111],[0.010416666666666666,-0.5111111111111111],[0.010416666666666666,-0.5111111111111111],[0.010416666666666666,-0.5092592592592593],[0.010416666666666666,-0.5092592592592593],[0.010416666666666666,-0.5092592592592593],[0.010416666666666666,-0.5092592592592593],[0.010416666666666666,-0.5037037037037037],[0.010416666666666666,-0.4962962962962963],[0.010416666666666666,-0.48703703703703705],[0.010416666666666666,-0.4703703703703704],[0.010416666666666666,-0.45555555555555555],[0.010416666666666666,-0.4388888888888889],[0.010416666666666666,-0.4166666666666667],[0.010416666666666666,-0.3962962962962963],[0.010416666666666666,-0.37037037037037035],[0.010416666666666666,-0.3425925925925926],[0.010416666666666666,-0.31666666666666665],[0.010416666666666666,-0.29074074074074074],[0.010416666666666666,-0.25],[0.010416666666666666,-0.2351851851851852],[0.010416666666666666,-0.2074074074074074],[0.010416666666666666,-0.16296296296296298],[0.010416666666666666,-0.13148148148148148],[0.010416666666666666,-0.10185185185185185],[0.010416666666666666,-0.07407407407407407],[0.010416666666666666,-0.03148148148148148],[0.010416666666666666,-0.020370370370370372],[0.010416666666666666,0.005555555555555556],[0.010416666666666666,0.027777777777777776],[0.010416666666666666,0.04259259259259259],[0.010416666666666666,0.05555555555555555],[0.010416666666666666,0.06481481481481481],[0.010416666666666666,0.07037037037037037],[0.010416666666666666,0.07407407407407407],[0.010416666666666666,0.07592592592592592],[0.010416666666666666,0.07777777777777778],[0.010416666666666666,0.07777777777777778],[0.009375,0.07962962962962963],[0.008333333333333333,0.07962962962962963],[0.008333333333333333,0.08333333333333333],[0.007291666666666667,0.09074074074074075],[0.005208333333333333,0.0962962962962963],[0.005208333333333333,0.1037037037037037],[0.005208333333333333,0.1111111111111111],[0.005208333333333333,0.12222222222222222],[0.005208333333333333,0.12962962962962962],[0.005208333333333333,0.13518518518518519],[0.005208333333333333,0.14074074074074075],[0.005208333333333333,0.14629629629629629],[0.005208333333333333,0.14814814814814814],[0.005208333333333333,0.14814814814814814],[0.005208333333333333,0.14814814814814814],[0.005208333333333333,0.14814814814814814],[0.005208333333333333,0.14814814814814814],[0.005208333333333333,0.14814814814814814],[0.005208333333333333,0.14814814814814814],[0.005208333333333333,0.14814814814814814],[0.005208333333333333,0.14814814814814814],[0.005208333333333333,0.14814814814814814],[0.005208333333333333,0.14814814814814814],[0.005208333333333333,0.14814814814814814],[0.005208333333333333,0.14814814814814814],[0.005208333333333333,0.14814814814814814],[0.005208333333333333,0.14814814814814814],[0.005208333333333333,0.14814814814814814],[0.005208333333333333,0.14814814814814814],[0.005208333333333333,0.14814814814814814],[0.005208333333333333,0.14814814814814814],[0.005208333333333333,0.14814814814814814],[0.005208333333333333,0.14814814814814814],[0.005208333333333333,0.14814814814814814],[0.005208333333333333,0.14814814814814814],[0.005208333333333333,0.14814814814814814],[0.005208333333333333,0.14814814814814814],[0.005208333333333333,0.14814814814814814],[0.005208333333333333,0.14814814814814814],[0.005208333333333333,0.14814814814814814],[0.005208333333333333,0.14814814814814814],[0.005208333333333333,0.14814814814814814],[0.005208333333333333,0.14814814814814814],[0.005208333333333333,0.14814814814814814],[0.005208333333333333,0.14814814814814814],[0.005208333333333333,0.14814814814814814],[0.005208333333333333,0.14814814814814814],[0.005208333333333333,0.14814814814814814],[0.005208333333333333,0.14814814814814814],[0.005208333333333333,0.14814814814814814],[0.005208333333333333,0.14814814814814814],[0.005208333333333333,0.14814814814814814],[0.005208333333333333,0.14814814814814814],[0.005208333333333333,0.14814814814814814],[0.005208333333333333,0.14814814814814814],[0.005208333333333333,0.14814814814814814],[0.005208333333333333,0.14814814814814814],[0.005208333333333333,0.14814814814814814],[0.005208333333333333,0.14814814814814814],[0.005208333333333333,0.14814814814814814],[0.005208333333333333,0.14814814814814814],[0.005208333333333333,0.14814814814814814],[0.005208333333333333,0.14814814814814814],[0.005208333333333333,0.14814814814814814],[0.005208333333333333,0.14814814814814814],[0.005208333333333333,0.14814814814814814],[0.005208333333333333,0.14814814814814814],[0.005208333333333333,0.14814814814814814],[0.005208333333333333,0.14814814814814814],[0.005208333333333333,0.14814814814814814],[0.005208333333333333,0.14814814814814814],[0.005208333333333333,0.14814814814814814],[0.005208333333333333,0.14814814814814814],[0.005208333333333333,0.14814814814814814],[0.005208333333333333,0.14814814814814814],[0.005208333333333333,0.14814814814814814],[0.005208333333333333,0.14814814814814814],[0.005208333333333333,0.14814814814814814],[0.005208333333333333,0.14814814814814814],[0.005208333333333333,0.14814814814814814],[0.005208333333333333,0.14814814814814814],[0.005208333333333333,0.14814814814814814]]","[[-0.019583333333333286,0.5657407407407408],[-0.019583333333333286,0.5657407407407408],[-0.006458333333333381,0.5675925925925925],[0.007604166666666619,0.5981481481481481],[0.007604166666666619,0.5981481481481481],[0.017083333333333308,0.6374074074074075],[0.04520833333333331,0.6661111111111112],[0.04656250000000005,0.656111111111111],[0.059062500000000046,0.5992592592592593],[0.08770833333333337,0.5931481481481481],[0.07739583333333329,0.5964814814814815],[0.05458333333333331,0.6064814814814815],[0.04614583333333329,0.6298148148148148],[0.0203125,0.6294444444444444],[-0.0007291666666667141,0.6485185185185186],[-0.014895833333333285,0.6420370370370371],[-0.04916666666666671,0.653888888888889],[-0.06281249999999995,0.7011111111111111],[-0.08062499999999997,0.7979629629629629],[-0.12124999999999998,0.7857407407407406],[-0.11572916666666669,0.7312962962962962],[-0.12458333333333335,0.7401851851851853],[-0.13572916666666662,0.7381481481481482],[-0.12291666666666666,0.7529629629629631],[-0.12291666666666666,0.7529629629629631],[-0.12291666666666666,0.7314814814814815],[-0.14395833333333338,0.719074074074074],[-0.17083333333333334,0.7153703703703703],[-0.18937499999999996,0.7320370370370369],[-0.18187500000000004,0.6701851851851851],[-0.15395833333333328,0.6474074074074074],[-0.16749999999999995,0.65],[-0.16354166666666667,0.6411111111111112],[-0.15510416666666665,0.6016666666666666],[-0.15427083333333336,0.600925925925926],[-0.16281249999999994,0.5864814814814816],[-0.14750000000000002,0.6124074074074075],[-0.12270833333333328,0.5990740740740741],[-0.10510416666666664,0.5596296296296297],[-0.11979166666666667,0.5572222222222222],[-0.1336458333333333,0.5768518518518518],[-0.13270833333333332,0.6377777777777778],[-0.1248958333333333,0.6361111111111111],[-0.13854166666666667,0.6796296296296296],[-0.13416666666666663,0.7033333333333333],[-0.11124999999999995,0.7183333333333333],[-0.08999999999999998,0.7105555555555556],[-0.08010416666666664,0.717962962962963],[-0.0704166666666667,0.6562962962962963],[-0.08208333333333329,0.6511111111111112],[-0.10333333333333337,0.6577777777777779],[-0.10604166666666662,0.6194444444444445],[-0.11895833333333337,0.5905555555555555],[-0.1203125,0.5507407407407408],[-0.14770833333333327,0.5133333333333334],[-0.15406249999999996,0.47925925925925916],[-0.15177083333333338,0.39462962962962966],[-0.16541666666666663,0.36574074074074076],[-0.16875,0.39592592592592585],[-0.14229166666666668,0.3520370370370371],[-0.11875,0.3020370370370371],[-0.12833333333333338,0.285],[-0.14197916666666663,0.27814814814814826],[-0.14197916666666663,0.27814814814814826],[-0.1280208333333333,0.22629629629629638],[-0.08614583333333338,0.13722222222222227],[-0.08614583333333338,0.13722222222222227],[-0.06416666666666669,0.06055555555555564],[-0.06416666666666669,0.06055555555555564],[-0.09354166666666662,0.0787037037037037],[-0.09354166666666662,0.0787037037037037],[-0.10031249999999996,0.034074074074074034],[-0.10031249999999996,0.034074074074074034],[-0.11197916666666667,0.010925925925925884],[-0.11197916666666667,0.010925925925925884],[-0.08374999999999998,-0.03629629629629634],[-0.08416666666666663,-0.05611111111111113],[-0.06229166666666662,-0.08666666666666668],[-0.04041666666666662,-0.11722222222222224],[-0.04760416666666671,-0.11722222222222224],[-0.08270833333333331,-0.07999999999999997],[-0.11781250000000003,-0.00722222222222218],[-0.09885416666666665,-0.01703703703703712],[-0.07552083333333333,0.018333333333333292],[-0.07385416666666664,0.04259259259259259],[-0.11385416666666662,0.09314814814814806],[-0.12729166666666672,0.10777777777777786],[-0.11447916666666665,0.14537037037037037],[-0.12395833333333334,0.18037037037037032],[-0.14677083333333332,0.2264814814814814],[-0.1404166666666666,0.2490740740740741],[-0.11124999999999995,0.2101851851851852],[-0.08645833333333333,0.25333333333333324],[-0.11354166666666667,0.26888888888888896],[-0.13010416666666663,0.2716666666666668],[-0.12510416666666668,0.2455555555555556],[-0.12010416666666662,0.21944444444444444],[-0.15583333333333335,0.22518518518518524],[-0.16927083333333334,0.23351851851851857],[-0.15812499999999996,0.24203703703703713],[-0.1751041666666667,0.27685185185185185],[-0.2195833333333333,0.3218518518518518],[-0.26802083333333326,0.2748148148148148],[-0.2673958333333334,0.26481481481481484],[-0.2648958333333333,0.27462962962962956],[-0.26749999999999996,0.33129629629629626],[-0.27010416666666665,0.38796296296296295],[-0.25979166666666664,0.3933333333333333],[-0.24947916666666667,0.3987037037037036],[-0.24666666666666662,0.4046296296296296],[-0.24489583333333337,0.40777777777777785],[-0.22124999999999997,0.41944444444444445],[-0.22124999999999997,0.41944444444444445],[-0.20406249999999998,0.4696296296296297],[-0.1814583333333334,0.48648148148148157],[-0.14281250000000004,0.48499999999999993],[-0.13552083333333337,0.42185185185185176],[-0.12760416666666666,0.3731481481481482],[-0.11666666666666667,0.32148148148148153],[-0.09968750000000005,0.3022222222222223],[-0.06343749999999998,0.30648148148148147],[-0.04833333333333331,0.2985185185185186],[-0.057083333333333285,0.2942592592592592],[-0.0390625,0.26944444444444443],[-0.049687500000000044,0.22407407407407406],[-0.051041666666666666,0.17555555555555546],[-0.044479166666666715,0.1844444444444445],[-0.019791666666666666,0.20111111111111116],[-0.020937500000000022,0.20314814814814824],[-0.008229166666666643,0.18222222222222217],[-0.011666666666666714,0.13666666666666658],[-0.009062500000000048,0.10666666666666672],[-0.018229166666666668,0.0992592592592593],[-0.04052083333333331,0.0816666666666667],[-0.03708333333333336,0.08277777777777787],[-0.041979166666666616,0.11703703703703712],[-0.049270833333333285,0.17888888888888893],[-0.09468749999999998,0.21074074074074065],[-0.11427083333333338,0.2572222222222222],[-0.1492708333333333,0.2814814814814815],[-0.1842708333333333,0.30574074074074076],[-0.18979166666666672,0.24833333333333338],[-0.17687499999999995,0.17185185185185176],[-0.19333333333333336,0.20425925925925917],[-0.19333333333333336,0.20425925925925917],[-0.21593749999999995,0.2300000000000001],[-0.24083333333333337,0.2537037037037037],[-0.1970833333333334,0.18981481481481483],[-0.15593750000000003,0.14296296296296304],[-0.14906250000000001,0.12222222222222222],[-0.16135416666666663,0.14629629629629629],[-0.15760416666666663,0.14648148148148152],[-0.16520833333333335,0.2051851851851851],[-0.15843750000000004,0.2322222222222222],[-0.1359375,0.18111111111111103],[-0.10187499999999995,0.15203703703703708],[-0.07843749999999995,0.105925925925926],[-0.10322916666666669,0.09537037037037037],[-0.11489583333333328,0.07166666666666675],[-0.09187500000000005,0.04351851851851852],[-0.06041666666666667,-0.03592592592592588],[-0.05656249999999995,-0.025370370370370456],[-0.05572916666666667,0.005000000000000084],[-0.06666666666666667,0.06111111111111111],[-0.07760416666666667,0.11722222222222214],[-0.08458333333333339,0.17851851851851847],[-0.09156249999999998,0.23981481481481481],[-0.09479166666666666,0.32148148148148153],[-0.08916666666666669,0.407037037037037],[-0.09489583333333336,0.46277777777777773],[-0.09489583333333336,0.46277777777777773],[-0.1123958333333333,0.5718518518518517],[-0.12322916666666663,0.6037037037037037],[-0.08937499999999995,0.5738888888888889],[-0.08541666666666667,0.5301851851851851],[-0.06156250000000003,0.5303703703703704],[-0.05645833333333338,0.4925925925925926],[-0.05135416666666662,0.45481481481481484],[-0.057291666666666664,0.41462962962962957],[-0.06791666666666671,0.3822222222222222],[-0.075,0.36925925925925923],[-0.04135416666666671,0.2537037037037037],[-0.010104166666666714,0.18499999999999997],[-0.026041666666666668,0.23111111111111102],[-0.026041666666666668,0.23111111111111102],[-0.01229166666666662,0.23592592592592587],[-0.01229166666666662,0.23592592592592587],[0.001145833333333357,0.2479629629629629],[0.001145833333333357,0.2479629629629629],[0.007500000000000047,0.2927777777777778],[0.007500000000000047,0.2927777777777778],[-0.012916666666666642,0.2733333333333334],[-0.012916666666666642,0.2733333333333334],[0.0125,0.26648148148148143],[0.0125,0.26648148148148143],[0.019895833333333356,0.26703703703703713],[0.02385416666666664,0.20666666666666672],[0.03343750000000002,0.17925925925925917],[0.03312499999999995,0.09981481481481477],[0.04364583333333331,0.07111111111111107],[0.051770833333333384,0.10351851851851848],[0.04739583333333333,0.09055555555555551],[0.04520833333333331,-0.018148148148148063],[0.06979166666666667,-0.06259259259259262],[0.057187499999999974,-0.10611111111111113],[0.04895833333333333,-0.12685185185185185],[0.06020833333333329,-0.14592592592592596],[0.05427083333333336,-0.12388888888888884],[0.07468750000000005,-0.11037037037037041],[0.08937499999999995,-0.15537037037037033],[0.08822916666666672,-0.20185185185185187],[0.07322916666666662,-0.23981481481481481],[0.07249999999999991,-0.19740740740740745],[0.0865624999999999,-0.1814814814814815],[0.11083333333333342,-0.17833333333333334],[0.1478125000000001,-0.24148148148148144],[0.1478125000000001,-0.24148148148148144],[0.17614583333333325,-0.2566666666666667],[0.17583333333333329,-0.23574074074074075],[0.18468749999999995,-0.17462962962962966],[0.18864583333333323,-0.1485185185185185],[0.1742708333333333,-0.1690740740740741],[0.18447916666666658,-0.1809259259259259],[0.20020833333333338,-0.17981481481481484],[0.20114583333333325,-0.1522222222222222],[0.18302083333333338,-0.16925925925925922],[0.17052083333333337,-0.15796296296296297],[0.1474999999999999,-0.14425925925925923],[0.14197916666666663,-0.17222222222222222],[0.11947916666666672,-0.22518518518518524],[0.11583333333333339,-0.3022222222222222],[0.1318749999999999,-0.2661111111111111],[0.13208333333333327,-0.27037037037037037],[0.1068749999999999,-0.2346296296296296],[0.08166666666666676,-0.19888888888888884],[0.05916666666666662,-0.18629629629629635],[0.03791666666666664,-0.16500000000000004],[0.02947916666666662,-0.09981481481481477],[0.018437500000000048,-0.05611111111111113],[-0.003125,-0.0016666666666666245],[-0.04125000000000002,0.0544444444444444],[-0.019375000000000024,-0.004074074074074159],[0,-0.04685185185185177],[0.043229166666666666,-0.14592592592592596],[0.09104166666666676,-0.24870370370370373],[0.11552083333333343,-0.28648148148148145],[0.13875000000000004,-0.33296296296296296],[0.15593750000000003,-0.35333333333333333],[0.1818749999999999,-0.35611111111111116],[0.18645833333333334,-0.3375925925925926],[0.21614583333333334,-0.3816666666666667],[0.19864583333333338,-0.31555555555555553],[0.18458333333333338,-0.255],[0.1796875,-0.18333333333333332],[0.17020833333333343,-0.10796296296296298],[0.15343749999999995,-0.049074074074074076],[0.1554166666666667,0.02444444444444453],[0.14229166666666657,0.04000000000000004],[0.12302083333333323,0.05944444444444449],[0.12135416666666667,0.0551851851851851],[0.11927083333333334,0.11796296296296305],[0.10770833333333343,0.11333333333333341],[0.10072916666666672,0.08185185185185194],[0.06770833333333333,0.05648148148148148],[0.034687499999999954,0.031111111111111027],[0.044479166666666715,0.005740740740740783],[0.022187499999999954,-0.010925925925925884],[0.016562499999999977,-0.03796296296296296],[0.0109375,-0.06500000000000004],[0.003958333333333286,-0.07796296296296301],[-0.012187500000000047,-0.0727777777777778],[-0.014999999999999977,-0.06703703703703702],[-0.025312499999999953,-0.027222222222222307],[-0.022812499999999975,-0.009259259259259259],[-0.03187500000000002,0.005370370370370328],[-0.04989583333333331,0.02388888888888885],[-0.05458333333333331,0.01907407407407399]]","[[-0.019583333333333286,0.5657407407407408,0.00019999999553022008],[-0.019583333333333286,0.5657407407407408,0.036699999995526866],[-0.006458333333333381,0.5675925925925925,0.04529999999702028],[0.007604166666666619,0.5981481481481481,0.06750000000000256],[0.007604166666666619,0.5981481481481481,0.0786000000014937],[0.017083333333333308,0.6374074074074075,0.09519999999552908],[0.04520833333333331,0.6661111111111112,0.11189999999851352],[0.04656250000000005,0.656111111111111,0.1285000000000025],[0.059062500000000046,0.5992592592592593,0.14860000000148688],[0.08770833333333337,0.5931481481481481,0.16179999999702233],[0.07739583333333329,0.5964814814814815,0.17849999999999966],[0.05458333333333331,0.6064814814814815,0.1951999999955305],[0.04614583333333329,0.6298148148148148,0.21189999999850784],[0.0203125,0.6294444444444444,0.22849999999999682],[-0.0007291666666667141,0.6485185185185186,0.24519999999552766],[-0.014895833333333285,0.6420370370370371,0.26200000000000045],[-0.04916666666666671,0.653888888888889,0.27969999999552897],[-0.06281249999999995,0.7011111111111111,0.2951999999955319],[-0.08062499999999997,0.7979629629629629,0.31219999999552783],[-0.12124999999999998,0.7857407407407406,0.3286000000014937],[-0.11572916666666669,0.7312962962962962,0.3451999999955291],[-0.12458333333333335,0.7401851851851853,0.36179999999701806],[-0.13572916666666662,0.7381481481481482,0.37860000000149086],[-0.12291666666666666,0.7529629629629631,0.3951000000014915],[-0.12291666666666666,0.7529629629629631,0.4118999999985107],[-0.12291666666666666,0.7314814814814815,0.42849999999999966],[-0.14395833333333338,0.719074074074074,0.4462999999970165],[-0.17083333333333334,0.7153703703703703,0.4651999999955265],[-0.18937499999999996,0.7320370370370369,0.48049999999999926],[-0.18187500000000004,0.6701851851851851,0.49519999999552766],[-0.15395833333333328,0.6474074074074074,0.5123999999985074],[-0.16749999999999995,0.65,0.5285000000000011],[-0.16354166666666667,0.6411111111111112,0.5465000000000018],[-0.15510416666666665,0.6016666666666666,0.5617999999970209],[-0.15427083333333336,0.600925925925926,0.5786000000014937],[-0.16281249999999994,0.5864814814814816,0.5951999999955291],[-0.14750000000000002,0.6124074074074075,0.6117999999970181],[-0.12270833333333328,0.5990740740740741,0.6285000000000025],[-0.10510416666666664,0.5596296296296297,0.6451999999955333],[-0.11979166666666667,0.5572222222222222,0.6618999999985107],[-0.1336458333333333,0.5768518518518518,0.6784999999999997],[-0.13270833333333332,0.6377777777777778,0.6951999999955305],[-0.1248958333333333,0.6361111111111111,0.7135000000000034],[-0.13854166666666667,0.6796296296296296,0.7328999999985086],[-0.13416666666666663,0.7033333333333333,0.7487999999970185],[-0.11124999999999995,0.7183333333333333,0.7626000000014912],[-0.08999999999999998,0.7105555555555556,0.7785000000000011],[-0.08010416666666664,0.717962962962963,0.7951999999955319],[-0.0704166666666667,0.6562962962962963,0.8118999999985093],[-0.08208333333333329,0.6511111111111112,0.8284999999999982],[-0.10333333333333337,0.6577777777777779,0.8451999999955291],[-0.10604166666666662,0.6194444444444445,0.8617999999970181],[-0.11895833333333337,0.5905555555555555,0.8785000000000025],[-0.1203125,0.5507407407407408,0.8952999999970217],[-0.14770833333333327,0.5133333333333334,0.9117999999970223],[-0.15406249999999996,0.47925925925925916,0.9284999999999997],[-0.15177083333333338,0.39462962962962966,0.9451999999955305],[-0.16541666666666663,0.36574074074074076,0.9618999999985078],[-0.16875,0.39592592592592585,0.9786000000014923],[-0.14229166666666668,0.3520370370370371,0.9951999999955277],[-0.11875,0.3020370370370371,1.0117999999970166],[-0.12833333333333338,0.285,1.0287999999970197],[-0.14197916666666663,0.27814814814814826,1.045199999995532],[-0.14197916666666663,0.27814814814814826,1.0618999999985093],[-0.1280208333333333,0.22629629629629638,1.0787999999970168],[-0.08614583333333338,0.13722222222222227,1.0996000000014874],[-0.08614583333333338,0.13722222222222227,1.1118999999985135],[-0.06416666666666669,0.06055555555555564,1.1285000000000025],[-0.06416666666666669,0.06055555555555564,1.1451999999955333],[-0.09354166666666662,0.0787037037037037,1.1618999999985107],[-0.09354166666666662,0.0787037037037037,1.178600000001488],[-0.10031249999999996,0.034074074074074034,1.1951999999955305],[-0.10031249999999996,0.034074074074074034,1.2117999999970195],[-0.11197916666666667,0.010925925925925884,1.2284999999999968],[-0.11197916666666667,0.010925925925925884,1.2453999999985115],[-0.08374999999999998,-0.03629629629629634,1.2617999999970166],[-0.08416666666666663,-0.05611111111111113,1.278500000000001],[-0.06229166666666662,-0.08666666666666668,1.295199999995532],[-0.04041666666666662,-0.11722222222222224,1.3118999999985093],[-0.04760416666666671,-0.11722222222222224,1.3284999999999982],[-0.08270833333333331,-0.07999999999999997,1.3457999999970198],[-0.11781250000000003,-0.00722222222222218,1.3618999999985135],[-0.09885416666666665,-0.01703703703703712,1.3785000000000025],[-0.07552083333333333,0.018333333333333292,1.3951999999955333],[-0.07385416666666664,0.04259259259259259,1.4118999999985107],[-0.11385416666666662,0.09314814814814806,1.4287999999970182],[-0.12729166666666672,0.10777777777777786,1.4451999999955305],[-0.11447916666666665,0.14537037037037037,1.4641999999955289],[-0.12395833333333334,0.18037037037037032,1.4787999999970225],[-0.14677083333333332,0.2264814814814814,1.495100000001493],[-0.1404166666666666,0.2490740740740741,1.511899999998512],[-0.11124999999999995,0.2101851851851852,1.528500000000001],[-0.08645833333333333,0.25333333333333324,1.545499999999997],[-0.11354166666666667,0.26888888888888896,1.561799999997021],[-0.13010416666666663,0.2716666666666668,1.5786000000014937],[-0.12510416666666668,0.2455555555555556,1.595199999995529],[-0.12010416666666662,0.21944444444444444,1.6118999999985135],[-0.15583333333333335,0.22518518518518524,1.6286000000014909],[-0.16927083333333334,0.23351851851851857,1.6456000000014939],[-0.15812499999999996,0.24203703703703713,1.6618999999985107],[-0.1751041666666667,0.27685185185185185,1.6784999999999997],[-0.2195833333333333,0.3218518518518518,1.6951999999955305],[-0.26802083333333326,0.2748148148148148,1.7118999999985078],[-0.2673958333333334,0.26481481481481484,1.7284999999999968],[-0.2648958333333333,0.27462962962962956,1.7451999999955277],[-0.26749999999999996,0.33129629629629626,1.7617999999970166],[-0.27010416666666665,0.38796296296296295,1.7786000000014894],[-0.25979166666666664,0.3933333333333333,1.795199999995532],[-0.24947916666666667,0.3987037037037036,1.811799999997021],[-0.24666666666666662,0.4046296296296296,1.8284999999999982],[-0.24489583333333337,0.40777777777777785,1.8456999999955315],[-0.22124999999999997,0.41944444444444445,1.8618999999985135],[-0.22124999999999997,0.41944444444444445,1.880699999995528],[-0.20406249999999998,0.4696296296296297,1.8956000000014939],[-0.1814583333333334,0.48648148148148157,1.9117999999970223],[-0.14281250000000004,0.48499999999999993,1.9284999999999997],[-0.13552083333333337,0.42185185185185176,1.9452999999970189],[-0.12760416666666666,0.3731481481481482,1.9617999999970195],[-0.11666666666666667,0.32148148148148153,1.9784999999999968],[-0.09968750000000005,0.3022222222222223,1.9951999999955277],[-0.06343749999999998,0.30648148148148147,2.0117999999970166],[-0.04833333333333331,0.2985185185185186,2.028500000000001],[-0.057083333333333285,0.2942592592592592,2.0453999999985086],[-0.0390625,0.26944444444444443,2.061799999997021],[-0.049687500000000044,0.22407407407407406,2.0807999999970193],[-0.051041666666666666,0.17555555555555546,2.0952999999970174],[-0.044479166666666715,0.1844444444444445,2.1118999999985135],[-0.019791666666666666,0.20111111111111116,2.1285000000000025],[-0.020937500000000022,0.20314814814814824,2.1451000000014915],[-0.008229166666666643,0.18222222222222217,2.1617999999970223],[-0.011666666666666714,0.13666666666666658,2.1784999999999997],[-0.009062500000000048,0.10666666666666672,2.1951999999955305],[-0.018229166666666668,0.0992592592592593,2.211899999998508],[-0.04052083333333331,0.0816666666666667,2.2283999999985085],[-0.03708333333333336,0.08277777777777787,2.2451999999955277],[-0.041979166666666616,0.11703703703703712,2.2617999999970166],[-0.049270833333333285,0.17888888888888893,2.2786999999955313],[-0.09468749999999998,0.21074074074074065,2.295199999995532],[-0.11427083333333338,0.2572222222222222,2.3118999999985093],[-0.1492708333333333,0.2814814814814815,2.3284999999999982],[-0.1842708333333333,0.30574074074074076,2.346499999999999],[-0.18979166666666672,0.24833333333333338,2.361799999997018],[-0.17687499999999995,0.17185185185185176,2.378600000001491],[-0.19333333333333336,0.20425925925925917,2.3951000000014915],[-0.19333333333333336,0.20425925925925917,2.4118999999985107],[-0.21593749999999995,0.2300000000000001,2.4284999999999997],[-0.24083333333333337,0.2537037037037037,2.445600000001491],[-0.1970833333333334,0.18981481481481483,2.4617999999970195],[-0.15593750000000003,0.14296296296296304,2.478499999999997],[-0.14906250000000001,0.12222222222222222,2.4951999999955277],[-0.16135416666666663,0.14629629629629629,2.511899999998512],[-0.15760416666666663,0.14648148148148152,2.528500000000001],[-0.16520833333333335,0.2051851851851851,2.5452999999970203],[-0.15843750000000004,0.2322222222222222,2.5618999999985093],[-0.1359375,0.18111111111111103,2.57839999999851],[-0.10187499999999995,0.15203703703703708,2.595199999995529],[-0.07843749999999995,0.105925925925926,2.6118999999985135],[-0.10322916666666669,0.09537037037037037,2.6286999999955327],[-0.11489583333333328,0.07166666666666675,2.6451999999955333],[-0.09187500000000005,0.04351851851851852,2.6617999999970223],[-0.06041666666666667,-0.03592592592592588,2.6802999999970183],[-0.05656249999999995,-0.025370370370370456,2.6951999999955305],[-0.05572916666666667,0.005000000000000084,2.711899999998508],[-0.06666666666666667,0.06111111111111111,2.7286000000014923],[-0.07760416666666667,0.11722222222222214,2.747],[-0.08458333333333339,0.17851851851851847,2.761899999998512],[-0.09156249999999998,0.23981481481481481,2.7786999999955313],[-0.09479166666666666,0.32148148148148153,2.7953999999985086],[-0.08916666666666669,0.407037037037037,2.8134999999999977],[-0.09489583333333336,0.46277777777777773,2.8286000000014937],[-0.09489583333333336,0.46277777777777773,2.845399999998513],[-0.1123958333333333,0.5718518518518517,2.862000000000002],[-0.12322916666666663,0.6037037037037037,2.8806000000014933],[-0.08937499999999995,0.5738888888888889,2.8952999999970217],[-0.08541666666666667,0.5301851851851851,2.911999999999999],[-0.06156250000000003,0.5303703703703704,2.9324999999999974],[-0.05645833333333338,0.4925925925925926,2.9477999999970166],[-0.05135416666666662,0.45481481481481484,2.961899999998508],[-0.057291666666666664,0.41462962962962957,2.9802999999970226],[-0.06791666666666671,0.3822222222222222,2.995299999997023],[-0.075,0.36925925925925923,3.012100000001489],[-0.04135416666666671,0.2537037037037037,3.030999999999999],[-0.010104166666666714,0.18499999999999997,3.0465000000000018],[-0.026041666666666668,0.23111111111111102,3.069100000001491],[-0.026041666666666668,0.23111111111111102,3.085799999997022],[-0.01229166666666662,0.23592592592592587,3.095399999998513],[-0.01229166666666662,0.23592592592592587,3.112000000000002],[0.001145833333333357,0.2479629629629629,3.1286999999955327],[0.001145833333333357,0.2479629629629629,3.1484999999999985],[0.007500000000000047,0.2927777777777778,3.1618999999985107],[0.007500000000000047,0.2927777777777778,3.178600000001488],[-0.012916666666666642,0.2733333333333334,3.200000000000003],[-0.012916666666666642,0.2733333333333334,3.2121999999955264],[0.0125,0.26648148148148143,3.228699999995527],[0.0125,0.26648148148148143,3.245299999997023],[0.019895833333333356,0.26703703703703713,3.2636999999955307],[0.02385416666666664,0.20666666666666672,3.2786000000014894],[0.03343750000000002,0.17925925925925917,3.2952999999970203],[0.03312499999999995,0.09981481481481477,3.3152999999970234],[0.04364583333333331,0.07111111111111107,3.32989999999851],[0.051770833333333384,0.10351851851851848,3.3471000000014897],[0.04739583333333333,0.09055555555555551,3.3662999999970182],[0.04520833333333331,-0.018148148148148063,3.381699999995533],[0.06979166666666667,-0.06259259259259262,3.395799999997017],[0.057187499999999974,-0.10611111111111113,3.4121000000014874],[0.04895833333333333,-0.12685185185185185,3.432399999998509],[0.06020833333333329,-0.14592592592592596,3.448299999997019],[0.05427083333333336,-0.12388888888888884,3.4632999999970195],[0.07468750000000005,-0.11037037037037041,3.4786000000014923],[0.08937499999999995,-0.15537037037037033,3.495100000001493],[0.08822916666666672,-0.20185185185185187,3.5117999999970166],[0.07322916666666662,-0.23981481481481481,3.528500000000001],[0.07249999999999991,-0.19740740740740745,3.547399999998511],[0.0865624999999999,-0.1814814814814815,3.561799999997021],[0.11083333333333342,-0.17833333333333334,3.5784999999999982],[0.1478125000000001,-0.24148148148148144,3.5956000000014896],[0.1478125000000001,-0.24148148148148144,3.611799999997018],[0.17614583333333325,-0.2566666666666667,3.6285000000000025],[0.17583333333333329,-0.23574074074074075,3.6481000000014916],[0.18468749999999995,-0.17462962962962966,3.6617999999970223],[0.18864583333333323,-0.1485185185185185,3.678600000001488],[0.1742708333333333,-0.1690740740740741,3.6972999999970213],[0.18447916666666658,-0.1809259259259259,3.7128999999985126],[0.20020833333333338,-0.17981481481481484,3.728499999999997],[0.20114583333333325,-0.1522222222222222,3.7451999999955277],[0.18302083333333338,-0.16925925925925922,3.7617999999970166],[0.17052083333333337,-0.15796296296296297,3.778500000000001],[0.1474999999999999,-0.14425925925925923,3.795199999995532],[0.14197916666666663,-0.17222222222222222,3.811799999997021],[0.11947916666666672,-0.22518518518518524,3.8286999999955285],[0.11583333333333339,-0.3022222222222222,3.846499999999999],[0.1318749999999999,-0.2661111111111111,3.862000000000002],[0.13208333333333327,-0.27037037037037037,3.8785000000000025],[0.1068749999999999,-0.2346296296296296,3.8951000000014915],[0.08166666666666676,-0.19888888888888884,3.9117999999970223],[0.05916666666666662,-0.18629629629629635,3.9284999999999997],[0.03791666666666664,-0.16500000000000004,3.9476999999955282],[0.02947916666666662,-0.09981481481481477,3.9617999999970195],[0.018437500000000048,-0.05611111111111113,3.978499999999997],[-0.003125,-0.0016666666666666245,3.9951999999955277],[-0.04125000000000002,0.0544444444444444,4.011799999997017],[-0.019375000000000024,-0.004074074074074159,4.028500000000001],[0,-0.04685185185185177,4.047199999995527],[0.043229166666666666,-0.14592592592592596,4.061799999997021],[0.09104166666666676,-0.24870370370370373,4.082000000000001],[0.11552083333333343,-0.28648148148148145,4.097899999998511],[0.13875000000000004,-0.33296296296296296,4.111799999997018],[0.15593750000000003,-0.35333333333333333,4.128399999998507],[0.1818749999999999,-0.35611111111111116,4.1469999999999985],[0.18645833333333334,-0.3375925925925926,4.161799999997022],[0.21614583333333334,-0.3816666666666667,4.1785],[0.19864583333333338,-0.31555555555555553,4.195100000001489],[0.18458333333333338,-0.255,4.212000000000003],[0.1796875,-0.18333333333333332,4.228499999999997],[0.17020833333333343,-0.10796296296296298,4.2464999999999975],[0.15343749999999995,-0.049074074074074076,4.261799999997017],[0.1554166666666667,0.02444444444444453,4.278399999998513],[0.14229166666666657,0.04000000000000004,4.29510000000149],[0.12302083333333323,0.05944444444444449,4.3125],[0.12135416666666667,0.0551851851851851,4.32839999999851],[0.11927083333333334,0.11796296296296305,4.34729999999702],[0.10770833333333343,0.11333333333333341,4.361799999997018],[0.10072916666666672,0.08185185185185194,4.3796000000014885],[0.06770833333333333,0.05648148148148148,4.395199999995533],[0.034687499999999954,0.031111111111111027,4.4158999999985085],[0.044479166666666715,0.005740740740740783,4.428799999997018],[0.022187499999999954,-0.010925925925925884,4.447299999997021],[0.016562499999999977,-0.03796296296296296,4.4617999999970195],[0.0109375,-0.06500000000000004,4.478499999999997],[0.003958333333333286,-0.07796296296296301,4.495100000001493],[-0.012187500000000047,-0.0727777777777778,4.511799999997017],[-0.014999999999999977,-0.06703703703703702,4.528500000000001],[-0.025312499999999953,-0.027222222222222307,4.54510000000149],[-0.022812499999999975,-0.009259259259259259,4.561799999997021],[-0.03187500000000002,0.005370370370370328,4.578499999999998],[-0.04989583333333331,0.02388888888888885,4.595199999995529],[-0.05458333333333331,0.01907407407407399,4.611799999997018]]","[0.00019999999553022008,0.036699999995526866,0.04529999999702028,0.06750000000000256,0.0786000000014937,0.09519999999552908,0.11189999999851352,0.1285000000000025,0.14860000000148688,0.16179999999702233,0.17849999999999966,0.1951999999955305,0.21189999999850784,0.22849999999999682,0.24519999999552766,0.26200000000000045,0.27969999999552897,0.2951999999955319,0.31219999999552783,0.3286000000014937,0.3451999999955291,0.36179999999701806,0.37860000000149086,0.3951000000014915,0.4118999999985107,0.42849999999999966,0.4462999999970165,0.4651999999955265,0.48049999999999926,0.49519999999552766,0.5123999999985074,0.5285000000000011,0.5465000000000018,0.5617999999970209,0.5786000000014937,0.5951999999955291,0.6117999999970181,0.6285000000000025,0.6451999999955333,0.6618999999985107,0.6784999999999997,0.6951999999955305,0.7135000000000034,0.7328999999985086,0.7487999999970185,0.7626000000014912,0.7785000000000011,0.7951999999955319,0.8118999999985093,0.8284999999999982,0.8451999999955291,0.8617999999970181,0.8785000000000025,0.8952999999970217,0.9117999999970223,0.9284999999999997,0.9451999999955305,0.9618999999985078,0.9786000000014923,0.9951999999955277,1.0117999999970166,1.0287999999970197,1.045199999995532,1.0618999999985093,1.0787999999970168,1.0996000000014874,1.1118999999985135,1.1285000000000025,1.1451999999955333,1.1618999999985107,1.178600000001488,1.1951999999955305,1.2117999999970195,1.2284999999999968,1.2453999999985115,1.2617999999970166,1.278500000000001,1.295199999995532,1.3118999999985093,1.3284999999999982,1.3457999999970198,1.3618999999985135,1.3785000000000025,1.3951999999955333,1.4118999999985107,1.4287999999970182,1.4451999999955305,1.4641999999955289,1.4787999999970225,1.495100000001493,1.511899999998512,1.528500000000001,1.545499999999997,1.561799999997021,1.5786000000014937,1.595199999995529,1.6118999999985135,1.6286000000014909,1.6456000000014939,1.6618999999985107,1.6784999999999997,1.6951999999955305,1.7118999999985078,1.7284999999999968,1.7451999999955277,1.7617999999970166,1.7786000000014894,1.795199999995532,1.811799999997021,1.8284999999999982,1.8456999999955315,1.8618999999985135,1.880699999995528,1.8956000000014939,1.9117999999970223,1.9284999999999997,1.9452999999970189,1.9617999999970195,1.9784999999999968,1.9951999999955277,2.0117999999970166,2.028500000000001,2.0453999999985086,2.061799999997021,2.0807999999970193,2.0952999999970174,2.1118999999985135,2.1285000000000025,2.1451000000014915,2.1617999999970223,2.1784999999999997,2.1951999999955305,2.211899999998508,2.2283999999985085,2.2451999999955277,2.2617999999970166,2.2786999999955313,2.295199999995532,2.3118999999985093,2.3284999999999982,2.346499999999999,2.361799999997018,2.378600000001491,2.3951000000014915,2.4118999999985107,2.4284999999999997,2.445600000001491,2.4617999999970195,2.478499999999997,2.4951999999955277,2.511899999998512,2.528500000000001,2.5452999999970203,2.5618999999985093,2.57839999999851,2.595199999995529,2.6118999999985135,2.6286999999955327,2.6451999999955333,2.6617999999970223,2.6802999999970183,2.6951999999955305,2.711899999998508,2.7286000000014923,2.747,2.761899999998512,2.7786999999955313,2.7953999999985086,2.8134999999999977,2.8286000000014937,2.845399999998513,2.862000000000002,2.8806000000014933,2.8952999999970217,2.911999999999999,2.9324999999999974,2.9477999999970166,2.961899999998508,2.9802999999970226,2.995299999997023,3.012100000001489,3.030999999999999,3.0465000000000018,3.069100000001491,3.085799999997022,3.095399999998513,3.112000000000002,3.1286999999955327,3.1484999999999985,3.1618999999985107,3.178600000001488,3.200000000000003,3.2121999999955264,3.228699999995527,3.245299999997023,3.2636999999955307,3.2786000000014894,3.2952999999970203,3.3152999999970234,3.32989999999851,3.3471000000014897,3.3662999999970182,3.381699999995533,3.395799999997017,3.4121000000014874,3.432399999998509,3.448299999997019,3.4632999999970195,3.4786000000014923,3.495100000001493,3.5117999999970166,3.528500000000001,3.547399999998511,3.561799999997021,3.5784999999999982,3.5956000000014896,3.611799999997018,3.6285000000000025,3.6481000000014916,3.6617999999970223,3.678600000001488,3.6972999999970213,3.7128999999985126,3.728499999999997,3.7451999999955277,3.7617999999970166,3.778500000000001,3.795199999995532,3.811799999997021,3.8286999999955285,3.846499999999999,3.862000000000002,3.8785000000000025,3.8951000000014915,3.9117999999970223,3.9284999999999997,3.9476999999955282,3.9617999999970195,3.978499999999997,3.9951999999955277,4.011799999997017,4.028500000000001,4.047199999995527,4.061799999997021,4.082000000000001,4.097899999998511,4.111799999997018,4.128399999998507,4.1469999999999985,4.161799999997022,4.1785,4.195100000001489,4.212000000000003,4.228499999999997,4.2464999999999975,4.261799999997017,4.278399999998513,4.29510000000149,4.3125,4.32839999999851,4.34729999999702,4.361799999997018,4.3796000000014885,4.395199999995533,4.4158999999985085,4.428799999997018,4.447299999997021,4.4617999999970195,4.478499999999997,4.495100000001493,4.511799999997017,4.528500000000001,4.54510000000149,4.561799999997021,4.578499999999998,4.595199999995529,4.611799999997018]","[1733281915268,1733281915298,1733281915306,1733281915329,1733281915340,1733281915356,1733281915373,1733281915390,1733281915410,1733281915423,1733281915439,1733281915456,1733281915473,1733281915490,1733281915506,1733281915523,1733281915541,1733281915556,1733281915573,1733281915590,1733281915606,1733281915623,1733281915640,1733281915656,1733281915673,1733281915689,1733281915707,1733281915726,1733281915741,1733281915756,1733281915773,1733281915790,1733281915807,1733281915823,1733281915840,1733281915856,1733281915873,1733281915890,1733281915906,1733281915923,1733281915939,1733281915956,1733281915974,1733281915994,1733281916010,1733281916023,1733281916039,1733281916056,1733281916073,1733281916089,1733281916106,1733281916123,1733281916139,1733281916156,1733281916173,1733281916189,1733281916206,1733281916223,1733281916239,1733281916256,1733281916273,1733281916290,1733281916306,1733281916323,1733281916340,1733281916361,1733281916373,1733281916389,1733281916406,1733281916423,1733281916439,1733281916456,1733281916473,1733281916489,1733281916506,1733281916523,1733281916539,1733281916556,1733281916573,1733281916589,1733281916607,1733281916623,1733281916639,1733281916656,1733281916673,1733281916690,1733281916706,1733281916725,1733281916740,1733281916756,1733281916773,1733281916789,1733281916807,1733281916823,1733281916839,1733281916856,1733281916873,1733281916890,1733281916907,1733281916923,1733281916939,1733281916956,1733281916973,1733281916989,1733281917006,1733281917023,1733281917040,1733281917056,1733281917073,1733281917089,1733281917107,1733281917123,1733281917142,1733281917157,1733281917173,1733281917189,1733281917206,1733281917223,1733281917239,1733281917256,1733281917273,1733281917289,1733281917306,1733281917323,1733281917342,1733281917356,1733281917373,1733281917389,1733281917406,1733281917423,1733281917439,1733281917456,1733281917473,1733281917489,1733281917506,1733281917523,1733281917540,1733281917556,1733281917573,1733281917589,1733281917607,1733281917623,1733281917639,1733281917656,1733281917673,1733281917689,1733281917707,1733281917723,1733281917739,1733281917756,1733281917773,1733281917789,1733281917806,1733281917823,1733281917839,1733281917856,1733281917873,1733281917890,1733281917906,1733281917923,1733281917941,1733281917956,1733281917973,1733281917989,1733281918008,1733281918023,1733281918040,1733281918056,1733281918075,1733281918090,1733281918106,1733281918123,1733281918142,1733281918156,1733281918173,1733281918193,1733281918209,1733281918223,1733281918241,1733281918256,1733281918273,1733281918292,1733281918307,1733281918330,1733281918347,1733281918356,1733281918373,1733281918390,1733281918409,1733281918423,1733281918440,1733281918461,1733281918473,1733281918490,1733281918506,1733281918525,1733281918540,1733281918556,1733281918576,1733281918591,1733281918608,1733281918627,1733281918643,1733281918657,1733281918673,1733281918693,1733281918709,1733281918724,1733281918740,1733281918756,1733281918773,1733281918789,1733281918808,1733281918823,1733281918839,1733281918857,1733281918873,1733281918889,1733281918909,1733281918923,1733281918939,1733281918958,1733281918974,1733281918989,1733281919006,1733281919023,1733281919039,1733281919056,1733281919073,1733281919090,1733281919107,1733281919123,1733281919139,1733281919156,1733281919173,1733281919189,1733281919209,1733281919223,1733281919239,1733281919256,1733281919273,1733281919289,1733281919308,1733281919323,1733281919343,1733281919359,1733281919373,1733281919389,1733281919408,1733281919423,1733281919439,1733281919456,1733281919473,1733281919489,1733281919507,1733281919523,1733281919539,1733281919556,1733281919573,1733281919589,1733281919608,1733281919623,1733281919641,1733281919656,1733281919677,1733281919690,1733281919708,1733281919723,1733281919739,1733281919756,1733281919773,1733281919789,1733281919806,1733281919823,1733281919839,1733281919856,1733281919873]","[[941.2,845.5],[941.2,845.5],[953.8,846.5],[967.3,863],[967.3,863],[976.4,884.2],[1003.4,899.7],[1004.7,894.3],[1016.7,863.6],[1044.2,860.3],[1034.3,862.1],[1012.4,867.5],[1004.3,880.1],[979.5,879.9],[959.3,890.2],[945.7,886.7],[912.8,893.1],[899.7,918.6],[882.6,970.9],[843.6,964.3],[848.9,934.9],[840.4,939.7],[829.7,938.6],[842,946.6],[842,946.6],[842,935],[821.8,928.3],[796,926.3],[778.2,935.3],[785.4,901.9],[812.2,889.6],[799.2,891],[803,886.2],[811.1,864.9],[811.9,864.5],[803.7,856.7],[818.4,870.7],[842.2,863.5],[859.1,842.2],[845,840.9],[831.7,851.5],[832.6,884.4],[840.1,883.5],[827,907],[831.2,919.8],[853.2,927.9],[873.6,923.7],[883.1,927.7],[892.4,894.4],[881.2,891.6],[860.8,895.2],[858.2,874.5],[845.8,858.9],[844.5,837.4],[818.2,817.2],[812.1,798.8],[814.3,753.1],[801.2,737.5],[798,753.8],[823.4,730.1],[846,703.1],[836.8,693.9],[823.7,690.2],[823.7,690.2],[837.1,662.2],[877.3,614.1],[877.3,614.1],[898.4,572.7],[898.4,572.7],[870.2,582.5],[870.2,582.5],[863.7,558.4],[863.7,558.4],[852.5,545.9],[852.5,545.9],[879.6,520.4],[879.2,509.7],[900.2,493.2],[921.2,476.7],[914.3,476.7],[880.6,496.8],[846.9,536.1],[865.1,530.8],[887.5,549.9],[889.1,563],[850.7,590.3],[837.8,598.2],[850.1,618.5],[841,637.4],[819.1,662.3],[825.2,674.5],[853.2,653.5],[877,676.8],[851,685.2],[835.1,686.7],[839.9,672.6],[844.7,658.5],[810.4,661.6],[797.5,666.1],[808.2,670.7],[791.9,689.5],[749.2,713.8],[702.7,688.4],[703.3,683],[705.7,688.3],[703.2,718.9],[700.7,749.5],[710.6,752.4],[720.5,755.3],[723.2,758.5],[724.9,760.2],[747.6,766.5],[747.6,766.5],[764.1,793.6],[785.8,802.7],[822.9,801.9],[829.9,767.8],[837.5,741.5],[848,713.6],[864.3,703.2],[899.1,705.5],[913.6,701.2],[905.2,698.9],[922.5,685.5],[912.3,661],[911,634.8],[917.3,639.6],[941,648.6],[939.9,649.7],[952.1,638.4],[948.8,613.8],[951.3,597.6],[942.5,593.6],[921.1,584.1],[924.4,584.7],[919.7,603.2],[912.7,636.6],[869.1,653.8],[850.3,678.9],[816.7,692],[783.1,705.1],[777.8,674.1],[790.2,632.8],[774.4,650.3],[774.4,650.3],[752.7,664.2],[728.8,677],[770.8,642.5],[810.3,617.2],[816.9,606],[805.1,619],[808.7,619.1],[801.4,650.8],[807.9,665.4],[829.5,637.8],[862.2,622.1],[884.7,597.2],[860.9,591.5],[849.7,578.7],[871.8,563.5],[902,520.6],[905.7,526.3],[906.5,542.7],[896,573],[885.5,603.3],[878.8,636.4],[872.1,669.5],[869,713.6],[874.4,759.8],[868.9,789.9],[868.9,789.9],[852.1,848.8],[841.7,866],[874.2,849.9],[878,826.3],[900.9,826.4],[905.8,806],[910.7,785.6],[905,763.9],[894.8,746.4],[888,739.4],[920.3,677],[950.3,639.9],[935,664.8],[935,664.8],[948.2,667.4],[948.2,667.4],[961.1,673.9],[961.1,673.9],[967.2,698.1],[967.2,698.1],[947.6,687.6],[947.6,687.6],[972,683.9],[972,683.9],[979.1,684.2],[982.9,651.6],[992.1,636.8],[991.8,593.9],[1001.9,578.4],[1009.7,595.9],[1005.5,588.9],[1003.4,530.2],[1027,506.2],[1014.9,482.7],[1007,471.5],[1017.8,461.2],[1012.1,473.1],[1031.7,480.4],[1045.8,456.1],[1044.7,431],[1030.3,410.5],[1029.6,433.4],[1043.1,442],[1066.4,443.7],[1101.9,409.6],[1101.9,409.6],[1129.1,401.4],[1128.8,412.7],[1137.3,445.7],[1141.1,459.8],[1127.3,448.7],[1137.1,442.3],[1152.2,442.9],[1153.1,457.8],[1135.7,448.6],[1123.7,454.7],[1101.6,462.1],[1096.3,447],[1074.7,418.4],[1071.2,376.8],[1086.6,396.3],[1086.8,394],[1062.6,413.3],[1038.4,432.6],[1016.8,439.4],[996.4,450.9],[988.3,486.1],[977.7,509.7],[957,539.1],[920.4,569.4],[941.4,537.8],[960,514.7],[1001.5,461.2],[1047.4,405.7],[1070.9,385.3],[1093.2,360.2],[1109.7,349.2],[1134.6,347.7],[1139,357.7],[1167.5,333.9],[1150.7,369.6],[1137.2,402.3],[1132.5,441],[1123.4,481.7],[1107.3,513.5],[1109.2,553.2],[1096.6,561.6],[1078.1,572.1],[1076.5,569.8],[1074.5,603.7],[1063.4,601.2],[1056.7,584.2],[1025,570.5],[993.3,556.8],[1002.7,543.1],[981.3,534.1],[975.9,519.5],[970.5,504.9],[963.8,497.9],[948.3,500.7],[945.6,503.8],[935.7,525.3],[938.1,535],[929.4,542.9],[912.1,552.9],[907.6,550.3]]","[0,0.151169218]","[0.151169218,0.151169218]","[-0.151169218,0]","[-0.151169218,-0.151169218]","[0,0]","[0.151169218,0]","[0,-0.151169218]","[0.151169218,-0.151169218]",0,0,0,0,1,3,Smartphone,11,9,9,1
