inst1_resp.keys,inst1_resp.rt,calibrationMouse.x,calibrationMouse.y,calibrationMouse.leftButton,calibrationMouse.midButton,calibrationMouse.rightButton,calibrationClick.x,calibrationClick.y,calibrationClick.leftButton,calibrationClick.midButton,calibrationClick.rightButton,calibrationClick.clicked_name,trialsc.thisRepN,trialsc.thisTrialN,trialsc.thisN,trialsc.thisIndex,trialsc.ran,calibration_x,calibration_y,participant,session,date,expName,psychopyVersion,OS,frameRate,ScreenRes_pixels,Camera_pixels,mouse_2.x,mouse_2.y,mouse_2.leftButton,mouse_2.midButton,mouse_2.rightButton,mouse_2.time,mouse_2.clicked_name,mouse.x,mouse.y,mouse.leftButton,mouse.midButton,mouse.rightButton,mouse.time,mouse.clicked_name,Choice,Trial,TrialDuration,MOUSE_GAZE,ET_GAZE,ET_GAZE_x_T,time,unixTime,ET_GAZE_NF,Loc_Option1_label,Loc_Option2_label,Loc_Cost_label,Loc_Qual_label,Loc_Option1_cost,Loc_Option2_cost,Loc_Option1_quality,Loc_Option2_quality,trials.thisRepN,trials.thisTrialN,trials.thisN,trials.thisIndex,trials.ran,Block,Device,cost1,qual1,cost2,qual2
space,8.6892,0.15,-0.081481481,1,0,0,-0.334375,0.677777778,1,0,0,calibration_square,0,0,0,8,1,-0.33,0.67,13,001,2024-11-28_14h22.23.841,Attention_exp_legacy,2023.1.0,Win32,59.88023952,,,,,,,,,,,,,,,,,,,,,,,,,,,,,,,,,,,,,,,,,,,,
,,,,,,,0.675,0.664814815,1,0,0,calibration_square,0,1,1,19,1,0.67,0.67,13,001,2024-11-28_14h22.23.841,Attention_exp_legacy,2023.1.0,Win32,59.88023952,,,,,,,,,,,,,,,,,,,,,,,,,,,,,,,,,,,,,,,,,,,,
,,,,,,,-0.670833333,0.011111111,1,0,0,,0,2,2,2,1,-0.67,0,13,001,2024-11-28_14h22.23.841,Attention_exp_legacy,2023.1.0,Win32,59.88023952,,,,,,,,,,,,,,,,,,,,,,,,,,,,,,,,,,,,,,,,,,,,
,,,,,,,0.334375,-0.011111111,1,0,0,,0,3,3,16,1,0.33,0,13,001,2024-11-28_14h22.23.841,Attention_exp_legacy,2023.1.0,Win32,59.88023952,,,,,,,,,,,,,,,,,,,,,,,,,,,,,,,,,,,,,,,,,,,,
,,,,,,,-0.008333333,-0.668518519,1,0,0,calibration_square,0,4,4,9,1,0,-0.67,13,001,2024-11-28_14h22.23.841,Attention_exp_legacy,2023.1.0,Win32,59.88023952,,,,,,,,,,,,,,,,,,,,,,,,,,,,,,,,,,,,,,,,,,,,
,,,,,,,-0.335416667,0.342592593,1,0,0,,0,5,5,7,1,-0.33,0.33,13,001,2024-11-28_14h22.23.841,Attention_exp_legacy,2023.1.0,Win32,59.88023952,,,,,,,,,,,,,,,,,,,,,,,,,,,,,,,,,,,,,,,,,,,,
,,,,,,,0.008333333,-0.346296296,1,0,0,,0,6,6,10,1,0,-0.33,13,001,2024-11-28_14h22.23.841,Attention_exp_legacy,2023.1.0,Win32,59.88023952,,,,,,,,,,,,,,,,,,,,,,,,,,,,,,,,,,,,,,,,,,,,
,,,,,,,-0.340625,-0.655555556,1,0,0,,0,7,7,4,1,-0.33,-0.67,13,001,2024-11-28_14h22.23.841,Attention_exp_legacy,2023.1.0,Win32,59.88023952,,,,,,,,,,,,,,,,,,,,,,,,,,,,,,,,,,,,,,,,,,,,
,,,,,,,-0.669791667,0.344444444,1,0,0,,0,8,8,3,1,-0.67,0.33,13,001,2024-11-28_14h22.23.841,Attention_exp_legacy,2023.1.0,Win32,59.88023952,,,,,,,,,,,,,,,,,,,,,,,,,,,,,,,,,,,,,,,,,,,,
,,,,,,,0.672916667,-0.674074074,1,0,0,calibration_square,0,9,9,20,1,0.67,-0.67,13,001,2024-11-28_14h22.23.841,Attention_exp_legacy,2023.1.0,Win32,59.88023952,,,,,,,,,,,,,,,,,,,,,,,,,,,,,,,,,,,,,,,,,,,,
,,,,,,,-0.334375,0.003703704,1,0,0,calibration_square,0,10,10,6,1,-0.33,0,13,001,2024-11-28_14h22.23.841,Attention_exp_legacy,2023.1.0,Win32,59.88023952,,,,,,,,,,,,,,,,,,,,,,,,,,,,,,,,,,,,,,,,,,,,
,,,,,,,-0.009375,0.335185185,1,0,0,calibration_square,0,11,11,12,1,0,0.33,13,001,2024-11-28_14h22.23.841,Attention_exp_legacy,2023.1.0,Win32,59.88023952,,,,,,,,,,,,,,,,,,,,,,,,,,,,,,,,,,,,,,,,,,,,
,,,,,,,0.31875,0.668518519,1,0,0,,0,12,12,18,1,0.33,0.67,13,001,2024-11-28_14h22.23.841,Attention_exp_legacy,2023.1.0,Win32,59.88023952,,,,,,,,,,,,,,,,,,,,,,,,,,,,,,,,,,,,,,,,,,,,
,,,,,,,0.335416667,-0.325925926,1,0,0,calibration_square,0,13,13,15,1,0.33,-0.33,13,001,2024-11-28_14h22.23.841,Attention_exp_legacy,2023.1.0,Win32,59.88023952,,,,,,,,,,,,,,,,,,,,,,,,,,,,,,,,,,,,,,,,,,,,
,,,,,,,-0.005208333,0.681481481,1,0,0,,0,14,14,13,1,0,0.67,13,001,2024-11-28_14h22.23.841,Attention_exp_legacy,2023.1.0,Win32,59.88023952,,,,,,,,,,,,,,,,,,,,,,,,,,,,,,,,,,,,,,,,,,,,
,,,,,,,0.316666667,0.338888889,1,0,0,,0,15,15,17,1,0.33,0.33,13,001,2024-11-28_14h22.23.841,Attention_exp_legacy,2023.1.0,Win32,59.88023952,,,,,,,,,,,,,,,,,,,,,,,,,,,,,,,,,,,,,,,,,,,,
,,,,,,,-0.661458333,-0.659259259,1,0,0,,0,16,16,0,1,-0.67,-0.67,13,001,2024-11-28_14h22.23.841,Attention_exp_legacy,2023.1.0,Win32,59.88023952,,,,,,,,,,,,,,,,,,,,,,,,,,,,,,,,,,,,,,,,,,,,
,,,,,,,-0.334375,-0.327777778,1,0,0,calibration_square,0,17,17,5,1,-0.33,-0.33,13,001,2024-11-28_14h22.23.841,Attention_exp_legacy,2023.1.0,Win32,59.88023952,,,,,,,,,,,,,,,,,,,,,,,,,,,,,,,,,,,,,,,,,,,,
,,,,,,,0.330208333,-0.685185185,1,0,0,,0,18,18,14,1,0.33,-0.67,13,001,2024-11-28_14h22.23.841,Attention_exp_legacy,2023.1.0,Win32,59.88023952,,,,,,,,,,,,,,,,,,,,,,,,,,,,,,,,,,,,,,,,,,,,
,,,,,,,-0.007291667,0.007407407,1,0,0,calibration_square,0,19,19,11,1,0,0,13,001,2024-11-28_14h22.23.841,Attention_exp_legacy,2023.1.0,Win32,59.88023952,,,,,,,,,,,,,,,,,,,,,,,,,,,,,,,,,,,,,,,,,,,,
,,,,,,,-0.671875,-0.311111111,1,0,0,,0,20,20,1,1,-0.67,-0.33,13,001,2024-11-28_14h22.23.841,Attention_exp_legacy,2023.1.0,Win32,59.88023952,,,,,,,,,,,,,,,,,,,,,,,,,,,,,,,,,,,,,,,,,,,,
,,,,,,,,,,,,,,,,,,,,13,001,2024-11-28_14h22.23.841,Attention_exp_legacy,2023.1.0,Win32,59.88023952,"[1920,1080]","[640,480]",[0.003125],[-0.5037037037037037],[1],[0],[0],[11.86639999997616],"[""StartButton""]","[0.5041666666666667,0.515625]","[0.5592592592592592,0.5055555555555555]","[1,1]","[0,0]","[0,0]","[3.5056999999880674,4.153499999999994]","[""Option2_label"",""Option2_label""]",Option2_label,1,4.5133,"[[0.029166666666666667,0.3592592592592593],[0.029166666666666667,0.3592592592592593],[0.029166666666666667,0.3592592592592593],[0.029166666666666667,0.3592592592592593],[0.029166666666666667,0.3592592592592593],[0.029166666666666667,0.3592592592592593],[0.029166666666666667,0.3592592592592593],[0.029166666666666667,0.3592592592592593],[0.029166666666666667,0.3592592592592593],[0.029166666666666667,0.3592592592592593],[0.029166666666666667,0.3592592592592593],[0.029166666666666667,0.3592592592592593],[0.029166666666666667,0.3592592592592593],[0.029166666666666667,0.3592592592592593],[0.029166666666666667,0.3592592592592593],[0.029166666666666667,0.3592592592592593],[0.029166666666666667,0.3592592592592593],[0.029166666666666667,0.3592592592592593],[0.029166666666666667,0.3592592592592593],[0.029166666666666667,0.3592592592592593],[0.029166666666666667,0.3592592592592593],[0.029166666666666667,0.3592592592592593],[0.029166666666666667,0.3592592592592593],[0.029166666666666667,0.3592592592592593],[0.029166666666666667,0.3592592592592593],[0.03125,0.3648148148148148],[0.053125,0.3962962962962963],[0.065625,0.412962962962963],[0.09895833333333333,0.48148148148148145],[0.10729166666666666,0.5055555555555555],[0.115625,0.524074074074074],[0.12395833333333334,0.5574074074074075],[0.128125,0.5851851851851851],[0.128125,0.5851851851851851],[0.128125,0.5851851851851851],[0.128125,0.5851851851851851],[0.12708333333333333,0.5833333333333334],[0.125,0.5796296296296296],[0.11145833333333334,0.5370370370370371],[0.10833333333333334,0.524074074074074],[0.10520833333333333,0.48703703703703705],[0.10520833333333333,0.48148148148148145],[0.1375,0.45],[0.17291666666666666,0.4444444444444444],[0.4041666666666667,0.3925925925925926],[0.46145833333333336,0.37962962962962965],[0.6145833333333334,0.34629629629629627],[0.6510416666666666,0.34629629629629627],[0.721875,0.3388888888888889],[0.7385416666666667,0.3388888888888889],[0.7708333333333334,0.3388888888888889],[0.7739583333333333,0.3388888888888889],[0.7739583333333333,0.3388888888888889],[0.7760416666666666,0.3388888888888889],[0.7760416666666666,0.3388888888888889],[0.7760416666666666,0.337037037037037],[0.709375,0.3037037037037037],[0.6833333333333333,0.2814814814814815],[0.5802083333333333,0.21851851851851853],[0.5416666666666666,0.19074074074074074],[0.39895833333333336,0.12777777777777777],[0.3385416666666667,0.11296296296296296],[0.1625,0.09814814814814815],[0.103125,0.09814814814814815],[-0.04895833333333333,0.09814814814814815],[-0.06458333333333334,0.09814814814814815],[-0.0875,0.09814814814814815],[-0.10104166666666667,0.0962962962962963],[-0.109375,0.0962962962962963],[-0.11354166666666667,0.0962962962962963],[-0.12291666666666666,0.08888888888888889],[-0.13229166666666667,0.07962962962962963],[-0.15729166666666666,0.05],[-0.184375,0.018518518518518517],[-0.215625,-0.018518518518518517],[-0.2375,-0.040740740740740744],[-0.25,-0.053703703703703705],[-0.25833333333333336,-0.06296296296296296],[-0.2677083333333333,-0.07407407407407407],[-0.2708333333333333,-0.07777777777777778],[-0.28229166666666666,-0.08888888888888889],[-0.28854166666666664,-0.09444444444444444],[-0.28854166666666664,-0.0962962962962963],[-0.28854166666666664,-0.09814814814814815],[-0.28854166666666664,-0.1],[-0.2864583333333333,-0.10740740740740741],[-0.2760416666666667,-0.1111111111111111],[-0.25625,-0.11666666666666667],[-0.21875,-0.11666666666666667],[-0.15104166666666666,-0.11666666666666667],[-0.08020833333333334,-0.11666666666666667],[-0.0010416666666666667,-0.11666666666666667],[0.071875,-0.11666666666666667],[0.17395833333333333,-0.11666666666666667],[0.20520833333333333,-0.11666666666666667],[0.24895833333333334,-0.11666666666666667],[0.3020833333333333,-0.11666666666666667],[0.32708333333333334,-0.11666666666666667],[0.35208333333333336,-0.11666666666666667],[0.37916666666666665,-0.11666666666666667],[0.403125,-0.11851851851851852],[0.4270833333333333,-0.1259259259259259],[0.4552083333333333,-0.13148148148148148],[0.48020833333333335,-0.13703703703703704],[0.5083333333333333,-0.13703703703703704],[0.53125,-0.1388888888888889],[0.546875,-0.14074074074074075],[0.5583333333333333,-0.14074074074074075],[0.5604166666666667,-0.14074074074074075],[0.5614583333333333,-0.14074074074074075],[0.5614583333333333,-0.14074074074074075],[0.5614583333333333,-0.14074074074074075],[0.5614583333333333,-0.14074074074074075],[0.5614583333333333,-0.14074074074074075],[0.5614583333333333,-0.14074074074074075],[0.5614583333333333,-0.14074074074074075],[0.5614583333333333,-0.14074074074074075],[0.5614583333333333,-0.14444444444444443],[0.5614583333333333,-0.14629629629629629],[0.5614583333333333,-0.15],[0.559375,-0.1574074074074074],[0.55625,-0.16296296296296298],[0.5520833333333334,-0.17407407407407408],[0.5489583333333333,-0.18333333333333332],[0.540625,-0.19074074074074074],[0.5364583333333334,-0.1962962962962963],[0.534375,-0.2],[0.5333333333333333,-0.2],[0.53125,-0.20185185185185187],[0.53125,-0.20185185185185187],[0.53125,-0.20185185185185187],[0.53125,-0.20185185185185187],[0.53125,-0.20185185185185187],[0.53125,-0.20185185185185187],[0.53125,-0.20185185185185187],[0.53125,-0.20185185185185187],[0.53125,-0.20185185185185187],[0.53125,-0.20185185185185187],[0.53125,-0.20185185185185187],[0.53125,-0.20185185185185187],[0.53125,-0.20185185185185187],[0.53125,-0.20185185185185187],[0.53125,-0.2074074074074074],[0.5354166666666667,-0.21851851851851853],[0.5510416666666667,-0.24444444444444444],[0.56875,-0.2722222222222222],[0.5822916666666667,-0.29074074074074074],[0.59375,-0.31666666666666665],[0.609375,-0.3685185185185185],[0.6145833333333334,-0.3925925925925926],[0.625,-0.4462962962962963],[0.6260416666666667,-0.46111111111111114],[0.63125,-0.4962962962962963],[0.6375,-0.5370370370370371],[0.6395833333333333,-0.5611111111111111],[0.6395833333333333,-0.5648148148148148],[0.6385416666666667,-0.5685185185185185],[0.634375,-0.5740740740740741],[0.6291666666666667,-0.5796296296296296],[0.6229166666666667,-0.5833333333333334],[0.6114583333333333,-0.5888888888888889],[0.6010416666666667,-0.5907407407407408],[0.5927083333333333,-0.5907407407407408],[0.584375,-0.5907407407407408],[0.5708333333333333,-0.5814814814814815],[0.5583333333333333,-0.5666666666666667],[0.54375,-0.5370370370370371],[0.540625,-0.5203703703703704],[0.5385416666666667,-0.5055555555555555],[0.5375,-0.4759259259259259],[0.5375,-0.43148148148148147],[0.5375,-0.3851851851851852],[0.5375,-0.337037037037037],[0.528125,-0.1962962962962963],[0.5135416666666667,-0.07777777777777778],[0.5052083333333334,-0.03148148148148148],[0.49166666666666664,0.05925925925925926],[0.4895833333333333,0.1037037037037037],[0.48854166666666665,0.12777777777777777],[0.48854166666666665,0.14074074074074075],[0.48854166666666665,0.14629629629629629],[0.48854166666666665,0.14629629629629629],[0.48854166666666665,0.14629629629629629],[0.48854166666666665,0.14629629629629629],[0.48854166666666665,0.14629629629629629],[0.48854166666666665,0.14629629629629629],[0.48854166666666665,0.14629629629629629],[0.48854166666666665,0.1425925925925926],[0.48854166666666665,0.14074074074074075],[0.48854166666666665,0.14074074074074075],[0.4895833333333333,0.14074074074074075],[0.49583333333333335,0.17962962962962964],[0.503125,0.31851851851851853],[0.5083333333333333,0.42777777777777776],[0.50625,0.5203703703703704],[0.50625,0.5648148148148148],[0.50625,0.5833333333333334],[0.50625,0.5833333333333334],[0.50625,0.5833333333333334],[0.50625,0.5833333333333334],[0.50625,0.5833333333333334],[0.50625,0.5833333333333334],[0.50625,0.5833333333333334],[0.5052083333333334,0.5740740740740741],[0.5041666666666667,0.562962962962963],[0.5041666666666667,0.5592592592592592],[0.5041666666666667,0.5592592592592592],[0.5041666666666667,0.5592592592592592],[0.5041666666666667,0.5592592592592592],[0.5041666666666667,0.5592592592592592],[0.5041666666666667,0.5592592592592592],[0.5041666666666667,0.5592592592592592],[0.5041666666666667,0.5592592592592592],[0.5041666666666667,0.5592592592592592],[0.5041666666666667,0.5592592592592592],[0.5041666666666667,0.5592592592592592],[0.5041666666666667,0.5592592592592592],[0.5041666666666667,0.5592592592592592],[0.5041666666666667,0.5592592592592592],[0.5041666666666667,0.5592592592592592],[0.5041666666666667,0.5592592592592592],[0.5041666666666667,0.5592592592592592],[0.5041666666666667,0.5592592592592592],[0.5041666666666667,0.5592592592592592],[0.5041666666666667,0.5592592592592592],[0.5041666666666667,0.5592592592592592],[0.5041666666666667,0.5592592592592592],[0.5041666666666667,0.5592592592592592],[0.5041666666666667,0.5592592592592592],[0.5041666666666667,0.5592592592592592],[0.5041666666666667,0.5592592592592592],[0.5041666666666667,0.5592592592592592],[0.5041666666666667,0.5574074074074075],[0.5052083333333334,0.5462962962962963],[0.5104166666666666,0.5277777777777778],[0.5135416666666667,0.5166666666666667],[0.5145833333333333,0.5092592592592593],[0.515625,0.5055555555555555],[0.515625,0.5055555555555555],[0.515625,0.5055555555555555],[0.515625,0.5055555555555555],[0.515625,0.5055555555555555],[0.515625,0.5055555555555555],[0.515625,0.5055555555555555],[0.515625,0.5055555555555555],[0.515625,0.5055555555555555],[0.515625,0.5055555555555555],[0.515625,0.5055555555555555],[0.515625,0.5055555555555555],[0.515625,0.5055555555555555],[0.515625,0.5055555555555555],[0.515625,0.5055555555555555],[0.515625,0.5055555555555555],[0.515625,0.5055555555555555],[0.515625,0.5055555555555555],[0.515625,0.5055555555555555],[0.515625,0.5055555555555555],[0.515625,0.5055555555555555],[0.515625,0.5055555555555555],[0.515625,0.5055555555555555],[0.515625,0.5055555555555555],[0.515625,0.5055555555555555],[0.515625,0.5055555555555555],[0.515625,0.5055555555555555],[0.515625,0.5055555555555555],[0.515625,0.5055555555555555],[0.515625,0.5055555555555555],[0.515625,0.5055555555555555],[0.515625,0.5055555555555555],[0.515625,0.5055555555555555]]","[[-0.024895833333333308,-0.21444444444444447],[-0.024895833333333308,-0.21444444444444447],[-0.043437500000000046,-0.2064814814814815],[-0.043437500000000046,-0.2064814814814815],[-0.071875,-0.1977777777777778],[-0.071875,-0.1977777777777778],[-0.07593749999999998,-0.22981481481481486],[-0.07593749999999998,-0.22981481481481486],[-0.10614583333333331,-0.2492592592592593],[-0.10614583333333331,-0.2492592592592593],[-0.11062500000000004,-0.2627777777777777],[-0.11062500000000004,-0.2627777777777777],[-0.1265625,-0.29611111111111105],[-0.1265625,-0.29611111111111105],[-0.12281249999999998,-0.2718518518518519],[-0.12281249999999998,-0.2718518518518519],[-0.1352083333333333,-0.2918518518518519],[-0.1352083333333333,-0.2918518518518519],[-0.13864583333333336,-0.3122222222222223],[-0.13864583333333336,-0.3122222222222223],[-0.13406250000000006,-0.3320370370370371],[-0.13406250000000006,-0.3320370370370371],[-0.13333333333333333,-0.36648148148148146],[-0.13333333333333333,-0.36648148148148146],[-0.11958333333333329,-0.4468518518518519],[-0.11958333333333329,-0.4468518518518519],[-0.12260416666666671,-0.45333333333333337],[-0.12260416666666671,-0.45333333333333337],[-0.08729166666666661,-0.43],[-0.08729166666666661,-0.43],[-0.08729166666666661,-0.43],[-0.08729166666666661,-0.43],[-0.07541666666666665,-0.4292592592592593],[-0.07541666666666665,-0.4292592592592593],[-0.026979166666666644,-0.432962962962963],[-0.026979166666666644,-0.432962962962963],[0.014374999999999952,-0.442037037037037],[0.014374999999999952,-0.442037037037037],[0.05333333333333338,-0.4487037037037037],[0.05333333333333338,-0.4487037037037037],[0.08427083333333343,-0.4318518518518518],[0.08427083333333343,-0.4318518518518518],[0.11531250000000005,-0.3933333333333333],[0.11531250000000005,-0.3933333333333333],[0.17895833333333327,-0.365925925925926],[0.17895833333333327,-0.365925925925926],[0.26145833333333335,-0.322037037037037],[0.26145833333333335,-0.322037037037037],[0.31697916666666665,-0.3672222222222222],[0.31697916666666665,-0.3672222222222222],[0.36781249999999993,-0.37666666666666665],[0.36781249999999993,-0.37666666666666665],[0.4279166666666666,-0.36018518518518516],[0.4279166666666666,-0.36018518518518516],[0.4892708333333334,-0.33055555555555555],[0.4892708333333334,-0.33055555555555555],[0.4748958333333334,-0.3020370370370371],[0.4748958333333334,-0.3020370370370371],[0.40822916666666675,-0.2785185185185185],[0.40822916666666675,-0.2785185185185185],[0.3414583333333333,-0.22740740740740742],[0.3414583333333333,-0.22740740740740742],[0.32625000000000004,-0.22814814814814813],[0.32625000000000004,-0.22814814814814813],[0.24968750000000003,-0.20277777777777778],[0.24968750000000003,-0.20277777777777778],[0.1798958333333334,-0.19314814814814818],[0.1798958333333334,-0.19314814814814818],[0.15229166666666671,-0.18351851851851855],[0.15229166666666671,-0.18351851851851855],[0.0943749999999999,-0.20166666666666663],[0.0943749999999999,-0.20166666666666663],[0.026041666666666668,-0.1653703703703704],[0.026041666666666668,-0.1653703703703704],[-0.12937500000000005,-0.1270370370370371],[-0.12937500000000005,-0.1270370370370371],[-0.16791666666666671,-0.11888888888888886],[-0.16020833333333329,-0.09814814814814815],[-0.11864583333333331,-0.10277777777777777],[-0.1342708333333333,-0.05277777777777778],[-0.11697916666666662,-0.03611111111111111],[-0.08989583333333329,0.008148148148148106],[-0.08989583333333329,0.008148148148148106],[-0.12614583333333335,0.07518518518518523],[-0.090625,0.12629629629629638],[-0.07781250000000005,0.14759259259259266],[-0.041562499999999974,0.14833333333333337],[-0.041562499999999974,0.14833333333333337],[-0.041979166666666616,0.16592592592592598],[0.0032291666666666905,0.17555555555555546],[0.02833333333333338,0.14537037037037037],[0.058124999999999954,0.10685185185185193],[0.08239583333333324,0.08148148148148149],[0.051770833333333384,0.07537037037037045],[0.11645833333333329,0.08055555555555556],[0.11729166666666657,0.0824074074074074],[0.15479166666666658,0.05944444444444449],[0.22958333333333342,0.06611111111111119],[0.3393749999999999,0.08981481481481482],[0.4119791666666667,0.11148148148148157],[0.40750000000000003,0.14574074074074084],[0.42510416666666656,0.15555555555555556],[0.4752083333333334,0.19000000000000003],[0.5075000000000001,0.2022222222222223],[0.49989583333333343,0.2051851851851851],[0.49989583333333343,0.2051851851851851],[0.5066666666666667,0.18518518518518517],[0.5067708333333333,0.17462962962962955],[0.5068749999999999,0.16407407407407412],[0.4705208333333334,0.11444444444444436],[0.44541666666666657,0.09388888888888898],[0.4853125000000001,0.09296296296296305],[0.4418750000000001,0.13222222222222219],[0.3714583333333332,0.1337037037037038],[0.30010416666666656,0.16203703703703703],[0.2287499999999999,0.19037037037037027],[0.16666666666666666,0.24277777777777781],[0.10885416666666667,0.2777777777777778],[0.05916666666666662,0.28888888888888886],[0.0109375,0.322037037037037],[-0.08541666666666667,0.32166666666666677],[-0.08541666666666667,0.32166666666666677],[-0.0859375,0.32388888888888884],[-0.15656249999999997,0.2953703703703704],[-0.21739583333333337,0.2964814814814815],[-0.26437499999999997,0.28296296296296286],[-0.17250000000000001,0.23759259259259252],[-0.10593750000000005,0.2012962962962964],[-0.036145833333333384,0.17629629629629637],[0.02010416666666662,0.19074074074074074],[0.07635416666666663,0.2051851851851851],[0.20020833333333338,0.2012962962962964],[0.22395833333333334,0.20574074074074078],[0.38156249999999997,0.20999999999999996],[0.529375,0.18462962962962973],[0.6901041666666666,0.15148148148148138],[0.6669791666666666,0.13962962962962958],[0.5871875000000001,0.14685185185185176],[0.5241666666666667,0.1381481481481482],[0.4665625000000001,0.11388888888888889],[0.5066666666666667,0.13277777777777786],[0.5160416666666667,0.17444444444444454],[0.4535416666666668,0.19962962962962955],[0.43416666666666665,0.2542592592592592],[0.4039583333333333,0.2729629629629629],[0.38697916666666665,0.29740740740740745],[0.37625000000000003,0.3557407407407408],[0.4881249999999999,0.3514814814814814],[0.5747916666666666,0.3785185185185185],[0.654375,0.3985185185185186],[0.6229166666666667,0.38629629629629636],[0.6253124999999999,0.3640740740740741],[0.7145833333333333,0.3640740740740741],[0.6886458333333333,0.2942592592592592],[0.7007291666666667,0.3237037037037036],[0.6890625,0.3253703703703705],[0.729375,0.33203703703703696],[0.7016666666666665,0.3494444444444445],[0.6823958333333332,0.3514814814814814],[0.6702083333333334,0.36055555555555563],[0.6702083333333334,0.36055555555555563],[0.7469791666666665,0.34222222222222215],[0.6983333333333335,0.36277777777777775],[0.6198958333333332,0.3333333333333333],[0.6540625000000001,0.37222222222222223],[0.6583333333333333,0.3633333333333334],[0.6933333333333332,0.344074074074074],[0.7028125000000001,0.32759259259259255],[0.7264583333333334,0.3025925925925925],[0.7746875000000001,0.27814814814814826],[0.8022916666666667,0.24351851851851852],[0.7217708333333335,0.2800000000000001],[0.7353125000000001,0.29074074074074074],[0.7938541666666665,0.28351851851851856],[0.7759375000000001,0.27388888888888885],[0.760625,0.22685185185185186],[0.7251041666666665,0.21222222222222226],[0.7040625000000001,0.20796296296296288],[0.7040625000000001,0.20796296296296288],[0.6667708333333332,0.1853703703703704],[0.6025000000000001,0.20833333333333334],[0.5601041666666667,0.18092592592592602],[0.5502083333333334,0.09888888888888885],[0.5378124999999999,0.013703703703703662],[0.5378124999999999,0.013703703703703662],[0.5098958333333333,-0.01962962962962967],[0.5098958333333333,-0.01962962962962967],[0.51375,-0.05499999999999998],[0.5221874999999999,-0.02444444444444453],[0.5221874999999999,-0.02444444444444453],[0.5254166666666668,0.040370370370370286],[0.5254166666666668,0.040370370370370286],[0.5352083333333333,-0.03333333333333333],[0.5352083333333333,-0.03333333333333333],[0.5479166666666667,-0.014259259259259343],[0.5557291666666667,-0.03981481481481482],[0.5622916666666666,-0.004814814814814857],[0.5622916666666666,-0.004814814814814857],[0.5741666666666667,-0.020555555555555598],[0.5755208333333334,0.022592592592592678],[0.5664583333333333,0.06518518518518526],[0.5513541666666666,0.055000000000000084],[0.5365624999999999,0.0242592592592593],[0.5285416666666668,-0.06629629629629631],[0.5143749999999999,-0.08907407407407411],[0.5034375,-0.13777777777777775],[0.49979166666666663,-0.18796296296296297],[0.4961458333333333,-0.2381481481481482],[0.4895833333333333,-0.2337037037037037],[0.4935416666666666,-0.2881481481481482],[0.5113541666666668,-0.31962962962962965],[0.5368750000000001,-0.3066666666666667],[0.5403125000000001,-0.29388888888888887],[0.5315624999999999,-0.28185185185185185],[0.5196875000000001,-0.29555555555555557],[0.5192708333333333,-0.3116666666666667],[0.5223958333333333,-0.28703703703703703],[0.5269791666666668,-0.2890740740740741],[0.5308333333333333,-0.3020370370370371],[0.5371875,-0.3087037037037037],[0.5267708333333334,-0.2862962962962963],[0.5171875,-0.3307407407407408],[0.5248958333333335,-0.3985185185185185],[0.5294791666666666,-0.39740740740740743],[0.5393749999999999,-0.3055555555555556],[0.5359375,-0.22833333333333336],[0.5289583333333333,-0.19185185185185188],[0.5248958333333335,-0.1440740740740741],[0.5191666666666668,-0.08925925925925923],[0.5162499999999999,-0.08888888888888889],[0.5162499999999999,-0.14055555555555552],[0.5146874999999999,-0.12907407407407406],[0.4942708333333333,-0.1264814814814815],[0.4942708333333333,-0.1264814814814815],[0.5009375000000001,-0.16722222222222224],[0.5016666666666666,-0.21277777777777773],[0.5028125,-0.2953703703703704],[0.5072916666666667,-0.3675925925925926],[0.5073958333333333,-0.41629629629629633],[0.5075000000000001,-0.465],[0.5015625,-0.4903703703703704],[0.49541666666666656,-0.5166666666666667],[0.4947916666666667,-0.5007407407407407],[0.5130208333333334,-0.4759259259259259],[0.5134375000000001,-0.44111111111111106],[0.5146874999999999,-0.4546296296296296],[0.5170833333333335,-0.43148148148148147],[0.41510416666666666,-0.334074074074074],[0.3132291666666667,-0.24518518518518514],[0.1962500000000001,-0.17370370370370372],[0.07999999999999995,-0.07740740740740742],[-0.030729166666666665,0.017592592592592594],[-0.14624999999999996,0.07407407407407407],[-0.22687499999999997,0.10981481481481473],[-0.2886458333333334,0.12148148148148152],[-0.3607291666666666,0.1648148148148148],[-0.44468749999999996,0.19314814814814807],[-0.44083333333333335,0.18574074074074065],[-0.42645833333333333,0.08462962962962971],[-0.3969791666666667,0.000925925925925926],[-0.3367708333333333,-0.0020370370370370794],[-0.2727083333333333,0.04666666666666675],[-0.13791666666666663,0.08629629629629634],[-0.02677083333333338,0.11074074074074065],[0.08416666666666663,0.13740740740740748],[0.22291666666666668,0.14203703703703713],[0.39333333333333326,0.16888888888888898],[0.5694791666666668,0.18555555555555564],[0.7057291666666666,0.29240740740740734],[0.8479166666666667,0.3761111111111112]]","[[-0.024895833333333308,-0.21444444444444447,0.0001999999880837322],[-0.024895833333333308,-0.21444444444444447,0.04119999998808055],[-0.043437500000000046,-0.2064814814814815,0.06319999998808612],[-0.043437500000000046,-0.2064814814814815,0.06939999997617008],[-0.071875,-0.1977777777777778,0.09489999997616394],[-0.071875,-0.1977777777777778,0.10369999998808055],[-0.07593749999999998,-0.22981481481481486,0.1305999999940468],[-0.07593749999999998,-0.22981481481481486,0.1371999999880842],[-0.10614583333333331,-0.2492592592592593,0.16300000000001091],[-0.10614583333333331,-0.2492592592592593,0.16929999998212963],[-0.11062500000000004,-0.2627777777777777,0.1947999999821235],[-0.11062500000000004,-0.2627777777777777,0.2020000000000124],[-0.1265625,-0.29611111111111105,0.2280999999940434],[-0.1265625,-0.29611111111111105,0.2350999999940484],[-0.12281249999999998,-0.2718518518518519,0.26309999999404],[-0.12281249999999998,-0.2718518518518519,0.2690999999940402],[-0.1352083333333333,-0.2918518518518519,0.2948999999761668],[-0.1352083333333333,-0.2918518518518519,0.30219999998809044],[-0.13864583333333336,-0.3122222222222223,0.32969999998807964],[-0.13864583333333336,-0.3122222222222223,0.3365000000000009],[-0.13406250000000006,-0.3320370370370371,0.3640000000000043],[-0.13406250000000006,-0.3320370370370371,0.3719999999999999],[-0.13333333333333333,-0.36648148148148146,0.39639999997616826],[-0.13333333333333333,-0.36648148148148146,0.40339999997615905],[-0.11958333333333329,-0.4468518518518519,0.4300999999940416],[-0.11958333333333329,-0.4468518518518519,0.44469999998808873],[-0.12260416666666671,-0.45333333333333337,0.46379999998212895],[-0.12260416666666671,-0.45333333333333337,0.4718999999761593],[-0.08729166666666661,-0.43,0.49919999998807896],[-0.08729166666666661,-0.43,0.5058999999761653],[-0.08729166666666661,-0.43,0.5110000000000099],[-0.08729166666666661,-0.43,0.5305999999940383],[-0.07541666666666665,-0.4292592592592593,0.5660000000000025],[-0.07541666666666665,-0.4292592592592593,0.5726999999880888],[-0.026979166666666644,-0.432962962962963,0.5946999999880802],[-0.026979166666666644,-0.432962962962963,0.60179999998212],[0.014374999999999952,-0.442037037037037,0.6312999999821187],[0.014374999999999952,-0.442037037037037,0.638199999988089],[0.05333333333333338,-0.4487037037037037,0.6632999999821294],[0.05333333333333338,-0.4487037037037037,0.6700999999940507],[0.08427083333333343,-0.4318518518518518,0.6991999999880818],[0.08427083333333343,-0.4318518518518518,0.7062999999821216],[0.11531250000000005,-0.3933333333333333,0.7296999999880853],[0.11531250000000005,-0.3933333333333333,0.7375000000000114],[0.17895833333333327,-0.365925925925926,0.765500000000003],[0.17895833333333327,-0.365925925925926,0.7723999999761588],[0.26145833333333335,-0.322037037037037,0.7965000000000089],[0.26145833333333335,-0.322037037037037,0.8036999999880834],[0.31697916666666665,-0.3672222222222222,0.831799999982124],[0.31697916666666665,-0.3672222222222222,0.838799999982129],[0.36781249999999993,-0.37666666666666665,0.8630999999940485],[0.36781249999999993,-0.37666666666666665,0.8697999999821207],[0.4279166666666666,-0.36018518518518516,0.8947999999821263],[0.4279166666666666,-0.36018518518518516,0.9130000000000109],[0.4892708333333334,-0.33055555555555555,0.9300000000000068],[0.4892708333333334,-0.33055555555555555,0.9380999999940514],[0.4748958333333334,-0.3020370370370371,0.9655000000000058],[0.4748958333333334,-0.3020370370370371,0.9721999999880779],[0.40822916666666675,-0.2785185185185185,0.9965999999940465],[0.40822916666666675,-0.2785185185185185,1.0030000000000001],[0.3414583333333333,-0.22740740740740742,1.0318999999761616],[0.3414583333333333,-0.22740740740740742,1.0382999999821294],[0.32625000000000004,-0.22814814814814813,1.0633999999761699],[0.32625000000000004,-0.22814814814814813,1.0705000000000098],[0.24968750000000003,-0.20277777777777778,1.1032999999821271],[0.24968750000000003,-0.20277777777777778,1.113500000000002],[0.1798958333333334,-0.19314814814814818,1.127500000000012],[0.1798958333333334,-0.19314814814814818,1.144299999982124],[0.15229166666666671,-0.18351851851851855,1.1665999999940482],[0.15229166666666671,-0.18351851851851855,1.1775999999940439],[0.0943749999999999,-0.20166666666666663,1.194299999982121],[0.0943749999999999,-0.20166666666666663,1.2180999999940383],[0.026041666666666668,-0.1653703703703704,1.227599999994041],[0.026041666666666668,-0.1653703703703704,1.2442999999821183],[-0.12937500000000005,-0.1270370370370371,1.2681999999880844],[-0.12937500000000005,-0.1270370370370371,1.2782999999821243],[-0.16791666666666671,-0.11888888888888886,1.2942999999821296],[-0.16020833333333329,-0.09814814814814815,1.3161999999880862],[-0.11864583333333331,-0.10277777777777777,1.3318999999761587],[-0.1342708333333333,-0.05277777777777778,1.3467999999821245],[-0.11697916666666662,-0.03611111111111111,1.3625000000000114],[-0.08989583333333329,0.008148148148148106,1.3832999999821283],[-0.08989583333333329,0.008148148148148106,1.3941999999880892],[-0.12614583333333335,0.07518518518518523,1.4110000000000014],[-0.090625,0.12629629629629638,1.427500000000009],[-0.07781250000000005,0.14759259259259266,1.4467999999821188],[-0.041562499999999974,0.14833333333333337,1.46459999999405],[-0.041562499999999974,0.14833333333333337,1.4817999999821296],[-0.041979166666666616,0.16592592592592598,1.4988999999761603],[0.0032291666666666905,0.17555555555555546,1.513199999988089],[0.02833333333333338,0.14537037037037037,1.5290000000000106],[0.058124999999999954,0.10685185185185193,1.5445999999940483],[0.08239583333333324,0.08148148148148149,1.564799999982128],[0.051770833333333384,0.07537037037037045,1.5790000000000077],[0.11645833333333329,0.08055555555555556,1.5941999999880778],[0.11729166666666657,0.0824074074074074,1.6129999999999995],[0.15479166666666658,0.05944444444444449,1.6275999999940467],[0.22958333333333342,0.06611111111111119,1.644299999982124],[0.3393749999999999,0.08981481481481482,1.6607999999821175],[0.4119791666666667,0.11148148148148157,1.679799999982123],[0.40750000000000003,0.14574074074074084,1.6941999999880863],[0.42510416666666656,0.15555555555555556,1.7108999999761636],[0.4752083333333334,0.19000000000000003,1.7311999999880783],[0.5075000000000001,0.2022222222222223,1.7460000000000093],[0.49989583333333343,0.2051851851851851,1.7608999999761608],[0.49989583333333343,0.2051851851851851,1.7775000000000034],[0.5066666666666667,0.18518518518518517,1.7967999999821274],[0.5067708333333333,0.17462962962962955,1.812399999976165],[0.5068749999999999,0.16407407407407412,1.8275999999940495],[0.4705208333333334,0.11444444444444436,1.8475000000000108],[0.44541666666666657,0.09388888888888898,1.8607999999821203],[0.4853125000000001,0.09296296296296305,1.8773999999761628],[0.4418750000000001,0.13222222222222219,1.8941999999880892],[0.3714583333333332,0.1337037037037038,1.9106999999880827],[0.30010416666666656,0.16203703703703703,1.92739999997616],[0.2287499999999999,0.19037037037037027,1.9440000000000026],[0.16666666666666666,0.24277777777777781,1.9606999999880799],[0.10885416666666667,0.2777777777777778,1.9811999999880783],[0.05916666666666662,0.28888888888888886,1.9969999999999999],[0.0109375,0.322037037037037,2.0126999999880866],[-0.08541666666666667,0.32166666666666677,2.0275000000000034],[-0.08541666666666667,0.32166666666666677,2.046500000000009],[-0.0859375,0.32388888888888884,2.060899999976158],[-0.15656249999999997,0.2953703703703704,2.078099999994052],[-0.21739583333333337,0.2964814814814815,2.094199999988078],[-0.26437499999999997,0.28296296296296286,2.1137999999821204],[-0.17250000000000001,0.23759259259259252,2.1275999999940467],[-0.10593750000000005,0.2012962962962964,2.1455999999940474],[-0.036145833333333384,0.17629629629629637,2.1610000000000014],[0.02010416666666662,0.19074074074074074,2.1778999999761623],[0.07635416666666663,0.2051851851851851,2.1940000000000026],[0.20020833333333338,0.2012962962962964,2.210799999982129],[0.22395833333333334,0.20574074074074078,2.227399999976157],[0.38156249999999997,0.20999999999999996,2.2439999999999998],[0.529375,0.18462962962962973,2.2606999999880912],[0.6901041666666666,0.15148148148148138,2.2773999999761685],[0.6669791666666666,0.13962962962962958,2.294099999994046],[0.5871875000000001,0.14685185185185176,2.310799999982123],[0.5241666666666667,0.1381481481481482,2.3273999999761656],[0.4665625000000001,0.11388888888888889,2.3440000000000083],[0.5066666666666667,0.13277777777777786,2.3606999999880856],[0.5160416666666667,0.17444444444444454,2.377500000000012],[0.4535416666666668,0.19962962962962955,2.3970000000000056],[0.43416666666666665,0.2542592592592592,2.41129999998212],[0.4039583333333333,0.2729629629629629,2.427500000000009],[0.38697916666666665,0.29740740740740745,2.444299999982121],[0.37625000000000003,0.3557407407407408,2.463199999988092],[0.4881249999999999,0.3514814814814814,2.478999999999999],[0.5747916666666666,0.3785185185185185,2.4990000000000094],[0.654375,0.3985185185185186,2.5157999999821214],[0.6229166666666667,0.38629629629629636,2.531000000000006],[0.6253124999999999,0.3640740740740741,2.5460999999940412],[0.7145833333333333,0.3640740740740741,2.561799999982128],[0.6886458333333333,0.2942592592592592,2.580299999982131],[0.7007291666666667,0.3237037037037036,2.596399999976157],[0.6890625,0.3253703703703705,2.6108999999761693],[0.729375,0.33203703703703696,2.629699999988091],[0.7016666666666665,0.3494444444444445,2.644199999988089],[0.6823958333333332,0.3514814814814814,2.6607999999821175],[0.6702083333333334,0.36055555555555563,2.6801999999880906],[0.6702083333333334,0.36055555555555563,2.6940999999940516],[0.7469791666666665,0.34222222222222215,2.7110000000000127],[0.6983333333333335,0.36277777777777775,2.7275000000000063],[0.6198958333333332,0.3333333333333333,2.7480000000000047],[0.6540625000000001,0.37222222222222223,2.762500000000003],[0.6583333333333333,0.3633333333333334,2.777599999994038],[0.6933333333333332,0.344074074074074,2.7991999999880903],[0.7028125000000001,0.32759259259259255,2.814699999988079],[0.7264583333333334,0.3025925925925925,2.8292999999821262],[0.7746875000000001,0.27814814814814826,2.844199999988078],[0.8022916666666667,0.24351851851851852,2.863599999994051],[0.7217708333333335,0.2800000000000001,2.881799999982121],[0.7353125000000001,0.29074074074074074,2.897899999976161],[0.7938541666666665,0.28351851851851856,2.917399999976169],[0.7759375000000001,0.27388888888888885,2.9310999999940464],[0.760625,0.22685185185185186,2.945899999976163],[0.7251041666666665,0.21222222222222226,2.9608999999761636],[0.7040625000000001,0.20796296296296288,2.982899999976169],[0.7040625000000001,0.20796296296296288,2.9941999999880835],[0.6667708333333332,0.1853703703703704,3.0108999999761608],[0.6025000000000001,0.20833333333333334,3.030199999988085],[0.5601041666666667,0.18092592592592602,3.044099999994046],[0.5502083333333334,0.09888888888888885,3.0606999999880884],[0.5378124999999999,0.013703703703703662,3.0866999999880846],[0.5378124999999999,0.013703703703703662,3.094099999994043],[0.5098958333333333,-0.01962962962962967,3.1107999999821203],[0.5098958333333333,-0.01962962962962967,3.127299999982128],[0.51375,-0.05499999999999998,3.14819999998808],[0.5221874999999999,-0.02444444444444453,3.165799999982127],[0.5221874999999999,-0.02444444444444453,3.17739999997616],[0.5254166666666668,0.040370370370370286,3.200000000000003],[0.5254166666666668,0.040370370370370286,3.210799999982129],[0.5352083333333333,-0.03333333333333333,3.2275000000000063],[0.5352083333333333,-0.03333333333333333,3.249500000000012],[0.5479166666666667,-0.014259259259259343,3.2608999999761608],[0.5557291666666667,-0.03981481481481482,3.2830000000000013],[0.5622916666666666,-0.004814814814814857,3.2996999999880785],[0.5622916666666666,-0.004814814814814857,3.3106999999880884],[0.5741666666666667,-0.020555555555555598,3.3275000000000006],[0.5755208333333334,0.022592592592592678,3.344099999994043],[0.5664583333333333,0.06518518518518526,3.3606999999880856],[0.5513541666666666,0.055000000000000084,3.377399999976163],[0.5365624999999999,0.0242592592592593,3.394299999982124],[0.5285416666666668,-0.06629629629629631,3.414399999976169],[0.5143749999999999,-0.08907407407407411,3.4300999999940416],[0.5034375,-0.13777777777777775,3.4470000000000027],[0.49979166666666663,-0.18796296296296297,3.4625000000000057],[0.4961458333333333,-0.2381481481481482,3.477399999976157],[0.4895833333333333,-0.2337037037037037,3.4975000000000023],[0.4935416666666666,-0.2881481481481482,3.513199999988089],[0.5113541666666668,-0.31962962962962965,3.527899999976171],[0.5368750000000001,-0.3066666666666667,3.544099999994046],[0.5403125000000001,-0.29388888888888887,3.5605999999940394],[0.5315624999999999,-0.28185185185185185,3.577299999982131],[0.5196875000000001,-0.29555555555555557,3.594099999994043],[0.5192708333333333,-0.3116666666666667,3.610599999994051],[0.5223958333333333,-0.28703703703703703,3.627399999976163],[0.5269791666666668,-0.2890740740740741,3.64409999999404],[0.5308333333333333,-0.3020370370370371,3.6610999999940503],[0.5371875,-0.3087037037037037,3.6778999999761623],[0.5267708333333334,-0.2862962962962963,3.6971999999880865],[0.5171875,-0.3307407407407408,3.7132999999821266],[0.5248958333333335,-0.3985185185185185,3.727399999976157],[0.5294791666666666,-0.39740740740740743,3.7441999999880835],[0.5393749999999999,-0.3055555555555556,3.760799999982126],[0.5359375,-0.22833333333333336,3.7772999999821195],[0.5289583333333333,-0.19185185185185188,3.7942999999821296],[0.5248958333333335,-0.1440740740740741,3.8121999999880813],[0.5191666666666668,-0.08925925925925923,3.827299999982131],[0.5162499999999999,-0.08888888888888889,3.8440000000000083],[0.5162499999999999,-0.14055555555555552,3.8630999999940485],[0.5146874999999999,-0.12907407407407406,3.877399999976163],[0.4942708333333333,-0.1264814814814815,3.896500000000003],[0.4942708333333333,-0.1264814814814815,3.9108999999761664],[0.5009375000000001,-0.16722222222222224,3.927500000000009],[0.5016666666666666,-0.21277777777777773,3.944299999982121],[0.5028125,-0.2953703703703704,3.9639999999999986],[0.5072916666666667,-0.3675925925925926,3.9803999999761572],[0.5073958333333333,-0.41629629629629633,3.9975999999940512],[0.5075000000000001,-0.465,4.01289999997617],[0.5015625,-0.4903703703703704,4.0272999999821195],[0.49541666666666656,-0.5166666666666667,4.044099999994046],[0.4947916666666667,-0.5007407407407407,4.060699999988088],[0.5130208333333334,-0.4759259259259259,4.078899999976159],[0.5134375000000001,-0.44111111111111106,4.094299999982127],[0.5146874999999999,-0.4546296296296296,4.11079999998212],[0.5170833333333335,-0.43148148148148147,4.127299999982128],[0.41510416666666666,-0.334074074074074,4.1440000000000055],[0.3132291666666667,-0.24518518518518514,4.161199999988085],[0.1962500000000001,-0.17370370370370372,4.180299999982125],[0.07999999999999995,-0.07740740740740742,4.197099999994052],[-0.030729166666666665,0.017592592592592594,4.211299999982131],[-0.14624999999999996,0.07407407407407407,4.227399999976157],[-0.22687499999999997,0.10981481481481473,4.244099999994049],[-0.2886458333333334,0.12148148148148152,4.260699999988091],[-0.3607291666666666,0.1648148148148148,4.2773999999761685],[-0.44468749999999996,0.19314814814814807,4.294399999976164],[-0.44083333333333335,0.18574074074074065,4.310799999982123],[-0.42645833333333333,0.08462962962962971,4.327399999976166],[-0.3969791666666667,0.000925925925925926,4.344000000000008],[-0.3367708333333333,-0.0020370370370370794,4.3606999999880856],[-0.2727083333333333,0.04666666666666675,4.377299999982128],[-0.13791666666666663,0.08629629629629634,4.396500000000003],[-0.02677083333333338,0.11074074074074065,4.410699999988083],[0.08416666666666663,0.13740740740740748,4.427299999982125],[0.22291666666666668,0.14203703703703713,4.444000000000003],[0.39333333333333326,0.16888888888888898,4.460599999994045],[0.5694791666666668,0.18555555555555564,4.477399999976157],[0.7057291666666666,0.29240740740740734,4.494299999982118],[0.8479166666666667,0.3761111111111112,4.513299999982124]]","[0.0001999999880837322,0.04119999998808055,0.06319999998808612,0.06939999997617008,0.09489999997616394,0.10369999998808055,0.1305999999940468,0.1371999999880842,0.16300000000001091,0.16929999998212963,0.1947999999821235,0.2020000000000124,0.2280999999940434,0.2350999999940484,0.26309999999404,0.2690999999940402,0.2948999999761668,0.30219999998809044,0.32969999998807964,0.3365000000000009,0.3640000000000043,0.3719999999999999,0.39639999997616826,0.40339999997615905,0.4300999999940416,0.44469999998808873,0.46379999998212895,0.4718999999761593,0.49919999998807896,0.5058999999761653,0.5110000000000099,0.5305999999940383,0.5660000000000025,0.5726999999880888,0.5946999999880802,0.60179999998212,0.6312999999821187,0.638199999988089,0.6632999999821294,0.6700999999940507,0.6991999999880818,0.7062999999821216,0.7296999999880853,0.7375000000000114,0.765500000000003,0.7723999999761588,0.7965000000000089,0.8036999999880834,0.831799999982124,0.838799999982129,0.8630999999940485,0.8697999999821207,0.8947999999821263,0.9130000000000109,0.9300000000000068,0.9380999999940514,0.9655000000000058,0.9721999999880779,0.9965999999940465,1.0030000000000001,1.0318999999761616,1.0382999999821294,1.0633999999761699,1.0705000000000098,1.1032999999821271,1.113500000000002,1.127500000000012,1.144299999982124,1.1665999999940482,1.1775999999940439,1.194299999982121,1.2180999999940383,1.227599999994041,1.2442999999821183,1.2681999999880844,1.2782999999821243,1.2942999999821296,1.3161999999880862,1.3318999999761587,1.3467999999821245,1.3625000000000114,1.3832999999821283,1.3941999999880892,1.4110000000000014,1.427500000000009,1.4467999999821188,1.46459999999405,1.4817999999821296,1.4988999999761603,1.513199999988089,1.5290000000000106,1.5445999999940483,1.564799999982128,1.5790000000000077,1.5941999999880778,1.6129999999999995,1.6275999999940467,1.644299999982124,1.6607999999821175,1.679799999982123,1.6941999999880863,1.7108999999761636,1.7311999999880783,1.7460000000000093,1.7608999999761608,1.7775000000000034,1.7967999999821274,1.812399999976165,1.8275999999940495,1.8475000000000108,1.8607999999821203,1.8773999999761628,1.8941999999880892,1.9106999999880827,1.92739999997616,1.9440000000000026,1.9606999999880799,1.9811999999880783,1.9969999999999999,2.0126999999880866,2.0275000000000034,2.046500000000009,2.060899999976158,2.078099999994052,2.094199999988078,2.1137999999821204,2.1275999999940467,2.1455999999940474,2.1610000000000014,2.1778999999761623,2.1940000000000026,2.210799999982129,2.227399999976157,2.2439999999999998,2.2606999999880912,2.2773999999761685,2.294099999994046,2.310799999982123,2.3273999999761656,2.3440000000000083,2.3606999999880856,2.377500000000012,2.3970000000000056,2.41129999998212,2.427500000000009,2.444299999982121,2.463199999988092,2.478999999999999,2.4990000000000094,2.5157999999821214,2.531000000000006,2.5460999999940412,2.561799999982128,2.580299999982131,2.596399999976157,2.6108999999761693,2.629699999988091,2.644199999988089,2.6607999999821175,2.6801999999880906,2.6940999999940516,2.7110000000000127,2.7275000000000063,2.7480000000000047,2.762500000000003,2.777599999994038,2.7991999999880903,2.814699999988079,2.8292999999821262,2.844199999988078,2.863599999994051,2.881799999982121,2.897899999976161,2.917399999976169,2.9310999999940464,2.945899999976163,2.9608999999761636,2.982899999976169,2.9941999999880835,3.0108999999761608,3.030199999988085,3.044099999994046,3.0606999999880884,3.0866999999880846,3.094099999994043,3.1107999999821203,3.127299999982128,3.14819999998808,3.165799999982127,3.17739999997616,3.200000000000003,3.210799999982129,3.2275000000000063,3.249500000000012,3.2608999999761608,3.2830000000000013,3.2996999999880785,3.3106999999880884,3.3275000000000006,3.344099999994043,3.3606999999880856,3.377399999976163,3.394299999982124,3.414399999976169,3.4300999999940416,3.4470000000000027,3.4625000000000057,3.477399999976157,3.4975000000000023,3.513199999988089,3.527899999976171,3.544099999994046,3.5605999999940394,3.577299999982131,3.594099999994043,3.610599999994051,3.627399999976163,3.64409999999404,3.6610999999940503,3.6778999999761623,3.6971999999880865,3.7132999999821266,3.727399999976157,3.7441999999880835,3.760799999982126,3.7772999999821195,3.7942999999821296,3.8121999999880813,3.827299999982131,3.8440000000000083,3.8630999999940485,3.877399999976163,3.896500000000003,3.9108999999761664,3.927500000000009,3.944299999982121,3.9639999999999986,3.9803999999761572,3.9975999999940512,4.01289999997617,4.0272999999821195,4.044099999994046,4.060699999988088,4.078899999976159,4.094299999982127,4.11079999998212,4.127299999982128,4.1440000000000055,4.161199999988085,4.180299999982125,4.197099999994052,4.211299999982131,4.227399999976157,4.244099999994049,4.260699999988091,4.2773999999761685,4.294399999976164,4.310799999982123,4.327399999976166,4.344000000000008,4.3606999999880856,4.377299999982128,4.396500000000003,4.410699999988083,4.427299999982125,4.444000000000003,4.460599999994045,4.477399999976157,4.494299999982118,4.513299999982124]","[1732775007572,1732775007605,1732775007627,1732775007633,1732775007659,1732775007667,1732775007694,1732775007701,1732775007727,1732775007733,1732775007759,1732775007766,1732775007792,1732775007799,1732775007827,1732775007833,1732775007859,1732775007866,1732775007893,1732775007900,1732775007928,1732775007936,1732775007960,1732775007967,1732775007994,1732775008009,1732775008028,1732775008036,1732775008063,1732775008070,1732775008075,1732775008094,1732775008130,1732775008136,1732775008159,1732775008166,1732775008195,1732775008202,1732775008227,1732775008234,1732775008263,1732775008270,1732775008294,1732775008301,1732775008329,1732775008336,1732775008360,1732775008367,1732775008396,1732775008403,1732775008427,1732775008434,1732775008459,1732775008477,1732775008494,1732775008502,1732775008529,1732775008536,1732775008560,1732775008567,1732775008596,1732775008602,1732775008627,1732775008634,1732775008667,1732775008677,1732775008691,1732775008708,1732775008730,1732775008741,1732775008758,1732775008782,1732775008791,1732775008808,1732775008832,1732775008842,1732775008858,1732775008880,1732775008896,1732775008911,1732775008926,1732775008947,1732775008958,1732775008975,1732775008991,1732775009011,1732775009028,1732775009046,1732775009063,1732775009077,1732775009093,1732775009108,1732775009129,1732775009143,1732775009158,1732775009177,1732775009191,1732775009208,1732775009225,1732775009244,1732775009258,1732775009275,1732775009295,1732775009310,1732775009325,1732775009341,1732775009361,1732775009376,1732775009391,1732775009411,1732775009425,1732775009441,1732775009458,1732775009475,1732775009491,1732775009508,1732775009525,1732775009545,1732775009561,1732775009577,1732775009591,1732775009610,1732775009625,1732775009642,1732775009658,1732775009678,1732775009691,1732775009709,1732775009725,1732775009742,1732775009758,1732775009775,1732775009791,1732775009808,1732775009824,1732775009841,1732775009858,1732775009875,1732775009891,1732775009908,1732775009924,1732775009941,1732775009961,1732775009975,1732775009991,1732775010008,1732775010027,1732775010043,1732775010063,1732775010080,1732775010095,1732775010110,1732775010126,1732775010144,1732775010160,1732775010175,1732775010194,1732775010208,1732775010225,1732775010244,1732775010258,1732775010275,1732775010291,1732775010312,1732775010326,1732775010341,1732775010363,1732775010379,1732775010393,1732775010408,1732775010427,1732775010446,1732775010462,1732775010481,1732775010495,1732775010510,1732775010525,1732775010547,1732775010558,1732775010575,1732775010594,1732775010608,1732775010624,1732775010651,1732775010658,1732775010675,1732775010691,1732775010712,1732775010730,1732775010741,1732775010764,1732775010775,1732775010791,1732775010813,1732775010825,1732775010847,1732775010863,1732775010875,1732775010891,1732775010908,1732775010925,1732775010941,1732775010958,1732775010978,1732775010994,1732775011011,1732775011026,1732775011041,1732775011061,1732775011077,1732775011092,1732775011108,1732775011124,1732775011141,1732775011158,1732775011174,1732775011191,1732775011208,1732775011225,1732775011242,1732775011261,1732775011277,1732775011291,1732775011308,1732775011325,1732775011341,1732775011358,1732775011376,1732775011391,1732775011408,1732775011427,1732775011441,1732775011460,1732775011475,1732775011491,1732775011508,1732775011528,1732775011544,1732775011561,1732775011577,1732775011591,1732775011608,1732775011624,1732775011643,1732775011658,1732775011675,1732775011691,1732775011708,1732775011725,1732775011744,1732775011761,1732775011775,1732775011791,1732775011808,1732775011824,1732775011841,1732775011858,1732775011875,1732775011891,1732775011908,1732775011924,1732775011941,1732775011960,1732775011975,1732775011991,1732775012008,1732775012024,1732775012041,1732775012058,1732775012077]","[[936.1,424.2],[936.1,424.2],[918.3,428.5],[918.3,428.5],[891,433.2],[891,433.2],[887.1,415.9],[887.1,415.9],[858.1,405.4],[858.1,405.4],[853.8,398.1],[853.8,398.1],[838.5,380.1],[838.5,380.1],[842.1,393.2],[842.1,393.2],[830.2,382.4],[830.2,382.4],[826.9,371.4],[826.9,371.4],[831.3,360.7],[831.3,360.7],[832,342.1],[832,342.1],[845.2,298.7],[845.2,298.7],[842.3,295.2],[842.3,295.2],[876.2,307.8],[876.2,307.8],[876.2,307.8],[876.2,307.8],[887.6,308.2],[887.6,308.2],[934.1,306.2],[934.1,306.2],[973.8,301.3],[973.8,301.3],[1011.2,297.7],[1011.2,297.7],[1040.9,306.8],[1040.9,306.8],[1070.7,327.6],[1070.7,327.6],[1131.8,342.4],[1131.8,342.4],[1211,366.1],[1211,366.1],[1264.3,341.7],[1264.3,341.7],[1313.1,336.6],[1313.1,336.6],[1370.8,345.5],[1370.8,345.5],[1429.7,361.5],[1429.7,361.5],[1415.9,376.9],[1415.9,376.9],[1351.9,389.6],[1351.9,389.6],[1287.8,417.2],[1287.8,417.2],[1273.2,416.8],[1273.2,416.8],[1199.7,430.5],[1199.7,430.5],[1132.7,435.7],[1132.7,435.7],[1106.2,440.9],[1106.2,440.9],[1050.6,431.1],[1050.6,431.1],[985,450.7],[985,450.7],[835.8,471.4],[835.8,471.4],[798.8,475.8],[806.2,487],[846.1,484.5],[831.1,511.5],[847.7,520.5],[873.7,544.4],[873.7,544.4],[838.9,580.6],[873,608.2],[885.3,619.7],[920.1,620.1],[920.1,620.1],[919.7,629.6],[963.1,634.8],[987.2,618.5],[1015.8,597.7],[1039.1,584],[1009.7,580.7],[1071.8,583.5],[1072.6,584.5],[1108.6,572.1],[1180.4,575.7],[1285.8,588.5],[1355.5,600.2],[1351.2,618.7],[1368.1,624],[1416.2,642.6],[1447.2,649.2],[1439.9,650.8],[1439.9,650.8],[1446.4,640],[1446.5,634.3],[1446.6,628.6],[1411.7,601.8],[1387.6,590.7],[1425.9,590.2],[1384.2,611.4],[1316.6,612.2],[1248.1,627.5],[1179.6,642.8],[1120,671.1],[1064.5,690],[1016.8,696],[970.5,713.9],[878,713.7],[878,713.7],[877.5,714.9],[809.7,699.5],[751.3,700.1],[706.2,692.8],[794.4,668.3],[858.3,648.7],[925.3,635.2],[979.3,643],[1033.3,650.8],[1152.2,648.7],[1175,651.1],[1326.3,653.4],[1468.2,639.7],[1622.5,621.8],[1600.3,615.4],[1523.7,619.3],[1463.2,614.6],[1407.9,601.5],[1446.4,611.7],[1455.4,634.2],[1395.4,647.8],[1376.8,677.3],[1347.8,687.4],[1331.5,700.6],[1321.2,732.1],[1428.6,729.8],[1511.8,744.4],[1588.2,755.2],[1558,748.6],[1560.3,736.6],[1646,736.6],[1621.1,698.9],[1632.7,714.8],[1621.5,715.7],[1660.2,719.3],[1633.6,728.7],[1615.1,729.8],[1603.4,734.7],[1603.4,734.7],[1677.1,724.8],[1630.4,735.9],[1555.1,720],[1587.9,741],[1592,736.2],[1625.6,725.8],[1634.7,716.9],[1657.4,703.4],[1703.7,690.2],[1730.2,671.5],[1652.9,691.2],[1665.9,697],[1722.1,693.1],[1704.9,687.9],[1690.2,662.5],[1656.1,654.6],[1635.9,652.3],[1635.9,652.3],[1600.1,640.1],[1538.4,652.5],[1497.7,637.7],[1488.2,593.4],[1476.3,547.4],[1476.3,547.4],[1449.5,529.4],[1449.5,529.4],[1453.2,510.3],[1461.3,526.8],[1461.3,526.8],[1464.4,561.8],[1464.4,561.8],[1473.8,522],[1473.8,522],[1486,532.3],[1493.5,518.5],[1499.8,537.4],[1499.8,537.4],[1511.2,528.9],[1512.5,552.2],[1503.8,575.2],[1489.3,569.7],[1475.1,553.1],[1467.4,504.2],[1453.8,491.9],[1443.3,465.6],[1439.8,438.5],[1436.3,411.4],[1430,413.8],[1433.8,384.4],[1450.9,367.4],[1475.4,374.4],[1478.7,381.3],[1470.3,387.8],[1458.9,380.4],[1458.5,371.7],[1461.5,385],[1465.9,383.9],[1469.6,376.9],[1475.7,373.3],[1465.7,385.4],[1456.5,361.4],[1463.9,324.8],[1468.3,325.4],[1477.8,375],[1474.5,416.7],[1467.8,436.4],[1463.9,462.2],[1458.4,491.8],[1455.6,492],[1455.6,464.1],[1454.1,470.3],[1434.5,471.7],[1434.5,471.7],[1440.9,449.7],[1441.6,425.1],[1442.7,380.5],[1447,341.5],[1447.1,315.2],[1447.2,288.9],[1441.5,275.2],[1435.6,261],[1435,269.6],[1452.5,283],[1452.9,301.8],[1454.1,294.5],[1456.4,307],[1358.5,359.6],[1260.7,407.6],[1148.4,446.2],[1036.8,498.2],[930.5,549.5],[819.6,580],[742.2,599.3],[682.9,605.6],[613.7,629],[533.1,644.3],[536.8,640.3],[550.6,585.7],[578.9,540.5],[636.7,538.9],[698.2,565.2],[827.6,586.6],[934.3,599.8],[1040.8,614.2],[1174,616.7],[1337.6,631.2],[1506.7,640.2],[1637.5,697.9],[1774,743.1]]","[0,0.5333]","[0.5333,0.5333]","[-0.5333,0]","[-0.5333,-0.5333]","[0,0]","[0.5333,0]","[0,-0.5333]","[0.5333,-0.5333]",0,0,0,0,1,2,Monitor,7,1,11,9
,,,,,,,,,,,,,,,,,,,,13,001,2024-11-28_14h22.23.841,Attention_exp_legacy,2023.1.0,Win32,59.88023952,,,,,,,,,,[0.14166666666666666],[0.5518518518518518],[1],[0],[0],[2.582299999982112],"[""Option1_label""]",Option1_label,2,3.605,"[[0.515625,0.5055555555555555],[0.515625,0.5055555555555555],[0.515625,0.5055555555555555],[0.515625,0.5055555555555555],[0.515625,0.5055555555555555],[0.515625,0.5055555555555555],[0.515625,0.5055555555555555],[0.515625,0.5055555555555555],[0.515625,0.5055555555555555],[0.515625,0.5055555555555555],[0.515625,0.5055555555555555],[0.515625,0.5055555555555555],[0.515625,0.5055555555555555],[0.515625,0.5055555555555555],[0.515625,0.5055555555555555],[0.515625,0.5055555555555555],[0.515625,0.5055555555555555],[0.515625,0.5055555555555555],[0.515625,0.5055555555555555],[0.515625,0.5055555555555555],[0.515625,0.5055555555555555],[0.515625,0.5055555555555555],[0.515625,0.5055555555555555],[0.515625,0.5055555555555555],[0.515625,0.5055555555555555],[0.515625,0.5055555555555555],[0.515625,0.5055555555555555],[0.515625,0.5055555555555555],[0.515625,0.5055555555555555],[0.515625,0.5055555555555555],[0.515625,0.5055555555555555],[0.515625,0.5055555555555555],[0.515625,0.5055555555555555],[0.515625,0.5055555555555555],[0.515625,0.5055555555555555],[0.515625,0.5055555555555555],[0.515625,0.5055555555555555],[0.515625,0.5055555555555555],[0.515625,0.5055555555555555],[0.515625,0.5055555555555555],[0.515625,0.5055555555555555],[0.515625,0.5055555555555555],[0.515625,0.5055555555555555],[0.515625,0.5055555555555555],[0.515625,0.5055555555555555],[0.5125,0.5037037037037037],[0.49375,0.5],[0.48854166666666665,0.4981481481481482],[0.48020833333333335,0.4962962962962963],[0.46875,0.49444444444444446],[0.45625,0.49074074074074076],[0.446875,0.49074074074074076],[0.4395833333333333,0.49074074074074076],[0.434375,0.49074074074074076],[0.428125,0.49074074074074076],[0.4239583333333333,0.49074074074074076],[0.4166666666666667,0.49074074074074076],[0.40729166666666666,0.49074074074074076],[0.39166666666666666,0.49444444444444446],[0.36875,0.5018518518518519],[0.3458333333333333,0.5111111111111111],[0.3177083333333333,0.5148148148148148],[0.28958333333333336,0.524074074074074],[0.26458333333333334,0.5296296296296297],[0.23020833333333332,0.5388888888888889],[0.22083333333333333,0.5407407407407407],[0.209375,0.5444444444444444],[0.19270833333333334,0.55],[0.18958333333333333,0.55],[0.18854166666666666,0.55],[0.18854166666666666,0.55],[0.18854166666666666,0.55],[0.18854166666666666,0.55],[0.18854166666666666,0.55],[0.18854166666666666,0.55],[0.18854166666666666,0.55],[0.18854166666666666,0.55],[0.19479166666666667,0.5518518518518518],[0.20833333333333334,0.5574074074074075],[0.225,0.5611111111111111],[0.24583333333333332,0.5666666666666667],[0.2708333333333333,0.5703703703703704],[0.29375,0.575925925925926],[0.3177083333333333,0.5777777777777777],[0.340625,0.5777777777777777],[0.378125,0.5777777777777777],[0.3875,0.5777777777777777],[0.4083333333333333,0.5777777777777777],[0.43645833333333334,0.5777777777777777],[0.453125,0.5777777777777777],[0.4635416666666667,0.5777777777777777],[0.46875,0.5796296296296296],[0.4739583333333333,0.5814814814814815],[0.484375,0.5814814814814815],[0.4895833333333333,0.5814814814814815],[0.5020833333333333,0.5814814814814815],[0.5125,0.5814814814814815],[0.51875,0.5814814814814815],[0.521875,0.5814814814814815],[0.528125,0.5814814814814815],[0.5416666666666666,0.5814814814814815],[0.546875,0.5814814814814815],[0.55,0.5777777777777777],[0.5510416666666667,0.5777777777777777],[0.5520833333333334,0.5777777777777777],[0.553125,0.5740740740740741],[0.553125,0.5703703703703704],[0.553125,0.562962962962963],[0.553125,0.5537037037037037],[0.553125,0.5462962962962963],[0.553125,0.5388888888888889],[0.553125,0.5314814814814814],[0.553125,0.5259259259259259],[0.5541666666666667,0.49074074074074076],[0.55625,0.48333333333333334],[0.5572916666666666,0.4759259259259259],[0.5583333333333333,0.46111111111111114],[0.5583333333333333,0.44074074074074077],[0.5552083333333333,0.4222222222222222],[0.5427083333333333,0.3962962962962963],[0.521875,0.37037037037037035],[0.49375,0.35],[0.45,0.34814814814814815],[0.3729166666666667,0.362962962962963],[0.33645833333333336,0.3907407407407407],[0.32083333333333336,0.40185185185185185],[0.2916666666666667,0.4351851851851852],[0.28125,0.44814814814814813],[0.275,0.46111111111111114],[0.2677083333333333,0.4777777777777778],[0.253125,0.512962962962963],[0.246875,0.5259259259259259],[0.225,0.5611111111111111],[0.21979166666666666,0.5648148148148148],[0.21354166666666666,0.5685185185185185],[0.209375,0.5703703703703704],[0.20833333333333334,0.5703703703703704],[0.20833333333333334,0.5703703703703704],[0.20833333333333334,0.5703703703703704],[0.20833333333333334,0.5703703703703704],[0.20833333333333334,0.5703703703703704],[0.20729166666666668,0.5703703703703704],[0.20520833333333333,0.5703703703703704],[0.20416666666666666,0.5703703703703704],[0.20104166666666667,0.5703703703703704],[0.19270833333333334,0.5703703703703704],[0.16979166666666667,0.5592592592592592],[0.15416666666666667,0.5555555555555556],[0.14583333333333334,0.5555555555555556],[0.14479166666666668,0.5555555555555556],[0.14166666666666666,0.5518518518518518],[0.14166666666666666,0.5518518518518518],[0.14166666666666666,0.5518518518518518],[0.14166666666666666,0.5518518518518518],[0.14166666666666666,0.5518518518518518],[0.14166666666666666,0.5518518518518518],[0.14166666666666666,0.5518518518518518],[0.14166666666666666,0.5518518518518518],[0.14166666666666666,0.5518518518518518],[0.14166666666666666,0.5518518518518518],[0.14166666666666666,0.5518518518518518],[0.14166666666666666,0.5518518518518518],[0.14166666666666666,0.5518518518518518],[0.14166666666666666,0.5518518518518518],[0.14166666666666666,0.5518518518518518],[0.14166666666666666,0.5518518518518518],[0.14166666666666666,0.5518518518518518],[0.14166666666666666,0.5518518518518518],[0.14166666666666666,0.5518518518518518],[0.14166666666666666,0.5518518518518518],[0.14166666666666666,0.5518518518518518],[0.14166666666666666,0.5518518518518518],[0.14166666666666666,0.5518518518518518],[0.14166666666666666,0.5518518518518518],[0.14166666666666666,0.5518518518518518],[0.14166666666666666,0.5518518518518518],[0.14166666666666666,0.5518518518518518],[0.14166666666666666,0.5518518518518518],[0.14166666666666666,0.5518518518518518],[0.14166666666666666,0.5518518518518518],[0.14166666666666666,0.5518518518518518],[0.14166666666666666,0.5518518518518518],[0.14166666666666666,0.5518518518518518],[0.14166666666666666,0.5518518518518518],[0.14166666666666666,0.5518518518518518],[0.14166666666666666,0.5518518518518518],[0.14166666666666666,0.5518518518518518],[0.14166666666666666,0.5518518518518518],[0.14166666666666666,0.5518518518518518],[0.14166666666666666,0.5518518518518518],[0.14166666666666666,0.5518518518518518],[0.14166666666666666,0.5518518518518518],[0.14166666666666666,0.5518518518518518],[0.14166666666666666,0.5518518518518518],[0.14166666666666666,0.5518518518518518],[0.14166666666666666,0.5518518518518518],[0.14166666666666666,0.5518518518518518],[0.14166666666666666,0.5518518518518518],[0.14166666666666666,0.5518518518518518],[0.14166666666666666,0.5518518518518518],[0.14166666666666666,0.5518518518518518],[0.14166666666666666,0.5518518518518518],[0.14166666666666666,0.5518518518518518],[0.14166666666666666,0.5518518518518518],[0.14166666666666666,0.5518518518518518],[0.14166666666666666,0.5518518518518518],[0.14166666666666666,0.5518518518518518],[0.14166666666666666,0.5518518518518518],[0.14166666666666666,0.5518518518518518],[0.14166666666666666,0.5518518518518518],[0.14166666666666666,0.5518518518518518],[0.14166666666666666,0.5518518518518518],[0.14166666666666666,0.5518518518518518],[0.14166666666666666,0.5518518518518518],[0.14166666666666666,0.5518518518518518],[0.14166666666666666,0.5518518518518518],[0.14166666666666666,0.5518518518518518]]","[[-0.8826041666666666,-0.28888888888888886],[-0.8770833333333333,-0.2712962962962963],[-0.86,-0.26481481481481484],[-0.8607291666666667,-0.26351851851851854],[-0.8454166666666667,-0.2727777777777778],[-0.8295833333333333,-0.31925925925925924],[-0.7846875,-0.3074074074074074],[-0.7304166666666667,-0.3098148148148148],[-0.6489583333333333,-0.28055555555555556],[-0.5683333333333334,-0.23962962962962958],[-0.4517708333333334,-0.20111111111111116],[-0.3467708333333333,-0.16055555555555553],[-0.25333333333333335,-0.10888888888888891],[-0.17770833333333336,-0.06018518518518518],[-0.11802083333333328,0.03925925925925934],[-0.04020833333333336,0.1111111111111111],[0.008541666666666715,0.12462962962962955],[0.018124999999999978,0.1307407407407408],[0.009375,0.13259259259259262],[0.021041666666666715,0.11796296296296305],[0.016145833333333335,0.0962962962962963],[0.02166666666666662,0.06944444444444445],[0.059375,0.007962962962962878],[0.08770833333333337,-0.03888888888888889],[0.10374999999999991,-0.10537037037037032],[0.10166666666666657,-0.14425925925925923],[0.12458333333333324,-0.20481481481481487],[0.1772916666666667,-0.24370370370370376],[0.1772916666666667,-0.24370370370370376],[0.23239583333333325,-0.3031481481481481],[0.265625,-0.3668518518518519],[0.2964583333333332,-0.4166666666666667],[0.31531250000000005,-0.4981481481481482],[0.30197916666666674,-0.545],[0.1724999999999999,-0.47018518518518515],[0.06270833333333338,-0.39092592592592595],[-0.04708333333333338,-0.3116666666666667],[-0.16114583333333338,-0.24129629629629631],[-0.2752083333333334,-0.17092592592592595],[-0.40114583333333337,-0.06074074074074076],[-0.5076041666666666,0.043703703703703745],[-0.5868749999999999,0.10944444444444448],[-0.6473958333333333,0.2103703703703704],[-0.7361458333333334,0.3135185185185184],[-0.6895833333333333,0.29018518518518527],[-0.6505208333333333,0.2418518518518519],[-0.5,0.13962962962962958],[-0.3702083333333333,0.06796296296296304],[-0.24906250000000002,-0.012592592592592508],[-0.0984375,-0.12148148148148152],[-0.004791666666666691,-0.20277777777777778],[0.06166666666666672,-0.24537037037037038],[0.0821875000000001,-0.27148148148148155],[0.17864583333333334,-0.31203703703703706],[0.2727083333333333,-0.37111111111111106],[0.3384375000000001,-0.4112962962962963],[0.3264583333333334,-0.4183333333333333],[0.31447916666666675,-0.42537037037037034],[0.2900000000000001,-0.42592592592592593],[0.23854166666666668,-0.34814814814814815],[0.23854166666666668,-0.34814814814814815],[0.22687499999999997,-0.2831481481481481],[0.22687499999999997,-0.2831481481481481],[0.20208333333333334,-0.2309259259259259],[0.20958333333333337,-0.20666666666666672],[0.20958333333333337,-0.20666666666666672],[0.19656250000000006,-0.19388888888888886],[0.1678124999999999,-0.17518518518518522],[0.16739583333333338,-0.17537037037037034],[0.16739583333333338,-0.17537037037037034],[0.14635416666666667,-0.17796296296296302],[0.14395833333333338,-0.1544444444444444],[0.1397916666666667,-0.14000000000000004],[0.13770833333333338,-0.20555555555555555],[0.13479166666666675,-0.20759259259259263],[0.14500000000000005,-0.19685185185185186],[0.22322916666666662,-0.16314814814814818],[0.2742708333333333,-0.10574074074074079],[0.3108333333333334,-0.06314814814814819],[0.37135416666666665,-0.07777777777777778],[0.4879166666666668,-0.039629629629629584],[0.5858333333333334,-0.02759259259259255],[0.5913541666666667,-0.05722222222222218],[0.6209374999999999,-0.09000000000000004],[0.6513541666666666,-0.18629629629629635],[0.6470833333333333,-0.25092592592592594],[0.5816666666666668,-0.33055555555555555],[0.5390625,-0.4729629629629629],[0.5375,-0.5416666666666666],[0.5510416666666667,-0.5516666666666666],[0.4814583333333334,-0.5888888888888889],[0.4266666666666666,-0.655],[0.4275000000000001,-0.6296296296296297],[0.40427083333333325,-0.6011111111111112],[0.40427083333333325,-0.6011111111111112],[0.4410416666666668,-0.575925925925926],[0.4410416666666668,-0.575925925925926],[0.48416666666666663,-0.6109259259259259],[0.48416666666666663,-0.6109259259259259],[0.5438541666666665,-0.6472222222222223],[0.5438541666666665,-0.6472222222222223],[0.5242708333333332,-0.6133333333333333],[0.5242708333333332,-0.6133333333333333],[0.47062499999999996,-0.5853703703703704],[0.47062499999999996,-0.5853703703703704],[0.41437499999999994,-0.5461111111111111],[0.4046875,-0.5362962962962964],[0.33531250000000007,-0.4166666666666667],[0.3256249999999999,-0.33537037037037043],[0.33229166666666665,-0.26888888888888884],[0.30656249999999996,-0.27555555555555555],[0.28541666666666665,-0.20722222222222217],[0.24770833333333328,-0.13759259259259263],[0.24562499999999995,0.040740740740740744],[0.3138541666666666,0.02166666666666675],[0.3142708333333334,0.07888888888888893],[0.2820833333333333,0.16314814814814818],[0.2947916666666667,0.16648148148148145],[0.28802083333333334,0.07037037037037037],[0.2648958333333333,-0.010925925925925884],[0.23250000000000004,-0.046481481481481526],[0.23250000000000004,-0.046481481481481526],[0.25031249999999994,-0.0735185185185185],[0.2517708333333334,-0.10574074074074079],[0.27104166666666674,-0.1868518518518518],[0.27104166666666674,-0.1868518518518518],[0.23406250000000003,-0.14370370370370375],[0.22843749999999996,-0.1896296296296296],[0.20812499999999995,-0.2175925925925926],[0.1837500000000001,-0.3264814814814815],[0.1788541666666667,-0.3359259259259259],[0.20114583333333325,-0.334074074074074],[0.20302083333333343,-0.29666666666666663],[0.18541666666666667,-0.2824074074074074],[0.18416666666666662,-0.26296296296296295],[0.19343750000000004,-0.4494444444444444],[0.1959374999999999,-0.5112962962962964],[0.1944791666666667,-0.5414814814814815],[0.20770833333333344,-0.5896296296296296],[0.22979166666666656,-0.5835185185185185],[0.25187499999999996,-0.5774074074074075],[0.24677083333333344,-0.5825925925925927],[0.24572916666666675,-0.5611111111111111],[0.24968750000000003,-0.5937037037037037],[0.27062499999999995,-0.6511111111111112],[0.28406250000000005,-0.5698148148148148],[0.2972916666666668,-0.6203703703703703],[0.31447916666666675,-0.7025925925925925],[0.3232291666666666,-0.7620370370370371],[0.3232291666666666,-0.7620370370370371],[0.3182291666666667,-0.7429629629629629],[0.31364583333333323,-0.7053703703703703],[0.31364583333333323,-0.7053703703703703],[0.2912499999999999,-0.6542592592592593],[0.2912499999999999,-0.6542592592592593],[0.28250000000000003,-0.6437037037037038],[0.27614583333333326,-0.6640740740740741],[0.22645833333333343,-0.6616666666666667],[0.17677083333333338,-0.6592592592592592],[0.1258333333333333,-0.5811111111111111],[0.07489583333333343,-0.5029629629629631],[0.051874999999999956,-0.47074074074074074],[0.03781249999999995,-0.4903703703703704],[0.050625000000000024,-0.5851851851851851],[0.06124999999999995,-0.6844444444444445],[0.07979166666666657,-0.7368518518518518],[0.030208333333333334,-0.7231481481481481],[0.006979166666666714,-0.7074074074074074],[0.025520833333333333,-0.7138888888888889],[0.06385416666666661,-0.7561111111111112],[0.0806250000000001,-0.7283333333333334],[0.06927083333333334,-0.6925925925925925],[0.07114583333333328,-0.6344444444444445],[0.04572916666666664,-0.5196296296296297],[0.028541666666666642,-0.36648148148148146],[-0.012187500000000047,-0.2511111111111112],[0.028645833333333332,-0.1814814814814815],[0.06947916666666672,-0.11185185185185181],[0.05614583333333331,-0.031111111111111027],[-0.0002083333333333807,0.15111111111111114],[-0.035000000000000024,0.2633333333333334],[-0.009895833333333333,0.2948148148148149],[-0.005937500000000048,0.29611111111111105],[-0.01604166666666664,0.3205555555555556],[-0.00947916666666669,0.27444444444444455],[0.004166666666666667,0.2598148148148147],[-0.010000000000000024,0.277962962962963],[-0.04364583333333331,0.3218518518518518],[-0.06489583333333329,0.3768518518518518],[-0.04666666666666662,0.3381481481481482],[-0.007604166666666619,0.27981481481481485],[-0.002916666666666619,0.2975925925925927],[-0.010520833333333358,0.34740740740740744],[-0.004062499999999977,0.37407407407407406],[-0.03864583333333336,0.3816666666666667],[-0.08031250000000002,0.35777777777777786],[-0.12895833333333329,0.3757407407407407],[-0.16760416666666664,0.36925925925925923],[-0.17854166666666665,0.3625925925925925],[-0.16218750000000004,0.3020370370370371],[-0.18781249999999997,0.262037037037037],[-0.23031250000000003,0.2418518518518519],[-0.24572916666666664,0.2012962962962964],[-0.25593750000000004,0.18351851851851855],[-0.22999999999999995,0.20796296296296288],[-0.25656249999999997,0.20925925925925926],[-0.25666666666666665,0.18203703703703694],[-0.2555208333333333,0.15111111111111114],[-0.2820833333333333,0.12037037037037036],[-0.3207291666666666,0.1544444444444444],[-0.35177083333333337,0.18592592592592588],[-0.32875000000000004,0.18518518518518517],[-0.3111458333333334,0.18592592592592588],[-0.30020833333333335,0.15851851851851856],[-0.30020833333333335,0.15851851851851856],[-0.26968749999999997,0.08611111111111111],[-0.20208333333333334,0.08518518518518518]]","[[-0.8826041666666666,-0.28888888888888886,0.00009999999404897153],[-0.8770833333333333,-0.2712962962962963,0.019400000005973084],[-0.86,-0.26481481481481484,0.034699999988092145],[-0.8607291666666667,-0.26351851851851854,0.0499000000059624],[-0.8454166666666667,-0.2727777777777778,0.06700000000000728],[-0.8295833333333333,-0.31925925925925924,0.08329999998213111],[-0.7846875,-0.3074074074074074,0.09969999998808987],[-0.7304166666666667,-0.3098148148148148,0.11640000000596729],[-0.6489583333333333,-0.28055555555555556,0.13309999999404454],[-0.5683333333333334,-0.23962962962962958,0.1497999999821218],[-0.4517708333333334,-0.20111111111111116,0.16640000000596444],[-0.3467708333333333,-0.16055555555555553,0.18319999998809067],[-0.25333333333333335,-0.10888888888888891,0.20029999998212134],[-0.17770833333333336,-0.06018518518518518,0.21719999998808248],[-0.11802083333333328,0.03925925925925934,0.2330000000000041],[-0.04020833333333336,0.1111111111111111,0.25129999998212327],[0.008541666666666715,0.12462962962962955,0.26640000000597297],[0.018124999999999978,0.1307407407407408,0.2830999999940502],[0.009375,0.13259259259259262,0.2997999999821275],[0.021041666666666715,0.11796296296296305,0.3179000000059631],[0.016145833333333335,0.0962962962962963,0.3330000000000126],[0.02166666666666662,0.06944444444444445,0.34979999998212463],[0.059375,0.007962962962962878,0.36790000000597445],[0.08770833333333337,-0.03888888888888889,0.38309999999404454],[0.10374999999999991,-0.10537037037037032,0.3997999999821218],[0.10166666666666657,-0.14425925925925923,0.4165000000000134],[0.12458333333333324,-0.20481481481481487,0.4330999999940417],[0.1772916666666667,-0.24370370370370376,0.44979999998211895],[0.1772916666666667,-0.24370370370370376,0.4664000000059616],[0.23239583333333325,-0.3031481481481481,0.4830000000000041],[0.265625,-0.3668518518518519,0.4997999999821303],[0.2964583333333332,-0.4166666666666667,0.5197999999821263],[0.31531250000000005,-0.4981481481481482,0.5334000000059689],[0.30197916666666674,-0.545,0.5496999999880927],[0.1724999999999999,-0.47018518518518515,0.5665000000000049],[0.06270833333333338,-0.39092592592592595,0.5830999999940474],[-0.04708333333333338,-0.3116666666666667,0.5996999999880899],[-0.16114583333333338,-0.24129629629629631,0.6164000000059673],[-0.2752083333333334,-0.17092592592592595,0.6330999999940445],[-0.40114583333333337,-0.06074074074074076,0.6499000000059709],[-0.5076041666666666,0.043703703703703745,0.6687999999821272],[-0.5868749999999999,0.10944444444444448,0.683699999988093],[-0.6473958333333333,0.2103703703703704,0.699799999982119],[-0.7361458333333334,0.3135185185185184,0.7189000000059735],[-0.6895833333333333,0.29018518518518527,0.7332999999821226],[-0.6505208333333333,0.2418518518518519,0.7526999999880815],[-0.5,0.13962962962962958,0.7720999999940403],[-0.3702083333333333,0.06796296296296304,0.7865999999940527],[-0.24906250000000002,-0.012592592592592508,0.803199999988081],[-0.0984375,-0.12148148148148152,0.8174000000059607],[-0.004791666666666691,-0.20277777777777778,0.8330999999940474],[0.06166666666666672,-0.24537037037037038,0.8499000000059738],[0.0821875000000001,-0.27148148148148155,0.8699000000059698],[0.17864583333333334,-0.31203703703703706,0.8849000000059704],[0.2727083333333333,-0.37111111111111106,0.8999000000059709],[0.3384375000000001,-0.4112962962962963,0.9189000000059622],[0.3264583333333334,-0.4183333333333333,0.9334000000059746],[0.31447916666666675,-0.42537037037037034,0.9500000000000028],[0.2900000000000001,-0.42592592592592593,0.9702999999821316],[0.23854166666666668,-0.34814814814814815,0.9862999999821227],[0.23854166666666668,-0.34814814814814815,1],[0.22687499999999997,-0.2831481481481481,1.0191999999880892],[0.22687499999999997,-0.2831481481481481,1.0334000000059689],[0.20208333333333334,-0.2309259259259259,1.0500000000000114],[0.20958333333333337,-0.20666666666666672,1.0730999999940423],[0.20958333333333337,-0.20666666666666672,1.0835999999940498],[0.19656250000000006,-0.19388888888888886,1.1000000000000085],[0.1678124999999999,-0.17518518518518522,1.11879999998213],[0.16739583333333338,-0.17537037037037034,1.1366999999880818],[0.16739583333333338,-0.17537037037037034,1.149900000005971],[0.14635416666666667,-0.17796296296296302,1.1665000000000134],[0.14395833333333338,-0.1544444444444444,1.1830999999940417],[0.1397916666666667,-0.14000000000000004,1.2000999999940518],[0.13770833333333338,-0.20555555555555555,1.220000000000013],[0.13479166666666675,-0.20759259259259263,1.2365000000000066],[0.14500000000000005,-0.19685185185185186,1.2510999999940395],[0.22322916666666662,-0.16314814814814818,1.267699999988082],[0.2742708333333333,-0.10574074074074079,1.2860000000000014],[0.3108333333333334,-0.06314814814814819,1.300199999988081],[0.37135416666666665,-0.07777777777777778,1.3165000000000049],[0.4879166666666668,-0.039629629629629584,1.3331999999880821],[0.5858333333333334,-0.02759259259259255,1.3522999999821224],[0.5913541666666667,-0.05722222222222218,1.368199999988093],[0.6209374999999999,-0.09000000000000004,1.3850999999940399],[0.6513541666666666,-0.18629629629629635,1.4037999999821267],[0.6470833333333333,-0.25092592592592594,1.419699999988083],[0.5816666666666668,-0.33055555555555555,1.4339000000059627],[0.5390625,-0.4729629629629629,1.4522999999821309],[0.5375,-0.5416666666666666,1.4680999999940525],[0.5510416666666667,-0.5516666666666666,1.4835999999940412],[0.4814583333333334,-0.5888888888888889,1.4999000000059652],[0.4266666666666666,-0.655,1.519299999982124],[0.4275000000000001,-0.6296296296296297,1.533199999988085],[0.40427083333333325,-0.6011111111111112,1.5572999999821207],[0.40427083333333325,-0.6011111111111112,1.5665000000000049],[0.4410416666666668,-0.575925925925926,1.5872999999821218],[0.4410416666666668,-0.575925925925926,1.5997999999821246],[0.48416666666666663,-0.6109259259259259,1.6167999999821205],[0.48416666666666663,-0.6109259259259259,1.6331999999880793],[0.5438541666666665,-0.6472222222222223,1.6591999999880898],[0.5438541666666665,-0.6472222222222223,1.6676999999880877],[0.5242708333333332,-0.6133333333333333,1.6835000000000093],[0.5242708333333332,-0.6133333333333333,1.699799999982119],[0.47062499999999996,-0.5853703703703704,1.7205000000000013],[0.47062499999999996,-0.5853703703703704,1.7331999999880878],[0.41437499999999994,-0.5461111111111111,1.75],[0.4046875,-0.5362962962962964,1.7705000000000126],[0.33531250000000007,-0.4166666666666667,1.7862999999821199],[0.3256249999999999,-0.33537037037037043,1.8000999999940461],[0.33229166666666665,-0.26888888888888884,1.8204000000059608],[0.30656249999999996,-0.27555555555555555,1.8357999999821288],[0.28541666666666665,-0.20722222222222217,1.8514000000059667],[0.24770833333333328,-0.13759259259259263,1.866500000000002],[0.24562499999999995,0.040740740740740744,1.8866999999880818],[0.3138541666666666,0.02166666666666675,1.9016999999880824],[0.3142708333333334,0.07888888888888893,1.9170000000000016],[0.2820833333333333,0.16314814814814818,1.9332999999821254],[0.2947916666666667,0.16648148148148145,1.953699999988089],[0.28802083333333334,0.07037037037037037,1.9702999999821316],[0.2648958333333333,-0.010925925925925884,1.9857999999821203],[0.23250000000000004,-0.046481481481481526,1.9999000000059652],[0.23250000000000004,-0.046481481481481526,2.0201999999880798],[0.25031249999999994,-0.0735185185185185,2.0332999999821197],[0.2517708333333334,-0.10574074074074079,2.0515999999940533],[0.27104166666666674,-0.1868518518518518,2.0731999999880912],[0.27104166666666674,-0.1868518518518518,2.083500000000001],[0.23406250000000003,-0.14370370370370375,2.0999000000059738],[0.22843749999999996,-0.1896296296296296,2.1167999999821205],[0.20812499999999995,-0.2175925925925926,2.1369000000059657],[0.1837500000000001,-0.3264814814814815,2.153599999994043],[0.1788541666666667,-0.3359259259259259,2.171299999982125],[0.20114583333333325,-0.334074074074074,2.1885000000000048],[0.20302083333333343,-0.29666666666666663,2.2041999999880915],[0.18541666666666667,-0.2824074074074074,2.219099999994043],[0.18416666666666662,-0.26296296296296295,2.233099999994053],[0.19343750000000004,-0.4494444444444444,2.2526999999880815],[0.1959374999999999,-0.5112962962962964,2.2701999999880798],[0.1944791666666667,-0.5414814814814815,2.2859000000059666],[0.20770833333333344,-0.5896296296296296,2.2997999999821275],[0.22979166666666656,-0.5835185185185185,2.316500000000005],[0.25187499999999996,-0.5774074074074075,2.3330000000000126],[0.24677083333333344,-0.5825925925925927,2.3527999999821247],[0.24572916666666675,-0.5611111111111111,2.3706999999880907],[0.24968750000000003,-0.5937037037037037,2.3862999999821284],[0.27062499999999995,-0.6511111111111112,2.399900000005971],[0.28406250000000005,-0.5698148148148148,2.420599999994053],[0.2972916666666668,-0.6203703703703703,2.4376999999880837],[0.31447916666666675,-0.7025925925925925,2.452799999982119],[0.3232291666666666,-0.7620370370370371,2.4731999999880827],[0.3232291666666666,-0.7620370370370371,2.4832999999821226],[0.3182291666666667,-0.7429629629629629,2.5],[0.31364583333333323,-0.7053703703703703,2.5217999999821217],[0.31364583333333323,-0.7053703703703703,2.540099999994041],[0.2912499999999999,-0.6542592592592593,2.5567999999821325],[0.2912499999999999,-0.6542592592592593,2.566299999982121],[0.28250000000000003,-0.6437037037037038,2.5830999999940474],[0.27614583333333326,-0.6640740740740741,2.59969999998809],[0.22645833333333343,-0.6616666666666667,2.6164000000059673],[0.17677083333333338,-0.6592592592592592,2.6330000000000098],[0.1258333333333333,-0.5811111111111111,2.649699999988087],[0.07489583333333343,-0.5029629629629631,2.6664000000059644],[0.051874999999999956,-0.47074074074074074,2.6830999999940417],[0.03781249999999995,-0.4903703703703704,2.699699999988084],[0.050625000000000024,-0.5851851851851851,2.7162999999821267],[0.06124999999999995,-0.6844444444444445,2.733099999994053],[0.07979166666666657,-0.7368518518518518,2.7496999999880813],[0.030208333333333334,-0.7231481481481481,2.766299999982124],[0.006979166666666714,-0.7074074074074074,2.7830999999940502],[0.025520833333333333,-0.7138888888888889,2.7996999999880927],[0.06385416666666661,-0.7561111111111112,2.81640000000597],[0.0806250000000001,-0.7283333333333334,2.8330000000000126],[0.06927083333333334,-0.6925925925925925,2.84969999998809],[0.07114583333333328,-0.6344444444444445,2.8662999999821324],[0.04572916666666664,-0.5196296296296297,2.8830000000000098],[0.028541666666666642,-0.36648148148148146,2.899699999988087],[-0.012187500000000047,-0.2511111111111112,2.9164000000059644],[0.028645833333333332,-0.1814814814814815,2.933000000000007],[0.06947916666666672,-0.11185185185185181,2.949699999988084],[0.05614583333333331,-0.031111111111111027,2.967699999988085],[-0.0002083333333333807,0.15111111111111114,2.983099999994053],[-0.035000000000000024,0.2633333333333334,2.9996999999880813],[-0.009895833333333333,0.2948148148148149,3.016400000005973],[-0.005937500000000048,0.29611111111111105,3.0330999999940502],[-0.01604166666666664,0.3205555555555556,3.0496999999880927],[-0.00947916666666669,0.27444444444444455,3.06640000000597],[0.004166666666666667,0.2598148148148147,3.0830999999940474],[-0.010000000000000024,0.277962962962963,3.09969999998809],[-0.04364583333333331,0.3218518518518518,3.1164000000059673],[-0.06489583333333329,0.3768518518518518,3.1330000000000098],[-0.04666666666666662,0.3381481481481482,3.149699999988087],[-0.007604166666666619,0.27981481481481485,3.1664000000059644],[-0.002916666666666619,0.2975925925925927,3.1830999999940417],[-0.010520833333333358,0.34740740740740744,3.199699999988084],[-0.004062499999999977,0.37407407407407406,3.2164000000059616],[-0.03864583333333336,0.3816666666666667,3.233000000000004],[-0.08031250000000002,0.35777777777777786,3.2497999999821303],[-0.12895833333333329,0.3757407407407407,3.266299999982124],[-0.16760416666666664,0.36925925925925923,3.283199999988085],[-0.17854166666666665,0.3625925925925925,3.2996999999880927],[-0.16218750000000004,0.3020370370370371,3.31640000000597],[-0.18781249999999997,0.262037037037037,3.3330000000000126],[-0.23031250000000003,0.2418518518518519,3.34969999998809],[-0.24572916666666664,0.2012962962962964,3.3664000000059673],[-0.25593750000000004,0.18351851851851855,3.384400000005968],[-0.22999999999999995,0.20796296296296288,3.399799999982122],[-0.25656249999999997,0.20925925925925926,3.4162999999821295],[-0.25666666666666665,0.18203703703703694,3.433000000000007],[-0.2555208333333333,0.15111111111111114,3.449699999988084],[-0.2820833333333333,0.12037037037037036,3.4664000000059616],[-0.3207291666666666,0.1544444444444444,3.483000000000004],[-0.35177083333333337,0.18592592592592588,3.4996999999880813],[-0.32875000000000004,0.18518518518518517,3.516299999982124],[-0.3111458333333334,0.18592592592592588,3.5330999999940502],[-0.30020833333333335,0.15851851851851856,3.5497999999821275],[-0.30020833333333335,0.15851851851851856,3.566299999982121],[-0.26968749999999997,0.08611111111111111,3.5830999999940474],[-0.20208333333333334,0.08518518518518518,3.605000000000004]]","[0.00009999999404897153,0.019400000005973084,0.034699999988092145,0.0499000000059624,0.06700000000000728,0.08329999998213111,0.09969999998808987,0.11640000000596729,0.13309999999404454,0.1497999999821218,0.16640000000596444,0.18319999998809067,0.20029999998212134,0.21719999998808248,0.2330000000000041,0.25129999998212327,0.26640000000597297,0.2830999999940502,0.2997999999821275,0.3179000000059631,0.3330000000000126,0.34979999998212463,0.36790000000597445,0.38309999999404454,0.3997999999821218,0.4165000000000134,0.4330999999940417,0.44979999998211895,0.4664000000059616,0.4830000000000041,0.4997999999821303,0.5197999999821263,0.5334000000059689,0.5496999999880927,0.5665000000000049,0.5830999999940474,0.5996999999880899,0.6164000000059673,0.6330999999940445,0.6499000000059709,0.6687999999821272,0.683699999988093,0.699799999982119,0.7189000000059735,0.7332999999821226,0.7526999999880815,0.7720999999940403,0.7865999999940527,0.803199999988081,0.8174000000059607,0.8330999999940474,0.8499000000059738,0.8699000000059698,0.8849000000059704,0.8999000000059709,0.9189000000059622,0.9334000000059746,0.9500000000000028,0.9702999999821316,0.9862999999821227,1,1.0191999999880892,1.0334000000059689,1.0500000000000114,1.0730999999940423,1.0835999999940498,1.1000000000000085,1.11879999998213,1.1366999999880818,1.149900000005971,1.1665000000000134,1.1830999999940417,1.2000999999940518,1.220000000000013,1.2365000000000066,1.2510999999940395,1.267699999988082,1.2860000000000014,1.300199999988081,1.3165000000000049,1.3331999999880821,1.3522999999821224,1.368199999988093,1.3850999999940399,1.4037999999821267,1.419699999988083,1.4339000000059627,1.4522999999821309,1.4680999999940525,1.4835999999940412,1.4999000000059652,1.519299999982124,1.533199999988085,1.5572999999821207,1.5665000000000049,1.5872999999821218,1.5997999999821246,1.6167999999821205,1.6331999999880793,1.6591999999880898,1.6676999999880877,1.6835000000000093,1.699799999982119,1.7205000000000013,1.7331999999880878,1.75,1.7705000000000126,1.7862999999821199,1.8000999999940461,1.8204000000059608,1.8357999999821288,1.8514000000059667,1.866500000000002,1.8866999999880818,1.9016999999880824,1.9170000000000016,1.9332999999821254,1.953699999988089,1.9702999999821316,1.9857999999821203,1.9999000000059652,2.0201999999880798,2.0332999999821197,2.0515999999940533,2.0731999999880912,2.083500000000001,2.0999000000059738,2.1167999999821205,2.1369000000059657,2.153599999994043,2.171299999982125,2.1885000000000048,2.2041999999880915,2.219099999994043,2.233099999994053,2.2526999999880815,2.2701999999880798,2.2859000000059666,2.2997999999821275,2.316500000000005,2.3330000000000126,2.3527999999821247,2.3706999999880907,2.3862999999821284,2.399900000005971,2.420599999994053,2.4376999999880837,2.452799999982119,2.4731999999880827,2.4832999999821226,2.5,2.5217999999821217,2.540099999994041,2.5567999999821325,2.566299999982121,2.5830999999940474,2.59969999998809,2.6164000000059673,2.6330000000000098,2.649699999988087,2.6664000000059644,2.6830999999940417,2.699699999988084,2.7162999999821267,2.733099999994053,2.7496999999880813,2.766299999982124,2.7830999999940502,2.7996999999880927,2.81640000000597,2.8330000000000126,2.84969999998809,2.8662999999821324,2.8830000000000098,2.899699999988087,2.9164000000059644,2.933000000000007,2.949699999988084,2.967699999988085,2.983099999994053,2.9996999999880813,3.016400000005973,3.0330999999940502,3.0496999999880927,3.06640000000597,3.0830999999940474,3.09969999998809,3.1164000000059673,3.1330000000000098,3.149699999988087,3.1664000000059644,3.1830999999940417,3.199699999988084,3.2164000000059616,3.233000000000004,3.2497999999821303,3.266299999982124,3.283199999988085,3.2996999999880927,3.31640000000597,3.3330000000000126,3.34969999998809,3.3664000000059673,3.384400000005968,3.399799999982122,3.4162999999821295,3.433000000000007,3.449699999988084,3.4664000000059616,3.483000000000004,3.4996999999880813,3.516299999982124,3.5330999999940502,3.5497999999821275,3.566299999982121,3.5830999999940474,3.605000000000004]","[1732775013092,1732775013111,1732775013126,1732775013141,1732775013158,1732775013175,1732775013191,1732775013208,1732775013224,1732775013241,1732775013258,1732775013275,1732775013292,1732775013309,1732775013324,1732775013343,1732775013358,1732775013374,1732775013391,1732775013409,1732775013424,1732775013441,1732775013459,1732775013474,1732775013491,1732775013508,1732775013525,1732775013541,1732775013558,1732775013574,1732775013591,1732775013611,1732775013625,1732775013641,1732775013658,1732775013674,1732775013691,1732775013708,1732775013724,1732775013741,1732775013760,1732775013775,1732775013791,1732775013810,1732775013825,1732775013844,1732775013863,1732775013878,1732775013895,1732775013909,1732775013925,1732775013941,1732775013961,1732775013976,1732775013991,1732775014010,1732775014025,1732775014041,1732775014062,1732775014078,1732775014091,1732775014111,1732775014125,1732775014141,1732775014164,1732775014175,1732775014191,1732775014210,1732775014228,1732775014241,1732775014258,1732775014274,1732775014291,1732775014311,1732775014328,1732775014343,1732775014359,1732775014377,1732775014392,1732775014408,1732775014425,1732775014444,1732775014460,1732775014476,1732775014495,1732775014511,1732775014525,1732775014544,1732775014560,1732775014575,1732775014591,1732775014611,1732775014625,1732775014649,1732775014658,1732775014679,1732775014691,1732775014708,1732775014725,1732775014751,1732775014759,1732775014775,1732775014791,1732775014812,1732775014825,1732775014841,1732775014862,1732775014878,1732775014891,1732775014912,1732775014927,1732775014943,1732775014958,1732775014978,1732775014993,1732775015008,1732775015025,1732775015045,1732775015062,1732775015077,1732775015091,1732775015112,1732775015125,1732775015143,1732775015165,1732775015175,1732775015191,1732775015208,1732775015228,1732775015245,1732775015263,1732775015280,1732775015296,1732775015311,1732775015325,1732775015344,1732775015362,1732775015377,1732775015391,1732775015408,1732775015424,1732775015444,1732775015462,1732775015478,1732775015491,1732775015512,1732775015529,1732775015544,1732775015565,1732775015575,1732775015591,1732775015613,1732775015631,1732775015648,1732775015658,1732775015675,1732775015691,1732775015708,1732775015724,1732775015741,1732775015758,1732775015775,1732775015791,1732775015808,1732775015824,1732775015841,1732775015858,1732775015874,1732775015891,1732775015908,1732775015924,1732775015941,1732775015958,1732775015974,1732775015991,1732775016008,1732775016024,1732775016041,1732775016059,1732775016074,1732775016091,1732775016108,1732775016124,1732775016141,1732775016158,1732775016174,1732775016191,1732775016208,1732775016224,1732775016241,1732775016258,1732775016274,1732775016291,1732775016308,1732775016324,1732775016341,1732775016358,1732775016375,1732775016391,1732775016408,1732775016424,1732775016441,1732775016458,1732775016476,1732775016491,1732775016508,1732775016524,1732775016541,1732775016558,1732775016574,1732775016591,1732775016608,1732775016624,1732775016641,1732775016658,1732775016674,1732775016696]","[[112.7,384],[118,393.5],[134.4,397],[133.7,397.7],[148.4,392.7],[163.6,367.6],[206.7,374],[258.8,372.7],[337,388.5],[414.4,410.6],[526.3,431.4],[627.1,453.3],[716.8,481.2],[789.4,507.5],[846.7,561.2],[921.4,600],[968.2,607.3],[977.4,610.6],[969,611.6],[980.2,603.7],[975.5,592],[980.8,577.5],[1017,544.3],[1044.2,519],[1059.6,483.1],[1057.6,462.1],[1079.6,429.4],[1130.2,408.4],[1130.2,408.4],[1183.1,376.3],[1215,341.9],[1244.6,315],[1262.7,271],[1249.9,245.7],[1125.6,286.1],[1020.2,328.9],[914.8,371.7],[805.3,409.7],[695.8,447.7],[574.9,507.2],[472.7,563.6],[396.6,599.1],[338.5,653.6],[253.3,709.3],[298,696.7],[335.5,670.6],[480,615.4],[604.6,576.7],[720.9,533.2],[865.5,474.4],[955.4,430.5],[1019.2,407.5],[1038.9,393.4],[1131.5,371.5],[1221.8,339.6],[1284.9,317.9],[1273.4,314.1],[1261.9,310.3],[1238.4,310],[1189,352],[1189,352],[1177.8,387.1],[1177.8,387.1],[1154,415.3],[1161.2,428.4],[1161.2,428.4],[1148.7,435.3],[1121.1,445.4],[1120.7,445.3],[1120.7,445.3],[1100.5,443.9],[1098.2,456.6],[1094.2,464.4],[1092.2,429],[1089.4,427.9],[1099.2,433.7],[1174.3,451.9],[1223.3,482.9],[1258.4,505.9],[1316.5,498],[1428.4,518.6],[1522.4,525.1],[1527.7,509.1],[1556.1,491.4],[1585.3,439.4],[1581.2,404.5],[1518.4,361.5],[1477.5,284.6],[1476,247.5],[1489,242.1],[1422.2,222],[1369.6,186.3],[1370.4,200],[1348.1,215.4],[1348.1,215.4],[1383.4,229],[1383.4,229],[1424.8,210.1],[1424.8,210.1],[1482.1,190.5],[1482.1,190.5],[1463.3,208.8],[1463.3,208.8],[1411.8,223.9],[1411.8,223.9],[1357.8,245.1],[1348.5,250.4],[1281.9,315],[1272.6,358.9],[1279,394.8],[1254.3,391.2],[1234,428.1],[1197.8,465.7],[1195.8,562],[1261.3,551.7],[1261.7,582.6],[1230.8,628.1],[1243,629.9],[1236.5,578],[1214.3,534.1],[1183.2,514.9],[1183.2,514.9],[1200.3,500.3],[1201.7,482.9],[1220.2,439.1],[1220.2,439.1],[1184.7,462.4],[1179.3,437.6],[1159.8,422.5],[1136.4,363.7],[1131.7,358.6],[1153.1,359.6],[1154.9,379.8],[1138,387.5],[1136.8,398],[1145.7,297.3],[1148.1,263.9],[1146.7,247.6],[1159.4,221.6],[1180.6,224.9],[1201.8,228.2],[1196.9,225.4],[1195.9,237],[1199.7,219.4],[1219.8,188.4],[1232.7,232.3],[1245.4,205],[1261.9,160.6],[1270.3,128.5],[1270.3,128.5],[1265.5,138.8],[1261.1,159.1],[1261.1,159.1],[1239.6,186.7],[1239.6,186.7],[1231.2,192.4],[1225.1,181.4],[1177.4,182.7],[1129.7,184],[1080.8,226.2],[1031.9,268.4],[1009.8,285.8],[996.3,275.2],[1008.6,224],[1018.8,170.4],[1036.6,142.1],[989,149.5],[966.7,158],[984.5,154.5],[1021.3,131.7],[1037.4,146.7],[1026.5,166],[1028.3,197.4],[1003.9,259.4],[987.4,342.1],[948.3,404.4],[987.5,442],[1026.7,479.6],[1013.9,523.2],[959.8,621.6],[926.4,682.2],[950.5,699.2],[954.3,699.9],[944.6,713.1],[950.9,688.2],[964,680.3],[950.4,690.1],[918.1,713.8],[897.7,743.5],[915.2,722.6],[952.7,691.1],[957.2,700.7],[949.9,727.6],[956.1,742],[922.9,746.1],[882.9,733.2],[836.2,742.9],[799.1,739.4],[788.6,735.8],[804.3,703.1],[779.7,681.5],[738.9,670.6],[724.1,648.7],[714.3,639.1],[739.2,652.3],[713.7,653],[713.6,638.3],[714.7,621.6],[689.2,605],[652.1,623.4],[622.3,640.4],[644.4,640],[661.3,640.4],[671.8,625.6],[671.8,625.6],[701.1,586.5],[766,586]]","[0,0.5333]","[0.5333,0.5333]","[-0.5333,0]","[-0.5333,-0.5333]","[0,0]","[0.5333,0]","[0,-0.5333]","[0.5333,-0.5333]",0,1,1,1,1,2,Monitor,13,7,11,1
