inst1_resp.keys,inst1_resp.rt,calibrationMouse.x,calibrationMouse.y,calibrationMouse.leftButton,calibrationMouse.midButton,calibrationMouse.rightButton,calibrationClick.x,calibrationClick.y,calibrationClick.leftButton,calibrationClick.midButton,calibrationClick.rightButton,calibrationClick.clicked_name,trialsc.thisRepN,trialsc.thisTrialN,trialsc.thisN,trialsc.thisIndex,trialsc.ran,calibration_x,calibration_y,participant,session,date,expName,psychopyVersion,OS,frameRate,ScreenRes_pixels,Camera_pixels,mouse_2.x,mouse_2.y,mouse_2.leftButton,mouse_2.midButton,mouse_2.rightButton,mouse_2.time,mouse_2.clicked_name,mouse.x,mouse.y,mouse.leftButton,mouse.midButton,mouse.rightButton,mouse.time,mouse.clicked_name,Choice,Trial,TrialDuration,MOUSE_GAZE,ET_GAZE,ET_GAZE_x_T,time,unixTime,ET_GAZE_NF,Loc_Option1_label,Loc_Option2_label,Loc_Cost_label,Loc_Qual_label,Loc_Option1_cost,Loc_Option2_cost,Loc_Option1_quality,Loc_Option2_quality,trials.thisRepN,trials.thisTrialN,trials.thisN,trials.thisIndex,trials.ran,Block,Device,cost1,qual1,cost2,qual2
space,2.4681,-0.254166667,0.388888889,1,0,0,0.332291667,0.337037037,1,0,0,calibration_square,0,0,0,17,1,0.33,0.33,42,001,2024-12-04_14h20.22.978,Attention_exp_legacy,2023.1.0,Win32,59.88023952,,,,,,,,,,,,,,,,,,,,,,,,,,,,,,,,,,,,,,,,,,,,
,,,,,,,-0.657291667,-0.661111111,1,0,0,,0,1,1,0,1,-0.67,-0.67,42,001,2024-12-04_14h20.22.978,Attention_exp_legacy,2023.1.0,Win32,59.88023952,,,,,,,,,,,,,,,,,,,,,,,,,,,,,,,,,,,,,,,,,,,,
,,,,,,,-0.321875,0.335185185,1,0,0,calibration_square,0,2,2,7,1,-0.33,0.33,42,001,2024-12-04_14h20.22.978,Attention_exp_legacy,2023.1.0,Win32,59.88023952,,,,,,,,,,,,,,,,,,,,,,,,,,,,,,,,,,,,,,,,,,,,
,,,,,,,0.328125,-0.346296296,1,0,0,,0,3,3,15,1,0.33,-0.33,42,001,2024-12-04_14h20.22.978,Attention_exp_legacy,2023.1.0,Win32,59.88023952,,,,,,,,,,,,,,,,,,,,,,,,,,,,,,,,,,,,,,,,,,,,
,,,,,,,0.332291667,0.003703704,1,0,0,calibration_square,0,4,4,16,1,0.33,0,42,001,2024-12-04_14h20.22.978,Attention_exp_legacy,2023.1.0,Win32,59.88023952,,,,,,,,,,,,,,,,,,,,,,,,,,,,,,,,,,,,,,,,,,,,
,,,,,,,-0.007291667,-0.311111111,1,0,0,,0,5,5,10,1,0,-0.33,42,001,2024-12-04_14h20.22.978,Attention_exp_legacy,2023.1.0,Win32,59.88023952,,,,,,,,,,,,,,,,,,,,,,,,,,,,,,,,,,,,,,,,,,,,
,,,,,,,-0.0125,-0.661111111,1,0,0,,0,6,6,9,1,0,-0.67,42,001,2024-12-04_14h20.22.978,Attention_exp_legacy,2023.1.0,Win32,59.88023952,,,,,,,,,,,,,,,,,,,,,,,,,,,,,,,,,,,,,,,,,,,,
,,,,,,,-0.663541667,-0.331481481,1,0,0,calibration_square,0,7,7,1,1,-0.67,-0.33,42,001,2024-12-04_14h20.22.978,Attention_exp_legacy,2023.1.0,Win32,59.88023952,,,,,,,,,,,,,,,,,,,,,,,,,,,,,,,,,,,,,,,,,,,,
,,,,,,,-0.68125,0.327777778,1,0,0,,0,8,8,3,1,-0.67,0.33,42,001,2024-12-04_14h20.22.978,Attention_exp_legacy,2023.1.0,Win32,59.88023952,,,,,,,,,,,,,,,,,,,,,,,,,,,,,,,,,,,,,,,,,,,,
,,,,,,,-0.334375,-0.305555556,1,0,0,,0,9,9,5,1,-0.33,-0.33,42,001,2024-12-04_14h20.22.978,Attention_exp_legacy,2023.1.0,Win32,59.88023952,,,,,,,,,,,,,,,,,,,,,,,,,,,,,,,,,,,,,,,,,,,,
,,,,,,,0.671875,0.668518519,1,0,0,calibration_square,0,10,10,19,1,0.67,0.67,42,001,2024-12-04_14h20.22.978,Attention_exp_legacy,2023.1.0,Win32,59.88023952,,,,,,,,,,,,,,,,,,,,,,,,,,,,,,,,,,,,,,,,,,,,
,,,,,,,0.015625,0.011111111,1,0,0,,0,11,11,11,1,0,0,42,001,2024-12-04_14h20.22.978,Attention_exp_legacy,2023.1.0,Win32,59.88023952,,,,,,,,,,,,,,,,,,,,,,,,,,,,,,,,,,,,,,,,,,,,
,,,,,,,0.6625,-0.640740741,1,0,0,,0,12,12,20,1,0.67,-0.67,42,001,2024-12-04_14h20.22.978,Attention_exp_legacy,2023.1.0,Win32,59.88023952,,,,,,,,,,,,,,,,,,,,,,,,,,,,,,,,,,,,,,,,,,,,
,,,,,,,0.323958333,0.696296296,1,0,0,,0,13,13,18,1,0.33,0.67,42,001,2024-12-04_14h20.22.978,Attention_exp_legacy,2023.1.0,Win32,59.88023952,,,,,,,,,,,,,,,,,,,,,,,,,,,,,,,,,,,,,,,,,,,,
,,,,,,,-0.021875,0.687037037,1,0,0,,0,14,14,13,1,0,0.67,42,001,2024-12-04_14h20.22.978,Attention_exp_legacy,2023.1.0,Win32,59.88023952,,,,,,,,,,,,,,,,,,,,,,,,,,,,,,,,,,,,,,,,,,,,
,,,,,,,0.003125,0.333333333,1,0,0,calibration_square,0,15,15,12,1,0,0.33,42,001,2024-12-04_14h20.22.978,Attention_exp_legacy,2023.1.0,Win32,59.88023952,,,,,,,,,,,,,,,,,,,,,,,,,,,,,,,,,,,,,,,,,,,,
,,,,,,,-0.344791667,-0.651851852,1,0,0,,0,16,16,4,1,-0.33,-0.67,42,001,2024-12-04_14h20.22.978,Attention_exp_legacy,2023.1.0,Win32,59.88023952,,,,,,,,,,,,,,,,,,,,,,,,,,,,,,,,,,,,,,,,,,,,
,,,,,,,-0.676041667,0.003703704,1,0,0,calibration_square,0,17,17,2,1,-0.67,0,42,001,2024-12-04_14h20.22.978,Attention_exp_legacy,2023.1.0,Win32,59.88023952,,,,,,,,,,,,,,,,,,,,,,,,,,,,,,,,,,,,,,,,,,,,
,,,,,,,-0.3375,-0.001851852,1,0,0,calibration_square,0,18,18,6,1,-0.33,0,42,001,2024-12-04_14h20.22.978,Attention_exp_legacy,2023.1.0,Win32,59.88023952,,,,,,,,,,,,,,,,,,,,,,,,,,,,,,,,,,,,,,,,,,,,
,,,,,,,0.329166667,-0.638888889,1,0,0,,0,19,19,14,1,0.33,-0.67,42,001,2024-12-04_14h20.22.978,Attention_exp_legacy,2023.1.0,Win32,59.88023952,,,,,,,,,,,,,,,,,,,,,,,,,,,,,,,,,,,,,,,,,,,,
,,,,,,,-0.336458333,0.681481481,1,0,0,,0,20,20,8,1,-0.33,0.67,42,001,2024-12-04_14h20.22.978,Attention_exp_legacy,2023.1.0,Win32,59.88023952,,,,,,,,,,,,,,,,,,,,,,,,,,,,,,,,,,,,,,,,,,,,
,,,,,,,,,,,,,,,,,,,,42,001,2024-12-04_14h20.22.978,Attention_exp_legacy,2023.1.0,Win32,59.88023952,"[1920,1080]","[640,480]",[0.046875],[-0.524074074074074],[1],[0],[0],[1.7467999999970232],"[""StartButton""]",[0.08854166666666667],[0.5166666666666667],[1],[0],[0],[7.256699999995526],"[""Option1_label""]",Option1_label,1,8.2788,"[[0.041666666666666664,-0.48148148148148145],[0.041666666666666664,-0.48148148148148145],[0.041666666666666664,-0.48148148148148145],[0.041666666666666664,-0.48148148148148145],[0.041666666666666664,-0.48148148148148145],[0.041666666666666664,-0.48148148148148145],[0.041666666666666664,-0.48148148148148145],[0.041666666666666664,-0.48148148148148145],[0.041666666666666664,-0.48148148148148145],[0.041666666666666664,-0.48148148148148145],[0.041666666666666664,-0.48148148148148145],[0.041666666666666664,-0.48148148148148145],[0.041666666666666664,-0.48148148148148145],[0.041666666666666664,-0.48148148148148145],[0.041666666666666664,-0.48148148148148145],[0.041666666666666664,-0.48148148148148145],[0.041666666666666664,-0.48148148148148145],[0.041666666666666664,-0.48148148148148145],[0.041666666666666664,-0.48148148148148145],[0.041666666666666664,-0.48148148148148145],[0.0375,-0.45925925925925926],[0.03333333333333333,-0.42777777777777776],[0.027083333333333334,-0.3907407407407407],[0.019791666666666666,-0.3388888888888889],[0.014583333333333334,-0.2833333333333333],[0.009375,-0.22592592592592592],[0.005208333333333333,-0.17222222222222222],[-0.0020833333333333333,-0.0962962962962963],[-0.009375,-0.009259259259259259],[-0.015625,0.06481481481481481],[-0.017708333333333333,0.09814814814814815],[-0.019791666666666666,0.11851851851851852],[-0.019791666666666666,0.12962962962962962],[-0.019791666666666666,0.13333333333333333],[-0.019791666666666666,0.13703703703703704],[-0.019791666666666666,0.13703703703703704],[-0.019791666666666666,0.1388888888888889],[-0.019791666666666666,0.1388888888888889],[-0.019791666666666666,0.1388888888888889],[-0.019791666666666666,0.1388888888888889],[-0.019791666666666666,0.1388888888888889],[-0.019791666666666666,0.1388888888888889],[-0.019791666666666666,0.1388888888888889],[-0.019791666666666666,0.1388888888888889],[-0.019791666666666666,0.1388888888888889],[-0.019791666666666666,0.1388888888888889],[-0.019791666666666666,0.1388888888888889],[-0.019791666666666666,0.1388888888888889],[-0.019791666666666666,0.1388888888888889],[-0.019791666666666666,0.1388888888888889],[-0.019791666666666666,0.1388888888888889],[-0.019791666666666666,0.1388888888888889],[-0.019791666666666666,0.1388888888888889],[-0.019791666666666666,0.1388888888888889],[-0.019791666666666666,0.1388888888888889],[-0.019791666666666666,0.1388888888888889],[-0.019791666666666666,0.1388888888888889],[-0.019791666666666666,0.1388888888888889],[-0.019791666666666666,0.1388888888888889],[-0.019791666666666666,0.1388888888888889],[-0.019791666666666666,0.1388888888888889],[-0.019791666666666666,0.1388888888888889],[-0.019791666666666666,0.1388888888888889],[-0.014583333333333334,0.14629629629629629],[0.014583333333333334,0.15185185185185185],[0.042708333333333334,0.16111111111111112],[0.09375,0.17407407407407408],[0.171875,0.18333333333333332],[0.25625,0.18333333333333332],[0.33958333333333335,0.17592592592592593],[0.42291666666666666,0.14629629629629629],[0.47708333333333336,0.11666666666666667],[0.5125,0.0962962962962963],[0.5333333333333333,0.08333333333333333],[0.540625,0.07592592592592592],[0.5458333333333333,0.06851851851851852],[0.55,0.06111111111111111],[0.5510416666666667,0.05740740740740741],[0.5520833333333334,0.05555555555555555],[0.5520833333333334,0.053703703703703705],[0.5520833333333334,0.053703703703703705],[0.5520833333333334,0.05185185185185185],[0.5520833333333334,0.05185185185185185],[0.5520833333333334,0.05185185185185185],[0.5520833333333334,0.05185185185185185],[0.5520833333333334,0.05185185185185185],[0.5520833333333334,0.05185185185185185],[0.5520833333333334,0.05185185185185185],[0.5520833333333334,0.05185185185185185],[0.5520833333333334,0.05185185185185185],[0.5520833333333334,0.05185185185185185],[0.5520833333333334,0.05185185185185185],[0.5520833333333334,0.05185185185185185],[0.5520833333333334,0.05185185185185185],[0.5520833333333334,0.05185185185185185],[0.5520833333333334,0.05185185185185185],[0.5520833333333334,0.05185185185185185],[0.5520833333333334,0.05185185185185185],[0.5520833333333334,0.05185185185185185],[0.5520833333333334,0.05185185185185185],[0.5520833333333334,0.05185185185185185],[0.546875,0.05185185185185185],[0.5385416666666667,0.05185185185185185],[0.53125,0.05185185185185185],[0.5260416666666666,0.05185185185185185],[0.5208333333333334,0.05185185185185185],[0.5114583333333333,0.05],[0.49895833333333334,0.04814814814814815],[0.478125,0.04814814814814815],[0.46145833333333336,0.04814814814814815],[0.4479166666666667,0.040740740740740744],[0.4375,0.03333333333333333],[0.43020833333333336,0.03148148148148148],[0.41875,0.024074074074074074],[0.415625,0.024074074074074074],[0.41354166666666664,0.024074074074074074],[0.4125,0.020370370370370372],[0.4114583333333333,0.020370370370370372],[0.41041666666666665,0.018518518518518517],[0.40729166666666666,0.012962962962962963],[0.40520833333333334,0.007407407407407408],[0.403125,0.003703703703703704],[0.403125,0.001851851851851852],[0.40208333333333335,0],[0.4010416666666667,-0.003703703703703704],[0.4,-0.007407407407407408],[0.4,-0.009259259259259259],[0.39895833333333336,-0.012962962962962963],[0.39895833333333336,-0.014814814814814815],[0.39895833333333336,-0.014814814814814815],[0.39895833333333336,-0.020370370370370372],[0.4041666666666667,-0.03518518518518519],[0.40520833333333334,-0.037037037037037035],[0.4083333333333333,-0.044444444444444446],[0.41458333333333336,-0.05185185185185185],[0.42291666666666666,-0.05925925925925926],[0.434375,-0.07222222222222222],[0.45208333333333334,-0.08703703703703704],[0.4666666666666667,-0.0962962962962963],[0.484375,-0.11296296296296296],[0.503125,-0.12407407407407407],[0.521875,-0.13518518518518519],[0.534375,-0.14444444444444443],[0.5427083333333333,-0.15185185185185185],[0.5479166666666667,-0.15555555555555556],[0.5489583333333333,-0.15555555555555556],[0.55,-0.1574074074074074],[0.55,-0.1574074074074074],[0.55,-0.1574074074074074],[0.55,-0.1574074074074074],[0.55,-0.1574074074074074],[0.55,-0.1574074074074074],[0.55,-0.1574074074074074],[0.55,-0.1574074074074074],[0.55,-0.1574074074074074],[0.55,-0.1574074074074074],[0.55,-0.1574074074074074],[0.55,-0.1574074074074074],[0.55,-0.1574074074074074],[0.55,-0.1574074074074074],[0.55,-0.1574074074074074],[0.55,-0.1574074074074074],[0.55,-0.1574074074074074],[0.55,-0.1574074074074074],[0.55,-0.1574074074074074],[0.55,-0.1574074074074074],[0.55,-0.1574074074074074],[0.55,-0.1574074074074074],[0.55,-0.1574074074074074],[0.55,-0.1574074074074074],[0.55,-0.1574074074074074],[0.55,-0.1574074074074074],[0.55,-0.1574074074074074],[0.55,-0.1574074074074074],[0.55,-0.1574074074074074],[0.55,-0.1574074074074074],[0.55,-0.1574074074074074],[0.55,-0.1574074074074074],[0.55,-0.1574074074074074],[0.55,-0.1574074074074074],[0.55,-0.1574074074074074],[0.55,-0.1574074074074074],[0.55,-0.1574074074074074],[0.55,-0.1574074074074074],[0.55,-0.1574074074074074],[0.55,-0.1574074074074074],[0.55,-0.1574074074074074],[0.55,-0.1574074074074074],[0.55,-0.1574074074074074],[0.55,-0.1574074074074074],[0.55,-0.1574074074074074],[0.55,-0.1574074074074074],[0.55,-0.1574074074074074],[0.55,-0.1574074074074074],[0.55,-0.1574074074074074],[0.55,-0.1574074074074074],[0.55,-0.1574074074074074],[0.55,-0.1574074074074074],[0.55,-0.1574074074074074],[0.55,-0.1574074074074074],[0.55,-0.1574074074074074],[0.55,-0.1574074074074074],[0.55,-0.1574074074074074],[0.55,-0.1574074074074074],[0.55,-0.1574074074074074],[0.55,-0.1574074074074074],[0.55,-0.1574074074074074],[0.55,-0.1574074074074074],[0.55,-0.1574074074074074],[0.55,-0.1574074074074074],[0.55,-0.1574074074074074],[0.55,-0.1574074074074074],[0.55,-0.1574074074074074],[0.55,-0.1574074074074074],[0.55,-0.1574074074074074],[0.55,-0.1574074074074074],[0.55,-0.1574074074074074],[0.55,-0.14814814814814814],[0.55,-0.10925925925925926],[0.55,-0.037037037037037035],[0.55,-0.012962962962962963],[0.55,0.05740740740740741],[0.55,0.09814814814814815],[0.55,0.13148148148148148],[0.55,0.15925925925925927],[0.55,0.18333333333333332],[0.55,0.2074074074074074],[0.55,0.2222222222222222],[0.55,0.22962962962962963],[0.55,0.23148148148148148],[0.55,0.23333333333333334],[0.55,0.2351851851851852],[0.55,0.24074074074074073],[0.55,0.24814814814814815],[0.55,0.2611111111111111],[0.55,0.2777777777777778],[0.5489583333333333,0.29259259259259257],[0.5489583333333333,0.3111111111111111],[0.5489583333333333,0.3296296296296296],[0.5489583333333333,0.35185185185185186],[0.5510416666666667,0.3814814814814815],[0.55625,0.40925925925925927],[0.559375,0.43148148148148147],[0.5625,0.45],[0.5645833333333333,0.45925925925925926],[0.5666666666666667,0.4703703703703704],[0.56875,0.4777777777777778],[0.5708333333333333,0.48148148148148145],[0.571875,0.48333333333333334],[0.571875,0.48518518518518516],[0.571875,0.48518518518518516],[0.571875,0.48518518518518516],[0.571875,0.48518518518518516],[0.571875,0.48518518518518516],[0.571875,0.48518518518518516],[0.571875,0.48518518518518516],[0.571875,0.48518518518518516],[0.571875,0.48518518518518516],[0.5729166666666666,0.48703703703703705],[0.5729166666666666,0.48703703703703705],[0.5729166666666666,0.48703703703703705],[0.5729166666666666,0.48703703703703705],[0.5729166666666666,0.48703703703703705],[0.5729166666666666,0.48703703703703705],[0.5729166666666666,0.48703703703703705],[0.5729166666666666,0.48703703703703705],[0.5729166666666666,0.48703703703703705],[0.5729166666666666,0.48703703703703705],[0.5729166666666666,0.48703703703703705],[0.5729166666666666,0.48703703703703705],[0.5729166666666666,0.48703703703703705],[0.5729166666666666,0.48703703703703705],[0.5729166666666666,0.48703703703703705],[0.5729166666666666,0.48703703703703705],[0.5729166666666666,0.4888888888888889],[0.5729166666666666,0.4925925925925926],[0.5729166666666666,0.49444444444444446],[0.5729166666666666,0.4962962962962963],[0.5729166666666666,0.5],[0.5739583333333333,0.5074074074074074],[0.5739583333333333,0.512962962962963],[0.5739583333333333,0.5222222222222223],[0.575,0.5351851851851852],[0.575,0.5462962962962963],[0.575,0.5592592592592592],[0.575,0.5722222222222222],[0.575,0.5851851851851851],[0.575,0.5981481481481481],[0.575,0.6074074074074074],[0.575,0.6222222222222222],[0.571875,0.6481481481481481],[0.5697916666666667,0.6759259259259259],[0.5697916666666667,0.6851851851851852],[0.56875,0.6888888888888889],[0.56875,0.6888888888888889],[0.56875,0.6888888888888889],[0.56875,0.6888888888888889],[0.56875,0.6888888888888889],[0.56875,0.6888888888888889],[0.56875,0.6888888888888889],[0.56875,0.6888888888888889],[0.56875,0.6888888888888889],[0.56875,0.6888888888888889],[0.56875,0.6888888888888889],[0.56875,0.6888888888888889],[0.56875,0.6888888888888889],[0.56875,0.6888888888888889],[0.56875,0.6888888888888889],[0.56875,0.6888888888888889],[0.5677083333333334,0.6907407407407408],[0.5666666666666667,0.6907407407407408],[0.5645833333333333,0.6925925925925925],[0.5635416666666667,0.6944444444444444],[0.5614583333333333,0.6962962962962963],[0.5614583333333333,0.6962962962962963],[0.5604166666666667,0.6981481481481482],[0.5604166666666667,0.6981481481481482],[0.5604166666666667,0.6981481481481482],[0.5604166666666667,0.6981481481481482],[0.5604166666666667,0.6981481481481482],[0.5583333333333333,0.6981481481481482],[0.5572916666666666,0.6981481481481482],[0.5541666666666667,0.6981481481481482],[0.5510416666666667,0.687037037037037],[0.5447916666666667,0.6722222222222223],[0.5427083333333333,0.6685185185185185],[0.5416666666666666,0.6648148148148149],[0.5375,0.6537037037037037],[0.5354166666666667,0.6444444444444445],[0.534375,0.6370370370370371],[0.5333333333333333,0.6185185185185185],[0.5333333333333333,0.6018518518518519],[0.5333333333333333,0.5888888888888889],[0.5333333333333333,0.5796296296296296],[0.5333333333333333,0.5740740740740741],[0.5333333333333333,0.5703703703703704],[0.5333333333333333,0.5666666666666667],[0.5333333333333333,0.5574074074074075],[0.5354166666666667,0.5518518518518518],[0.5354166666666667,0.5407407407407407],[0.5385416666666667,0.5296296296296297],[0.5395833333333333,0.5185185185185185],[0.5395833333333333,0.5166666666666667],[0.540625,0.512962962962963],[0.540625,0.5111111111111111],[0.540625,0.5111111111111111],[0.540625,0.5111111111111111],[0.540625,0.5111111111111111],[0.540625,0.5092592592592593],[0.540625,0.5092592592592593],[0.5375,0.5092592592592593],[0.5208333333333334,0.5092592592592593],[0.5104166666666666,0.5092592592592593],[0.4739583333333333,0.5092592592592593],[0.44479166666666664,0.5092592592592593],[0.41458333333333336,0.5092592592592593],[0.3854166666666667,0.5055555555555555],[0.353125,0.4981481481481482],[0.31354166666666666,0.49444444444444446],[0.27291666666666664,0.49444444444444446],[0.23020833333333332,0.49444444444444446],[0.18645833333333334,0.4888888888888889],[0.15104166666666666,0.4759259259259259],[0.12395833333333334,0.46111111111111114],[0.09791666666666667,0.45],[0.071875,0.42777777777777776],[0.058333333333333334,0.4185185185185185],[0.051041666666666666,0.40925925925925927],[0.04479166666666667,0.40370370370370373],[0.040625,0.39814814814814814],[0.036458333333333336,0.39814814814814814],[0.03229166666666667,0.3962962962962963],[0.030208333333333334,0.39444444444444443],[0.030208333333333334,0.39444444444444443],[0.030208333333333334,0.39444444444444443],[0.030208333333333334,0.39444444444444443],[0.030208333333333334,0.39444444444444443],[0.030208333333333334,0.3925925925925926],[0.030208333333333334,0.3925925925925926],[0.030208333333333334,0.3888888888888889],[0.035416666666666666,0.3851851851851852],[0.04895833333333333,0.37962962962962965],[0.06666666666666667,0.37962962962962965],[0.09583333333333334,0.37962962962962965],[0.146875,0.37962962962962965],[0.23229166666666667,0.37962962962962965],[0.31979166666666664,0.37962962962962965],[0.4125,0.37962962962962965],[0.49166666666666664,0.37962962962962965],[0.5552083333333333,0.37962962962962965],[0.5770833333333333,0.37962962962962965],[0.584375,0.37962962962962965],[0.5854166666666667,0.37962962962962965],[0.5854166666666667,0.37962962962962965],[0.5854166666666667,0.37962962962962965],[0.5854166666666667,0.3685185185185185],[0.5854166666666667,0.35555555555555557],[0.5833333333333334,0.3333333333333333],[0.5770833333333333,0.3],[0.5729166666666666,0.2518518518518518],[0.5666666666666667,0.18333333333333332],[0.55625,0.07222222222222222],[0.5458333333333333,0.014814814814814815],[0.53125,-0.03888888888888889],[0.5239583333333333,-0.08518518518518518],[0.51875,-0.12222222222222222],[0.5135416666666667,-0.1537037037037037],[0.5083333333333333,-0.1814814814814815],[0.5010416666666667,-0.20185185185185187],[0.496875,-0.2111111111111111],[0.490625,-0.21851851851851853],[0.48541666666666666,-0.21851851851851853],[0.48333333333333334,-0.21851851851851853],[0.48125,-0.21851851851851853],[0.4666666666666667,-0.2111111111111111],[0.4322916666666667,-0.15925925925925927],[0.375,-0.06481481481481481],[0.3020833333333333,0.07592592592592592],[0.22604166666666667,0.2222222222222222],[0.165625,0.35],[0.13125,0.4203703703703704],[0.109375,0.4666666666666667],[0.09895833333333333,0.49074074074074076],[0.09375,0.5018518518518519],[0.09270833333333334,0.5055555555555555],[0.09270833333333334,0.5092592592592593],[0.09270833333333334,0.5092592592592593],[0.09166666666666666,0.512962962962963],[0.090625,0.5166666666666667],[0.090625,0.5166666666666667],[0.090625,0.5166666666666667],[0.090625,0.5166666666666667],[0.08958333333333333,0.5166666666666667],[0.08854166666666667,0.5166666666666667],[0.08854166666666667,0.5166666666666667],[0.08854166666666667,0.5166666666666667],[0.08854166666666667,0.5166666666666667],[0.08854166666666667,0.5166666666666667],[0.08854166666666667,0.5166666666666667],[0.08854166666666667,0.5166666666666667],[0.08854166666666667,0.5166666666666667],[0.08854166666666667,0.5166666666666667],[0.0875,0.5166666666666667],[0.0875,0.512962962962963],[0.0875,0.512962962962963],[0.0875,0.512962962962963],[0.0875,0.512962962962963],[0.0875,0.512962962962963],[0.0875,0.512962962962963],[0.0875,0.512962962962963],[0.0875,0.512962962962963],[0.0875,0.512962962962963],[0.0875,0.512962962962963],[0.0875,0.512962962962963],[0.0875,0.512962962962963],[0.0875,0.512962962962963],[0.0875,0.512962962962963],[0.0875,0.512962962962963],[0.0875,0.512962962962963],[0.0875,0.512962962962963],[0.0875,0.512962962962963],[0.0875,0.512962962962963],[0.0875,0.512962962962963],[0.0875,0.512962962962963],[0.0875,0.512962962962963],[0.0875,0.512962962962963],[0.0875,0.512962962962963],[0.0875,0.512962962962963],[0.0875,0.512962962962963],[0.0875,0.5111111111111111],[0.0875,0.5111111111111111],[0.0875,0.5111111111111111],[0.0875,0.5111111111111111],[0.0875,0.5111111111111111],[0.0875,0.5111111111111111],[0.0875,0.5111111111111111],[0.0875,0.5111111111111111],[0.0875,0.5111111111111111],[0.0875,0.5111111111111111],[0.0875,0.5111111111111111],[0.0875,0.5111111111111111],[0.0875,0.5111111111111111],[0.0875,0.5111111111111111],[0.0875,0.5111111111111111],[0.0875,0.5111111111111111],[0.0875,0.5111111111111111],[0.0875,0.5111111111111111],[0.0875,0.5111111111111111],[0.0875,0.5111111111111111],[0.0875,0.5111111111111111],[0.0875,0.5111111111111111],[0.0875,0.5111111111111111],[0.0875,0.5111111111111111],[0.0875,0.5111111111111111],[0.0875,0.5111111111111111],[0.0875,0.5111111111111111],[0.0875,0.5111111111111111]]","[[0.049270833333333285,0.5718518518518517],[0.049270833333333285,0.5718518518518517],[0.03802083333333333,0.5692592592592592],[0.03802083333333333,0.5692592592592592],[0.020937500000000022,0.5572222222222222],[0.011979166666666667,0.537962962962963],[0.012187500000000047,0.5457407407407409],[0.012187500000000047,0.5457407407407409],[-0.005624999999999976,0.5346296296296297],[-0.025833333333333285,0.5214814814814815],[-0.058854166666666666,0.5137037037037037],[-0.07489583333333331,0.5048148148148148],[-0.08447916666666669,0.49074074074074076],[-0.09406249999999995,0.4766666666666666],[-0.10270833333333336,0.4711111111111111],[-0.09791666666666667,0.4800000000000001],[-0.10125000000000005,0.49611111111111106],[-0.09135416666666671,0.47962962962962963],[-0.08916666666666669,0.4583333333333333],[-0.08833333333333329,0.44296296296296306],[-0.09572916666666664,0.43740740740740747],[-0.0985416666666667,0.42962962962962964],[-0.08541666666666667,0.43796296296296294],[-0.07229166666666664,0.4462962962962963],[-0.05520833333333333,0.4412962962962962],[-0.0515625,0.42185185185185176],[-0.03791666666666664,0.4227777777777777],[-0.035000000000000024,0.407037037037037],[0.001145833333333357,0.427962962962963],[0.03729166666666662,0.44888888888888884],[0.06916666666666677,0.44962962962962955],[0.06916666666666677,0.44962962962962955],[0.07843749999999995,0.443888888888889],[0.09333333333333324,0.4235185185185186],[0.09552083333333337,0.3683333333333333],[0.09375,0.3264814814814814],[0.09666666666666662,0.31666666666666665],[0.08520833333333329,0.24314814814814806],[0.08270833333333343,0.21203703703703702],[0.050312499999999954,0.15240740740740732],[0.017916666666666713,0.09277777777777782],[0.013020833333333334,0.03092592592592601],[0.008645833333333287,-0.0257407407407407],[0.010000000000000024,-0.026111111111111154],[0.041979166666666616,-0.032777777777777864],[0.06770833333333333,-0.028888888888888933],[0.11572916666666658,-0.04944444444444453],[0.11572916666666658,-0.04944444444444453],[0.1681250000000001,-0.026666666666666623],[0.19375,-0.07740740740740742],[0.2039583333333333,-0.08944444444444447],[0.21416666666666656,-0.1014814814814815],[0.24552083333333338,-0.18185185185185182],[0.2764583333333334,-0.27037037037037037],[0.29104166666666675,-0.3957407407407407],[0.2943749999999999,-0.4607407407407408],[0.29270833333333335,-0.5218518518518519],[0.2640625,-0.5905555555555555],[0.2178124999999999,-0.6694444444444444],[0.19833333333333342,-0.6748148148148148],[0.2071875000000001,-0.7457407407407407],[0.21604166666666677,-0.8166666666666667],[0.18885416666666663,-0.8131481481481482],[0.17541666666666675,-0.8024074074074075],[0.13833333333333328,-0.7514814814814815],[0.09458333333333328,-0.7198148148148148],[0.06208333333333336,-0.7025925925925925],[0.03572916666666662,-0.6968518518518518],[0.015312500000000047,-0.6861111111111111],[-0.003854166666666714,-0.6655555555555556],[-0.044270833333333336,-0.6022222222222222],[-0.11020833333333328,-0.5137037037037037],[-0.11020833333333328,-0.5137037037037037],[-0.14260416666666664,-0.4081481481481481],[-0.16604166666666664,-0.35],[-0.15270833333333336,-0.34370370370370373],[-0.14187500000000006,-0.2824074074074074],[-0.14187500000000006,-0.2824074074074074],[-0.1310416666666666,-0.22111111111111106],[-0.1310416666666666,-0.22111111111111106],[-0.0859375,-0.14537037037037037],[-0.0859375,-0.14537037037037037],[-0.08645833333333333,-0.10203703703703708],[-0.08645833333333333,-0.10203703703703708],[-0.0655208333333333,-0.0031481481481482323],[-0.0655208333333333,-0.0031481481481482323],[-0.03145833333333338,0.11074074074074065],[-0.03145833333333338,0.11074074074074065],[-0.002812500000000047,0.12685185185185185],[0.020833333333333332,0.16796296296296304],[-0.04697916666666669,0.23370370370370377],[-0.08166666666666664,0.32518518518518524],[-0.11354166666666667,0.40018518518518525],[-0.1454166666666667,0.4751851851851852],[-0.2326041666666666,0.49981481481481477],[-0.184375,0.5588888888888888],[-0.22822916666666668,0.537962962962963],[-0.2709375,0.4903703703703703],[-0.2929166666666667,0.5225925925925927],[-0.34343750000000006,0.5127777777777778],[-0.32875000000000004,0.5372222222222223],[-0.3471874999999999,0.5359259259259259],[-0.2860416666666667,0.4396296296296296],[-0.2860416666666667,0.4396296296296296],[-0.2467708333333333,0.35759259259259263],[-0.18979166666666672,0.352962962962963],[-0.18979166666666672,0.352962962962963],[-0.20718749999999997,0.3162962962962962],[-0.09500000000000004,0.2755555555555555],[0.015625,0.2272222222222223],[0.10833333333333334,0.17888888888888893],[0.16302083333333334,0.1625925925925925],[0.26666666666666666,0.09462962962962967],[0.3109375,0.07277777777777769],[0.27239583333333334,0.13796296296296295],[0.23406250000000003,0.19444444444444445],[0.34958333333333325,0.16277777777777774],[0.4613541666666668,0.16629629629629622],[0.4827083333333334,0.2131481481481482],[0.5109375,0.23277777777777786],[0.5321875000000001,0.2331481481481481],[0.5914583333333333,0.2014814814814814],[0.6696875000000001,0.20574074074074078],[0.8040625000000001,0.14314814814814805],[0.9131249999999999,0.04814814814814815],[1.0438541666666665,-0.05240740740740743],[0.9773958333333332,-0.024814814814814772],[0.8915625000000001,-0.0338888888888888],[0.8326041666666666,-0.07907407407407405],[0.7967708333333334,-0.07370370370370373],[0.8016666666666665,-0.08740740740740739],[0.8016666666666665,-0.08740740740740739],[0.7670833333333335,-0.10388888888888893],[0.7670833333333335,-0.10388888888888893],[0.6685416666666666,-0.11518518518518517],[0.6009375000000001,-0.10759259259259263],[0.5615624999999999,-0.09814814814814815],[0.4921875,-0.07296296296296292],[0.4788541666666667,-0.10537037037037032],[0.48489583333333336,-0.10111111111111115],[0.5288541666666667,-0.11537037037037039],[0.5428124999999999,-0.152962962962963],[0.48895833333333344,-0.12740740740740744],[0.47458333333333325,-0.09907407407407408],[0.4571875000000001,-0.09685185185185187],[0.4513541666666666,-0.05851851851851856],[0.45552083333333326,-0.07796296296296301],[0.4896874999999999,-0.11314814814814819],[0.5135416666666667,-0.1853703703703704],[0.5373958333333334,-0.25759259259259265],[0.5273958333333333,-0.27740740740740744],[0.5173958333333334,-0.2972222222222222],[0.5742708333333333,-0.327962962962963],[0.6311458333333334,-0.3587037037037037],[0.6311458333333334,-0.3587037037037037],[0.6688541666666665,-0.3761111111111112],[0.5880208333333333,-0.4137037037037037],[0.49718749999999995,-0.39351851851851855],[0.40635416666666657,-0.37333333333333335],[0.3298958333333334,-0.39648148148148155],[0.25020833333333337,-0.37462962962962965],[0.17479166666666662,-0.3551851851851852],[0.075,-0.3609259259259259],[-0.02947916666666662,-0.3877777777777777],[-0.13083333333333336,-0.4192592592592592],[-0.21104166666666668,-0.41574074074074074],[-0.2233333333333333,-0.4440740740740741],[-0.23885416666666662,-0.44222222222222224],[-0.27072916666666663,-0.4624074074074074],[-0.32135416666666666,-0.4251851851851852],[-0.32916666666666666,-0.4448148148148148],[-0.33999999999999997,-0.4633333333333333],[-0.35916666666666663,-0.4414814814814814],[-0.4061458333333333,-0.41648148148148145],[-0.44072916666666667,-0.4207407407407407],[-0.44072916666666667,-0.4207407407407407],[-0.5058333333333334,-0.4116666666666667],[-0.525625,-0.39444444444444443],[-0.5380208333333333,-0.4118518518518518],[-0.5208333333333334,-0.4125925925925926],[-0.4842708333333333,-0.38499999999999995],[-0.476875,-0.39166666666666666],[-0.4997916666666667,-0.4007407407407407],[-0.45979166666666665,-0.3655555555555555],[-0.3857291666666666,-0.3435185185185185],[-0.3260416666666667,-0.34074074074074073],[-0.23822916666666671,-0.3453703703703704],[-0.1842708333333333,-0.3418518518518519],[-0.10791666666666669,-0.31740740740740736],[-0.05791666666666669,-0.30907407407407406],[-0.01114583333333338,-0.2294444444444444],[0.03781249999999995,-0.0690740740740741],[0.11145833333333334,0.07037037037037037],[0.15489583333333337,0.15037037037037046],[0.19375,0.22759259259259254],[0.23291666666666658,0.3635185185185184],[0.2678124999999999,0.44370370370370377],[0.2678124999999999,0.44370370370370377],[0.31135416666666677,0.5322222222222222],[0.31135416666666677,0.5322222222222222],[0.3381249999999999,0.5707407407407408],[0.3381249999999999,0.5707407407407408],[0.3932291666666667,0.7016666666666667],[0.4148958333333333,0.7031481481481482],[0.4270833333333333,0.65],[0.4270833333333333,0.65],[0.44260416666666674,0.5957407407407408],[0.44260416666666674,0.5957407407407408],[0.45343749999999994,0.5548148148148149],[0.4666666666666667,0.5266666666666666],[0.47458333333333325,0.4705555555555556],[0.49020833333333325,0.4420370370370371],[0.4986458333333334,0.3449999999999999],[0.49729166666666674,0.2814814814814815],[0.4864583333333333,0.13722222222222227],[0.49208333333333343,0.03333333333333333],[0.49937500000000007,-0.062037037037037036],[0.5069791666666668,-0.15407407407407406],[0.5134375000000001,-0.1905555555555555],[0.5158333333333334,-0.2270370370370371],[0.5195833333333333,-0.25],[0.5195833333333333,-0.25],[0.5283333333333334,-0.2722222222222222],[0.5355208333333332,-0.21222222222222226],[0.5392708333333334,-0.18222222222222217],[0.5372916666666666,-0.14240740740740737],[0.5411458333333333,-0.13481481481481483],[0.5395833333333333,-0.10833333333333334],[0.5425,-0.06185185185185181],[0.5469791666666666,-0.0883333333333333],[0.5514583333333334,-0.11481481481481481],[0.5586458333333333,-0.1175925925925926],[0.5608333333333334,-0.13796296296296295],[0.5630208333333333,-0.17888888888888893],[0.5664583333333333,-0.1824074074074074],[0.5676041666666668,-0.15833333333333333],[0.5658333333333334,-0.1051851851851852],[0.5646874999999999,-0.05944444444444449],[0.5528125,-0.04092592592592597],[0.55125,-0.03537037037037041],[0.5533333333333333,-0.03314814814814811],[0.5552083333333333,-0.045740740740740825],[0.5515625,-0.04592592592592584],[0.5479166666666667,-0.04611111111111107],[0.5447916666666667,-0.009444444444444486],[0.5376041666666665,-0.05944444444444449],[0.5448958333333332,-0.14462962962962966],[0.5521874999999999,-0.22981481481481486],[0.5733333333333335,-0.26888888888888884],[0.5884375000000001,-0.290925925925926],[0.5807291666666666,-0.29018518518518516],[0.5730208333333332,-0.28944444444444445],[0.5767708333333333,-0.2712962962962963],[0.5698958333333333,-0.25759259259259265],[0.5646874999999999,-0.2881481481481482],[0.5377083333333333,-0.23499999999999996],[0.49333333333333323,-0.14351851851851852],[0.39947916666666666,-0.016851851851851896],[0.2934375000000001,0.0007407407407406986],[0.28020833333333334,-0.014259259259259343],[0.24697916666666658,-0.014814814814814815],[0.22270833333333329,-0.039629629629629584],[0.17145833333333324,-0.027037037037037078],[0.1544791666666666,-0.03537037037037041],[0.13802083333333334,-0.024629629629629547],[0.16072916666666662,-0.08037037037037033],[0.18395833333333325,-0.11740740740740736],[0.25770833333333343,-0.17814814814814814],[0.2693749999999999,-0.20425925925925928],[0.18947916666666675,-0.20925925925925926],[0.15666666666666676,-0.23425925925925925],[0.11958333333333329,-0.2462962962962963],[0.10479166666666657,-0.27981481481481485],[0.06229166666666662,-0.28833333333333333],[0.044166666666666646,-0.3448148148148148],[0.02302083333333336,-0.37111111111111106],[-0.003333333333333381,-0.34592592592592597],[-0.030729166666666665,-0.3322222222222222],[0.008541666666666715,-0.28296296296296297],[0.04895833333333333,-0.2788888888888889],[0.04895833333333333,-0.2788888888888889],[0.041666666666666664,-0.27314814814814814],[0.0931250000000001,-0.2368518518518518],[0.16281249999999994,-0.24370370370370376],[0.19968750000000005,-0.26185185185185184],[0.19968750000000005,-0.26185185185185184],[0.24510416666666662,-0.2662962962962963],[0.2855208333333332,-0.23259259259259263],[0.3094791666666666,-0.22092592592592594],[0.3323958333333332,-0.28962962962962957],[0.3238541666666668,-0.36574074074074076],[0.3306250000000001,-0.34],[0.4055208333333333,-0.3594444444444445],[0.4183333333333332,-0.392037037037037],[0.4275000000000001,-0.4412962962962963],[0.4735416666666666,-0.4788888888888889],[0.4510416666666667,-0.46037037037037043],[0.42552083333333335,-0.46833333333333327],[0.4085416666666667,-0.5657407407407408],[0.40499999999999997,-0.542962962962963],[0.43604166666666655,-0.5212962962962963],[0.4493750000000001,-0.5448148148148148],[0.43479166666666674,-0.5375925925925926],[0.4039583333333333,-0.5464814814814816],[0.3446875000000001,-0.5422222222222223],[0.2930208333333333,-0.517037037037037],[0.2853125000000001,-0.5392592592592592],[0.27760416666666665,-0.5614814814814815],[0.25927083333333345,-0.44351851851851853],[0.22854166666666675,-0.3653703703703704],[0.29812500000000003,-0.43277777777777776],[0.35625,-0.46425925925925926],[0.33145833333333335,-0.40981481481481485],[0.36437499999999995,-0.42296296296296293],[0.4203125,-0.4292592592592593],[0.46864583333333343,-0.4564814814814815],[0.47645833333333343,-0.4033333333333334],[0.47645833333333343,-0.4033333333333334],[0.46677083333333325,-0.3307407407407408],[0.46677083333333325,-0.3307407407407408],[0.4982291666666666,-0.3957407407407407],[0.5662499999999999,-0.4751851851851852],[0.5662499999999999,-0.4751851851851852],[0.5104166666666666,-0.37666666666666665],[0.5511458333333332,-0.32092592592592595],[0.6192708333333333,-0.29555555555555557],[0.6192708333333333,-0.29555555555555557],[0.6130208333333333,-0.24574074074074073],[0.6130208333333333,-0.24574074074074073],[0.6383333333333333,-0.16574074074074074],[0.6359375,-0.14444444444444443],[0.6652083333333333,-0.19703703703703698],[0.6652083333333333,-0.19703703703703698],[0.7690625,-0.29203703703703704],[0.8073958333333332,-0.25166666666666665],[0.8091666666666666,-0.19685185185185186],[0.8575,-0.2772222222222222],[0.7932291666666667,-0.33425925925925926],[0.7585416666666667,-0.42018518518518516],[0.7554166666666667,-0.452962962962963],[0.6880208333333333,-0.43499999999999994],[0.6880208333333333,-0.43499999999999994],[0.6925,-0.4905555555555555],[0.6838541666666667,-0.4609259259259259],[0.6290625000000001,-0.4494444444444444],[0.6333333333333333,-0.5609259259259259],[0.6321875000000001,-0.6948148148148148],[0.6048958333333334,-0.7174074074074074],[0.6108333333333335,-0.7333333333333333],[0.6108333333333335,-0.7333333333333333],[0.6114583333333333,-0.7164814814814814],[0.6433333333333332,-0.6709259259259259],[0.6433333333333332,-0.6709259259259259],[0.6784374999999999,-0.7875925925925926],[0.6691666666666668,-0.7277777777777777],[0.6596875,-0.737037037037037],[0.6615624999999999,-0.7666666666666667],[0.6254166666666667,-0.7150000000000001],[0.5780208333333334,-0.6383333333333333],[0.5367708333333333,-0.5687037037037037],[0.5042708333333332,-0.52],[0.5026041666666666,-0.5318518518518518],[0.4861458333333334,-0.6533333333333333],[0.4748958333333334,-0.6561111111111111],[0.465625,-0.6911111111111111],[0.4662499999999999,-0.6922222222222223],[0.4354166666666667,-0.6605555555555556],[0.43114583333333345,-0.6838888888888889],[0.4122916666666666,-0.6453703703703704],[0.38729166666666665,-0.5998148148148148],[0.3759375000000001,-0.6237037037037038],[0.3633333333333333,-0.6425925925925926],[0.34187500000000004,-0.5888888888888889],[0.3342708333333334,-0.5616666666666666],[0.32489583333333344,-0.5464814814814816],[0.32020833333333343,-0.5840740740740741],[0.3246875000000001,-0.5929629629629629],[0.3263541666666666,-0.5694444444444444],[0.36124999999999996,-0.615925925925926],[0.3961458333333333,-0.6624074074074073],[0.43718750000000006,-0.6096296296296296],[0.4794791666666666,-0.5618518518518518],[0.45979166666666677,-0.5474074074074075],[0.42510416666666656,-0.5251851851851852],[0.4236458333333334,-0.4729629629629629],[0.4209374999999999,-0.4179629629629629],[0.4028125000000001,-0.42481481481481476],[0.39249999999999996,-0.465],[0.37302083333333325,-0.5142592592592592],[0.38083333333333325,-0.5018518518518519],[0.34427083333333336,-0.5401851851851852],[0.2978125000000001,-0.6014814814814815],[0.3467708333333334,-0.6087037037037036],[0.40302083333333344,-0.5918518518518519],[0.3710416666666667,-0.6046296296296296],[0.3390625,-0.6174074074074074],[0.34562499999999996,-0.5368518518518518],[0.34739583333333335,-0.4692592592592592],[0.35614583333333344,-0.3731481481481482],[0.31260416666666657,-0.3359259259259259],[0.2633333333333333,-0.2985185185185185],[0.2131249999999999,-0.24833333333333338],[0.16572916666666657,-0.21203703703703702],[0.12604166666666666,-0.20759259259259263],[0.14968750000000006,-0.19462962962962968],[0.17333333333333342,-0.1816666666666667],[0.16197916666666667,-0.19314814814814818],[0.15041666666666675,-0.19074074074074074],[0.19822916666666662,-0.2096296296296296],[0.2741666666666667,-0.2207407407407407],[0.3067708333333333,-0.22740740740740742],[0.3502083333333334,-0.22388888888888886],[0.3597916666666668,-0.2064814814814815],[0.3853125000000001,-0.1537037037037037],[0.3490624999999999,-0.1381481481481482],[0.3490624999999999,-0.1381481481481482],[0.31281249999999994,-0.12259259259259257],[0.3165625000000001,-0.11166666666666669],[0.29958333333333326,-0.1161111111111111],[0.221875,-0.12166666666666665],[0.13531250000000009,-0.1259259259259259],[0.11218750000000005,-0.11407407407407412],[0.08479166666666677,-0.10425925925925927],[0.08479166666666677,-0.10425925925925927],[0.06958333333333329,-0.11796296296296294],[0.03718750000000005,-0.1844444444444445],[0.11447916666666676,-0.23648148148148146],[0.20343749999999997,-0.29203703703703704],[0.22312500000000005,-0.3087037037037037],[0.26583333333333337,-0.36203703703703705],[0.3398958333333333,-0.3859259259259259],[0.4415625000000001,-0.4577777777777778],[0.5003124999999999,-0.5257407407407407],[0.5444791666666667,-0.5753703703703703],[0.5723958333333333,-0.6109259259259259],[0.6015625,-0.629074074074074],[0.5860416666666666,-0.6362962962962964],[0.5860416666666666,-0.6362962962962964],[0.5588541666666667,-0.64],[0.5588541666666667,-0.64],[0.5802083333333333,-0.7025925925925925],[0.5802083333333333,-0.7025925925925925],[0.5291666666666667,-0.6031481481481481],[0.5291666666666667,-0.6031481481481481],[0.4478125000000001,-0.5348148148148149],[0.4478125000000001,-0.5348148148148149],[0.3889583333333334,-0.4762962962962963],[0.3889583333333334,-0.4762962962962963],[0.36843750000000003,-0.45759259259259266],[0.3619791666666667,-0.38740740740740737],[0.3242708333333333,-0.28481481481481485],[0.2865624999999999,-0.18222222222222217],[0.23864583333333325,-0.08722222222222227],[0.19072916666666656,0.007777777777777862],[0.16072916666666662,0.10203703703703708],[0.1993750000000001,0.031111111111111027],[0.22364583333333338,-0.022592592592592678],[0.20354166666666676,-0.03037037037037033],[0.16635416666666672,-0.02907407407407416],[0.12531249999999997,-0.08888888888888889],[0.1650000000000001,-0.17777777777777778],[0.2046875,-0.26666666666666666],[0.24114583333333334,-0.30648148148148147],[0.2796875,-0.3718518518518519],[0.25979166666666675,-0.42907407407407405],[0.22541666666666677,-0.4462962962962963],[0.20593750000000005,-0.38685185185185184],[0.18802083333333333,-0.34388888888888886],[0.19104166666666675,-0.25999999999999995],[0.20270833333333324,-0.18277777777777776],[0.16437499999999997,-0.18462962962962962],[0.08822916666666672,-0.012037037037037037],[0.007187499999999976,0.05611111111111103],[-0.030729166666666665,0.16222222222222227],[0.019791666666666666,0.18333333333333332],[0.08624999999999995,0.21962962962962967],[0.04989583333333331,0.2699999999999999],[0.005833333333333357,0.33481481481481473],[0.04885416666666664,0.32888888888888895],[0.09187500000000005,0.3229629629629629],[0.09072916666666657,0.3509259259259259],[0.14510416666666662,0.24055555555555552],[0.19562499999999997,0.1801851851851851],[0.19822916666666662,0.03925925925925934],[0.15197916666666675,0.05055555555555547],[0.10572916666666667,0.06185185185185181],[0.15625,-0.05703703703703706],[0.21291666666666675,-0.17388888888888884],[0.15770833333333342,-0.22870370370370371],[0.12468750000000005,-0.3151851851851852],[0.10729166666666666,-0.2948148148148148],[0.06635416666666671,-0.32629629629629625],[0.05677083333333333,-0.35259259259259257],[0.052187500000000026,-0.32407407407407407],[0.04114583333333333,-0.35259259259259257],[0.033749999999999974,-0.3896296296296296],[0.03239583333333336,-0.3942592592592592]]","[[0.049270833333333285,0.5718518518518517,0.00020000000298381337],[0.049270833333333285,0.5718518518518517,0.03790000000596194],[0.03802083333333333,0.5692592592592592,0.047600000001487786],[0.03802083333333333,0.5692592592592592,0.06190000000596285],[0.020937500000000022,0.5572222222222222,0.0788000000044704],[0.011979166666666667,0.537962962962963,0.09520000000298268],[0.012187500000000047,0.5457407407407409,0.11190000000596001],[0.012187500000000047,0.5457407407407409,0.1285000000000025],[-0.005624999999999976,0.5346296296296297,0.14520000000297983],[-0.025833333333333285,0.5214814814814815,0.16190000000596427],[-0.058854166666666666,0.5137037037037037,0.178600000001488],[-0.07489583333333331,0.5048148148148148,0.1952000000029841],[-0.08447916666666669,0.49074074074074076,0.21190000000596143],[-0.09406249999999995,0.4766666666666666,0.22850000000000392],[-0.10270833333333336,0.4711111111111111,0.2453000000044696],[-0.09791666666666667,0.4800000000000001,0.2619000000059586],[-0.10125000000000005,0.49611111111111106,0.27860000000148943],[-0.09135416666666671,0.47962962962962963,0.2952000000029784],[-0.08916666666666669,0.4583333333333333,0.31190000000596285],[-0.08833333333333329,0.44296296296296306,0.3286000000014937],[-0.09572916666666664,0.43740740740740747,0.34710000000148966],[-0.0985416666666667,0.42962962962962964,0.3620000000000019],[-0.08541666666666667,0.43796296296296294,0.378900000005963],[-0.07229166666666664,0.4462962962962963,0.39840000000596376],[-0.05520833333333333,0.4412962962962962,0.4134999999999991],[-0.0515625,0.42185185185185176,0.4287000000029835],[-0.03791666666666664,0.4227777777777777,0.4477000000029818],[-0.035000000000000024,0.407037037037037,0.46210000000149165],[0.001145833333333357,0.427962962962963,0.47890000000596444],[0.03729166666666662,0.44888888888888884,0.49990000000595813],[0.06916666666666677,0.44962962962962955,0.5144999999999982],[0.06916666666666677,0.44962962962962955,0.5287000000029778],[0.07843749999999995,0.443888888888889,0.5456000000014924],[0.09333333333333324,0.4235185185185186,0.5647000000029792],[0.09552083333333337,0.3683333333333333,0.5789000000059588],[0.09375,0.3264814814814814,0.5952000000029827],[0.09666666666666662,0.31666666666666665,0.6147000000029834],[0.08520833333333329,0.24314814814814806,0.6286000000014909],[0.08270833333333343,0.21203703703703702,0.6452000000029798],[0.050312499999999954,0.15240740740740732,0.6619000000059643],[0.017916666666666713,0.09277777777777782,0.6807000000029788],[0.013020833333333334,0.03092592592592601,0.6952000000029841],[0.008645833333333287,-0.0257407407407407,0.7119000000059614],[0.010000000000000024,-0.026111111111111154,0.7308000000044714],[0.041979166666666616,-0.032777777777777864,0.7453000000044696],[0.06770833333333333,-0.028888888888888933,0.7627000000029796],[0.11572916666666658,-0.04944444444444453,0.7816000000014895],[0.11572916666666658,-0.04944444444444453,0.7952000000029784],[0.1681250000000001,-0.026666666666666623,0.8119999999999976],[0.19375,-0.07740740740740742,0.8286000000014937],[0.2039583333333333,-0.08944444444444447,0.845300000004471],[0.21416666666666656,-0.1014814814814815,0.8632000000029834],[0.24552083333333338,-0.18185185185185182,0.8786000000014909],[0.2764583333333334,-0.27037037037037037,0.8953000000044682],[0.29104166666666675,-0.3957407407407407,0.911999999999999],[0.2943749999999999,-0.4607407407407408,0.9284999999999997],[0.29270833333333335,-0.5218518518518519,0.9453000000044725],[0.2640625,-0.5905555555555555,0.96220000000298],[0.2178124999999999,-0.6694444444444444,0.9786000000014923],[0.19833333333333342,-0.6748148148148148,0.9952000000029813],[0.2071875000000001,-0.7457407407407407,1.0119000000059586],[0.21604166666666677,-0.8166666666666667,1.028500000000001],[0.18885416666666663,-0.8131481481481482,1.0452000000029784],[0.17541666666666675,-0.8024074074074075,1.0651000000014932],[0.13833333333333328,-0.7514814814814815,1.0807000000029774],[0.09458333333333328,-0.7198148148148148,1.0954000000059594],[0.06208333333333336,-0.7025925925925925,1.1122000000029786],[0.03572916666666662,-0.6968518518518518,1.13230000000447],[0.015312500000000047,-0.6861111111111111,1.1466000000014915],[-0.003854166666666714,-0.6655555555555556,1.1630000000000038],[-0.044270833333333336,-0.6022222222222222,1.1789000000059602],[-0.11020833333333328,-0.5137037037037037,1.198400000005961],[-0.11020833333333328,-0.5137037037037037,1.2120000000000033],[-0.14260416666666664,-0.4081481481481481,1.228800000004469],[-0.16604166666666664,-0.35,1.2454999999999998],[-0.15270833333333336,-0.34370370370370373,1.264700000002982],[-0.14187500000000006,-0.2824074074074074,1.281700000002978],[-0.14187500000000006,-0.2824074074074074,1.2954000000059622],[-0.1310416666666666,-0.22111111111111106,1.3166000000014932],[-0.1310416666666666,-0.22111111111111106,1.328700000002982],[-0.0859375,-0.14537037037037037,1.3452000000029827],[-0.0859375,-0.14537037037037037,1.3621000000014902],[-0.08645833333333333,-0.10203703703703708,1.3787000000029792],[-0.08645833333333333,-0.10203703703703708,1.3953000000044682],[-0.0655208333333333,-0.0031481481481482323,1.4119000000059643],[-0.0655208333333333,-0.0031481481481482323,1.428600000001488],[-0.03145833333333338,0.11074074074074065,1.4453000000044725],[-0.03145833333333338,0.11074074074074065,1.4619000000059614],[-0.002812500000000047,0.12685185185185185,1.4786000000014923],[0.020833333333333332,0.16796296296296304,1.4997000000029814],[-0.04697916666666669,0.23370370370370377,1.514000000000003],[-0.08166666666666664,0.32518518518518524,1.5287000000029778],[-0.11354166666666667,0.40018518518518525,1.5452000000029784],[-0.1454166666666667,0.4751851851851852,1.5619999999999976],[-0.2326041666666666,0.49981481481481477,1.5801000000014938],[-0.184375,0.5588888888888888,1.5964000000059642],[-0.22822916666666668,0.537962962962963,1.61190000000596],[-0.2709375,0.4903703703703703,1.6298000000044723],[-0.2929166666666667,0.5225925925925927,1.6473000000044706],[-0.34343750000000006,0.5127777777777778,1.6619000000059643],[-0.32875000000000004,0.5372222222222223,1.678600000001488],[-0.3471874999999999,0.5359259259259259,1.6994000000059586],[-0.2860416666666667,0.4396296296296296,1.7144000000059592],[-0.2860416666666667,0.4396296296296296,1.728800000004469],[-0.2467708333333333,0.35759259259259263,1.745400000005958],[-0.18979166666666672,0.352962962962963,1.7684000000059612],[-0.18979166666666672,0.352962962962963,1.7788000000044732],[-0.20718749999999997,0.3162962962962962,1.7954000000059622],[-0.09500000000000004,0.2755555555555555,1.8119999999999976],[0.015625,0.2272222222222223,1.8314000000059636],[0.10833333333333334,0.17888888888888893,1.8460000000000036],[0.16302083333333334,0.1625925925925925,1.8621000000014902],[0.26666666666666666,0.09462962962962967,1.88230000000447],[0.3109375,0.07277777777777769,1.8988000000044707],[0.27239583333333334,0.13796296296296295,1.913700000002983],[0.23406250000000003,0.19444444444444445,1.9321000000014905],[0.34958333333333325,0.16277777777777774,1.9467000000029842],[0.4613541666666668,0.16629629629629622,1.9620000000000033],[0.4827083333333334,0.2131481481481482,1.9789000000059644],[0.5109375,0.23277777777777786,1.9989000000059605],[0.5321875000000001,0.2331481481481481,2.014000000000003],[0.5914583333333333,0.2014814814814814,2.030000000000001],[0.6696875000000001,0.20574074074074078,2.0454000000059622],[0.8040625000000001,0.14314814814814805,2.0645000000000024],[0.9131249999999999,0.04814814814814815,2.0801000000014938],[1.0438541666666665,-0.05240740740740743,2.097200000002978],[0.9773958333333332,-0.024814814814814772,2.1154999999999973],[0.8915625000000001,-0.0338888888888888,2.1307000000029817],[0.8326041666666666,-0.07907407407407405,2.1454000000059636],[0.7967708333333334,-0.07370370370370373,2.1624000000059596],[0.8016666666666665,-0.08740740740740739,2.1905],[0.8016666666666665,-0.08740740740740739,2.2083000000044706],[0.7670833333333335,-0.10388888888888893,2.221800000004471],[0.7670833333333335,-0.10388888888888893,2.2310000000000016],[0.6685416666666666,-0.11518518518518517,2.2474000000059604],[0.6009375000000001,-0.10759259259259263,2.262100000001489],[0.5615624999999999,-0.09814814814814815,2.2789000000059616],[0.4921875,-0.07296296296296292,2.2992000000029833],[0.4788541666666667,-0.10537037037037032,2.3126000000014884],[0.48489583333333336,-0.10111111111111115,2.3288000000044704],[0.5288541666666667,-0.11537037037037039,2.3454000000059594],[0.5428124999999999,-0.152962962962963,2.3643000000044694],[0.48895833333333344,-0.12740740740740744,2.3791000000014932],[0.47458333333333325,-0.09907407407407408,2.3954000000059636],[0.4571875000000001,-0.09685185185185187,2.4138000000044713],[0.4513541666666666,-0.05851851851851856,2.4287000000029835],[0.45552083333333326,-0.07796296296296301,2.4453000000044725],[0.4896874999999999,-0.11314814814814819,2.4619000000059614],[0.5135416666666667,-0.1853703703703704,2.4786000000014923],[0.5373958333333334,-0.25759259259259265,2.4952000000029813],[0.5273958333333333,-0.27740740740740744,2.5119000000059586],[0.5173958333333334,-0.2972222222222222,2.528500000000001],[0.5742708333333333,-0.327962962962963,2.5452000000029784],[0.6311458333333334,-0.3587037037037037,2.561900000005963],[0.6311458333333334,-0.3587037037037037,2.578700000002982],[0.6688541666666665,-0.3761111111111112,2.595300000004471],[0.5880208333333333,-0.4137037037037037,2.61190000000596],[0.49718749999999995,-0.39351851851851855,2.628600000001491],[0.40635416666666657,-0.37333333333333335,2.64520000000298],[0.3298958333333334,-0.39648148148148155,2.661800000004469],[0.25020833333333337,-0.37462962962962965,2.6784999999999997],[0.17479166666666662,-0.3551851851851852,2.6953000000044725],[0.075,-0.3609259259259259,2.711800000004473],[-0.02947916666666662,-0.3877777777777777,2.7286000000014923],[-0.13083333333333336,-0.4192592592592592,2.7452000000029813],[-0.21104166666666668,-0.41574074074074074,2.7619000000059586],[-0.2233333333333333,-0.4440740740740741,2.778700000002978],[-0.23885416666666662,-0.44222222222222224,2.7952000000029784],[-0.27072916666666663,-0.4624074074074074,2.811900000005963],[-0.32135416666666666,-0.4251851851851852,2.8284999999999982],[-0.32916666666666666,-0.4448148148148148,2.8452000000029827],[-0.33999999999999997,-0.4633333333333333,2.86190000000596],[-0.35916666666666663,-0.4414814814814814,2.878600000001491],[-0.4061458333333333,-0.41648148148148145,2.89520000000298],[-0.44072916666666667,-0.4207407407407407,2.9119000000059643],[-0.44072916666666667,-0.4207407407407407,2.928600000001488],[-0.5058333333333334,-0.4116666666666667,2.945200000002984],[-0.525625,-0.39444444444444443,2.9620000000000033],[-0.5380208333333333,-0.4118518518518518,2.9786000000014923],[-0.5208333333333334,-0.4125925925925926,2.9953000000044696],[-0.4842708333333333,-0.38499999999999995,3.0119000000059586],[-0.476875,-0.39166666666666666,3.028500000000001],[-0.4997916666666667,-0.4007407407407407,3.045300000004474],[-0.45979166666666665,-0.3655555555555555,3.061900000005963],[-0.3857291666666666,-0.3435185185185185,3.0786000000014937],[-0.3260416666666667,-0.34074074074074073,3.0952000000029827],[-0.23822916666666671,-0.3453703703703704,3.1118000000044717],[-0.1842708333333333,-0.3418518518518519,3.128600000001491],[-0.10791666666666669,-0.31740740740740736,3.14520000000298],[-0.05791666666666669,-0.30907407407407406,3.1619000000059643],[-0.01114583333333338,-0.2294444444444444,3.178600000001488],[0.03781249999999995,-0.0690740740740741,3.195200000002984],[0.11145833333333334,0.07037037037037037,3.2119000000059614],[0.15489583333333337,0.15037037037037046,3.2286000000014923],[0.19375,0.22759259259259254,3.2452000000029813],[0.23291666666666658,0.3635185185185184,3.2619000000059586],[0.2678124999999999,0.44370370370370377,3.2786000000014894],[0.2678124999999999,0.44370370370370377,3.2952000000029784],[0.31135416666666677,0.5322222222222222,3.3118000000044674],[0.31135416666666677,0.5322222222222222,3.3284999999999982],[0.3381249999999999,0.5707407407407408,3.3452000000029827],[0.3381249999999999,0.5707407407407408,3.36190000000596],[0.3932291666666667,0.7016666666666667,3.378600000001491],[0.4148958333333333,0.7031481481481482,3.4003000000044707],[0.4270833333333333,0.65,3.4164000000059644],[0.4270833333333333,0.65,3.4284999999999997],[0.44260416666666674,0.5957407407407408,3.445200000002984],[0.44260416666666674,0.5957407407407408,3.4619000000059614],[0.45343749999999994,0.5548148148148149,3.4787000000029806],[0.4666666666666667,0.5266666666666666,3.4975000000000023],[0.47458333333333325,0.4705555555555556,3.512100000001489],[0.49020833333333325,0.4420370370370371,3.5308000000044686],[0.4986458333333334,0.3449999999999999,3.5452000000029784],[0.49729166666666674,0.2814814814814815,3.561900000005963],[0.4864583333333333,0.13722222222222227,3.5786000000014937],[0.49208333333333343,0.03333333333333333,3.595300000004471],[0.49937500000000007,-0.062037037037037036,3.61190000000596],[0.5069791666666668,-0.15407407407407406,3.63080000000447],[0.5134375000000001,-0.1905555555555555,3.6454000000059636],[0.5158333333333334,-0.2270370370370371,3.6647000000029806],[0.5195833333333333,-0.25,3.682200000002979],[0.5195833333333333,-0.25,3.695400000005961],[0.5283333333333334,-0.2722222222222222,3.7120000000000033],[0.5355208333333332,-0.21222222222222226,3.731300000004474],[0.5392708333333334,-0.18222222222222217,3.7464999999999975],[0.5372916666666666,-0.14240740740740737,3.763700000002977],[0.5411458333333333,-0.13481481481481483,3.779100000001492],[0.5395833333333333,-0.10833333333333334,3.7977000000029832],[0.5425,-0.06185185185185181,3.8122000000029814],[0.5469791666666666,-0.0883333333333333,3.8289000000059588],[0.5514583333333334,-0.11481481481481481,3.845300000004471],[0.5586458333333333,-0.1175925925925926,3.8662000000029835],[0.5608333333333334,-0.13796296296296295,3.8822000000029817],[0.5630208333333333,-0.17888888888888893,3.8984999999999985],[0.5664583333333333,-0.1824074074074074,3.9168000000044714],[0.5676041666666668,-0.15833333333333333,3.932600000001493],[0.5658333333333334,-0.1051851851851852,3.947700000002982],[0.5646874999999999,-0.05944444444444449,3.9636000000014917],[0.5528125,-0.04092592592592597,3.9823000000044715],[0.55125,-0.03537037037037041,3.998100000001493],[0.5533333333333333,-0.03314814814814811,4.012300000004473],[0.5552083333333333,-0.045740740740740825,4.031400000005959],[0.5515625,-0.04592592592592584,4.04660000000149],[0.5479166666666667,-0.04611111111111107,4.062600000001488],[0.5447916666666667,-0.009444444444444486,4.082000000000001],[0.5376041666666665,-0.05944444444444449,4.097500000000004],[0.5448958333333332,-0.14462962962962966,4.11210000000149],[0.5521874999999999,-0.22981481481481486,4.132200000002982],[0.5733333333333335,-0.26888888888888884,4.145600000001494],[0.5884375000000001,-0.290925925925926,4.162100000001487],[0.5807291666666666,-0.29018518518518516,4.1785],[0.5730208333333332,-0.28944444444444445,4.195100000001489],[0.5767708333333333,-0.2712962962962963,4.211800000004473],[0.5698958333333333,-0.25759259259259265,4.228500000000004],[0.5646874999999999,-0.2881481481481482,4.245100000001493],[0.5377083333333333,-0.23499999999999996,4.262999999999998],[0.49333333333333323,-0.14351851851851852,4.279800000004471],[0.39947916666666666,-0.016851851851851896,4.29510000000149],[0.2934375000000001,0.0007407407407406986,4.314400000005961],[0.28020833333333334,-0.014259259259259343,4.328600000001494],[0.24697916666666658,-0.014814814814814815,4.345400000005959],[0.22270833333333329,-0.039629629629629584,4.36190000000596],[0.17145833333333324,-0.027037037037037078,4.378600000001491],[0.1544791666666666,-0.03537037037037041,4.398600000001494],[0.13802083333333334,-0.024629629629629547,4.411900000005964],[0.16072916666666662,-0.08037037037037033,4.4285],[0.18395833333333325,-0.11740740740740736,4.445100000001489],[0.25770833333333343,-0.17814814814814814,4.461800000004473],[0.2693749999999999,-0.20425925925925928,4.480300000004469],[0.18947916666666675,-0.20925925925925926,4.495200000002981],[0.15666666666666676,-0.23425925925925925,4.51180000000447],[0.11958333333333329,-0.2462962962962963,4.530300000004473],[0.10479166666666657,-0.27981481481481485,4.545200000002978],[0.06229166666666662,-0.28833333333333333,4.561800000004467],[0.044166666666666646,-0.3448148148148148,4.581900000005959],[0.02302083333333336,-0.37111111111111106,4.59770000000298],[-0.003333333333333381,-0.34592592592592597,4.612400000005962],[-0.030729166666666665,-0.3322222222222222,4.628700000002979],[0.008541666666666715,-0.28296296296296297,4.649300000004473],[0.04895833333333333,-0.2788888888888889,4.666300000004469],[0.04895833333333333,-0.2788888888888889,4.67890000000596],[0.041666666666666664,-0.27314814814814814,4.6991000000014935],[0.0931250000000001,-0.2368518518518518,4.714400000005959],[0.16281249999999994,-0.24370370370370376,4.728600000001492],[0.19968750000000005,-0.26185185185185184,4.748100000001493],[0.19968750000000005,-0.26185185185185184,4.762100000001489],[0.24510416666666662,-0.2662962962962963,4.778900000005962],[0.2855208333333332,-0.23259259259259263,4.795300000004474],[0.3094791666666666,-0.22092592592592594,4.814200000002984],[0.3323958333333332,-0.28962962962962957,4.82880000000447],[0.3238541666666668,-0.36574074074074076,4.845400000005959],[0.3306250000000001,-0.34,4.865300000004474],[0.4055208333333333,-0.3594444444444445,4.880499999999998],[0.4183333333333332,-0.392037037037037,4.89670000000298],[0.4275000000000001,-0.4412962962962963,4.911900000005964],[0.4735416666666666,-0.4788888888888889,4.9285],[0.4510416666666667,-0.46037037037037043,4.945400000005961],[0.42552083333333335,-0.46833333333333327,4.961800000004473],[0.4085416666666667,-0.5657407407407408,4.980300000004469],[0.40499999999999997,-0.542962962962963,4.995100000001493],[0.43604166666666655,-0.5212962962962963,5.01180000000447],[0.4493750000000001,-0.5448148148148148,5.028500000000001],[0.43479166666666674,-0.5375925925925926,5.0452000000029855],[0.4039583333333333,-0.5464814814814816,5.061900000005956],[0.3446875000000001,-0.5422222222222223,5.080900000005961],[0.2930208333333333,-0.517037037037037,5.097000000000001],[0.2853125000000001,-0.5392592592592592,5.113800000004467],[0.27760416666666665,-0.5614814814814815,5.128700000002986],[0.25927083333333345,-0.44351851851851853,5.14520000000298],[0.22854166666666675,-0.3653703703703704,5.164900000005964],[0.29812500000000003,-0.43277777777777776,5.181100000001486],[0.35625,-0.46425925925925926,5.196700000002984],[0.33145833333333335,-0.40981481481481485,5.215400000005964],[0.36437499999999995,-0.42296296296296293,5.231500000000004],[0.4203125,-0.4292592592592593,5.246400000005956],[0.46864583333333343,-0.4564814814814815,5.262100000001489],[0.47645833333333343,-0.4033333333333334,5.278700000002978],[0.47645833333333343,-0.4033333333333334,5.29510000000149],[0.46677083333333325,-0.3307407407407408,5.3118000000044745],[0.46677083333333325,-0.3307407407407408,5.328499999999998],[0.4982291666666666,-0.3957407407407407,5.349100000001492],[0.5662499999999999,-0.4751851851851852,5.366300000004465],[0.5662499999999999,-0.4751851851851852,5.378999999999998],[0.5104166666666666,-0.37666666666666665,5.399999999999999],[0.5511458333333332,-0.32092592592592595,5.416400000005957],[0.6192708333333333,-0.29555555555555557,5.434100000001486],[0.6192708333333333,-0.29555555555555557,5.450100000001491],[0.6130208333333333,-0.24574074074074073,5.461999999999996],[0.6130208333333333,-0.24574074074074073,5.479200000002983],[0.6383333333333333,-0.16574074074074074,5.498700000002977],[0.6359375,-0.14444444444444443,5.515499999999996],[0.6652083333333333,-0.19703703703703698,5.53310000000149],[0.6652083333333333,-0.19703703703703698,5.548400000005962],[0.7690625,-0.29203703703703704,5.562000000000005],[0.8073958333333332,-0.25166666666666665,5.578900000005966],[0.8091666666666666,-0.19685185185185186,5.595300000004464],[0.8575,-0.2772222222222222,5.615000000000002],[0.7932291666666667,-0.33425925925925926,5.630900000005958],[0.7585416666666667,-0.42018518518518516,5.645300000004475],[0.7554166666666667,-0.452962962962963,5.661999999999999],[0.6880208333333333,-0.43499999999999994,5.682300000004467],[0.6880208333333333,-0.43499999999999994,5.6953000000044725],[0.6925,-0.4905555555555555,5.711999999999996],[0.6838541666666667,-0.4609259259259259,5.728600000001485],[0.6290625000000001,-0.4494444444444444,5.748400000005965],[0.6333333333333333,-0.5609259259259259,5.765800000004468],[0.6321875000000001,-0.6948148148148148,5.781100000001494],[0.6048958333333334,-0.7174074074074074,5.797300000004476],[0.6108333333333335,-0.7333333333333333,5.814200000002977],[0.6108333333333335,-0.7333333333333333,5.829600000001484],[0.6114583333333333,-0.7164814814814814,5.84560000000149],[0.6433333333333332,-0.6709259259259259,5.8685000000000045],[0.6433333333333332,-0.6709259259259259,5.878800000004468],[0.6784374999999999,-0.7875925925925926,5.8955000000000055],[0.6691666666666668,-0.7277777777777777,5.911900000005964],[0.6596875,-0.737037037037037,5.931100000001486],[0.6615624999999999,-0.7666666666666667,5.9453000000044725],[0.6254166666666667,-0.7150000000000001,5.962100000001492],[0.5780208333333334,-0.6383333333333333,5.981000000000002],[0.5367708333333333,-0.5687037037037037,5.99530000000447],[0.5042708333333332,-0.52,6.011900000005959],[0.5026041666666666,-0.5318518518518518,6.0286000000014965],[0.4861458333333334,-0.6533333333333333,6.0475000000000065],[0.4748958333333334,-0.6561111111111111,6.062000000000005],[0.465625,-0.6911111111111111,6.07880000000447],[0.4662499999999999,-0.6922222222222223,6.097500000000004],[0.4354166666666667,-0.6605555555555556,6.111900000005967],[0.43114583333333345,-0.6838888888888889,6.128800000004468],[0.4122916666666666,-0.6453703703703704,6.145300000004475],[0.38729166666666665,-0.5998148148148148,6.16410000000149],[0.3759375000000001,-0.6237037037037038,6.178800000004465],[0.3633333333333333,-0.6425925925925926,6.196100000001486],[0.34187500000000004,-0.5888888888888889,6.211999999999996],[0.3342708333333334,-0.5616666666666666,6.228400000005955],[0.32489583333333344,-0.5464814814814816,6.245100000001493],[0.32020833333333343,-0.5840740740740741,6.261900000005959],[0.3246875000000001,-0.5929629629629629,6.278500000000001],[0.3263541666666666,-0.5694444444444444,6.298900000005965],[0.36124999999999996,-0.615925925925926,6.312999999999995],[0.3961458333333333,-0.6624074074074073,6.331499999999998],[0.43718750000000006,-0.6096296296296296,6.346499999999999],[0.4794791666666666,-0.5618518518518518,6.364200000002974],[0.45979166666666677,-0.5474074074074075,6.381300000004465],[0.42510416666666656,-0.5251851851851852,6.3954000000059565],[0.4236458333333334,-0.4729629629629629,6.411900000005964],[0.4209374999999999,-0.4179629629629629,6.430600000001498],[0.4028125000000001,-0.42481481481481476,6.445200000002977],[0.39249999999999996,-0.465,6.462200000002987],[0.37302083333333325,-0.5142592592592592,6.481000000000002],[0.38083333333333325,-0.5018518518518519,6.495400000005965],[0.34427083333333336,-0.5401851851851852,6.512000000000008],[0.2978125000000001,-0.6014814814814815,6.5286000000014965],[0.3467708333333334,-0.6087037037037036,6.5475000000000065],[0.40302083333333344,-0.5918518518518519,6.5618000000044745],[0.3710416666666667,-0.6046296296296296,6.578499999999998],[0.3390625,-0.6174074074074074,6.597200000002978],[0.34562499999999996,-0.5368518518518518,6.611900000005967],[0.34739583333333335,-0.4692592592592592,6.628600000001491],[0.35614583333333344,-0.3731481481481482,6.647400000005966],[0.31260416666666657,-0.3359259259259259,6.6621000000014945],[0.2633333333333333,-0.2985185185185185,6.678999999999995],[0.2131249999999999,-0.24833333333333338,6.697499999999998],[0.16572916666666657,-0.21203703703703702,6.711999999999996],[0.12604166666666666,-0.20759259259259263,6.728700000002981],[0.14968750000000006,-0.19462962962962968,6.74530000000447],[0.17333333333333342,-0.1816666666666667,6.766500000000001],[0.16197916666666667,-0.19314814814814818,6.782500000000006],[0.15041666666666675,-0.19074074074074074,6.796100000001495],[0.19822916666666662,-0.2096296296296296,6.812000000000005],[0.2741666666666667,-0.2207407407407407,6.830900000005961],[0.3067708333333333,-0.22740740740740742,6.845300000004464],[0.3502083333333334,-0.22388888888888886,6.862100000001497],[0.3597916666666668,-0.2064814814814815,6.881800000004468],[0.3853125000000001,-0.1537037037037037,6.8955000000000055],[0.3490624999999999,-0.1381481481481482,6.911900000005964],[0.3490624999999999,-0.1381481481481482,6.928600000001488],[0.31281249999999994,-0.12259259259259257,6.947400000005963],[0.3165625000000001,-0.11166666666666669,6.962100000001492],[0.29958333333333326,-0.1161111111111111,6.978900000005957],[0.221875,-0.12166666666666665,6.997200000002984],[0.13531250000000009,-0.1259259259259259,7.011900000005959],[0.11218750000000005,-0.11407407407407412,7.028700000002978],[0.08479166666666677,-0.10425925925925927,7.045300000004467],[0.08479166666666677,-0.10425925925925927,7.064900000005956],[0.06958333333333329,-0.11796296296296294,7.079000000000001],[0.03718750000000005,-0.1844444444444445,7.097000000000001],[0.11447916666666676,-0.23648148148148146,7.111900000005967],[0.20343749999999997,-0.29203703703703704,7.131300000004465],[0.22312500000000005,-0.3087037037037037,7.145300000004475],[0.26583333333333337,-0.36203703703703705,7.161800000004469],[0.3398958333333333,-0.3859259259259259,7.178600000001488],[0.4415625000000001,-0.4577777777777778,7.195100000001496],[0.5003124999999999,-0.5257407407407407,7.214100000001487],[0.5444791666666667,-0.5753703703703703,7.228700000002981],[0.5723958333333333,-0.6109259259259259,7.245100000001493],[0.6015625,-0.629074074074074,7.263900000005954],[0.5860416666666666,-0.6362962962962964,7.2786000000014965],[0.5860416666666666,-0.6362962962962964,7.2952000000029855],[0.5588541666666667,-0.64,7.3118000000044745],[0.5588541666666667,-0.64,7.3284000000059635],[0.5802083333333333,-0.7025925925925925,7.345100000001487],[0.5802083333333333,-0.7025925925925925,7.361800000004472],[0.5291666666666667,-0.6031481481481481,7.383400000005956],[0.5291666666666667,-0.6031481481481481,7.39520000000298],[0.4478125000000001,-0.5348148148148149,7.411800000004469],[0.4478125000000001,-0.5348148148148149,7.428500000000007],[0.3889583333333334,-0.4762962962962963,7.445100000001496],[0.3889583333333334,-0.4762962962962963,7.461700000002985],[0.36843750000000003,-0.45759259259259266,7.478600000001485],[0.3619791666666667,-0.38740740740740737,7.495600000001495],[0.3242708333333333,-0.28481481481481485,7.511800000004477],[0.2865624999999999,-0.18222222222222217,7.529600000001487],[0.23864583333333325,-0.08722222222222227,7.547400000005958],[0.19072916666666656,0.007777777777777862,7.562300000004477],[0.16072916666666662,0.10203703703703708,7.580300000004478],[0.1993750000000001,0.031111111111111027,7.595100000001487],[0.22364583333333338,-0.022592592592592678,7.611900000005967],[0.20354166666666676,-0.03037037037037033,7.628499999999995],[0.16635416666666672,-0.02907407407407416,7.648500000000006],[0.12531249999999997,-0.08888888888888889,7.663999999999994],[0.1650000000000001,-0.17777777777777778,7.678600000001488],[0.2046875,-0.26666666666666666,7.695100000001496],[0.24114583333333334,-0.30648148148148147,7.711800000004466],[0.2796875,-0.3718518518518519,7.728500000000004],[0.25979166666666675,-0.42907407407407405,7.745100000001493],[0.22541666666666677,-0.4462962962962963,7.7646000000014865],[0.20593750000000005,-0.38685185185185184,7.779800000004464],[0.18802083333333333,-0.34388888888888886,7.795499999999997],[0.19104166666666675,-0.25999999999999995,7.8118000000044745],[0.20270833333333324,-0.18277777777777776,7.831600000001494],[0.16437499999999997,-0.18462962962962962,7.845100000001487],[0.08822916666666672,-0.012037037037037037,7.861800000004472],[0.007187499999999976,0.05611111111111103,7.878999999999998],[-0.030729166666666665,0.16222222222222227,7.895100000001484],[0.019791666666666666,0.18333333333333332,7.911800000004469],[0.08624999999999995,0.21962962962962967,7.928400000005958],[0.04989583333333331,0.2699999999999999,7.947300000004468],[0.005833333333333357,0.33481481481481473,7.961800000004466],[0.04885416666666664,0.32888888888888895,7.978600000001485],[0.09187500000000005,0.3229629629629629,7.997000000000007],[0.09072916666666657,0.3509259259259259,8.011800000004477],[0.14510416666666662,0.24055555555555552,8.028500000000001],[0.19562499999999997,0.1801851851851851,8.045200000002986],[0.19822916666666662,0.03925925925925934,8.061800000004474],[0.15197916666666675,0.05055555555555547,8.079],[0.10572916666666667,0.06185185185185181,8.095100000001487],[0.15625,-0.05703703703703706,8.111800000004472],[0.21291666666666675,-0.17388888888888884,8.12840000000596],[0.15770833333333342,-0.22870370370370371,8.145100000001484],[0.12468750000000005,-0.3151851851851852,8.162300000004471],[0.10729166666666666,-0.2948148148148148,8.178999999999995],[0.06635416666666671,-0.32629629629629625,8.195100000001496],[0.05677083333333333,-0.35259259259259257,8.211800000004466],[0.052187500000000026,-0.32407407407407407,8.228500000000004],[0.04114583333333333,-0.35259259259259257,8.245100000001493],[0.033749999999999974,-0.3896296296296296,8.261900000005959],[0.03239583333333336,-0.3942592592592592,8.278800000004473]]","[0.00020000000298381337,0.03790000000596194,0.047600000001487786,0.06190000000596285,0.0788000000044704,0.09520000000298268,0.11190000000596001,0.1285000000000025,0.14520000000297983,0.16190000000596427,0.178600000001488,0.1952000000029841,0.21190000000596143,0.22850000000000392,0.2453000000044696,0.2619000000059586,0.27860000000148943,0.2952000000029784,0.31190000000596285,0.3286000000014937,0.34710000000148966,0.3620000000000019,0.378900000005963,0.39840000000596376,0.4134999999999991,0.4287000000029835,0.4477000000029818,0.46210000000149165,0.47890000000596444,0.49990000000595813,0.5144999999999982,0.5287000000029778,0.5456000000014924,0.5647000000029792,0.5789000000059588,0.5952000000029827,0.6147000000029834,0.6286000000014909,0.6452000000029798,0.6619000000059643,0.6807000000029788,0.6952000000029841,0.7119000000059614,0.7308000000044714,0.7453000000044696,0.7627000000029796,0.7816000000014895,0.7952000000029784,0.8119999999999976,0.8286000000014937,0.845300000004471,0.8632000000029834,0.8786000000014909,0.8953000000044682,0.911999999999999,0.9284999999999997,0.9453000000044725,0.96220000000298,0.9786000000014923,0.9952000000029813,1.0119000000059586,1.028500000000001,1.0452000000029784,1.0651000000014932,1.0807000000029774,1.0954000000059594,1.1122000000029786,1.13230000000447,1.1466000000014915,1.1630000000000038,1.1789000000059602,1.198400000005961,1.2120000000000033,1.228800000004469,1.2454999999999998,1.264700000002982,1.281700000002978,1.2954000000059622,1.3166000000014932,1.328700000002982,1.3452000000029827,1.3621000000014902,1.3787000000029792,1.3953000000044682,1.4119000000059643,1.428600000001488,1.4453000000044725,1.4619000000059614,1.4786000000014923,1.4997000000029814,1.514000000000003,1.5287000000029778,1.5452000000029784,1.5619999999999976,1.5801000000014938,1.5964000000059642,1.61190000000596,1.6298000000044723,1.6473000000044706,1.6619000000059643,1.678600000001488,1.6994000000059586,1.7144000000059592,1.728800000004469,1.745400000005958,1.7684000000059612,1.7788000000044732,1.7954000000059622,1.8119999999999976,1.8314000000059636,1.8460000000000036,1.8621000000014902,1.88230000000447,1.8988000000044707,1.913700000002983,1.9321000000014905,1.9467000000029842,1.9620000000000033,1.9789000000059644,1.9989000000059605,2.014000000000003,2.030000000000001,2.0454000000059622,2.0645000000000024,2.0801000000014938,2.097200000002978,2.1154999999999973,2.1307000000029817,2.1454000000059636,2.1624000000059596,2.1905,2.2083000000044706,2.221800000004471,2.2310000000000016,2.2474000000059604,2.262100000001489,2.2789000000059616,2.2992000000029833,2.3126000000014884,2.3288000000044704,2.3454000000059594,2.3643000000044694,2.3791000000014932,2.3954000000059636,2.4138000000044713,2.4287000000029835,2.4453000000044725,2.4619000000059614,2.4786000000014923,2.4952000000029813,2.5119000000059586,2.528500000000001,2.5452000000029784,2.561900000005963,2.578700000002982,2.595300000004471,2.61190000000596,2.628600000001491,2.64520000000298,2.661800000004469,2.6784999999999997,2.6953000000044725,2.711800000004473,2.7286000000014923,2.7452000000029813,2.7619000000059586,2.778700000002978,2.7952000000029784,2.811900000005963,2.8284999999999982,2.8452000000029827,2.86190000000596,2.878600000001491,2.89520000000298,2.9119000000059643,2.928600000001488,2.945200000002984,2.9620000000000033,2.9786000000014923,2.9953000000044696,3.0119000000059586,3.028500000000001,3.045300000004474,3.061900000005963,3.0786000000014937,3.0952000000029827,3.1118000000044717,3.128600000001491,3.14520000000298,3.1619000000059643,3.178600000001488,3.195200000002984,3.2119000000059614,3.2286000000014923,3.2452000000029813,3.2619000000059586,3.2786000000014894,3.2952000000029784,3.3118000000044674,3.3284999999999982,3.3452000000029827,3.36190000000596,3.378600000001491,3.4003000000044707,3.4164000000059644,3.4284999999999997,3.445200000002984,3.4619000000059614,3.4787000000029806,3.4975000000000023,3.512100000001489,3.5308000000044686,3.5452000000029784,3.561900000005963,3.5786000000014937,3.595300000004471,3.61190000000596,3.63080000000447,3.6454000000059636,3.6647000000029806,3.682200000002979,3.695400000005961,3.7120000000000033,3.731300000004474,3.7464999999999975,3.763700000002977,3.779100000001492,3.7977000000029832,3.8122000000029814,3.8289000000059588,3.845300000004471,3.8662000000029835,3.8822000000029817,3.8984999999999985,3.9168000000044714,3.932600000001493,3.947700000002982,3.9636000000014917,3.9823000000044715,3.998100000001493,4.012300000004473,4.031400000005959,4.04660000000149,4.062600000001488,4.082000000000001,4.097500000000004,4.11210000000149,4.132200000002982,4.145600000001494,4.162100000001487,4.1785,4.195100000001489,4.211800000004473,4.228500000000004,4.245100000001493,4.262999999999998,4.279800000004471,4.29510000000149,4.314400000005961,4.328600000001494,4.345400000005959,4.36190000000596,4.378600000001491,4.398600000001494,4.411900000005964,4.4285,4.445100000001489,4.461800000004473,4.480300000004469,4.495200000002981,4.51180000000447,4.530300000004473,4.545200000002978,4.561800000004467,4.581900000005959,4.59770000000298,4.612400000005962,4.628700000002979,4.649300000004473,4.666300000004469,4.67890000000596,4.6991000000014935,4.714400000005959,4.728600000001492,4.748100000001493,4.762100000001489,4.778900000005962,4.795300000004474,4.814200000002984,4.82880000000447,4.845400000005959,4.865300000004474,4.880499999999998,4.89670000000298,4.911900000005964,4.9285,4.945400000005961,4.961800000004473,4.980300000004469,4.995100000001493,5.01180000000447,5.028500000000001,5.0452000000029855,5.061900000005956,5.080900000005961,5.097000000000001,5.113800000004467,5.128700000002986,5.14520000000298,5.164900000005964,5.181100000001486,5.196700000002984,5.215400000005964,5.231500000000004,5.246400000005956,5.262100000001489,5.278700000002978,5.29510000000149,5.3118000000044745,5.328499999999998,5.349100000001492,5.366300000004465,5.378999999999998,5.399999999999999,5.416400000005957,5.434100000001486,5.450100000001491,5.461999999999996,5.479200000002983,5.498700000002977,5.515499999999996,5.53310000000149,5.548400000005962,5.562000000000005,5.578900000005966,5.595300000004464,5.615000000000002,5.630900000005958,5.645300000004475,5.661999999999999,5.682300000004467,5.6953000000044725,5.711999999999996,5.728600000001485,5.748400000005965,5.765800000004468,5.781100000001494,5.797300000004476,5.814200000002977,5.829600000001484,5.84560000000149,5.8685000000000045,5.878800000004468,5.8955000000000055,5.911900000005964,5.931100000001486,5.9453000000044725,5.962100000001492,5.981000000000002,5.99530000000447,6.011900000005959,6.0286000000014965,6.0475000000000065,6.062000000000005,6.07880000000447,6.097500000000004,6.111900000005967,6.128800000004468,6.145300000004475,6.16410000000149,6.178800000004465,6.196100000001486,6.211999999999996,6.228400000005955,6.245100000001493,6.261900000005959,6.278500000000001,6.298900000005965,6.312999999999995,6.331499999999998,6.346499999999999,6.364200000002974,6.381300000004465,6.3954000000059565,6.411900000005964,6.430600000001498,6.445200000002977,6.462200000002987,6.481000000000002,6.495400000005965,6.512000000000008,6.5286000000014965,6.5475000000000065,6.5618000000044745,6.578499999999998,6.597200000002978,6.611900000005967,6.628600000001491,6.647400000005966,6.6621000000014945,6.678999999999995,6.697499999999998,6.711999999999996,6.728700000002981,6.74530000000447,6.766500000000001,6.782500000000006,6.796100000001495,6.812000000000005,6.830900000005961,6.845300000004464,6.862100000001497,6.881800000004468,6.8955000000000055,6.911900000005964,6.928600000001488,6.947400000005963,6.962100000001492,6.978900000005957,6.997200000002984,7.011900000005959,7.028700000002978,7.045300000004467,7.064900000005956,7.079000000000001,7.097000000000001,7.111900000005967,7.131300000004465,7.145300000004475,7.161800000004469,7.178600000001488,7.195100000001496,7.214100000001487,7.228700000002981,7.245100000001493,7.263900000005954,7.2786000000014965,7.2952000000029855,7.3118000000044745,7.3284000000059635,7.345100000001487,7.361800000004472,7.383400000005956,7.39520000000298,7.411800000004469,7.428500000000007,7.445100000001496,7.461700000002985,7.478600000001485,7.495600000001495,7.511800000004477,7.529600000001487,7.547400000005958,7.562300000004477,7.580300000004478,7.595100000001487,7.611900000005967,7.628499999999995,7.648500000000006,7.663999999999994,7.678600000001488,7.695100000001496,7.711800000004466,7.728500000000004,7.745100000001493,7.7646000000014865,7.779800000004464,7.795499999999997,7.8118000000044745,7.831600000001494,7.845100000001487,7.861800000004472,7.878999999999998,7.895100000001484,7.911800000004469,7.928400000005958,7.947300000004468,7.961800000004466,7.978600000001485,7.997000000000007,8.011800000004477,8.028500000000001,8.045200000002986,8.061800000004474,8.079,8.095100000001487,8.111800000004472,8.12840000000596,8.145100000001484,8.162300000004471,8.178999999999995,8.195100000001496,8.211800000004466,8.228500000000004,8.245100000001493,8.261900000005959,8.278800000004473]","[1733293271872,1733293271902,1733293271912,1733293271926,1733293271943,1733293271960,1733293271976,1733293271993,1733293272010,1733293272026,1733293272043,1733293272060,1733293272076,1733293272093,1733293272110,1733293272126,1733293272143,1733293272160,1733293272176,1733293272193,1733293272212,1733293272226,1733293272243,1733293272263,1733293272278,1733293272293,1733293272312,1733293272326,1733293272343,1733293272364,1733293272379,1733293272393,1733293272410,1733293272429,1733293272443,1733293272460,1733293272479,1733293272493,1733293272510,1733293272526,1733293272545,1733293272560,1733293272576,1733293272595,1733293272610,1733293272627,1733293272646,1733293272660,1733293272676,1733293272693,1733293272710,1733293272727,1733293272743,1733293272760,1733293272776,1733293272793,1733293272810,1733293272827,1733293272843,1733293272860,1733293272876,1733293272893,1733293272910,1733293272929,1733293272945,1733293272960,1733293272977,1733293272997,1733293273011,1733293273027,1733293273043,1733293273063,1733293273076,1733293273093,1733293273110,1733293273129,1733293273146,1733293273160,1733293273181,1733293273193,1733293273210,1733293273227,1733293273243,1733293273260,1733293273276,1733293273293,1733293273310,1733293273326,1733293273343,1733293273364,1733293273378,1733293273393,1733293273410,1733293273426,1733293273444,1733293273461,1733293273476,1733293273494,1733293273512,1733293273526,1733293273543,1733293273564,1733293273579,1733293273593,1733293273610,1733293273633,1733293273643,1733293273660,1733293273676,1733293273696,1733293273710,1733293273726,1733293273747,1733293273763,1733293273778,1733293273796,1733293273811,1733293273826,1733293273843,1733293273863,1733293273878,1733293273894,1733293273910,1733293273929,1733293273944,1733293273962,1733293273980,1733293273995,1733293274010,1733293274027,1733293274055,1733293274073,1733293274086,1733293274095,1733293274112,1733293274126,1733293274143,1733293274164,1733293274177,1733293274193,1733293274210,1733293274229,1733293274243,1733293274260,1733293274278,1733293274293,1733293274310,1733293274326,1733293274343,1733293274360,1733293274376,1733293274393,1733293274410,1733293274426,1733293274443,1733293274460,1733293274476,1733293274493,1733293274510,1733293274526,1733293274543,1733293274560,1733293274576,1733293274593,1733293274610,1733293274626,1733293274643,1733293274660,1733293274676,1733293274693,1733293274710,1733293274726,1733293274743,1733293274760,1733293274776,1733293274793,1733293274810,1733293274826,1733293274843,1733293274860,1733293274876,1733293274893,1733293274910,1733293274926,1733293274943,1733293274960,1733293274976,1733293274993,1733293275010,1733293275026,1733293275043,1733293275060,1733293275076,1733293275093,1733293275110,1733293275126,1733293275143,1733293275160,1733293275176,1733293275193,1733293275210,1733293275226,1733293275243,1733293275265,1733293275281,1733293275293,1733293275310,1733293275326,1733293275343,1733293275362,1733293275376,1733293275395,1733293275410,1733293275426,1733293275443,1733293275460,1733293275476,1733293275495,1733293275510,1733293275529,1733293275547,1733293275560,1733293275576,1733293275596,1733293275611,1733293275628,1733293275643,1733293275662,1733293275677,1733293275693,1733293275710,1733293275731,1733293275747,1733293275763,1733293275781,1733293275797,1733293275812,1733293275828,1733293275847,1733293275862,1733293275877,1733293275896,1733293275911,1733293275927,1733293275946,1733293275962,1733293275976,1733293275997,1733293276010,1733293276026,1733293276043,1733293276060,1733293276076,1733293276093,1733293276110,1733293276127,1733293276144,1733293276159,1733293276179,1733293276193,1733293276210,1733293276226,1733293276243,1733293276263,1733293276276,1733293276293,1733293276309,1733293276326,1733293276345,1733293276360,1733293276376,1733293276395,1733293276409,1733293276426,1733293276446,1733293276462,1733293276477,1733293276493,1733293276514,1733293276531,1733293276543,1733293276563,1733293276579,1733293276593,1733293276612,1733293276627,1733293276643,1733293276660,1733293276679,1733293276693,1733293276710,1733293276730,1733293276745,1733293276761,1733293276776,1733293276793,1733293276810,1733293276826,1733293276845,1733293276859,1733293276876,1733293276893,1733293276909,1733293276926,1733293276945,1733293276961,1733293276978,1733293276993,1733293277009,1733293277029,1733293277045,1733293277061,1733293277080,1733293277096,1733293277111,1733293277126,1733293277143,1733293277160,1733293277176,1733293277193,1733293277213,1733293277231,1733293277243,1733293277264,1733293277281,1733293277298,1733293277314,1733293277326,1733293277344,1733293277363,1733293277380,1733293277397,1733293277413,1733293277426,1733293277443,1733293277460,1733293277479,1733293277495,1733293277510,1733293277526,1733293277547,1733293277560,1733293277576,1733293277593,1733293277613,1733293277630,1733293277645,1733293277662,1733293277679,1733293277694,1733293277710,1733293277733,1733293277743,1733293277760,1733293277776,1733293277795,1733293277810,1733293277826,1733293277845,1733293277860,1733293277876,1733293277893,1733293277912,1733293277926,1733293277943,1733293277962,1733293277976,1733293277993,1733293278010,1733293278028,1733293278043,1733293278060,1733293278076,1733293278093,1733293278110,1733293278126,1733293278143,1733293278163,1733293278177,1733293278196,1733293278211,1733293278229,1733293278246,1733293278260,1733293278276,1733293278295,1733293278310,1733293278327,1733293278345,1733293278360,1733293278376,1733293278393,1733293278412,1733293278426,1733293278443,1733293278461,1733293278476,1733293278493,1733293278512,1733293278526,1733293278543,1733293278562,1733293278576,1733293278593,1733293278610,1733293278631,1733293278647,1733293278660,1733293278676,1733293278695,1733293278710,1733293278726,1733293278746,1733293278760,1733293278776,1733293278793,1733293278812,1733293278826,1733293278843,1733293278862,1733293278876,1733293278893,1733293278910,1733293278929,1733293278943,1733293278961,1733293278976,1733293278996,1733293279010,1733293279026,1733293279043,1733293279059,1733293279078,1733293279093,1733293279110,1733293279128,1733293279143,1733293279160,1733293279176,1733293279193,1733293279209,1733293279226,1733293279248,1733293279260,1733293279276,1733293279293,1733293279309,1733293279326,1733293279343,1733293279360,1733293279376,1733293279394,1733293279412,1733293279427,1733293279445,1733293279460,1733293279476,1733293279493,1733293279513,1733293279528,1733293279543,1733293279559,1733293279576,1733293279593,1733293279609,1733293279629,1733293279644,1733293279660,1733293279676,1733293279696,1733293279709,1733293279726,1733293279743,1733293279759,1733293279776,1733293279793,1733293279812,1733293279826,1733293279843,1733293279861,1733293279876,1733293279893,1733293279909,1733293279926,1733293279943,1733293279959,1733293279976,1733293279993,1733293280009,1733293280027,1733293280043,1733293280059,1733293280076,1733293280093,1733293280109,1733293280126,1733293280143]","[[1007.3,848.8],[1007.3,848.8],[996.5,847.4],[996.5,847.4],[980.1,840.9],[971.5,830.5],[971.7,834.7],[971.7,834.7],[954.6,828.7],[935.2,821.6],[903.5,817.4],[888.1,812.6],[878.9,805],[869.7,797.4],[861.4,794.4],[866,799.2],[862.8,807.9],[872.3,799],[874.4,787.5],[875.2,779.2],[868.1,776.2],[865.4,772],[878,776.5],[890.6,781],[907,778.3],[910.5,767.8],[923.6,768.3],[926.4,759.8],[961.1,771.1],[995.8,782.4],[1026.4,782.8],[1026.4,782.8],[1035.3,779.7],[1049.6,768.7],[1051.7,738.9],[1050,716.3],[1052.8,711],[1041.8,671.3],[1039.4,654.5],[1008.3,622.3],[977.2,590.1],[972.5,556.7],[968.3,526.1],[969.6,525.9],[1000.3,522.3],[1025,524.4],[1071.1,513.3],[1071.1,513.3],[1121.4,525.6],[1146,498.2],[1155.8,491.7],[1165.6,485.2],[1195.7,441.8],[1225.4,394],[1239.4,326.3],[1242.6,291.2],[1241,258.2],[1213.5,221.1],[1169.1,178.5],[1150.4,175.6],[1158.9,137.3],[1167.4,99],[1141.3,100.9],[1128.4,106.7],[1092.8,134.2],[1050.8,151.3],[1019.6,160.6],[994.3,163.7],[974.7,169.5],[956.3,180.6],[917.5,214.8],[854.2,262.6],[854.2,262.6],[823.1,319.6],[800.6,351],[813.4,354.4],[823.8,387.5],[823.8,387.5],[834.2,420.6],[834.2,420.6],[877.5,461.5],[877.5,461.5],[877,484.9],[877,484.9],[897.1,538.3],[897.1,538.3],[929.8,599.8],[929.8,599.8],[957.3,608.5],[980,630.7],[914.9,666.2],[881.6,715.6],[851,756.1],[820.4,796.6],[736.7,809.9],[783,841.8],[740.9,830.5],[699.9,804.8],[678.8,822.2],[630.3,816.9],[644.4,830.1],[626.7,829.4],[685.4,777.4],[685.4,777.4],[723.1,733.1],[777.8,730.6],[777.8,730.6],[761.1,710.8],[868.8,688.8],[975,662.7],[1064,636.6],[1116.5,627.8],[1216,591.1],[1258.5,579.3],[1221.5,614.5],[1184.7,645],[1295.6,627.9],[1402.9,629.8],[1423.4,655.1],[1450.5,665.7],[1470.9,665.9],[1527.8,648.8],[1602.9,651.1],[1731.9,617.3],[1836.6,566],[1962.1,511.7],[1898.3,526.6],[1815.9,521.7],[1759.3,497.3],[1724.9,500.2],[1729.6,492.8],[1729.6,492.8],[1696.4,483.9],[1696.4,483.9],[1601.8,477.8],[1536.9,481.9],[1499.1,487],[1432.5,500.6],[1419.7,483.1],[1425.5,485.4],[1467.7,477.7],[1481.1,457.4],[1429.4,471.2],[1415.6,486.5],[1398.9,487.7],[1393.3,508.4],[1397.3,497.9],[1430.1,478.9],[1453,439.9],[1475.9,400.9],[1466.3,390.2],[1456.7,379.5],[1511.3,362.9],[1565.9,346.3],[1565.9,346.3],[1602.1,336.9],[1524.5,316.6],[1437.3,327.5],[1350.1,338.4],[1276.7,325.9],[1200.2,337.7],[1127.8,348.2],[1032,345.1],[931.7,330.6],[834.4,313.6],[757.4,315.5],[745.6,300.2],[730.7,301.2],[700.1,290.3],[651.5,310.4],[644,299.8],[633.6,289.8],[615.2,301.6],[570.1,315.1],[536.9,312.8],[536.9,312.8],[474.4,317.7],[455.4,327],[443.5,317.6],[460,317.2],[495.1,332.1],[502.2,328.5],[480.2,323.6],[518.6,342.6],[589.7,354.5],[647,356],[731.3,353.5],[783.1,355.4],[856.4,368.6],[904.4,373.1],[949.3,416.1],[996.3,502.7],[1067,578],[1108.7,621.2],[1146,662.9],[1183.6,736.3],[1217.1,779.6],[1217.1,779.6],[1258.9,827.4],[1258.9,827.4],[1284.6,848.2],[1284.6,848.2],[1337.5,918.9],[1358.3,919.7],[1370,891],[1370,891],[1384.9,861.7],[1384.9,861.7],[1395.3,839.6],[1408,824.4],[1415.6,794.1],[1430.6,778.7],[1438.7,726.3],[1437.4,692],[1427,614.1],[1432.4,558],[1439.4,506.5],[1446.7,456.8],[1452.9,437.1],[1455.2,417.4],[1458.8,405],[1458.8,405],[1467.2,393],[1474.1,425.4],[1477.7,441.6],[1475.8,463.1],[1479.5,467.2],[1478,481.5],[1480.8,506.6],[1485.1,492.3],[1489.4,478],[1496.3,476.5],[1498.4,465.5],[1500.5,443.4],[1503.8,441.5],[1504.9,454.5],[1503.2,483.2],[1502.1,507.9],[1490.7,517.9],[1489.2,520.9],[1491.2,522.1],[1493,515.3],[1489.5,515.2],[1486,515.1],[1483,534.9],[1476.1,507.9],[1483.1,461.9],[1490.1,415.9],[1510.4,394.8],[1524.9,382.9],[1517.5,383.3],[1510.1,383.7],[1513.7,393.5],[1507.1,400.9],[1502.1,384.4],[1476.2,413.1],[1433.6,462.5],[1343.5,530.9],[1241.7,540.4],[1229,532.3],[1197.1,532],[1173.8,518.6],[1124.6,525.4],[1108.3,520.9],[1092.5,526.7],[1114.3,496.6],[1136.6,476.6],[1207.4,443.8],[1218.6,429.7],[1141.9,427],[1110.4,413.5],[1074.8,407],[1060.6,388.9],[1019.8,384.3],[1002.4,353.8],[982.1,339.6],[956.8,353.2],[930.5,360.6],[968.2,387.2],[1007,389.4],[1007,389.4],[1000,392.5],[1049.4,412.1],[1116.3,408.4],[1151.7,398.6],[1151.7,398.6],[1195.3,396.2],[1234.1,414.4],[1257.1,420.7],[1279.1,383.6],[1270.9,342.5],[1277.4,356.4],[1349.3,345.9],[1361.6,328.3],[1370.4,301.7],[1414.6,281.4],[1393,291.4],[1368.5,287.1],[1352.2,234.5],[1348.8,246.8],[1378.6,258.5],[1391.4,245.8],[1377.4,249.7],[1347.8,244.9],[1290.9,247.2],[1241.3,260.8],[1233.9,248.8],[1226.5,236.8],[1208.9,300.5],[1179.4,342.7],[1246.2,306.3],[1302,289.3],[1278.2,318.7],[1309.8,311.6],[1363.5,308.2],[1409.9,293.5],[1417.4,322.2],[1417.4,322.2],[1408.1,361.4],[1408.1,361.4],[1438.3,326.3],[1503.6,283.4],[1503.6,283.4],[1450,336.6],[1489.1,366.7],[1554.5,380.4],[1554.5,380.4],[1548.5,407.3],[1548.5,407.3],[1572.8,450.5],[1570.5,462],[1598.6,433.6],[1598.6,433.6],[1698.3,382.3],[1735.1,404.1],[1736.8,433.7],[1783.2,390.3],[1721.5,359.5],[1688.2,313.1],[1685.2,295.4],[1620.5,305.1],[1620.5,305.1],[1624.8,275.1],[1616.5,291.1],[1563.9,297.3],[1568,237.1],[1566.9,164.8],[1540.7,152.6],[1546.4,144],[1546.4,144],[1547,153.1],[1577.6,177.7],[1577.6,177.7],[1611.3,114.7],[1602.4,147],[1593.3,142],[1595.1,126],[1560.4,153.9],[1514.9,195.3],[1475.3,232.9],[1444.1,259.2],[1442.5,252.8],[1426.7,187.2],[1415.9,185.7],[1407,166.8],[1407.6,166.2],[1378,183.3],[1373.9,170.7],[1355.8,191.5],[1331.8,216.1],[1320.9,203.2],[1308.8,193],[1288.2,222],[1280.9,236.7],[1271.9,244.9],[1267.4,224.6],[1271.7,219.8],[1273.3,232.5],[1306.8,207.4],[1340.3,182.3],[1379.7,210.8],[1420.3,236.6],[1401.4,244.4],[1368.1,256.4],[1366.7,284.6],[1364.1,314.3],[1346.7,310.6],[1336.8,288.9],[1318.1,262.3],[1325.6,269],[1290.5,248.3],[1245.9,215.2],[1292.9,211.3],[1346.9,220.4],[1316.2,213.5],[1285.5,206.6],[1291.8,250.1],[1293.5,286.6],[1301.9,338.5],[1260.1,358.6],[1212.8,378.8],[1164.6,405.9],[1119.1,425.5],[1081,427.9],[1103.7,434.9],[1126.4,441.9],[1115.5,435.7],[1104.4,437],[1150.3,426.8],[1223.2,420.8],[1254.5,417.2],[1296.2,419.1],[1305.4,428.5],[1329.9,457],[1295.1,465.4],[1295.1,465.4],[1260.3,473.8],[1263.9,479.7],[1247.6,477.3],[1173,474.3],[1089.9,472],[1067.7,478.4],[1041.4,483.7],[1041.4,483.7],[1026.8,476.3],[995.7,440.4],[1069.9,412.3],[1155.3,382.3],[1174.2,373.3],[1215.2,344.5],[1286.3,331.6],[1383.9,292.8],[1440.3,256.1],[1482.7,229.3],[1509.5,210.1],[1537.5,200.3],[1522.6,196.4],[1522.6,196.4],[1496.5,194.4],[1496.5,194.4],[1517,160.6],[1517,160.6],[1468,214.3],[1468,214.3],[1389.9,251.2],[1389.9,251.2],[1333.4,282.8],[1333.4,282.8],[1313.7,292.9],[1307.5,330.8],[1271.3,386.2],[1235.1,441.6],[1189.1,492.9],[1143.1,544.2],[1114.3,595.1],[1151.4,556.8],[1174.7,527.8],[1155.4,523.6],[1119.7,524.3],[1080.3,492],[1118.4,444],[1156.5,396],[1191.5,374.5],[1228.5,339.2],[1209.4,308.3],[1176.4,299],[1157.7,331.1],[1140.5,354.3],[1143.4,399.6],[1154.6,441.3],[1117.8,440.3],[1044.7,533.5],[966.9,570.3],[930.5,627.6],[979,639],[1042.8,658.6],[1007.9,685.8],[965.6,720.8],[1006.9,717.6],[1048.2,714.4],[1047.1,729.5],[1099.3,669.9],[1147.8,637.3],[1150.3,561.2],[1105.9,567.3],[1061.5,573.4],[1110,509.2],[1164.4,446.1],[1111.4,416.5],[1079.7,369.8],[1063,380.8],[1023.7,363.8],[1014.5,349.6],[1010.1,365],[999.5,349.6],[992.4,329.6],[991.1,327.1]]","[0,0.5333]","[0.5333,0.5333]","[-0.5333,0]","[-0.5333,-0.5333]","[0,0]","[0.5333,0]","[0,-0.5333]","[0.5333,-0.5333]",0,0,0,0,1,3,Monitor,11,9,9,1
