inst1_resp.keys,inst1_resp.rt,calibrationMouse.x,calibrationMouse.y,calibrationMouse.leftButton,calibrationMouse.midButton,calibrationMouse.rightButton,calibrationClick.x,calibrationClick.y,calibrationClick.leftButton,calibrationClick.midButton,calibrationClick.rightButton,calibrationClick.clicked_name,trialsc.thisRepN,trialsc.thisTrialN,trialsc.thisN,trialsc.thisIndex,trialsc.ran,calibration_x,calibration_y,participant,session,date,expName,psychopyVersion,OS,frameRate,ScreenRes_pixels,Camera_pixels,mouse_2.x,mouse_2.y,mouse_2.leftButton,mouse_2.midButton,mouse_2.rightButton,mouse_2.time,mouse_2.clicked_name,mouse.x,mouse.y,mouse.leftButton,mouse.midButton,mouse.rightButton,mouse.time,mouse.clicked_name,Choice,Trial,TrialDuration,MOUSE_GAZE,ET_GAZE,ET_GAZE_x_T,time,unixTime,ET_GAZE_NF,Loc_Option1_label,Loc_Option2_label,Loc_Cost_label,Loc_Qual_label,Loc_Option1_cost,Loc_Option2_cost,Loc_Option1_quality,Loc_Option2_quality,trials.thisRepN,trials.thisTrialN,trials.thisN,trials.thisIndex,trials.ran,Block,Device,cost1,qual1,cost2,qual2
space,1.9479,0.533333333,-0.181481481,1,0,0,-0.007291667,0.009259259,1,0,0,calibration_square,0,0,0,11,1,0,0,03,001,2024-11-28_14h32.32.737,Attention_exp_legacy,2023.1.0,Win32,60.24096386,,,,,,,,,,,,,,,,,,,,,,,,,,,,,,,,,,,,,,,,,,,,
,,,,,,,-0.670833333,-0.325925926,1,0,0,calibration_square,0,1,1,1,1,-0.67,-0.33,03,001,2024-11-28_14h32.32.737,Attention_exp_legacy,2023.1.0,Win32,60.24096386,,,,,,,,,,,,,,,,,,,,,,,,,,,,,,,,,,,,,,,,,,,,
,,,,,,,-0.335416667,-0.666666667,1,0,0,calibration_square,0,2,2,4,1,-0.33,-0.67,03,001,2024-11-28_14h32.32.737,Attention_exp_legacy,2023.1.0,Win32,60.24096386,,,,,,,,,,,,,,,,,,,,,,,,,,,,,,,,,,,,,,,,,,,,
,,,,,,,-0.328125,0.677777778,1,0,0,calibration_square,0,3,3,8,1,-0.33,0.67,03,001,2024-11-28_14h32.32.737,Attention_exp_legacy,2023.1.0,Win32,60.24096386,,,,,,,,,,,,,,,,,,,,,,,,,,,,,,,,,,,,,,,,,,,,
,,,,,,,-0.008333333,0.672222222,1,0,0,calibration_square,0,4,4,13,1,0,0.67,03,001,2024-11-28_14h32.32.737,Attention_exp_legacy,2023.1.0,Win32,60.24096386,,,,,,,,,,,,,,,,,,,,,,,,,,,,,,,,,,,,,,,,,,,,
,,,,,,,0.001041667,0.342592593,1,0,0,,0,5,5,12,1,0,0.33,03,001,2024-11-28_14h32.32.737,Attention_exp_legacy,2023.1.0,Win32,60.24096386,,,,,,,,,,,,,,,,,,,,,,,,,,,,,,,,,,,,,,,,,,,,
,,,,,,,-0.339583333,0.014814815,1,0,0,,0,6,6,6,1,-0.33,0,03,001,2024-11-28_14h32.32.737,Attention_exp_legacy,2023.1.0,Win32,60.24096386,,,,,,,,,,,,,,,,,,,,,,,,,,,,,,,,,,,,,,,,,,,,
,,,,,,,0.322916667,0.674074074,1,0,0,calibration_square,0,7,7,18,1,0.33,0.67,03,001,2024-11-28_14h32.32.737,Attention_exp_legacy,2023.1.0,Win32,60.24096386,,,,,,,,,,,,,,,,,,,,,,,,,,,,,,,,,,,,,,,,,,,,
,,,,,,,0.330208333,0.32962963,1,0,0,calibration_square,0,8,8,17,1,0.33,0.33,03,001,2024-11-28_14h32.32.737,Attention_exp_legacy,2023.1.0,Win32,60.24096386,,,,,,,,,,,,,,,,,,,,,,,,,,,,,,,,,,,,,,,,,,,,
,,,,,,,-0.680208333,-0.67962963,1,0,0,,0,9,9,0,1,-0.67,-0.67,03,001,2024-11-28_14h32.32.737,Attention_exp_legacy,2023.1.0,Win32,60.24096386,,,,,,,,,,,,,,,,,,,,,,,,,,,,,,,,,,,,,,,,,,,,
,,,,,,,0.330208333,0.001851852,1,0,0,calibration_square,0,10,10,16,1,0.33,0,03,001,2024-11-28_14h32.32.737,Attention_exp_legacy,2023.1.0,Win32,60.24096386,,,,,,,,,,,,,,,,,,,,,,,,,,,,,,,,,,,,,,,,,,,,
,,,,,,,-0.321875,-0.335185185,1,0,0,calibration_square,0,11,11,5,1,-0.33,-0.33,03,001,2024-11-28_14h32.32.737,Attention_exp_legacy,2023.1.0,Win32,60.24096386,,,,,,,,,,,,,,,,,,,,,,,,,,,,,,,,,,,,,,,,,,,,
,,,,,,,-0.661458333,0.007407407,1,0,0,calibration_square,0,12,12,2,1,-0.67,0,03,001,2024-11-28_14h32.32.737,Attention_exp_legacy,2023.1.0,Win32,60.24096386,,,,,,,,,,,,,,,,,,,,,,,,,,,,,,,,,,,,,,,,,,,,
,,,,,,,0.673958333,0.668518519,1,0,0,calibration_square,0,13,13,19,1,0.67,0.67,03,001,2024-11-28_14h32.32.737,Attention_exp_legacy,2023.1.0,Win32,60.24096386,,,,,,,,,,,,,,,,,,,,,,,,,,,,,,,,,,,,,,,,,,,,
,,,,,,,0.33125,-0.668518519,1,0,0,calibration_square,0,14,14,14,1,0.33,-0.67,03,001,2024-11-28_14h32.32.737,Attention_exp_legacy,2023.1.0,Win32,60.24096386,,,,,,,,,,,,,,,,,,,,,,,,,,,,,,,,,,,,,,,,,,,,
,,,,,,,0.334375,-0.32037037,1,0,0,calibration_square,0,15,15,15,1,0.33,-0.33,03,001,2024-11-28_14h32.32.737,Attention_exp_legacy,2023.1.0,Win32,60.24096386,,,,,,,,,,,,,,,,,,,,,,,,,,,,,,,,,,,,,,,,,,,,
,,,,,,,-0.672916667,0.327777778,1,0,0,calibration_square,0,16,16,3,1,-0.67,0.33,03,001,2024-11-28_14h32.32.737,Attention_exp_legacy,2023.1.0,Win32,60.24096386,,,,,,,,,,,,,,,,,,,,,,,,,,,,,,,,,,,,,,,,,,,,
,,,,,,,-0.013541667,-0.661111111,1,0,0,,0,17,17,9,1,0,-0.67,03,001,2024-11-28_14h32.32.737,Attention_exp_legacy,2023.1.0,Win32,60.24096386,,,,,,,,,,,,,,,,,,,,,,,,,,,,,,,,,,,,,,,,,,,,
,,,,,,,-0.001041667,-0.338888889,1,0,0,calibration_square,0,18,18,10,1,0,-0.33,03,001,2024-11-28_14h32.32.737,Attention_exp_legacy,2023.1.0,Win32,60.24096386,,,,,,,,,,,,,,,,,,,,,,,,,,,,,,,,,,,,,,,,,,,,
,,,,,,,-0.319791667,0.333333333,1,0,0,,0,19,19,7,1,-0.33,0.33,03,001,2024-11-28_14h32.32.737,Attention_exp_legacy,2023.1.0,Win32,60.24096386,,,,,,,,,,,,,,,,,,,,,,,,,,,,,,,,,,,,,,,,,,,,
,,,,,,,0.678125,-0.659259259,1,0,0,,0,20,20,20,1,0.67,-0.67,03,001,2024-11-28_14h32.32.737,Attention_exp_legacy,2023.1.0,Win32,60.24096386,,,,,,,,,,,,,,,,,,,,,,,,,,,,,,,,,,,,,,,,,,,,
,,,,,,,,,,,,,,,,,,,,03,001,2024-11-28_14h32.32.737,Attention_exp_legacy,2023.1.0,Win32,60.24096386,"[1920,1080]","[640,480]",[-0.030208333333333334],[-0.4759259259259259],[1],[0],[0],[1.0850000000000009],"[""StartButton""]",[0.023958333333333335],[0.1574074074074074],[1],[0],[0],[2.2377999999821157],"[""Option1_label""]",Option1_label,1,3.257,"[[0.013541666666666667,0.08333333333333333],[0.013541666666666667,0.07592592592592592],[0.013541666666666667,0.07592592592592592],[0.013541666666666667,0.07407407407407407],[0.013541666666666667,0.07037037037037037],[0.013541666666666667,0.06851851851851852],[0.013541666666666667,0.06481481481481481],[0.013541666666666667,0.06481481481481481],[0.013541666666666667,0.06481481481481481],[0.013541666666666667,0.06481481481481481],[0.013541666666666667,0.06481481481481481],[0.013541666666666667,0.06481481481481481],[0.013541666666666667,0.06481481481481481],[0.013541666666666667,0.06481481481481481],[0.014583333333333334,0.06481481481481481],[0.014583333333333334,0.06481481481481481],[0.014583333333333334,0.06481481481481481],[0.014583333333333334,0.05925925925925926],[0.020833333333333332,0.046296296296296294],[0.021875,0.04259259259259259],[0.03125,0.025925925925925925],[0.036458333333333336,0.016666666666666666],[0.042708333333333334,0],[0.05,-0.022222222222222223],[0.053125,-0.03333333333333333],[0.05520833333333333,-0.044444444444444446],[0.05625,-0.05],[0.05625,-0.05185185185185185],[0.05625,-0.05185185185185185],[0.05625,-0.05555555555555555],[0.05625,-0.05555555555555555],[0.05625,-0.05740740740740741],[0.05520833333333333,-0.05740740740740741],[0.05,-0.05740740740740741],[0.041666666666666664,-0.05740740740740741],[0.03229166666666667,-0.05185185185185185],[0.027083333333333334,-0.046296296296296294],[0.026041666666666668,-0.03333333333333333],[0.026041666666666668,-0.016666666666666666],[0.028125,0.001851851851851852],[0.042708333333333334,0.025925925925925925],[0.078125,0.06296296296296296],[0.10104166666666667,0.09074074074074075],[0.11041666666666666,0.0962962962962963],[0.12083333333333333,0.1111111111111111],[0.12395833333333334,0.11666666666666667],[0.12395833333333334,0.11851851851851852],[0.128125,0.12962962962962962],[0.13125,0.13703703703703704],[0.134375,0.14444444444444443],[0.13645833333333332,0.14814814814814814],[0.13958333333333334,0.1537037037037037],[0.14375,0.16296296296296298],[0.146875,0.16666666666666666],[0.15,0.17037037037037037],[0.15,0.17037037037037037],[0.15,0.17037037037037037],[0.15,0.17037037037037037],[0.15,0.17037037037037037],[0.15,0.17037037037037037],[0.15,0.17037037037037037],[0.15,0.17037037037037037],[0.15,0.17037037037037037],[0.15,0.17037037037037037],[0.15,0.17037037037037037],[0.15,0.17037037037037037],[0.15,0.17037037037037037],[0.15,0.17037037037037037],[0.15,0.17037037037037037],[0.15,0.17037037037037037],[0.15,0.17037037037037037],[0.15,0.17037037037037037],[0.15,0.17037037037037037],[0.15,0.17037037037037037],[0.15,0.17037037037037037],[0.15,0.17037037037037037],[0.15,0.17037037037037037],[0.15,0.17037037037037037],[0.15,0.17037037037037037],[0.15,0.17037037037037037],[0.15,0.17037037037037037],[0.15,0.17037037037037037],[0.14375,0.17037037037037037],[0.13125,0.17037037037037037],[0.11875,0.17037037037037037],[0.109375,0.17037037037037037],[0.1,0.17222222222222222],[0.090625,0.17592592592592593],[0.08020833333333334,0.17962962962962964],[0.07708333333333334,0.1814814814814815],[0.07604166666666666,0.18333333333333332],[0.07395833333333333,0.18333333333333332],[0.07395833333333333,0.18333333333333332],[0.07083333333333333,0.18518518518518517],[0.06875,0.18518518518518517],[0.06770833333333333,0.18518518518518517],[0.06770833333333333,0.18518518518518517],[0.06770833333333333,0.18518518518518517],[0.06770833333333333,0.18518518518518517],[0.06770833333333333,0.18518518518518517],[0.06770833333333333,0.18518518518518517],[0.06458333333333334,0.18518518518518517],[0.06145833333333333,0.18518518518518517],[0.059375,0.18518518518518517],[0.051041666666666666,0.17777777777777778],[0.036458333333333336,0.1685185185185185],[0.026041666666666668,0.15925925925925927],[0.023958333333333335,0.1574074074074074],[0.023958333333333335,0.1574074074074074],[0.023958333333333335,0.1574074074074074],[0.023958333333333335,0.1574074074074074],[0.023958333333333335,0.1574074074074074],[0.023958333333333335,0.1574074074074074],[0.023958333333333335,0.1574074074074074],[0.023958333333333335,0.1574074074074074],[0.023958333333333335,0.1574074074074074],[0.023958333333333335,0.1574074074074074],[0.023958333333333335,0.1574074074074074],[0.023958333333333335,0.1574074074074074],[0.023958333333333335,0.1574074074074074],[0.023958333333333335,0.1574074074074074],[0.023958333333333335,0.1574074074074074],[0.023958333333333335,0.1574074074074074],[0.023958333333333335,0.1574074074074074],[0.023958333333333335,0.1574074074074074],[0.023958333333333335,0.1574074074074074],[0.023958333333333335,0.1574074074074074],[0.023958333333333335,0.1574074074074074],[0.023958333333333335,0.1574074074074074],[0.023958333333333335,0.1574074074074074],[0.023958333333333335,0.1574074074074074],[0.023958333333333335,0.1574074074074074],[0.023958333333333335,0.1574074074074074],[0.023958333333333335,0.1574074074074074],[0.023958333333333335,0.1574074074074074],[0.023958333333333335,0.1574074074074074],[0.023958333333333335,0.1574074074074074],[0.023958333333333335,0.1574074074074074],[0.023958333333333335,0.1574074074074074],[0.023958333333333335,0.1574074074074074],[0.023958333333333335,0.1574074074074074],[0.023958333333333335,0.1574074074074074],[0.023958333333333335,0.1574074074074074],[0.023958333333333335,0.1574074074074074],[0.023958333333333335,0.1574074074074074],[0.023958333333333335,0.1574074074074074],[0.023958333333333335,0.1574074074074074],[0.023958333333333335,0.1574074074074074],[0.023958333333333335,0.1574074074074074],[0.023958333333333335,0.1574074074074074],[0.023958333333333335,0.1574074074074074],[0.023958333333333335,0.1574074074074074],[0.023958333333333335,0.1574074074074074],[0.023958333333333335,0.1574074074074074],[0.023958333333333335,0.1574074074074074],[0.023958333333333335,0.1574074074074074],[0.023958333333333335,0.1574074074074074],[0.023958333333333335,0.1574074074074074],[0.023958333333333335,0.1574074074074074],[0.023958333333333335,0.1574074074074074],[0.023958333333333335,0.1574074074074074],[0.023958333333333335,0.1574074074074074],[0.023958333333333335,0.1574074074074074],[0.023958333333333335,0.1574074074074074],[0.023958333333333335,0.1574074074074074],[0.023958333333333335,0.1574074074074074],[0.023958333333333335,0.1574074074074074],[0.023958333333333335,0.1574074074074074],[0.023958333333333335,0.1574074074074074],[0.023958333333333335,0.1574074074074074],[0.023958333333333335,0.1574074074074074],[0.023958333333333335,0.1574074074074074],[0.023958333333333335,0.1574074074074074],[0.023958333333333335,0.1574074074074074],[0.023958333333333335,0.1574074074074074],[0.023958333333333335,0.1574074074074074],[0.023958333333333335,0.1574074074074074],[0.023958333333333335,0.1574074074074074],[0.023958333333333335,0.1574074074074074],[0.023958333333333335,0.1574074074074074],[0.023958333333333335,0.1574074074074074],[0.023958333333333335,0.1574074074074074],[0.023958333333333335,0.1574074074074074],[0.023958333333333335,0.1574074074074074],[0.023958333333333335,0.1574074074074074],[0.023958333333333335,0.1574074074074074],[0.023958333333333335,0.1574074074074074],[0.023958333333333335,0.1574074074074074],[0.023958333333333335,0.1574074074074074],[0.023958333333333335,0.1574074074074074],[0.023958333333333335,0.1574074074074074],[0.023958333333333335,0.1574074074074074],[0.023958333333333335,0.1574074074074074],[0.023958333333333335,0.1574074074074074],[0.023958333333333335,0.1574074074074074],[0.023958333333333335,0.1574074074074074]]","[[-0.011249999999999953,0.01629629629629621],[-0.011249999999999953,0.01629629629629621],[-0.008645833333333287,0.020740740740740823],[0.003541666666666643,0.036666666666666584],[-0.0010416666666666667,0.05],[-0.014374999999999952,0.05611111111111103],[-0.007395833333333357,0.06333333333333342],[-0.019895833333333356,0.07444444444444454],[-0.019895833333333356,0.07444444444444454],[-0.021875,0.057037037037036956],[-0.021875,0.057037037037036956],[0.0010416666666666667,0.050370370370370454],[-0.0007291666666667141,0.02833333333333325],[-0.002499999999999976,0.006296296296296254],[-0.01416666666666669,0.000925925925925926],[-0.01906249999999995,-0.0242592592592593],[-0.009791666666666643,-0.02814814814814823],[0.003958333333333286,-0.027037037037037078],[0.0020833333333333333,-0.035740740740740656],[0.018229166666666668,-0.07018518518518514],[0.033958333333333354,-0.04129629629629621],[0.033958333333333354,-0.04129629629629621],[0.02010416666666662,-0.03777777777777774],[0.03218749999999997,-0.018148148148148063],[0.0265625,-0.05333333333333336],[0.0265625,-0.05333333333333336],[0.027395833333333286,-0.08148148148148149],[0.02177083333333331,-0.08148148148148149],[0.011770833333333286,-0.07314814814814814],[0.013125000000000024,-0.06259259259259262],[0.01875,-0.047037037037036995],[0.01583333333333338,-0.006481481481481481],[0.0018749999999999527,0.002407407407407323],[0.013125000000000024,0.009444444444444486],[0.017083333333333308,-0.007407407407407408],[0.03687499999999998,0.04407407407407399],[0.03687499999999998,0.04407407407407399],[0.04895833333333333,0.08259259259259263],[0.05479166666666669,0.08907407407407411],[0.06156250000000003,0.062407407407407495],[0.051874999999999956,0.045740740740740825],[0.04354166666666662,0.03425925925925926],[0.050729166666666714,0.025370370370370456],[0.050729166666666714,0.025370370370370456],[0.05927083333333331,-0.004629629629629629],[0.06270833333333338,0.014074074074074116],[0.05135416666666662,-0.024629629629629547],[0.049374999999999974,-0.0418518518518519],[0.058124999999999954,-0.08796296296296297],[0.07197916666666657,-0.10407407407407405],[0.08499999999999991,-0.07185185185185188],[0.07958333333333342,-0.08870370370370366],[0.06749999999999995,-0.1427777777777778],[0.05614583333333331,-0.20333333333333337],[0.06843750000000005,-0.2192592592592592],[0.08833333333333329,-0.21222222222222226],[0.11395833333333343,-0.14685185185185187],[0.14187500000000006,-0.1346296296296296],[0.1538541666666667,-0.1051851851851852],[0.15427083333333325,-0.08296296296296299],[0.16552083333333342,-0.10166666666666663],[0.20031249999999995,-0.08351851851851856],[0.23947916666666677,-0.03166666666666671],[0.2626041666666666,-0.004074074074074159],[0.24677083333333344,0.0235185185185186],[0.21604166666666677,-0.004814814814814857],[0.203125,-0.024629629629629547],[0.1912499999999999,-0.013518518518518435],[0.1912499999999999,-0.013518518518518435],[0.1892708333333334,0.015000000000000043],[0.19072916666666656,0.008148148148148106],[0.19072916666666656,0.008148148148148106],[0.17822916666666658,0.0025925925925925505],[0.1740624999999999,0.030000000000000086],[0.16479166666666673,0.05740740740740741],[0.13052083333333328,0.06481481481481481],[0.12322916666666663,0.07037037037037037],[0.10583333333333324,0.05722222222222218],[0.07114583333333328,0.04092592592592597],[0.04020833333333336,0.01962962962962967],[0.013020833333333334,-0.013333333333333417],[-0.0046875,-0.007407407407407408],[-0.022395833333333334,-0.0014814814814813973],[-0.052083333333333336,-0.019999999999999917],[-0.07437499999999998,-0.034999999999999955],[-0.06333333333333328,-0.03759259259259251],[-0.06906249999999996,-0.04222222222222214],[-0.04364583333333331,-0.04537037037037037],[-0.01739583333333338,-0.04333333333333329],[-0.005729166666666666,-0.049074074074074076],[-0.005729166666666666,-0.049074074074074076],[0.013541666666666667,-0.04814814814814815],[0.013541666666666667,-0.04814814814814815],[0.02802083333333331,-0.06555555555555552],[0.0109375,-0.06722222222222224],[0.000833333333333286,-0.0787037037037037],[0.003541666666666643,-0.10499999999999998],[-0.0020833333333333333,-0.12370370370370372],[0.004791666666666691,-0.1522222222222222],[-0.0046875,-0.15999999999999995],[-0.013125000000000024,-0.17759259259259255],[-0.029270833333333357,-0.18574074074074076],[-0.03812500000000003,-0.1985185185185185],[-0.05260416666666667,-0.1977777777777778],[-0.035520833333333356,-0.21277777777777773],[-0.01739583333333338,-0.2257407407407407],[-0.012083333333333357,-0.22388888888888886],[-0.008749999999999977,-0.2368518518518518],[-0.008645833333333287,-0.23277777777777775],[-0.008541666666666715,-0.22870370370370371],[-0.004999999999999952,-0.21722222222222223],[0.00625,-0.21518518518518517],[-0.009062500000000048,-0.2051851851851852],[-0.009062500000000048,-0.2051851851851852],[0.0016666666666666904,-0.21592592592592597],[0.0015625,-0.17629629629629628],[-0.005208333333333333,-0.1633333333333333],[-0.010208333333333286,-0.14648148148148152],[-0.027187500000000024,-0.1255555555555556],[-0.04583333333333333,-0.11870370370370374],[-0.04239583333333338,-0.12259259259259257],[-0.04041666666666662,-0.11740740740740736],[-0.03979166666666671,-0.11333333333333331],[-0.019687499999999976,-0.11055555555555553],[-0.0296875,-0.08537037037037042],[-0.0296875,-0.08537037037037042],[-0.019166666666666644,-0.11703703703703702],[0.00010416666666669035,-0.11333333333333331],[0.00010416666666669035,-0.11333333333333331],[0.017604166666666643,-0.11351851851851855],[0.06458333333333334,-0.12685185185185185],[0.06458333333333334,-0.12685185185185185],[0.10572916666666667,-0.12611111111111115],[0.12479166666666662,-0.11462962962962958],[0.1321875000000001,-0.1111111111111111],[0.14093749999999997,-0.10648148148148148],[0.13791666666666677,-0.12240740740740745],[0.13791666666666677,-0.12240740740740745],[0.15895833333333323,-0.10777777777777775],[0.1580208333333334,-0.12518518518518523],[0.16989583333333325,-0.15537037037037033],[0.17197916666666657,-0.1935185185185185],[0.17197916666666657,-0.1935185185185185],[0.15145833333333342,-0.19462962962962968],[0.13333333333333333,-0.18796296296296297],[0.11729166666666657,-0.19759259259259257],[0.1125,-0.21333333333333332],[0.11031250000000009,-0.2074074074074074],[0.11229166666666662,-0.19574074074074072],[0.11229166666666662,-0.19574074074074072],[0.08760416666666657,-0.21074074074074076],[0.09072916666666657,-0.182962962962963],[0.08510416666666672,-0.13907407407407413],[0.07364583333333338,-0.11722222222222224],[0.0740624999999999,-0.10462962962962963],[0.07364583333333338,-0.10388888888888893],[0.07145833333333323,-0.08777777777777773],[0.07145833333333323,-0.08777777777777773],[0.06895833333333339,-0.06888888888888887],[0.0796875,-0.06111111111111111],[0.07520833333333338,-0.06111111111111111],[0.07520833333333338,-0.06111111111111111],[0.08729166666666661,-0.06444444444444447],[0.08729166666666661,-0.05259259259259255],[0.0678124999999999,-0.05796296296296299],[0.05625,-0.02629629629629638],[0.05625,-0.02629629629629638],[0.03875000000000005,-0.009999999999999959],[0.027187500000000024,0.012777777777777735],[0.015312500000000047,0.036481481481481566],[0.00010416666666669035,0.07592592592592592],[0.00010416666666669035,0.07592592592592592],[-0.02385416666666664,0.058703703703703786],[-0.02385416666666664,0.058703703703703786],[-0.03187500000000002,0.07981481481481485],[-0.03187500000000002,0.07981481481481485],[-0.042604166666666644,0.08444444444444449],[-0.042604166666666644,0.08444444444444449],[-0.06072916666666662,0.07166666666666675],[-0.06072916666666662,0.07166666666666675],[-0.06468750000000002,0.06074074074074066],[-0.06468750000000002,0.06074074074074066],[-0.0609375,0.04277777777777782],[-0.0609375,0.04277777777777782],[-0.05,0.05129629629629638],[-0.04031250000000005,0.040740740740740744],[-0.04468749999999998,0.01777777777777782],[-0.03302083333333338,-0.012407407407407492],[-0.03302083333333338,-0.012407407407407492],[-0.03291666666666669,0],[-0.03291666666666669,0],[-0.02687499999999995,-0.009629629629629714],[-0.0265625,-0.00851851851851856],[-0.01593749999999995,-0.022037037037036994],[-0.025312499999999953,-0.03314814814814811],[-0.034687499999999954,-0.04425925925925922]]","[[-0.011249999999999953,0.01629629629629621,0.0001999999880837322],[-0.011249999999999953,0.01629629629629621,0.03650000000000375],[-0.008645833333333287,0.020740740740740823,0.04119999998808055],[0.003541666666666643,0.036666666666666584,0.057699999988081174],[-0.0010416666666666667,0.05,0.07459999999404232],[-0.014374999999999952,0.05611111111111103,0.0949000000059641],[-0.007395833333333357,0.06333333333333342,0.11080000001192047],[-0.019895833333333356,0.07444444444444454,0.12950000000000017],[-0.019895833333333356,0.07444444444444454,0.14050000000000296],[-0.021875,0.057037037037036956,0.15700000000000358],[-0.021875,0.057037037037036956,0.17369999998808083],[0.0010416666666666667,0.050370370370370454,0.1905000000000001],[-0.0007291666666667141,0.02833333333333325,0.20780000001192178],[-0.002499999999999976,0.006296296296296254,0.223699999988078],[-0.01416666666666669,0.000925925925925926,0.2450999999940393],[-0.01906249999999995,-0.0242592592592593,0.26019999998808174],[-0.009791666666666643,-0.02814814814814823,0.2759000000059615],[0.003958333333333286,-0.027037037037037078,0.29559999999403885],[0.0020833333333333333,-0.035740740740740656,0.3111999999880837],[0.018229166666666668,-0.07018518518518514,0.3270000000000053],[0.033958333333333354,-0.04129629629629621,0.3456999999880779],[0.033958333333333354,-0.04129629629629621,0.35740000000595984],[0.02010416666666662,-0.03777777777777774,0.37400000000000233],[0.03218749999999997,-0.018148148148148063,0.3918000000119264],[0.0265625,-0.05333333333333336,0.4123000000119248],[0.0265625,-0.05333333333333336,0.42380000001192286],[0.027395833333333286,-0.08148148148148149,0.44069999998808385],[0.02177083333333331,-0.08148148148148149,0.4573000000119265],[0.011770833333333286,-0.07314814814814814,0.473699999988078],[0.013125000000000024,-0.06259259259259262,0.4946999999880788],[0.01875,-0.047037037037036995,0.5105999999940423],[0.01583333333333338,-0.006481481481481481,0.5260999999940381],[0.0018749999999999527,0.002407407407407323,0.5453000000119204],[0.013125000000000024,0.009444444444444486,0.5614000000059605],[0.017083333333333308,-0.007407407407407408,0.57709999999404],[0.03687499999999998,0.04407407407407399,0.5966999999880827],[0.03687499999999998,0.04407407407407399,0.6070999999940412],[0.04895833333333333,0.08259259259259263,0.6238000000119257],[0.05479166666666669,0.08907407407407411,0.6429000000059659],[0.06156250000000003,0.062407407407407495,0.661199999988078],[0.051874999999999956,0.045740740740740825,0.678199999988081],[0.04354166666666662,0.03425925925925926,0.6954000000059608],[0.050729166666666714,0.025370370370370456,0.7131999999880847],[0.050729166666666714,0.025370370370370456,0.72380000001192],[0.05927083333333331,-0.004629629629629629,0.7405999999940391],[0.06270833333333338,0.014074074074074116,0.7570999999940398],[0.05135416666666662,-0.024629629629629547,0.777000000000001],[0.049374999999999974,-0.0418518518518519,0.7930999999940411],[0.058124999999999954,-0.08796296296296297,0.8093000000119233],[0.07197916666666657,-0.10407407407407405,0.8276999999880843],[0.08499999999999991,-0.07185185185185188,0.8433000000119222],[0.07958333333333342,-0.08870370370370366,0.8576999999880783],[0.06749999999999995,-0.1427777777777778,0.8739000000059605],[0.05614583333333331,-0.20333333333333337,0.8963000000119266],[0.06843750000000005,-0.2192592592592592,0.911199999988078],[0.08833333333333329,-0.21222222222222226,0.9264000000059625],[0.11395833333333343,-0.14685185185185187,0.9426999999880792],[0.14187500000000006,-0.1346296296296296,0.9570000000000007],[0.1538541666666667,-0.1051851851851852,0.973699999988078],[0.15427083333333325,-0.08296296296296299,0.9925999999940416],[0.16552083333333342,-0.10166666666666663,1.0094000000059609],[0.20031249999999995,-0.08351851851851856,1.023900000005959],[0.23947916666666677,-0.03166666666666671,1.040300000011925],[0.2626041666666666,-0.004074074074074159,1.0570000000000022],[0.24677083333333344,0.0235185185185186,1.0740000000000052],[0.21604166666666677,-0.004814814814814857,1.091099999994043],[0.203125,-0.024629629629629547,1.1095000000000041],[0.1912499999999999,-0.013518518518518435,1.127300000011921],[0.1912499999999999,-0.013518518518518435,1.140500000000003],[0.1892708333333334,0.015000000000000043,1.1570999999940383],[0.19072916666666656,0.008148148148148106,1.178300000011923],[0.19072916666666656,0.008148148148148106,1.1904000000059654],[0.17822916666666658,0.0025925925925925505,1.2070999999940426],[0.1740624999999999,0.030000000000000086,1.223699999988078],[0.16479166666666673,0.05740740740740741,1.2434000000059626],[0.13052083333333328,0.06481481481481481,1.2596999999880794],[0.12322916666666663,0.07037037037037037,1.2768000000119244],[0.10583333333333324,0.05722222222222218,1.2941999999880807],[0.07114583333333328,0.04092592592592597,1.3108000000119233],[0.04020833333333336,0.01962962962962967,1.3260000000000005],[0.013020833333333334,-0.013333333333333417,1.3433000000119222],[-0.0046875,-0.007407407407407408,1.3598000000119228],[-0.022395833333333334,-0.0014814814814813973,1.3776999999880815],[-0.052083333333333336,-0.019999999999999917,1.3950000000000031],[-0.07437499999999998,-0.034999999999999955,1.4105999999940408],[-0.06333333333333328,-0.03759259259259251,1.42440000000596],[-0.06906249999999996,-0.04222222222222214,1.4440000000000026],[-0.04364583333333331,-0.04537037037037037,1.4594000000059637],[-0.01739583333333338,-0.04333333333333329,1.4755999999940386],[-0.005729166666666666,-0.049074074074074076,1.4975000000000023],[-0.005729166666666666,-0.049074074074074076,1.517699999988082],[0.013541666666666667,-0.04814814814814815,1.5338000000119223],[0.013541666666666667,-0.04814814814814815,1.5404000000059597],[0.02802083333333331,-0.06555555555555552,1.5596999999880836],[0.0109375,-0.06722222222222224,1.5740000000000052],[0.000833333333333286,-0.0787037037037037,1.5906999999880824],[0.003541666666666643,-0.10499999999999998,1.6069999999999993],[-0.0020833333333333333,-0.12370370370370372,1.6236999999880837],[0.004791666666666691,-0.1522222222222222,1.6403000000119263],[-0.0046875,-0.15999999999999995,1.6569000000059617],[-0.013125000000000024,-0.17759259259259255,1.673599999994039],[-0.029270833333333357,-0.18574074074074076,1.693800000011926],[-0.03812500000000003,-0.1985185185185185,1.711500000000001],[-0.05260416666666667,-0.1977777777777778,1.726900000005962],[-0.035520833333333356,-0.21277777777777773,1.7440999999940416],[-0.01739583333333338,-0.2257407407407407,1.7575000000000003],[-0.012083333333333357,-0.22388888888888886,1.7736999999880823],[-0.008749999999999977,-0.2368518518518518,1.7908000000119202],[-0.008645833333333287,-0.23277777777777775,1.8070000000000022],[-0.008541666666666715,-0.22870370370370371,1.8236999999880794],[-0.004999999999999952,-0.21722222222222223,1.8433000000119222],[0.00625,-0.21518518518518517,1.857199999988083],[-0.009062500000000048,-0.2051851851851852,1.8768000000119258],[-0.009062500000000048,-0.2051851851851852,1.890400000005961],[0.0016666666666666904,-0.21592592592592597,1.9070000000000036],[0.0015625,-0.17629629629629628,1.9236999999880808],[-0.005208333333333333,-0.1633333333333333,1.9403000000119235],[-0.010208333333333286,-0.14648148148148152,1.9570000000000007],[-0.027187500000000024,-0.1255555555555556,1.9743000000119224],[-0.04583333333333333,-0.11870370370370374,1.9904000000059625],[-0.04239583333333338,-0.12259259259259257,2.0098000000119214],[-0.04041666666666662,-0.11740740740740736,2.0236999999880823],[-0.03979166666666671,-0.11333333333333331,2.0405999999940434],[-0.019687499999999976,-0.11055555555555553,2.057000000000002],[-0.0296875,-0.08537037037037042,2.074300000011924],[-0.0296875,-0.08537037037037042,2.090400000005964],[-0.019166666666666644,-0.11703703703703702,2.107099999994041],[0.00010416666666669035,-0.11333333333333331,2.124099999994044],[0.00010416666666669035,-0.11333333333333331,2.140500000000003],[0.017604166666666643,-0.11351851851851855,2.1570000000000036],[0.06458333333333334,-0.12685185185185185,2.178400000005965],[0.06458333333333334,-0.12685185185185185,2.1905],[0.10572916666666667,-0.12611111111111115,2.2070000000000007],[0.12479166666666662,-0.11462962962962958,2.2235999999940432],[0.1321875000000001,-0.1111111111111111,2.2409999999999997],[0.14093749999999997,-0.10648148148148148,2.2570999999940398],[0.13791666666666677,-0.12240740740740745,2.2774000000059615],[0.13791666666666677,-0.12240740740740745,2.2904000000059597],[0.15895833333333323,-0.10777777777777775,2.307099999994044],[0.1580208333333334,-0.12518518518518523,2.326400000005961],[0.16989583333333325,-0.15537037037037033,2.344000000000001],[0.17197916666666657,-0.1935185185185185,2.3633000000119253],[0.17197916666666657,-0.1935185185185185,2.3736999999880837],[0.15145833333333342,-0.19462962962962968,2.390500000000003],[0.13333333333333333,-0.18796296296296297,2.4106999999880827],[0.11729166666666657,-0.19759259259259257,2.4269999999999996],[0.1125,-0.21333333333333332,2.4434000000059655],[0.11031250000000009,-0.2074074074074074,2.4570000000000007],[0.11229166666666662,-0.19574074074074072,2.4771999999880805],[0.11229166666666662,-0.19574074074074072,2.4904000000059625],[0.08760416666666657,-0.21074074074074076,2.5070999999940398],[0.09072916666666657,-0.182962962962963,2.5236999999880823],[0.08510416666666672,-0.13907407407407413,2.5435000000000016],[0.07364583333333338,-0.11722222222222224,2.5608000000119233],[0.0740624999999999,-0.10462962962962963,2.5770000000000053],[0.07364583333333338,-0.10388888888888893,2.5959000000059618],[0.07145833333333323,-0.08777777777777773,2.611099999994039],[0.07145833333333323,-0.08777777777777773,2.6236999999880837],[0.06895833333333339,-0.06888888888888887,2.6403000000119263],[0.0796875,-0.06111111111111111,2.6570000000000036],[0.07520833333333338,-0.06111111111111111,2.6765000000000043],[0.07520833333333338,-0.06111111111111111,2.6904000000059654],[0.08729166666666661,-0.06444444444444447,2.7070999999940426],[0.08729166666666661,-0.05259259259259255,2.723699999988078],[0.0678124999999999,-0.05796296296296299,2.7409999999999997],[0.05625,-0.02629629629629638,2.756900000005963],[0.05625,-0.02629629629629638,2.7736999999880823],[0.03875000000000005,-0.009999999999999959,2.7911999999880805],[0.027187500000000024,0.012777777777777735,2.808],[0.015312500000000047,0.036481481481481566,2.824199999988082],[0.00010416666666669035,0.07592592592592592,2.840400000005964],[0.00010416666666669035,0.07592592592592592,2.8569999999999993],[-0.02385416666666664,0.058703703703703786,2.8736999999880837],[-0.02385416666666664,0.058703703703703786,2.890400000005961],[-0.03187500000000002,0.07981481481481485,2.90719999998808],[-0.03187500000000002,0.07981481481481485,2.923699999988081],[-0.042604166666666644,0.08444444444444449,2.9403000000119235],[-0.042604166666666644,0.08444444444444449,2.9571999999880845],[-0.06072916666666662,0.07166666666666675,2.97380000001192],[-0.06072916666666662,0.07166666666666675,2.990599999994039],[-0.06468750000000002,0.06074074074074066,3.0070999999940398],[-0.06468750000000002,0.06074074074074066,3.0236999999880823],[-0.0609375,0.04277777777777782,3.040300000011925],[-0.0609375,0.04277777777777782,3.057000000000002],[-0.05,0.05129629629629638,3.0735999999940447],[-0.04031250000000005,0.040740740740740744,3.0904999999999987],[-0.04468749999999998,0.01777777777777782,3.1069999999999993],[-0.03302083333333338,-0.012407407407407492,3.1236999999880837],[-0.03302083333333338,-0.012407407407407492,3.140400000005961],[-0.03291666666666669,0,3.1570000000000036],[-0.03291666666666669,0,3.173699999988081],[-0.02687499999999995,-0.009629629629629714,3.1904000000059654],[-0.0265625,-0.00851851851851856,3.2070000000000007],[-0.01593749999999995,-0.022037037037036994,3.2235999999940432],[-0.025312499999999953,-0.03314814814814811,3.240900000005965],[-0.034687499999999954,-0.04425925925925922,3.257000000000005]]","[0.0001999999880837322,0.03650000000000375,0.04119999998808055,0.057699999988081174,0.07459999999404232,0.0949000000059641,0.11080000001192047,0.12950000000000017,0.14050000000000296,0.15700000000000358,0.17369999998808083,0.1905000000000001,0.20780000001192178,0.223699999988078,0.2450999999940393,0.26019999998808174,0.2759000000059615,0.29559999999403885,0.3111999999880837,0.3270000000000053,0.3456999999880779,0.35740000000595984,0.37400000000000233,0.3918000000119264,0.4123000000119248,0.42380000001192286,0.44069999998808385,0.4573000000119265,0.473699999988078,0.4946999999880788,0.5105999999940423,0.5260999999940381,0.5453000000119204,0.5614000000059605,0.57709999999404,0.5966999999880827,0.6070999999940412,0.6238000000119257,0.6429000000059659,0.661199999988078,0.678199999988081,0.6954000000059608,0.7131999999880847,0.72380000001192,0.7405999999940391,0.7570999999940398,0.777000000000001,0.7930999999940411,0.8093000000119233,0.8276999999880843,0.8433000000119222,0.8576999999880783,0.8739000000059605,0.8963000000119266,0.911199999988078,0.9264000000059625,0.9426999999880792,0.9570000000000007,0.973699999988078,0.9925999999940416,1.0094000000059609,1.023900000005959,1.040300000011925,1.0570000000000022,1.0740000000000052,1.091099999994043,1.1095000000000041,1.127300000011921,1.140500000000003,1.1570999999940383,1.178300000011923,1.1904000000059654,1.2070999999940426,1.223699999988078,1.2434000000059626,1.2596999999880794,1.2768000000119244,1.2941999999880807,1.3108000000119233,1.3260000000000005,1.3433000000119222,1.3598000000119228,1.3776999999880815,1.3950000000000031,1.4105999999940408,1.42440000000596,1.4440000000000026,1.4594000000059637,1.4755999999940386,1.4975000000000023,1.517699999988082,1.5338000000119223,1.5404000000059597,1.5596999999880836,1.5740000000000052,1.5906999999880824,1.6069999999999993,1.6236999999880837,1.6403000000119263,1.6569000000059617,1.673599999994039,1.693800000011926,1.711500000000001,1.726900000005962,1.7440999999940416,1.7575000000000003,1.7736999999880823,1.7908000000119202,1.8070000000000022,1.8236999999880794,1.8433000000119222,1.857199999988083,1.8768000000119258,1.890400000005961,1.9070000000000036,1.9236999999880808,1.9403000000119235,1.9570000000000007,1.9743000000119224,1.9904000000059625,2.0098000000119214,2.0236999999880823,2.0405999999940434,2.057000000000002,2.074300000011924,2.090400000005964,2.107099999994041,2.124099999994044,2.140500000000003,2.1570000000000036,2.178400000005965,2.1905,2.2070000000000007,2.2235999999940432,2.2409999999999997,2.2570999999940398,2.2774000000059615,2.2904000000059597,2.307099999994044,2.326400000005961,2.344000000000001,2.3633000000119253,2.3736999999880837,2.390500000000003,2.4106999999880827,2.4269999999999996,2.4434000000059655,2.4570000000000007,2.4771999999880805,2.4904000000059625,2.5070999999940398,2.5236999999880823,2.5435000000000016,2.5608000000119233,2.5770000000000053,2.5959000000059618,2.611099999994039,2.6236999999880837,2.6403000000119263,2.6570000000000036,2.6765000000000043,2.6904000000059654,2.7070999999940426,2.723699999988078,2.7409999999999997,2.756900000005963,2.7736999999880823,2.7911999999880805,2.808,2.824199999988082,2.840400000005964,2.8569999999999993,2.8736999999880837,2.890400000005961,2.90719999998808,2.923699999988081,2.9403000000119235,2.9571999999880845,2.97380000001192,2.990599999994039,3.0070999999940398,3.0236999999880823,3.040300000011925,3.057000000000002,3.0735999999940447,3.0904999999999987,3.1069999999999993,3.1236999999880837,3.140400000005961,3.1570000000000036,3.173699999988081,3.1904000000059654,3.2070000000000007,3.2235999999940432,3.240900000005965,3.257000000000005]","[1732775592980,1732775593013,1732775593018,1732775593034,1732775593051,1732775593071,1732775593087,1732775593106,1732775593117,1732775593134,1732775593150,1732775593167,1732775593184,1732775593200,1732775593222,1732775593237,1732775593252,1732775593272,1732775593288,1732775593303,1732775593322,1732775593334,1732775593351,1732775593368,1732775593389,1732775593400,1732775593417,1732775593434,1732775593450,1732775593471,1732775593487,1732775593503,1732775593522,1732775593538,1732775593554,1732775593573,1732775593584,1732775593600,1732775593619,1732775593638,1732775593655,1732775593672,1732775593690,1732775593700,1732775593717,1732775593734,1732775593753,1732775593770,1732775593786,1732775593804,1732775593820,1732775593834,1732775593850,1732775593873,1732775593888,1732775593903,1732775593919,1732775593933,1732775593950,1732775593969,1732775593986,1732775594000,1732775594017,1732775594034,1732775594051,1732775594068,1732775594086,1732775594104,1732775594117,1732775594134,1732775594155,1732775594167,1732775594184,1732775594200,1732775594220,1732775594236,1732775594253,1732775594271,1732775594287,1732775594303,1732775594320,1732775594336,1732775594354,1732775594372,1732775594387,1732775594401,1732775594420,1732775594436,1732775594452,1732775594474,1732775594494,1732775594510,1732775594517,1732775594536,1732775594550,1732775594567,1732775594583,1732775594600,1732775594617,1732775594633,1732775594650,1732775594670,1732775594688,1732775594703,1732775594721,1732775594734,1732775594750,1732775594767,1732775594783,1732775594800,1732775594820,1732775594834,1732775594853,1732775594867,1732775594884,1732775594900,1732775594917,1732775594933,1732775594951,1732775594967,1732775594986,1732775595000,1732775595017,1732775595033,1732775595051,1732775595067,1732775595084,1732775595101,1732775595117,1732775595134,1732775595155,1732775595167,1732775595184,1732775595200,1732775595218,1732775595234,1732775595254,1732775595267,1732775595284,1732775595303,1732775595320,1732775595340,1732775595350,1732775595367,1732775595387,1732775595404,1732775595420,1732775595433,1732775595454,1732775595467,1732775595484,1732775595500,1732775595520,1732775595537,1732775595553,1732775595572,1732775595588,1732775595600,1732775595617,1732775595633,1732775595653,1732775595667,1732775595684,1732775595700,1732775595717,1732775595733,1732775595750,1732775595768,1732775595784,1732775595801,1732775595817,1732775595833,1732775595850,1732775595867,1732775595884,1732775595900,1732775595917,1732775595934,1732775595950,1732775595967,1732775595984,1732775596000,1732775596017,1732775596033,1732775596050,1732775596067,1732775596083,1732775596100,1732775596117,1732775596134,1732775596150,1732775596167,1732775596183,1732775596200,1732775596217,1732775596233]","[[949.2,548.8],[949.2,548.8],[951.7,551.2],[963.4,559.8],[959,567],[946.2,570.3],[952.9,574.2],[940.9,580.2],[940.9,580.2],[939,570.8],[939,570.8],[961,567.2],[959.3,555.3],[957.6,543.4],[946.4,540.5],[941.7,526.9],[950.6,524.8],[963.8,525.4],[962,520.7],[977.5,502.1],[992.6,517.7],[992.6,517.7],[979.3,519.6],[990.9,530.2],[985.5,511.2],[985.5,511.2],[986.3,496],[980.9,496],[971.3,500.5],[972.6,506.2],[978,514.6],[975.2,536.5],[961.8,541.3],[972.6,545.1],[976.4,536],[995.4,563.8],[995.4,563.8],[1007,584.6],[1012.6,588.1],[1019.1,573.7],[1009.8,564.7],[1001.8,558.5],[1008.7,553.7],[1008.7,553.7],[1016.9,537.5],[1020.2,547.6],[1009.3,526.7],[1007.4,517.4],[1015.8,492.5],[1029.1,483.8],[1041.6,501.2],[1036.4,492.1],[1024.8,462.9],[1013.9,430.2],[1025.7,421.6],[1044.8,425.4],[1069.4,460.7],[1096.2,467.3],[1107.7,483.2],[1108.1,495.2],[1118.9,485.1],[1152.3,494.9],[1189.9,522.9],[1212.1,537.8],[1196.9,552.7],[1167.4,537.4],[1155,526.7],[1143.6,532.7],[1143.6,532.7],[1141.7,548.1],[1143.1,544.4],[1143.1,544.4],[1131.1,541.4],[1127.1,556.2],[1118.2,571],[1085.3,575],[1078.3,578],[1061.6,570.9],[1028.3,562.1],[998.6,550.6],[972.5,532.8],[955.5,536],[938.5,539.2],[910,529.2],[888.6,521.1],[899.2,519.7],[893.7,517.2],[918.1,515.5],[943.3,516.6],[954.5,513.5],[954.5,513.5],[973,514],[973,514],[986.9,504.6],[970.5,503.7],[960.8,497.5],[963.4,483.3],[958,473.2],[964.6,457.8],[955.5,453.6],[947.4,444.1],[931.9,439.7],[923.4,432.8],[909.5,433.2],[925.9,425.1],[943.3,418.1],[948.4,419.1],[951.6,412.1],[951.7,414.3],[951.8,416.5],[955.2,422.7],[966,423.8],[951.3,429.2],[951.3,429.2],[961.6,423.4],[961.5,444.8],[955,451.8],[950.2,460.9],[933.9,472.2],[916,475.9],[919.3,473.8],[921.2,476.6],[921.8,478.8],[941.1,480.3],[931.5,493.9],[931.5,493.9],[941.6,476.8],[960.1,478.8],[960.1,478.8],[976.9,478.7],[1022,471.5],[1022,471.5],[1061.5,471.9],[1079.8,478.1],[1086.9,480],[1095.3,482.5],[1092.4,473.9],[1092.4,473.9],[1112.6,481.8],[1111.7,472.4],[1123.1,456.1],[1125.1,435.5],[1125.1,435.5],[1105.4,434.9],[1088,438.5],[1072.6,433.3],[1068,424.8],[1065.9,428],[1067.8,434.3],[1067.8,434.3],[1044.1,426.2],[1047.1,441.2],[1041.7,464.9],[1030.7,476.7],[1031.1,483.5],[1030.7,483.9],[1028.6,492.6],[1028.6,492.6],[1026.2,502.8],[1036.5,507],[1032.2,507],[1032.2,507],[1043.8,505.2],[1043.8,511.6],[1025.1,508.7],[1014,525.8],[1014,525.8],[997.2,534.6],[986.1,546.9],[974.7,559.7],[960.1,581],[960.1,581],[937.1,571.7],[937.1,571.7],[929.4,583.1],[929.4,583.1],[919.1,585.6],[919.1,585.6],[901.7,578.7],[901.7,578.7],[897.9,572.8],[897.9,572.8],[901.5,563.1],[901.5,563.1],[912,567.7],[921.3,562],[917.1,549.6],[928.3,533.3],[928.3,533.3],[928.4,540],[928.4,540],[934.2,534.8],[934.5,535.4],[944.7,528.1],[935.7,522.1],[926.7,516.1]]","[0,0.151169218]","[0.151169218,0.151169218]","[-0.151169218,0]","[-0.151169218,-0.151169218]","[0,0]","[0.151169218,0]","[0,-0.151169218]","[0.151169218,-0.151169218]",0,0,0,0,1,3,Smartphone,11,9,9,1
,,,,,,,,,,,,,,,,,,,,03,001,2024-11-28_14h32.32.737,Attention_exp_legacy,2023.1.0,Win32,60.24096386,,,,,,,,,,[0.014583333333333334],[0.1648148148148148],[1],[0],[0],[1.2318000000119227],"[""Option1_label""]",Option1_label,2,2.233,"[[0.023958333333333335,0.1574074074074074],[0.023958333333333335,0.1574074074074074],[0.023958333333333335,0.1574074074074074],[0.023958333333333335,0.1574074074074074],[0.023958333333333335,0.1574074074074074],[0.023958333333333335,0.1574074074074074],[0.023958333333333335,0.1574074074074074],[0.023958333333333335,0.1574074074074074],[0.023958333333333335,0.1574074074074074],[0.023958333333333335,0.1574074074074074],[0.023958333333333335,0.1574074074074074],[0.023958333333333335,0.1574074074074074],[0.023958333333333335,0.1574074074074074],[0.023958333333333335,0.1574074074074074],[0.023958333333333335,0.1574074074074074],[0.023958333333333335,0.1574074074074074],[0.023958333333333335,0.1574074074074074],[0.023958333333333335,0.1574074074074074],[0.023958333333333335,0.1574074074074074],[0.023958333333333335,0.1574074074074074],[0.023958333333333335,0.1574074074074074],[0.023958333333333335,0.1574074074074074],[0.023958333333333335,0.1574074074074074],[0.023958333333333335,0.1574074074074074],[0.023958333333333335,0.1574074074074074],[0.023958333333333335,0.1574074074074074],[0.023958333333333335,0.1574074074074074],[0.019791666666666666,0.14814814814814814],[0.007291666666666667,0.13703703703703704],[0.0020833333333333333,0.13148148148148148],[-0.013541666666666667,0.12222222222222222],[-0.01875,0.12037037037037036],[-0.020833333333333332,0.11851851851851852],[-0.020833333333333332,0.11851851851851852],[-0.020833333333333332,0.11851851851851852],[-0.020833333333333332,0.11851851851851852],[-0.020833333333333332,0.11851851851851852],[-0.01875,0.12222222222222222],[-0.00625,0.13518518518518519],[0.01875,0.15],[0.04895833333333333,0.1537037037037037],[0.065625,0.15925925925925927],[0.090625,0.16296296296296298],[0.11875,0.1648148148148148],[0.125,0.1648148148148148],[0.125,0.1648148148148148],[0.125,0.1648148148148148],[0.125,0.1648148148148148],[0.125,0.1648148148148148],[0.125,0.1648148148148148],[0.125,0.1648148148148148],[0.125,0.1648148148148148],[0.125,0.1648148148148148],[0.125,0.1648148148148148],[0.125,0.1648148148148148],[0.125,0.1648148148148148],[0.125,0.1648148148148148],[0.125,0.1648148148148148],[0.125,0.1648148148148148],[0.12291666666666666,0.1648148148148148],[0.1125,0.1648148148148148],[0.09166666666666666,0.1648148148148148],[0.06145833333333333,0.1648148148148148],[0.029166666666666667,0.1648148148148148],[0.014583333333333334,0.1648148148148148],[0.014583333333333334,0.1648148148148148],[0.014583333333333334,0.1648148148148148],[0.014583333333333334,0.1648148148148148],[0.014583333333333334,0.1648148148148148],[0.014583333333333334,0.1648148148148148],[0.014583333333333334,0.1648148148148148],[0.014583333333333334,0.1648148148148148],[0.014583333333333334,0.1648148148148148],[0.014583333333333334,0.1648148148148148],[0.014583333333333334,0.1648148148148148],[0.014583333333333334,0.1648148148148148],[0.014583333333333334,0.1648148148148148],[0.014583333333333334,0.1648148148148148],[0.014583333333333334,0.1648148148148148],[0.014583333333333334,0.1648148148148148],[0.014583333333333334,0.1648148148148148],[0.014583333333333334,0.1648148148148148],[0.014583333333333334,0.1648148148148148],[0.014583333333333334,0.1648148148148148],[0.014583333333333334,0.1648148148148148],[0.014583333333333334,0.1648148148148148],[0.014583333333333334,0.1648148148148148],[0.014583333333333334,0.1648148148148148],[0.014583333333333334,0.1648148148148148],[0.014583333333333334,0.1648148148148148],[0.014583333333333334,0.1648148148148148],[0.014583333333333334,0.1648148148148148],[0.014583333333333334,0.1648148148148148],[0.014583333333333334,0.1648148148148148],[0.014583333333333334,0.1648148148148148],[0.014583333333333334,0.1648148148148148],[0.014583333333333334,0.1648148148148148],[0.014583333333333334,0.1648148148148148],[0.014583333333333334,0.1648148148148148],[0.014583333333333334,0.1648148148148148],[0.014583333333333334,0.1648148148148148],[0.014583333333333334,0.1648148148148148],[0.014583333333333334,0.1648148148148148],[0.014583333333333334,0.1648148148148148],[0.014583333333333334,0.1648148148148148],[0.014583333333333334,0.1648148148148148],[0.014583333333333334,0.1648148148148148],[0.014583333333333334,0.1648148148148148],[0.014583333333333334,0.1648148148148148],[0.014583333333333334,0.1648148148148148],[0.014583333333333334,0.1648148148148148],[0.014583333333333334,0.1648148148148148],[0.014583333333333334,0.1648148148148148],[0.014583333333333334,0.1648148148148148],[0.014583333333333334,0.1648148148148148],[0.014583333333333334,0.1648148148148148],[0.014583333333333334,0.1648148148148148],[0.014583333333333334,0.1648148148148148],[0.014583333333333334,0.1648148148148148],[0.014583333333333334,0.1648148148148148],[0.014583333333333334,0.1648148148148148],[0.014583333333333334,0.1648148148148148],[0.014583333333333334,0.1648148148148148],[0.014583333333333334,0.1648148148148148],[0.014583333333333334,0.1648148148148148],[0.014583333333333334,0.1648148148148148],[0.014583333333333334,0.1648148148148148],[0.014583333333333334,0.1648148148148148],[0.014583333333333334,0.1648148148148148],[0.014583333333333334,0.1648148148148148],[0.014583333333333334,0.1648148148148148],[0.014583333333333334,0.1648148148148148],[0.014583333333333334,0.1648148148148148],[0.014583333333333334,0.1648148148148148],[0.014583333333333334,0.1648148148148148]]","[[-0.07479166666666662,-0.03629629629629634],[-0.09249999999999996,-0.05925925925925926],[-0.09427083333333333,-0.0742592592592593],[-0.08968750000000002,-0.07148148148148152],[-0.09458333333333328,-0.05240740740740743],[-0.09249999999999996,-0.02907407407407416],[-0.08979166666666671,-0.02833333333333325],[-0.08708333333333336,-0.02759259259259255],[-0.08104166666666662,0.005555555555555556],[-0.07572916666666671,0.03185185185185194],[-0.07687499999999996,0.04314814814814806],[-0.07906249999999998,0.053703703703703705],[-0.08864583333333335,0.05259259259259255],[-0.08864583333333335,0.05259259259259255],[-0.09260416666666664,0.04685185185185177],[-0.08916666666666669,0.04740740740740745],[-0.08697916666666666,0.046481481481481526],[-0.09052083333333331,0.04259259259259259],[-0.08270833333333331,0.031111111111111027],[-0.08041666666666672,-0.0031481481481482323],[-0.0734375,-0.03166666666666671],[-0.07312500000000005,-0.052037037037037076],[-0.05604166666666662,-0.062407407407407384],[-0.043229166666666666,-0.07166666666666664],[-0.03583333333333331,-0.08944444444444447],[-0.03843749999999998,-0.11888888888888886],[-0.03885416666666662,-0.1542592592592593],[-0.03229166666666667,-0.16888888888888887],[-0.03708333333333336,-0.17259259259259258],[-0.04750000000000002,-0.1698148148148148],[-0.05677083333333333,-0.16444444444444448],[-0.049479166666666664,-0.16314814814814818],[-0.06687500000000005,-0.1675925925925926],[-0.07312500000000005,-0.16648148148148145],[-0.07958333333333331,-0.1522222222222222],[-0.06854166666666663,-0.12185185185185188],[-0.059687499999999956,-0.08555555555555554],[-0.05677083333333333,-0.05092592592592592],[-0.052083333333333336,-0.04259259259259259],[-0.03791666666666664,-0.040370370370370286],[-0.03875000000000005,-0.039629629629629584],[-0.03875000000000005,-0.039629629629629584],[-0.03770833333333338,-0.028888888888888933],[-0.013125000000000024,0.0001851851851852273],[0.00458333333333331,0.022592592592592678],[0.00458333333333331,0.022592592592592678],[0.025312499999999953,0.01796296296296305],[0.025937499999999978,-0.011296296296296339],[0.02677083333333338,-0.02555555555555547],[0.03354166666666671,-0.03814814814814819],[0.03354166666666671,-0.03814814814814819],[0.03968750000000002,-0.05962962962962961],[0.06385416666666661,-0.05407407407407405],[0.06385416666666661,-0.05407407407407405],[0.09791666666666667,-0.0485185185185186],[0.09791666666666667,-0.0485185185185186],[0.12010416666666662,-0.06629629629629631],[0.13791666666666677,-0.09018518518518516],[0.13697916666666668,-0.13240740740740742],[0.125,-0.12333333333333338],[0.134375,-0.12296296296296293],[0.134375,-0.12296296296296293],[0.14385416666666656,-0.12999999999999998],[0.14114583333333333,-0.13629629629629633],[0.13802083333333334,-0.11407407407407412],[0.13802083333333334,-0.11407407407407412],[0.10656249999999995,-0.13851851851851854],[0.0756249999999999,-0.16444444444444448],[0.05,-0.1698148148148148],[0.05,-0.1698148148148148],[0.01895833333333338,-0.18111111111111114],[0.0013541666666666192,-0.16814814814814816],[-0.010625000000000048,-0.19592592592592595],[-0.010625000000000048,-0.19592592592592595],[-0.034375,-0.2146296296296296],[-0.05406249999999998,-0.23296296296296298],[-0.06468750000000002,-0.25703703703703706],[-0.07093750000000003,-0.2596296296296296],[-0.06947916666666672,-0.24870370370370373],[-0.06947916666666672,-0.24870370370370373],[-0.06749999999999995,-0.2511111111111112],[-0.06906249999999996,-0.25462962962962965],[-0.07010416666666662,-0.2561111111111111],[-0.051145833333333356,-0.25629629629629624],[-0.029791666666666692,-0.24000000000000005],[-0.029791666666666692,-0.24000000000000005],[-0.003541666666666643,-0.22592592592592592],[0.01906249999999995,-0.22333333333333338],[0.044375000000000026,-0.21370370370370367],[0.07166666666666661,-0.22259259259259256],[0.07166666666666661,-0.22259259259259256],[0.09562499999999995,-0.24222222222222226],[0.10927083333333343,-0.25],[0.12645833333333342,-0.2566666666666667],[0.14354166666666662,-0.25574074074074077],[0.14354166666666662,-0.25574074074074077],[0.14593749999999991,-0.262037037037037],[0.14593749999999991,-0.262037037037037],[0.16135416666666677,-0.2748148148148148],[0.16135416666666677,-0.2748148148148148],[0.16135416666666677,-0.2748148148148148],[0.17718749999999991,-0.2748148148148148],[0.17718749999999991,-0.2748148148148148],[0.19000000000000009,-0.277962962962963],[0.19000000000000009,-0.277962962962963],[0.18635416666666677,-0.2733333333333334],[0.18635416666666677,-0.2733333333333334],[0.1806250000000001,-0.26222222222222225],[0.1806250000000001,-0.26222222222222225],[0.17291666666666666,-0.23537037037037042],[0.16375000000000003,-0.18592592592592588],[0.15947916666666656,-0.1331481481481481],[0.15947916666666656,-0.1331481481481481],[0.15416666666666667,-0.062037037037037036],[0.15416666666666667,-0.062037037037037036],[0.15125000000000005,-0.013518518518518435],[0.1319791666666667,0.03314814814814811],[0.1125,0.052962962962963],[0.0859375,0.09518518518518514],[0.07625000000000005,0.12759259259259256],[0.06468750000000002,0.13333333333333333],[0.051145833333333356,0.14055555555555552],[0.05604166666666662,0.11648148148148144],[0.05479166666666669,0.08592592592592588],[0.05552083333333328,0.04870370370370362],[0.05385416666666672,0.034074074074074034],[0.04697916666666669,0.00851851851851856],[0.035000000000000024,-0.0007407407407406986],[0.034895833333333334,-0.043703703703703745],[0.034791666666666644,-0.08666666666666668],[0.025937499999999978,-0.09370370370370375],[0.022083333333333382,-0.10907407407407403],[-0.0007291666666667141,-0.11185185185185181],[-0.02333333333333331,-0.10981481481481484],[-0.041666666666666664,-0.13925925925925925]]","[[-0.07479166666666662,-0.03629629629629634,0.00020000001787678912],[-0.09249999999999996,-0.05925925925925926,0.016300000011916893],[-0.09427083333333333,-0.0742592592592593,0.033300000011919906],[-0.08968750000000002,-0.07148148148148152,0.049599999994036637],[-0.09458333333333328,-0.05240740740740743,0.06859999999403499],[-0.09249999999999996,-0.02907407407407416,0.08290000000595654],[-0.08979166666666671,-0.02833333333333325,0.0995999999940409],[-0.08708333333333336,-0.02759259259259255,0.11640000000596018],[-0.08104166666666662,0.005555555555555556,0.13280000001191894],[-0.07572916666666671,0.03185185185185194,0.1494999999999962],[-0.07687499999999996,0.04314814814814806,0.17030000001192036],[-0.07906249999999998,0.053703703703703705,0.1865999999940371],[-0.08864583333333335,0.05259259259259255,0.20340000000595637],[-0.08864583333333335,0.05259259259259255,0.21630000001191974],[-0.09260416666666664,0.04685185185185177,0.23309999999403885],[-0.08916666666666669,0.04740740740740745,0.2494999999999976],[-0.08697916666666666,0.046481481481481526,0.26820000001787747],[-0.09052083333333331,0.04259259259259259,0.28320000001787804],[-0.08270833333333331,0.031111111111111027,0.29959999999403664],[-0.08041666666666672,-0.0031481481481482323,0.3190999999940374],[-0.0734375,-0.03166666666666671,0.3353000000119195],[-0.07312500000000005,-0.052037037037037076,0.34940000000595717],[-0.05604166666666662,-0.062407407407407384,0.36880000001192315],[-0.043229166666666666,-0.07166666666666664,0.38280000001191894],[-0.03583333333333331,-0.08944444444444447,0.4020999999940358],[-0.03843749999999998,-0.11888888888888886,0.4167000000178831],[-0.03885416666666662,-0.1542592592592593,0.43599999999999994],[-0.03229166666666667,-0.16888888888888887,0.45250000000000057],[-0.03708333333333336,-0.17259259259259258,0.47009999999404073],[-0.04750000000000002,-0.1698148148148148,0.48449999999999704],[-0.05677083333333333,-0.16444444444444448,0.5039000000059559],[-0.049479166666666664,-0.16314814814814818,0.5203000000119218],[-0.06687500000000005,-0.1675925925925926,0.5368000000119224],[-0.07312500000000005,-0.16648148148148145,0.5524000000059601],[-0.07958333333333331,-0.1522222222222222,0.568700000017877],[-0.06854166666666663,-0.12185185185185188,0.5834000000059589],[-0.059687499999999956,-0.08555555555555554,0.599499999999999],[-0.05677083333333333,-0.05092592592592592,0.621099999994037],[-0.052083333333333336,-0.04259259259259259,0.637400000005961],[-0.03791666666666664,-0.040370370370370286,0.6535999999940358],[-0.03875000000000005,-0.039629629629629584,0.6730000000000018],[-0.03875000000000005,-0.039629629629629584,0.6830999999940417],[-0.03770833333333338,-0.028888888888888933,0.6997000000178772],[-0.013125000000000024,0.0001851851851852273,0.719099999994036],[0.00458333333333331,0.022592592592592678,0.7380999999940414],[0.00458333333333331,0.022592592592592678,0.7495999999940395],[0.025312499999999953,0.01796296296296305,0.7662000000178821],[0.025937499999999978,-0.011296296296296339,0.7860000000000014],[0.02677083333333338,-0.02555555555555547,0.8024000000059601],[0.03354166666666671,-0.03814814814814819,0.8210999999940398],[0.03354166666666671,-0.03814814814814819,0.8328000000119218],[0.03968750000000002,-0.05962962962962961,0.8495999999940409],[0.06385416666666661,-0.05407407407407405,0.8717000000178814],[0.06385416666666661,-0.05407407407407405,0.8829000000059608],[0.09791666666666667,-0.0485185185185186,0.8995999999940381],[0.09791666666666667,-0.0485185185185186,0.9163000000119226],[0.12010416666666662,-0.06629629629629631,0.9329999999999998],[0.13791666666666677,-0.09018518518518516,0.9523000000119168],[0.13697916666666668,-0.13240740740740742,0.9708000000119199],[0.125,-0.12333333333333338,0.9882000000178834],[0.134375,-0.12296296296296293,1.0049000000059607],[0.134375,-0.12296296296296293,1.0165000000000006],[0.14385416666666656,-0.12999999999999998,1.03330000001192],[0.14114583333333333,-0.13629629629629633,1.0538000000119183],[0.13802083333333334,-0.11407407407407412,1.0710999999940398],[0.13802083333333334,-0.11407407407407412,1.0828000000119218],[0.10656249999999995,-0.13851851851851854,1.099499999999999],[0.0756249999999999,-0.16444444444444448,1.1204999999999998],[0.05,-0.1698148148148148,1.1372000000178772],[0.05,-0.1698148148148148,1.1494999999999962],[0.01895833333333338,-0.18111111111111114,1.1662000000178807],[0.0013541666666666192,-0.16814814814814816,1.1865000000000023],[-0.010625000000000048,-0.19592592592592595,1.20359999999404],[-0.010625000000000048,-0.19592592592592595,1.2162000000178779],[-0.034375,-0.2146296296296296,1.2328000000119204],[-0.05406249999999998,-0.23296296296296298,1.2538000000119212],[-0.06468750000000002,-0.25703703703703706,1.2704999999999984],[-0.07093750000000003,-0.2596296296296296,1.286999999999999],[-0.06947916666666672,-0.24870370370370373,1.3035999999940415],[-0.06947916666666672,-0.24870370370370373,1.3163000000119212],[-0.06749999999999995,-0.2511111111111112,1.3328000000119218],[-0.06906249999999996,-0.25462962962962965,1.352700000017883],[-0.07010416666666662,-0.2561111111111111,1.3703000000119232],[-0.051145833333333356,-0.25629629629629624,1.3875999999940376],[-0.029791666666666692,-0.24000000000000005,1.4040999999940382],[-0.029791666666666692,-0.24000000000000005,1.4164000000059573],[-0.003541666666666643,-0.22592592592592592,1.432900000005958],[0.01906249999999995,-0.22333333333333338,1.452200000017882],[0.044375000000000026,-0.21370370370370367,1.4697000000178804],[0.07166666666666661,-0.22259259259259256,1.4870999999940366],[0.07166666666666661,-0.22259259259259256,1.4995999999940395],[0.09562499999999995,-0.24222222222222226,1.5162000000178821],[0.10927083333333343,-0.25,1.5355999999940408],[0.12645833333333342,-0.2566666666666667,1.5522000000178835],[0.14354166666666662,-0.25574074074074077,1.570200000017877],[0.14354166666666662,-0.25574074074074077,1.5828000000119218],[0.14593749999999991,-0.262037037037037,1.6000000000000014],[0.14593749999999991,-0.262037037037037,1.6164000000059602],[0.16135416666666677,-0.2748148148148148,1.6390999999940377],[0.16135416666666677,-0.2748148148148148,1.6625999999940362],[0.16135416666666677,-0.2748148148148148,1.6668000000119179],[0.17718749999999991,-0.2748148148148148,1.6828000000119232],[0.17718749999999991,-0.2748148148148148,1.6997000000178772],[0.19000000000000009,-0.277962962962963,1.7163000000119197],[0.19000000000000009,-0.277962962962963,1.732999999999997],[0.18635416666666677,-0.2733333333333334,1.7495999999940395],[0.18635416666666677,-0.2733333333333334,1.766300000011917],[0.1806250000000001,-0.26222222222222225,1.7829000000059594],[0.1806250000000001,-0.26222222222222225,1.7995999999940366],[0.17291666666666666,-0.23537037037037042,1.816400000005956],[0.16375000000000003,-0.18592592592592588,1.8329999999999984],[0.15947916666666656,-0.1331481481481481,1.852599999994041],[0.15947916666666656,-0.1331481481481481,1.8662000000178836],[0.15416666666666667,-0.062037037037037036,1.8830999999940374],[0.15416666666666667,-0.062037037037037036,1.899599999994038],[0.15125000000000005,-0.013518518518518435,1.9164000000059573],[0.1319791666666667,0.03314814814814811,1.932900000005958],[0.1125,0.052962962962963,1.9495000000000005],[0.0859375,0.09518518518518514,1.9664000000059616],[0.07625000000000005,0.12759259259259256,1.9834999999999994],[0.06468750000000002,0.13333333333333333,1.9997000000178815],[0.051145833333333356,0.14055555555555552,2.016300000011917],[0.05604166666666662,0.11648148148148144,2.036200000017878],[0.05479166666666669,0.08592592592592588,2.04940000000596],[0.05552083333333328,0.04870370370370362,2.066300000011921],[0.05385416666666672,0.034074074074074034,2.082800000011922],[0.04697916666666669,0.00851851851851856,2.099599999994041],[0.035000000000000024,-0.0007407407407406986,2.1162000000178836],[0.034895833333333334,-0.043703703703703745,2.1329999999999956],[0.034791666666666644,-0.08666666666666668,2.149499999999996],[0.025937499999999978,-0.09370370370370375,2.1663000000119226],[0.022083333333333382,-0.10907407407407403,2.182900000005958],[-0.0007291666666667141,-0.11185185185185181,2.199599999994035],[-0.02333333333333331,-0.10981481481481484,2.216200000017878],[-0.041666666666666664,-0.13925925925925925,2.232999999999997]]","[0.00020000001787678912,0.016300000011916893,0.033300000011919906,0.049599999994036637,0.06859999999403499,0.08290000000595654,0.0995999999940409,0.11640000000596018,0.13280000001191894,0.1494999999999962,0.17030000001192036,0.1865999999940371,0.20340000000595637,0.21630000001191974,0.23309999999403885,0.2494999999999976,0.26820000001787747,0.28320000001787804,0.29959999999403664,0.3190999999940374,0.3353000000119195,0.34940000000595717,0.36880000001192315,0.38280000001191894,0.4020999999940358,0.4167000000178831,0.43599999999999994,0.45250000000000057,0.47009999999404073,0.48449999999999704,0.5039000000059559,0.5203000000119218,0.5368000000119224,0.5524000000059601,0.568700000017877,0.5834000000059589,0.599499999999999,0.621099999994037,0.637400000005961,0.6535999999940358,0.6730000000000018,0.6830999999940417,0.6997000000178772,0.719099999994036,0.7380999999940414,0.7495999999940395,0.7662000000178821,0.7860000000000014,0.8024000000059601,0.8210999999940398,0.8328000000119218,0.8495999999940409,0.8717000000178814,0.8829000000059608,0.8995999999940381,0.9163000000119226,0.9329999999999998,0.9523000000119168,0.9708000000119199,0.9882000000178834,1.0049000000059607,1.0165000000000006,1.03330000001192,1.0538000000119183,1.0710999999940398,1.0828000000119218,1.099499999999999,1.1204999999999998,1.1372000000178772,1.1494999999999962,1.1662000000178807,1.1865000000000023,1.20359999999404,1.2162000000178779,1.2328000000119204,1.2538000000119212,1.2704999999999984,1.286999999999999,1.3035999999940415,1.3163000000119212,1.3328000000119218,1.352700000017883,1.3703000000119232,1.3875999999940376,1.4040999999940382,1.4164000000059573,1.432900000005958,1.452200000017882,1.4697000000178804,1.4870999999940366,1.4995999999940395,1.5162000000178821,1.5355999999940408,1.5522000000178835,1.570200000017877,1.5828000000119218,1.6000000000000014,1.6164000000059602,1.6390999999940377,1.6625999999940362,1.6668000000119179,1.6828000000119232,1.6997000000178772,1.7163000000119197,1.732999999999997,1.7495999999940395,1.766300000011917,1.7829000000059594,1.7995999999940366,1.816400000005956,1.8329999999999984,1.852599999994041,1.8662000000178836,1.8830999999940374,1.899599999994038,1.9164000000059573,1.932900000005958,1.9495000000000005,1.9664000000059616,1.9834999999999994,1.9997000000178815,2.016300000011917,2.036200000017878,2.04940000000596,2.066300000011921,2.082800000011922,2.099599999994041,2.1162000000178836,2.1329999999999956,2.149499999999996,2.1663000000119226,2.182900000005958,2.199599999994035,2.216200000017878,2.232999999999997]","[1732775597252,1732775597267,1732775597284,1732775597300,1732775597319,1732775597333,1732775597350,1732775597367,1732775597383,1732775597400,1732775597421,1732775597437,1732775597454,1732775597467,1732775597484,1732775597500,1732775597519,1732775597534,1732775597550,1732775597570,1732775597586,1732775597600,1732775597619,1732775597633,1732775597653,1732775597667,1732775597687,1732775597703,1732775597721,1732775597735,1732775597754,1732775597771,1732775597787,1732775597803,1732775597819,1732775597834,1732775597850,1732775597872,1732775597888,1732775597904,1732775597924,1732775597934,1732775597950,1732775597970,1732775597989,1732775598000,1732775598017,1732775598037,1732775598053,1732775598072,1732775598083,1732775598100,1732775598122,1732775598133,1732775598150,1732775598167,1732775598184,1732775598203,1732775598221,1732775598239,1732775598255,1732775598267,1732775598284,1732775598304,1732775598322,1732775598333,1732775598350,1732775598371,1732775598388,1732775598400,1732775598417,1732775598437,1732775598454,1732775598467,1732775598483,1732775598504,1732775598521,1732775598538,1732775598554,1732775598567,1732775598583,1732775598603,1732775598621,1732775598638,1732775598655,1732775598667,1732775598683,1732775598703,1732775598720,1732775598738,1732775598750,1732775598767,1732775598786,1732775598803,1732775598821,1732775598833,1732775598851,1732775598867,1732775598890,1732775598913,1732775598917,1732775598933,1732775598950,1732775598967,1732775598984,1732775599000,1732775599017,1732775599033,1732775599050,1732775599067,1732775599084,1732775599103,1732775599117,1732775599134,1732775599150,1732775599167,1732775599183,1732775599200,1732775599217,1732775599234,1732775599250,1732775599267,1732775599287,1732775599300,1732775599317,1732775599333,1732775599350,1732775599367,1732775599384,1732775599400,1732775599417,1732775599433,1732775599450,1732775599467,1732775599484]","[[888.2,520.4],[871.2,508],[869.5,499.9],[873.9,501.4],[869.2,511.7],[871.2,524.3],[873.8,524.7],[876.4,525.1],[882.2,543],[887.3,557.2],[886.2,563.3],[884.1,569],[874.9,568.4],[874.9,568.4],[871.1,565.3],[874.4,565.6],[876.5,565.1],[873.1,563],[880.6,556.8],[882.8,538.3],[889.5,522.9],[889.8,511.9],[906.2,506.3],[918.5,501.3],[925.6,491.7],[923.1,475.8],[922.7,456.7],[929,448.8],[924.4,446.8],[914.4,448.3],[905.5,451.2],[912.5,451.9],[895.8,449.5],[889.8,450.1],[883.6,457.8],[894.2,474.2],[902.7,493.8],[905.5,512.5],[910,517],[923.6,518.2],[922.8,518.6],[922.8,518.6],[923.8,524.4],[947.4,540.1],[964.4,552.2],[964.4,552.2],[984.3,549.7],[984.9,533.9],[985.7,526.2],[992.2,519.4],[992.2,519.4],[998.1,507.8],[1021.3,510.8],[1021.3,510.8],[1054,513.8],[1054,513.8],[1075.3,504.2],[1092.4,491.3],[1091.5,468.5],[1080,473.4],[1089,473.6],[1089,473.6],[1098.1,469.8],[1095.5,466.4],[1092.5,478.4],[1092.5,478.4],[1062.3,465.2],[1032.6,451.2],[1008,448.3],[1008,448.3],[978.2,442.2],[961.3,449.2],[949.8,434.2],[949.8,434.2],[927,424.1],[908.1,414.2],[897.9,401.2],[891.9,399.8],[893.3,405.7],[893.3,405.7],[895.2,404.4],[893.7,402.5],[892.7,401.7],[910.9,401.6],[931.4,410.4],[931.4,410.4],[956.6,418],[978.3,419.4],[1002.6,424.6],[1028.8,419.8],[1028.8,419.8],[1051.8,409.2],[1064.9,405],[1081.4,401.4],[1097.8,401.9],[1097.8,401.9],[1100.1,398.5],[1100.1,398.5],[1114.9,391.6],[1114.9,391.6],[1114.9,391.6],[1130.1,391.6],[1130.1,391.6],[1142.4,389.9],[1142.4,389.9],[1138.9,392.4],[1138.9,392.4],[1133.4,398.4],[1133.4,398.4],[1126,412.9],[1117.2,439.6],[1113.1,468.1],[1113.1,468.1],[1108,506.5],[1108,506.5],[1105.2,532.7],[1086.7,557.9],[1068,568.6],[1042.5,591.4],[1033.2,608.9],[1022.1,612],[1009.1,615.9],[1013.8,602.9],[1012.6,586.4],[1013.3,566.3],[1011.7,558.4],[1005.1,544.6],[993.6,539.6],[993.5,516.4],[993.4,493.2],[984.9,489.4],[981.2,481.1],[959.3,479.6],[937.6,480.7],[920,464.8]]","[0,0.151169218]","[0.151169218,0.151169218]","[-0.151169218,0]","[-0.151169218,-0.151169218]","[0,0]","[0.151169218,0]","[0,-0.151169218]","[0.151169218,-0.151169218]",0,1,1,1,1,3,Smartphone,5,5,13,7
,,,,,,,,,,,,,,,,,,,,03,001,2024-11-28_14h32.32.737,Attention_exp_legacy,2023.1.0,Win32,60.24096386,,,,,,,,,,[0.15833333333333333],[0.1537037037037037],[1],[0],[0],[1.4344999999999999],"[""Option2_label""]",Option2_label,3,2.4499,"[[0.014583333333333334,0.1648148148148148],[0.014583333333333334,0.1648148148148148],[0.014583333333333334,0.1648148148148148],[0.014583333333333334,0.1648148148148148],[0.014583333333333334,0.1648148148148148],[0.014583333333333334,0.1648148148148148],[0.014583333333333334,0.1648148148148148],[0.014583333333333334,0.1648148148148148],[0.014583333333333334,0.1648148148148148],[0.014583333333333334,0.1648148148148148],[0.014583333333333334,0.1648148148148148],[0.014583333333333334,0.1648148148148148],[0.014583333333333334,0.1648148148148148],[0.014583333333333334,0.1648148148148148],[0.014583333333333334,0.1648148148148148],[0.014583333333333334,0.1648148148148148],[0.014583333333333334,0.1648148148148148],[0.014583333333333334,0.1648148148148148],[0.014583333333333334,0.1648148148148148],[0.014583333333333334,0.1648148148148148],[0.014583333333333334,0.1648148148148148],[0.014583333333333334,0.1648148148148148],[0.014583333333333334,0.1648148148148148],[0.014583333333333334,0.1648148148148148],[0.014583333333333334,0.1648148148148148],[0.014583333333333334,0.1648148148148148],[0.014583333333333334,0.1648148148148148],[0.014583333333333334,0.1648148148148148],[0.014583333333333334,0.1648148148148148],[0.014583333333333334,0.1648148148148148],[0.014583333333333334,0.1648148148148148],[0.014583333333333334,0.1648148148148148],[0.014583333333333334,0.1648148148148148],[0.014583333333333334,0.1648148148148148],[0.014583333333333334,0.1648148148148148],[0.014583333333333334,0.1648148148148148],[0.014583333333333334,0.1648148148148148],[0.014583333333333334,0.1648148148148148],[0.014583333333333334,0.1648148148148148],[0.014583333333333334,0.1648148148148148],[0.014583333333333334,0.1648148148148148],[0.014583333333333334,0.1648148148148148],[0.014583333333333334,0.1648148148148148],[0.014583333333333334,0.1648148148148148],[0.014583333333333334,0.1648148148148148],[0.014583333333333334,0.1648148148148148],[0.014583333333333334,0.1648148148148148],[0.014583333333333334,0.1648148148148148],[0.014583333333333334,0.1648148148148148],[0.014583333333333334,0.1648148148148148],[0.014583333333333334,0.1648148148148148],[0.014583333333333334,0.1648148148148148],[0.014583333333333334,0.1648148148148148],[0.014583333333333334,0.1648148148148148],[0.014583333333333334,0.1648148148148148],[0.014583333333333334,0.1648148148148148],[0.014583333333333334,0.1648148148148148],[0.014583333333333334,0.1648148148148148],[0.017708333333333333,0.1648148148148148],[0.04479166666666667,0.1648148148148148],[0.096875,0.1648148148148148],[0.17916666666666667,0.1648148148148148],[0.19270833333333334,0.1648148148148148],[0.20520833333333333,0.16111111111111112],[0.20520833333333333,0.15925925925925927],[0.20520833333333333,0.15925925925925927],[0.20520833333333333,0.1574074074074074],[0.20416666666666666,0.15555555555555556],[0.203125,0.15555555555555556],[0.203125,0.15555555555555556],[0.203125,0.15555555555555556],[0.203125,0.15555555555555556],[0.203125,0.15555555555555556],[0.203125,0.15555555555555556],[0.20104166666666667,0.15555555555555556],[0.19583333333333333,0.1537037037037037],[0.18958333333333333,0.1537037037037037],[0.16979166666666667,0.1537037037037037],[0.16145833333333334,0.1537037037037037],[0.15833333333333333,0.1537037037037037],[0.15833333333333333,0.1537037037037037],[0.15833333333333333,0.1537037037037037],[0.15833333333333333,0.1537037037037037],[0.15833333333333333,0.1537037037037037],[0.15833333333333333,0.1537037037037037],[0.15833333333333333,0.1537037037037037],[0.15833333333333333,0.1537037037037037],[0.15833333333333333,0.1537037037037037],[0.15833333333333333,0.1537037037037037],[0.15833333333333333,0.1537037037037037],[0.15833333333333333,0.1537037037037037],[0.15833333333333333,0.1537037037037037],[0.15833333333333333,0.1537037037037037],[0.15833333333333333,0.1537037037037037],[0.15833333333333333,0.1537037037037037],[0.15833333333333333,0.1537037037037037],[0.15833333333333333,0.1537037037037037],[0.15833333333333333,0.1537037037037037],[0.15833333333333333,0.1537037037037037],[0.15833333333333333,0.1537037037037037],[0.15833333333333333,0.1537037037037037],[0.15833333333333333,0.1537037037037037],[0.15833333333333333,0.1537037037037037],[0.15833333333333333,0.1537037037037037],[0.15833333333333333,0.1537037037037037],[0.15833333333333333,0.1537037037037037],[0.15833333333333333,0.1537037037037037],[0.15833333333333333,0.1537037037037037],[0.15833333333333333,0.1537037037037037],[0.15833333333333333,0.1537037037037037],[0.15833333333333333,0.1537037037037037],[0.15833333333333333,0.1537037037037037],[0.15833333333333333,0.1537037037037037],[0.15833333333333333,0.1537037037037037],[0.15833333333333333,0.1537037037037037],[0.15833333333333333,0.1537037037037037],[0.15833333333333333,0.1537037037037037],[0.15833333333333333,0.1537037037037037],[0.15833333333333333,0.1537037037037037],[0.15833333333333333,0.1537037037037037],[0.15833333333333333,0.1537037037037037],[0.15833333333333333,0.1537037037037037],[0.15833333333333333,0.1537037037037037],[0.15833333333333333,0.1537037037037037],[0.15833333333333333,0.1537037037037037],[0.15833333333333333,0.1537037037037037],[0.15833333333333333,0.1537037037037037],[0.15833333333333333,0.1537037037037037],[0.15833333333333333,0.1537037037037037],[0.15833333333333333,0.1537037037037037],[0.15833333333333333,0.1537037037037037],[0.15833333333333333,0.1537037037037037],[0.15833333333333333,0.1537037037037037],[0.15833333333333333,0.1537037037037037],[0.15833333333333333,0.1537037037037037],[0.15833333333333333,0.1537037037037037],[0.15833333333333333,0.1537037037037037],[0.15833333333333333,0.1537037037037037],[0.15833333333333333,0.1537037037037037],[0.15833333333333333,0.1537037037037037],[0.15833333333333333,0.1537037037037037],[0.15833333333333333,0.1537037037037037],[0.15833333333333333,0.1537037037037037],[0.15833333333333333,0.1537037037037037],[0.15833333333333333,0.1537037037037037],[0.15833333333333333,0.1537037037037037],[0.15833333333333333,0.1537037037037037],[0.15833333333333333,0.1537037037037037]]","[[-0.19874999999999995,-0.125],[-0.2171875,-0.1190740740740741],[-0.23187500000000003,-0.09888888888888885],[-0.24635416666666668,-0.09074074074074075],[-0.2608333333333333,-0.08259259259259263],[-0.27125,-0.08629629629629634],[-0.265625,-0.08777777777777773],[-0.2786458333333333,-0.09833333333333337],[-0.2916666666666667,-0.10888888888888891],[-0.30062500000000003,-0.11444444444444446],[-0.3186458333333333,-0.12222222222222222],[-0.3219791666666667,-0.11129629629629634],[-0.3109375,-0.10037037037037035],[-0.30895833333333333,-0.09370370370370375],[-0.29958333333333337,-0.08870370370370366],[-0.29802083333333335,-0.0809259259259259],[-0.3146875,-0.07407407407407407],[-0.32458333333333333,-0.06148148148148146],[-0.3344791666666667,-0.04888888888888885],[-0.32875000000000004,-0.06796296296296295],[-0.3139583333333333,-0.08481481481481483],[-0.2964583333333334,-0.08370370370370368],[-0.29333333333333333,-0.08259259259259263],[-0.2889583333333333,-0.07611111111111116],[-0.2919791666666666,-0.06796296296296295],[-0.2998958333333333,-0.07777777777777778],[-0.28958333333333336,-0.08666666666666668],[-0.26895833333333335,-0.09092592592592597],[-0.24833333333333332,-0.09518518518518514],[-0.24791666666666667,-0.10092592592592593],[-0.24656250000000005,-0.1],[-0.24791666666666667,-0.11703703703703702],[-0.25510416666666663,-0.13722222222222227],[-0.25802083333333337,-0.15833333333333333],[-0.2390625,-0.1633333333333333],[-0.2077083333333333,-0.14222222222222225],[-0.1851041666666667,-0.12518518518518523],[-0.1851041666666667,-0.12518518518518523],[-0.16937500000000003,-0.11796296296296294],[-0.16937500000000003,-0.11796296296296294],[-0.1502083333333334,-0.11129629629629634],[-0.13333333333333333,-0.10870370370370368],[-0.13333333333333333,-0.10870370370370368],[-0.11739583333333338,-0.11277777777777774],[-0.11739583333333338,-0.11277777777777774],[-0.10406249999999997,-0.11722222222222224],[-0.10406249999999997,-0.11722222222222224],[-0.09239583333333339,-0.10999999999999996],[-0.09239583333333339,-0.10999999999999996],[-0.06645833333333329,-0.056851851851851834],[-0.06583333333333338,-0.06481481481481481],[-0.07604166666666666,-0.0824074074074074],[-0.07604166666666666,-0.0824074074074074],[-0.07749999999999997,-0.09592592592592594],[-0.07489583333333331,-0.08666666666666668],[-0.057291666666666664,-0.09740740740740746],[-0.03875000000000005,-0.09425925925925922],[-0.02020833333333331,-0.09111111111111109],[-0.02020833333333331,-0.09111111111111109],[-0.00010416666666669035,-0.08611111111111111],[0.02000000000000005,-0.08518518518518518],[0.026979166666666644,-0.12518518518518523],[0.026979166666666644,-0.12518518518518523],[0.043124999999999976,-0.12111111111111107],[0.043124999999999976,-0.12111111111111107],[0.06104166666666669,-0.1227777777777778],[0.07895833333333328,-0.12444444444444443],[0.07895833333333328,-0.12444444444444443],[0.08468749999999996,-0.1316666666666667],[0.07989583333333337,-0.10388888888888893],[0.07989583333333337,-0.10388888888888893],[0.0787499999999999,-0.07962962962962963],[0.0787499999999999,-0.07962962962962963],[0.0765625,-0.07388888888888885],[0.0765625,-0.07388888888888885],[0.0900000000000001,-0.08462962962962961],[0.0900000000000001,-0.08462962962962961],[0.11520833333333323,-0.07796296296296301],[0.11520833333333323,-0.07796296296296301],[0.13145833333333337,-0.07629629629629628],[0.13145833333333337,-0.07629629629629628],[0.14354166666666662,-0.08574074074074076],[0.14020833333333324,-0.10611111111111113],[0.14020833333333324,-0.10611111111111113],[0.15041666666666675,-0.10925925925925926],[0.1622916666666666,-0.14351851851851852],[0.15812499999999996,-0.19185185185185188],[0.1650000000000001,-0.2207407407407407],[0.15885416666666666,-0.2351851851851852],[0.14395833333333338,-0.24740740740740744],[0.12666666666666657,-0.27388888888888885],[0.11614583333333334,-0.2940740740740741],[0.10697916666666671,-0.302962962962963],[0.12083333333333333,-0.3081481481481481],[0.12114583333333329,-0.33055555555555555],[0.13010416666666677,-0.3118518518518518],[0.13875000000000004,-0.3014814814814815],[0.13468749999999996,-0.3066666666666667],[0.13468749999999996,-0.3066666666666667],[0.14322916666666666,-0.30888888888888894],[0.14322916666666666,-0.30888888888888894],[0.146875,-0.28481481481481485],[0.11041666666666666,-0.3012962962962963],[0.08781249999999995,-0.2783333333333334],[0.05927083333333331,-0.25166666666666665],[0.043229166666666666,-0.21666666666666667],[0.016770833333333356,-0.17888888888888893],[-0.015312500000000047,-0.16314814814814818],[-0.034166666666666616,-0.09907407407407408],[-0.044479166666666715,-0.052962962962963],[-0.07885416666666671,0.005555555555555556],[-0.1141666666666667,0.05055555555555547],[-0.09666666666666662,0.18574074074074065],[-0.09427083333333333,0.29222222222222216],[-0.08885416666666662,0.39574074074074084],[-0.10083333333333329,0.47481481481481475],[-0.10239583333333328,0.5511111111111111],[-0.10531250000000002,0.5590740740740741],[-0.11302083333333333,0.5266666666666666],[-0.1594791666666667,0.5127777777777778],[-0.18041666666666673,0.4875925925925925],[-0.17145833333333335,0.4329629629629629],[-0.17520833333333338,0.3212962962962963],[-0.1670833333333333,0.2035185185185185],[-0.15895833333333337,0.08574074074074066],[-0.1554166666666667,0.009999999999999959],[-0.1408333333333334,-0.06092592592592588],[-0.1388541666666666,-0.05796296296296299],[-0.13927083333333337,-0.07092592592592595],[-0.09989583333333331,-0.09351851851851851],[-0.06052083333333336,-0.1161111111111111],[-0.06885416666666669,-0.122037037037037],[-0.0733333333333333,-0.12259259259259257],[-0.08624999999999995,-0.12907407407407406],[-0.09593750000000002,-0.12851851851851848],[-0.10093749999999997,-0.14055555555555552],[-0.1310416666666666,-0.1603703703703704],[-0.14718749999999994,-0.18574074074074076],[-0.15906250000000005,-0.18907407407407412],[-0.18156249999999996,-0.19648148148148153],[-0.20406249999999998,-0.20388888888888893],[-0.2055208333333333,-0.17092592592592595],[-0.2127083333333334,-0.14351851851851852],[-0.21541666666666662,-0.12759259259259256],[-0.22135416666666666,-0.11870370370370374],[-0.19437500000000002,-0.10629629629629625],[-0.15333333333333338,-0.09092592592592597],[-0.1248958333333333,-0.0735185185185185]]","[[-0.19874999999999995,-0.125,0.00019999998807662678],[-0.2171875,-0.1190740740740741,0.0195999999940355],[-0.23187500000000003,-0.09888888888888885,0.03309999999403601],[-0.24635416666666668,-0.09074074074074075,0.04999999999999716],[-0.2608333333333333,-0.08259259259259263,0.06649999999999778],[-0.27125,-0.08629629629629634,0.0832999999821169],[-0.265625,-0.08777777777777773,0.09979999998211753],[-0.2786458333333333,-0.09833333333333337,0.11659999999403681],[-0.2916666666666667,-0.10888888888888891,0.1331999999880793],[-0.30062500000000003,-0.11444444444444446,0.1527999999821148],[-0.3186458333333333,-0.12222222222222222,0.16899999999999693],[-0.3219791666666667,-0.11129629629629634,0.18329999998211832],[-0.3109375,-0.10037037037037035,0.1998999999761537],[-0.30895833333333333,-0.09370370370370375,0.21649999999999636],[-0.29958333333333337,-0.08870370370370366,0.23359999999404124],[-0.29802083333333335,-0.0809259259259259,0.2497999999821161],[-0.3146875,-0.07407407407407407,0.26669999998807725],[-0.32458333333333333,-0.06148148148148146,0.283099999994036],[-0.3344791666666667,-0.04888888888888885,0.2996999999880785],[-0.32875000000000004,-0.06796296296296295,0.3167999999821163],[-0.3139583333333333,-0.08481481481481483,0.3329999999999984],[-0.2964583333333334,-0.08370370370370368,0.3500999999940362],[-0.29333333333333333,-0.08259259259259263,0.3710000000000022],[-0.2889583333333333,-0.07611111111111116,0.3870999999940352],[-0.2919791666666666,-0.06796296296296295,0.40389999997615433],[-0.2998958333333333,-0.07777777777777778,0.4195999999940412],[-0.28958333333333336,-0.08666666666666668,0.4364999999999952],[-0.26895833333333335,-0.09092592592592597,0.4516999999880795],[-0.24833333333333332,-0.09518518518518514,0.4692999999821197],[-0.24791666666666667,-0.10092592592592593,0.4888999999761552],[-0.24656250000000005,-0.1,0.5040999999940396],[-0.24791666666666667,-0.11703703703703702,0.519199999988075],[-0.25510416666666663,-0.13722222222222227,0.5336999999880803],[-0.25802083333333337,-0.15833333333333333,0.5532999999821158],[-0.2390625,-0.1633333333333333,0.570999999999998],[-0.2077083333333333,-0.14222222222222225,0.5871999999880799],[-0.1851041666666667,-0.12518518518518523,0.6045000000000016],[-0.1851041666666667,-0.12518518518518523,0.6165999999940368],[-0.16937500000000003,-0.11796296296296294,0.6332999999821141],[-0.16937500000000003,-0.11796296296296294,0.6498999999761566],[-0.1502083333333334,-0.11129629629629634,0.6666999999880758],[-0.13333333333333333,-0.10870370370370368,0.6837999999821207],[-0.13333333333333333,-0.10870370370370368,0.6998999999761537],[-0.11739583333333338,-0.11277777777777774,0.7166999999880801],[-0.11739583333333338,-0.11277777777777774,0.7330999999940389],[-0.10406249999999997,-0.11722222222222224,0.75],[-0.10406249999999997,-0.11722222222222224,0.7665999999940354],[-0.09239583333333339,-0.10999999999999996,0.7832999999821197],[-0.09239583333333339,-0.10999999999999996,0.7997999999821204],[-0.06645833333333329,-0.056851851851851834,0.8166999999880744],[-0.06583333333333338,-0.06481481481481481,0.8359999999999985],[-0.07604166666666666,-0.0824074074074074,0.8541999999880758],[-0.07604166666666666,-0.0824074074074074,0.8665999999940368],[-0.07749999999999997,-0.09592592592592594,0.8832999999821141],[-0.07489583333333331,-0.08666666666666668,0.9035000000000011],[-0.057291666666666664,-0.09740740740740746,0.919699999988076],[-0.03875000000000005,-0.09425925925925922,0.9359999999999999],[-0.02020833333333331,-0.09111111111111109,0.9541999999880773],[-0.02020833333333331,-0.09111111111111109,0.9703999999761592],[-0.00010416666666669035,-0.08611111111111111,0.983699999988076],[0.02000000000000005,-0.08518518518518518,1.0024999999999977],[0.026979166666666644,-0.12518518518518523,1.0243999999761542],[0.026979166666666644,-0.12518518518518523,1.0332999999821197],[0.043124999999999976,-0.12111111111111107,1.050099999994039],[0.043124999999999976,-0.12111111111111107,1.0667999999821163],[0.06104166666666669,-0.1227777777777778,1.083199999988075],[0.07895833333333328,-0.12444444444444443,1.1051999999880806],[0.07895833333333328,-0.12444444444444443,1.1173999999761577],[0.08468749999999996,-0.1316666666666667,1.133299999982114],[0.07989583333333337,-0.10388888888888893,1.1499999999999986],[0.07989583333333337,-0.10388888888888893,1.166599999994041],[0.0787499999999999,-0.07962962962962963,1.1832999999821183],[0.0787499999999999,-0.07962962962962963,1.1998999999761537],[0.0765625,-0.07388888888888885,1.21669999998808],[0.0765625,-0.07388888888888885,1.2404999999999973],[0.0900000000000001,-0.08462962962962961,1.2500999999940348],[0.0900000000000001,-0.08462962962962961,1.2667999999821191],[0.11520833333333323,-0.07796296296296301,1.2917999999821177],[0.11520833333333323,-0.07796296296296301,1.3002999999821157],[0.13145833333333337,-0.07629629629629628,1.3166999999880744],[0.13145833333333337,-0.07629629629629628,1.333199999988075],[0.14354166666666662,-0.08574074074074076,1.3498999999761594],[0.14020833333333324,-0.10611111111111113,1.371099999994037],[0.14020833333333324,-0.10611111111111113,1.383399999976156],[0.15041666666666675,-0.10925925925925926,1.3997999999821147],[0.1622916666666666,-0.14351851851851852,1.4190999999940388],[0.15812499999999996,-0.19185185185185188,1.435799999982116],[0.1650000000000001,-0.2207407407407407,1.4514999999999958],[0.15885416666666666,-0.2351851851851852,1.4670999999940406],[0.14395833333333338,-0.24740740740740744,1.4871999999880785],[0.12666666666666657,-0.27388888888888885,1.5032999999821186],[0.11614583333333334,-0.2940740740740741,1.5201999999880798],[0.10697916666666671,-0.302962962962963,1.537099999994041],[0.12083333333333333,-0.3081481481481481,1.554000000000002],[0.12114583333333329,-0.33055555555555555,1.5705999999940374],[0.13010416666666677,-0.3118518518518518,1.5860999999940404],[0.13875000000000004,-0.3014814814814815,1.5998999999761594],[0.13468749999999996,-0.3066666666666667,1.6177999999821182],[0.13468749999999996,-0.3066666666666667,1.6331999999880793],[0.14322916666666666,-0.30888888888888894,1.6500999999940404],[0.14322916666666666,-0.30888888888888894,1.666599999994041],[0.146875,-0.28481481481481485,1.6831999999880765],[0.11041666666666666,-0.3012962962962963,1.70059999999404],[0.08781249999999995,-0.2783333333333334,1.7170999999940406],[0.05927083333333331,-0.25166666666666665,1.7330999999940389],[0.043229166666666666,-0.21666666666666667,1.7516999999880767],[0.016770833333333356,-0.17888888888888893,1.7696999999880774],[-0.015312500000000047,-0.16314814814814818,1.7863999999761546],[-0.034166666666666616,-0.09907407407407408,1.802299999982118],[-0.044479166666666715,-0.052962962962963,1.8167999999821163],[-0.07885416666666671,0.005555555555555556,1.833199999988075],[-0.1141666666666667,0.05055555555555547,1.8500000000000014],[-0.09666666666666662,0.18574074074074065,1.8683999999761554],[-0.09427083333333333,0.29222222222222216,1.8836999999880746],[-0.08885416666666662,0.39574074074074084,1.8998999999761566],[-0.10083333333333329,0.47481481481481475,1.9171999999880782],[-0.10239583333333328,0.5511111111111111,1.9330999999940417],[-0.10531250000000002,0.5590740740740741,1.9502999999821142],[-0.11302083333333333,0.5266666666666666,1.967599999994036],[-0.1594791666666667,0.5127777777777778,1.9855000000000018],[-0.18041666666666673,0.4875925925925925,1.999799999982116],[-0.17145833333333335,0.4329629629629629,2.0165000000000006],[-0.17520833333333338,0.3212962962962963,2.033099999994036],[-0.1670833333333333,0.2035185185185185,2.049899999976155],[-0.15895833333333337,0.08574074074074066,2.0665999999940396],[-0.1554166666666667,0.009999999999999959,2.084799999982117],[-0.1408333333333334,-0.06092592592592588,2.0997999999821175],[-0.1388541666666666,-0.05796296296296299,2.119599999994037],[-0.13927083333333337,-0.07092592592592595,2.1358999999761537],[-0.09989583333333331,-0.09351851851851851,2.1500999999940404],[-0.06052083333333336,-0.1161111111111111,2.167199999988078],[-0.06885416666666669,-0.122037037037037,2.1839999999999975],[-0.0733333333333333,-0.12259259259259257,2.1998999999761537],[-0.08624999999999995,-0.12907407407407406,2.2164999999999964],[-0.09593750000000002,-0.12851851851851848,2.233799999982118],[-0.10093749999999997,-0.14055555555555552,2.249799999982116],[-0.1310416666666666,-0.1603703703703704,2.2666999999880773],[-0.14718749999999994,-0.18574074074074076,2.283199999988078],[-0.15906250000000005,-0.18907407407407412,2.2997999999821204],[-0.18156249999999996,-0.19648148148148153,2.3165999999940396],[-0.20406249999999998,-0.20388888888888893,2.3330999999940403],[-0.2055208333333333,-0.17092592592592595,2.3505999999940386],[-0.2127083333333334,-0.14351851851851852,2.3669999999999973],[-0.21541666666666662,-0.12759259259259256,2.384899999976156],[-0.22135416666666666,-0.11870370370370374,2.402000000000001],[-0.19437500000000002,-0.10629629629629625,2.4170999999940364],[-0.15333333333333338,-0.09092592592592597,2.43339999997616],[-0.1248958333333333,-0.0735185185185185,2.4498999999761537]]","[0.00019999998807662678,0.0195999999940355,0.03309999999403601,0.04999999999999716,0.06649999999999778,0.0832999999821169,0.09979999998211753,0.11659999999403681,0.1331999999880793,0.1527999999821148,0.16899999999999693,0.18329999998211832,0.1998999999761537,0.21649999999999636,0.23359999999404124,0.2497999999821161,0.26669999998807725,0.283099999994036,0.2996999999880785,0.3167999999821163,0.3329999999999984,0.3500999999940362,0.3710000000000022,0.3870999999940352,0.40389999997615433,0.4195999999940412,0.4364999999999952,0.4516999999880795,0.4692999999821197,0.4888999999761552,0.5040999999940396,0.519199999988075,0.5336999999880803,0.5532999999821158,0.570999999999998,0.5871999999880799,0.6045000000000016,0.6165999999940368,0.6332999999821141,0.6498999999761566,0.6666999999880758,0.6837999999821207,0.6998999999761537,0.7166999999880801,0.7330999999940389,0.75,0.7665999999940354,0.7832999999821197,0.7997999999821204,0.8166999999880744,0.8359999999999985,0.8541999999880758,0.8665999999940368,0.8832999999821141,0.9035000000000011,0.919699999988076,0.9359999999999999,0.9541999999880773,0.9703999999761592,0.983699999988076,1.0024999999999977,1.0243999999761542,1.0332999999821197,1.050099999994039,1.0667999999821163,1.083199999988075,1.1051999999880806,1.1173999999761577,1.133299999982114,1.1499999999999986,1.166599999994041,1.1832999999821183,1.1998999999761537,1.21669999998808,1.2404999999999973,1.2500999999940348,1.2667999999821191,1.2917999999821177,1.3002999999821157,1.3166999999880744,1.333199999988075,1.3498999999761594,1.371099999994037,1.383399999976156,1.3997999999821147,1.4190999999940388,1.435799999982116,1.4514999999999958,1.4670999999940406,1.4871999999880785,1.5032999999821186,1.5201999999880798,1.537099999994041,1.554000000000002,1.5705999999940374,1.5860999999940404,1.5998999999761594,1.6177999999821182,1.6331999999880793,1.6500999999940404,1.666599999994041,1.6831999999880765,1.70059999999404,1.7170999999940406,1.7330999999940389,1.7516999999880767,1.7696999999880774,1.7863999999761546,1.802299999982118,1.8167999999821163,1.833199999988075,1.8500000000000014,1.8683999999761554,1.8836999999880746,1.8998999999761566,1.9171999999880782,1.9330999999940417,1.9502999999821142,1.967599999994036,1.9855000000000018,1.999799999982116,2.0165000000000006,2.033099999994036,2.049899999976155,2.0665999999940396,2.084799999982117,2.0997999999821175,2.119599999994037,2.1358999999761537,2.1500999999940404,2.167199999988078,2.1839999999999975,2.1998999999761537,2.2164999999999964,2.233799999982118,2.249799999982116,2.2666999999880773,2.283199999988078,2.2997999999821204,2.3165999999940396,2.3330999999940403,2.3505999999940386,2.3669999999999973,2.384899999976156,2.402000000000001,2.4170999999940364,2.43339999997616,2.4498999999761537]","[1732775600502,1732775600520,1732775600533,1732775600550,1732775600567,1732775600584,1732775600600,1732775600617,1732775600634,1732775600653,1732775600669,1732775600684,1732775600700,1732775600717,1732775600734,1732775600750,1732775600767,1732775600783,1732775600800,1732775600817,1732775600833,1732775600850,1732775600871,1732775600887,1732775600904,1732775600920,1732775600937,1732775600952,1732775600970,1732775600989,1732775601004,1732775601020,1732775601034,1732775601054,1732775601071,1732775601087,1732775601105,1732775601117,1732775601134,1732775601150,1732775601167,1732775601184,1732775601200,1732775601217,1732775601233,1732775601250,1732775601267,1732775601284,1732775601300,1732775601317,1732775601336,1732775601354,1732775601367,1732775601384,1732775601404,1732775601420,1732775601436,1732775601454,1732775601471,1732775601484,1732775601503,1732775601525,1732775601534,1732775601550,1732775601567,1732775601583,1732775601605,1732775601618,1732775601634,1732775601650,1732775601667,1732775601684,1732775601700,1732775601717,1732775601741,1732775601750,1732775601767,1732775601792,1732775601801,1732775601817,1732775601833,1732775601850,1732775601871,1732775601884,1732775601900,1732775601919,1732775601936,1732775601952,1732775601967,1732775601988,1732775602004,1732775602021,1732775602037,1732775602054,1732775602071,1732775602086,1732775602100,1732775602118,1732775602133,1732775602150,1732775602167,1732775602184,1732775602201,1732775602217,1732775602233,1732775602252,1732775602270,1732775602287,1732775602303,1732775602317,1732775602333,1732775602350,1732775602369,1732775602384,1732775602400,1732775602417,1732775602433,1732775602451,1732775602468,1732775602486,1732775602500,1732775602517,1732775602533,1732775602550,1732775602567,1732775602585,1732775602600,1732775602620,1732775602636,1732775602650,1732775602667,1732775602684,1732775602700,1732775602717,1732775602734,1732775602750,1732775602767,1732775602783,1732775602800,1732775602817,1732775602833,1732775602851,1732775602867,1732775602885,1732775602902,1732775602917,1732775602934,1732775602950]","[[769.2,472.5],[751.5,475.7],[737.4,486.6],[723.5,491],[709.6,495.4],[699.6,493.4],[705,492.6],[692.5,486.9],[680,481.2],[671.4,478.2],[654.1,474],[650.9,479.9],[661.5,485.8],[663.4,489.4],[672.4,492.1],[673.9,496.3],[657.9,500],[648.4,506.8],[638.9,513.6],[644.4,503.3],[658.6,494.2],[675.4,494.8],[678.4,495.4],[682.6,498.9],[679.7,503.3],[672.1,498],[682,493.2],[701.8,490.9],[721.6,488.6],[722,485.5],[723.3,486],[722,476.8],[715.1,465.9],[712.3,454.5],[730.5,451.8],[760.6,463.2],[782.3,472.4],[782.3,472.4],[797.4,476.3],[797.4,476.3],[815.8,479.9],[832,481.3],[832,481.3],[847.3,479.1],[847.3,479.1],[860.1,476.7],[860.1,476.7],[871.3,480.6],[871.3,480.6],[896.2,509.3],[896.8,505],[887,495.5],[887,495.5],[885.6,488.2],[888.1,493.2],[905,487.4],[922.8,489.1],[940.6,490.8],[940.6,490.8],[959.9,493.5],[979.2,494],[985.9,472.4],[985.9,472.4],[1001.4,474.6],[1001.4,474.6],[1018.6,473.7],[1035.8,472.8],[1035.8,472.8],[1041.3,468.9],[1036.7,483.9],[1036.7,483.9],[1035.6,497],[1035.6,497],[1033.5,500.1],[1033.5,500.1],[1046.4,494.3],[1046.4,494.3],[1070.6,497.9],[1070.6,497.9],[1086.2,498.8],[1086.2,498.8],[1097.8,493.7],[1094.6,482.7],[1094.6,482.7],[1104.4,481],[1115.8,462.5],[1111.8,436.4],[1118.4,420.8],[1112.5,413],[1098.2,406.4],[1081.6,392.1],[1071.5,381.2],[1062.7,376.4],[1076,373.6],[1076.3,361.5],[1084.9,371.6],[1093.2,377.2],[1089.3,374.4],[1089.3,374.4],[1097.5,373.2],[1097.5,373.2],[1101,386.2],[1066,377.3],[1044.3,389.7],[1016.9,404.1],[1001.5,423],[976.1,443.4],[945.3,451.9],[927.2,486.5],[917.3,511.4],[884.3,543],[850.4,567.3],[867.2,640.3],[869.5,697.8],[874.7,753.7],[863.2,796.4],[861.7,837.6],[858.9,841.9],[851.5,824.4],[806.9,816.9],[786.8,803.3],[795.4,773.8],[791.8,713.5],[799.6,649.9],[807.4,586.3],[810.8,545.4],[824.8,507.1],[826.7,508.7],[826.3,501.7],[864.1,489.5],[901.9,477.3],[893.9,474.1],[889.6,473.8],[877.2,470.3],[867.9,470.6],[863.1,464.1],[834.2,453.4],[818.7,439.7],[807.3,437.9],[785.7,433.9],[764.1,429.9],[762.7,447.7],[755.8,462.5],[753.2,471.1],[747.5,475.9],[773.4,482.6],[812.8,490.9],[840.1,500.3]]","[0,0.151169218]","[0.151169218,0.151169218]","[-0.151169218,-0.151169218]","[-0.151169218,0]","[0,-0.151169218]","[0.151169218,-0.151169218]","[0,0]","[0.151169218,0]",0,2,2,2,1,3,Smartphone,5,5,15,9
