inst1_resp.keys,inst1_resp.rt,calibrationMouse.x,calibrationMouse.y,calibrationMouse.leftButton,calibrationMouse.midButton,calibrationMouse.rightButton,calibrationClick.x,calibrationClick.y,calibrationClick.leftButton,calibrationClick.midButton,calibrationClick.rightButton,calibrationClick.clicked_name,trialsc.thisRepN,trialsc.thisTrialN,trialsc.thisN,trialsc.thisIndex,trialsc.ran,calibration_x,calibration_y,participant,session,date,expName,psychopyVersion,OS,frameRate,ScreenRes_pixels,Camera_pixels,mouse_2.x,mouse_2.y,mouse_2.leftButton,mouse_2.midButton,mouse_2.rightButton,mouse_2.time,mouse_2.clicked_name,mouse.x,mouse.y,mouse.leftButton,mouse.midButton,mouse.rightButton,mouse.time,mouse.clicked_name,Choice,Trial,TrialDuration,MOUSE_GAZE,ET_GAZE,ET_GAZE_x_T,time,unixTime,ET_GAZE_NF,Loc_Option1_label,Loc_Option2_label,Loc_Cost_label,Loc_Qual_label,Loc_Option1_cost,Loc_Option2_cost,Loc_Option1_quality,Loc_Option2_quality,trials.thisRepN,trials.thisTrialN,trials.thisN,trials.thisIndex,trials.ran,Block,Device,cost1,qual1,cost2,qual2
space,3.4271,0.258333333,-0.137037037,1,0,0,0.003125,0.32037037,1,0,0,calibration_square,0,0,0,12,1,0,0.33,29,001,2024-12-04_10h39.43.410,Attention_exp_legacy,2023.1.0,Win32,60.24096386,,,,,,,,,,,,,,,,,,,,,,,,,,,,,,,,,,,,,,,,,,,,
,,,,,,,0.002083333,-0.672222222,1,0,0,calibration_square,0,1,1,9,1,0,-0.67,29,001,2024-12-04_10h39.43.410,Attention_exp_legacy,2023.1.0,Win32,60.24096386,,,,,,,,,,,,,,,,,,,,,,,,,,,,,,,,,,,,,,,,,,,,
,,,,,,,-0.673958333,-0.340740741,1,0,0,,0,2,2,1,1,-0.67,-0.33,29,001,2024-12-04_10h39.43.410,Attention_exp_legacy,2023.1.0,Win32,60.24096386,,,,,,,,,,,,,,,,,,,,,,,,,,,,,,,,,,,,,,,,,,,,
,,,,,,,-0.6625,-0.001851852,1,0,0,calibration_square,0,3,3,2,1,-0.67,0,29,001,2024-12-04_10h39.43.410,Attention_exp_legacy,2023.1.0,Win32,60.24096386,,,,,,,,,,,,,,,,,,,,,,,,,,,,,,,,,,,,,,,,,,,,
,,,,,,,0.00625,-0.318518519,1,0,0,,0,4,4,10,1,0,-0.33,29,001,2024-12-04_10h39.43.410,Attention_exp_legacy,2023.1.0,Win32,60.24096386,,,,,,,,,,,,,,,,,,,,,,,,,,,,,,,,,,,,,,,,,,,,
,,,,,,,0.340625,0.316666667,1,0,0,,0,5,5,17,1,0.33,0.33,29,001,2024-12-04_10h39.43.410,Attention_exp_legacy,2023.1.0,Win32,60.24096386,,,,,,,,,,,,,,,,,,,,,,,,,,,,,,,,,,,,,,,,,,,,
,,,,,,,-0.35,-0.675925926,1,0,0,,0,6,6,4,1,-0.33,-0.67,29,001,2024-12-04_10h39.43.410,Attention_exp_legacy,2023.1.0,Win32,60.24096386,,,,,,,,,,,,,,,,,,,,,,,,,,,,,,,,,,,,,,,,,,,,
,,,,,,,-0.325,0.325925926,1,0,0,calibration_square,0,7,7,7,1,-0.33,0.33,29,001,2024-12-04_10h39.43.410,Attention_exp_legacy,2023.1.0,Win32,60.24096386,,,,,,,,,,,,,,,,,,,,,,,,,,,,,,,,,,,,,,,,,,,,
,,,,,,,0.6875,-0.67037037,1,0,0,,0,8,8,20,1,0.67,-0.67,29,001,2024-12-04_10h39.43.410,Attention_exp_legacy,2023.1.0,Win32,60.24096386,,,,,,,,,,,,,,,,,,,,,,,,,,,,,,,,,,,,,,,,,,,,
,,,,,,,-0.002083333,-0.011111111,1,0,0,,0,9,9,11,1,0,0,29,001,2024-12-04_10h39.43.410,Attention_exp_legacy,2023.1.0,Win32,60.24096386,,,,,,,,,,,,,,,,,,,,,,,,,,,,,,,,,,,,,,,,,,,,
,,,,,,,0.334375,0.681481481,1,0,0,,0,10,10,18,1,0.33,0.67,29,001,2024-12-04_10h39.43.410,Attention_exp_legacy,2023.1.0,Win32,60.24096386,,,,,,,,,,,,,,,,,,,,,,,,,,,,,,,,,,,,,,,,,,,,
,,,,,,,0.333333333,-0.005555556,1,0,0,calibration_square,0,11,11,16,1,0.33,0,29,001,2024-12-04_10h39.43.410,Attention_exp_legacy,2023.1.0,Win32,60.24096386,,,,,,,,,,,,,,,,,,,,,,,,,,,,,,,,,,,,,,,,,,,,
,,,,,,,-0.669791667,-0.67962963,1,0,0,calibration_square,0,12,12,0,1,-0.67,-0.67,29,001,2024-12-04_10h39.43.410,Attention_exp_legacy,2023.1.0,Win32,60.24096386,,,,,,,,,,,,,,,,,,,,,,,,,,,,,,,,,,,,,,,,,,,,
,,,,,,,-0.321875,-0.333333333,1,0,0,calibration_square,0,13,13,5,1,-0.33,-0.33,29,001,2024-12-04_10h39.43.410,Attention_exp_legacy,2023.1.0,Win32,60.24096386,,,,,,,,,,,,,,,,,,,,,,,,,,,,,,,,,,,,,,,,,,,,
,,,,,,,0.001041667,0.672222222,1,0,0,calibration_square,0,14,14,13,1,0,0.67,29,001,2024-12-04_10h39.43.410,Attention_exp_legacy,2023.1.0,Win32,60.24096386,,,,,,,,,,,,,,,,,,,,,,,,,,,,,,,,,,,,,,,,,,,,
,,,,,,,0.65625,0.674074074,1,0,0,,0,15,15,19,1,0.67,0.67,29,001,2024-12-04_10h39.43.410,Attention_exp_legacy,2023.1.0,Win32,60.24096386,,,,,,,,,,,,,,,,,,,,,,,,,,,,,,,,,,,,,,,,,,,,
,,,,,,,0.326041667,-0.316666667,1,0,0,,0,16,16,15,1,0.33,-0.33,29,001,2024-12-04_10h39.43.410,Attention_exp_legacy,2023.1.0,Win32,60.24096386,,,,,,,,,,,,,,,,,,,,,,,,,,,,,,,,,,,,,,,,,,,,
,,,,,,,-0.321875,0.681481481,1,0,0,,0,17,17,8,1,-0.33,0.67,29,001,2024-12-04_10h39.43.410,Attention_exp_legacy,2023.1.0,Win32,60.24096386,,,,,,,,,,,,,,,,,,,,,,,,,,,,,,,,,,,,,,,,,,,,
,,,,,,,0.336458333,-0.662962963,1,0,0,calibration_square,0,18,18,14,1,0.33,-0.67,29,001,2024-12-04_10h39.43.410,Attention_exp_legacy,2023.1.0,Win32,60.24096386,,,,,,,,,,,,,,,,,,,,,,,,,,,,,,,,,,,,,,,,,,,,
,,,,,,,-0.677083333,0.32037037,1,0,0,calibration_square,0,19,19,3,1,-0.67,0.33,29,001,2024-12-04_10h39.43.410,Attention_exp_legacy,2023.1.0,Win32,60.24096386,,,,,,,,,,,,,,,,,,,,,,,,,,,,,,,,,,,,,,,,,,,,
,,,,,,,-0.339583333,-0.007407407,1,0,0,calibration_square,0,20,20,6,1,-0.33,0,29,001,2024-12-04_10h39.43.410,Attention_exp_legacy,2023.1.0,Win32,60.24096386,,,,,,,,,,,,,,,,,,,,,,,,,,,,,,,,,,,,,,,,,,,,
,,,,,,,,,,,,,,,,,,,,29,001,2024-12-04_10h39.43.410,Attention_exp_legacy,2023.1.0,Win32,60.24096386,"[1920,1080]","[640,480]",[0.016666666666666666],[-0.48703703703703705],[1],[0],[0],[4.182899999998504],"[""StartButton""]","[-0.08333333333333333,0.04375]","[-0.06481481481481481,0.5907407407407408]","[1,1]","[0,0]","[0,0]","[7.664199999995539,8.729500000000009]","[""Option1_label""]",Option1_label,1,9.7395,"[[0.3177083333333333,-0.08703703703703704],[0.3177083333333333,-0.08703703703703704],[0.3177083333333333,-0.08703703703703704],[0.3177083333333333,-0.08703703703703704],[0.3177083333333333,-0.08703703703703704],[0.3177083333333333,-0.08703703703703704],[0.3177083333333333,-0.08703703703703704],[0.3177083333333333,-0.08703703703703704],[0.3177083333333333,-0.08703703703703704],[0.3177083333333333,-0.08703703703703704],[0.3177083333333333,-0.08703703703703704],[0.3177083333333333,-0.08703703703703704],[0.3177083333333333,-0.08703703703703704],[0.3177083333333333,-0.08703703703703704],[0.3177083333333333,-0.08703703703703704],[0.3177083333333333,-0.08703703703703704],[0.3177083333333333,-0.08703703703703704],[0.3177083333333333,-0.08703703703703704],[0.3177083333333333,-0.08703703703703704],[0.3177083333333333,-0.08703703703703704],[0.3177083333333333,-0.08703703703703704],[0.3177083333333333,-0.08703703703703704],[0.3177083333333333,-0.08703703703703704],[0.3177083333333333,-0.08703703703703704],[0.3177083333333333,-0.08703703703703704],[0.3177083333333333,-0.08703703703703704],[0.3177083333333333,-0.08703703703703704],[0.3177083333333333,-0.08703703703703704],[0.3177083333333333,-0.08703703703703704],[0.3177083333333333,-0.08703703703703704],[0.3177083333333333,-0.08703703703703704],[0.3177083333333333,-0.08703703703703704],[0.3177083333333333,-0.08703703703703704],[0.3177083333333333,-0.08703703703703704],[0.3177083333333333,-0.08703703703703704],[0.3177083333333333,-0.08703703703703704],[0.3177083333333333,-0.08703703703703704],[0.3177083333333333,-0.08703703703703704],[0.3177083333333333,-0.08703703703703704],[0.3177083333333333,-0.08703703703703704],[0.3177083333333333,-0.08703703703703704],[0.3177083333333333,-0.08703703703703704],[0.3177083333333333,-0.08703703703703704],[0.3177083333333333,-0.08703703703703704],[0.3177083333333333,-0.08703703703703704],[0.3177083333333333,-0.08703703703703704],[0.3177083333333333,-0.08703703703703704],[0.3177083333333333,-0.08703703703703704],[0.3177083333333333,-0.08703703703703704],[0.3177083333333333,-0.08703703703703704],[0.3177083333333333,-0.08703703703703704],[0.3177083333333333,-0.08703703703703704],[0.3177083333333333,-0.08703703703703704],[0.3177083333333333,-0.08703703703703704],[0.3177083333333333,-0.08703703703703704],[0.3177083333333333,-0.08703703703703704],[0.3177083333333333,-0.08703703703703704],[0.3177083333333333,-0.08703703703703704],[0.3177083333333333,-0.08703703703703704],[0.3177083333333333,-0.08703703703703704],[0.3177083333333333,-0.08703703703703704],[0.3177083333333333,-0.08703703703703704],[0.3177083333333333,-0.08703703703703704],[0.3177083333333333,-0.08703703703703704],[0.3177083333333333,-0.08703703703703704],[0.3177083333333333,-0.08703703703703704],[0.3177083333333333,-0.08703703703703704],[0.3177083333333333,-0.08703703703703704],[0.3177083333333333,-0.08703703703703704],[0.3177083333333333,-0.08703703703703704],[0.3177083333333333,-0.08703703703703704],[0.3177083333333333,-0.08703703703703704],[0.3177083333333333,-0.08703703703703704],[0.3177083333333333,-0.08703703703703704],[0.3177083333333333,-0.08703703703703704],[0.3177083333333333,-0.08703703703703704],[0.3177083333333333,-0.08703703703703704],[0.3177083333333333,-0.08703703703703704],[0.3177083333333333,-0.08703703703703704],[0.3177083333333333,-0.08703703703703704],[0.3177083333333333,-0.08703703703703704],[0.3177083333333333,-0.08703703703703704],[0.3177083333333333,-0.08703703703703704],[0.3177083333333333,-0.08703703703703704],[0.3177083333333333,-0.08703703703703704],[0.3177083333333333,-0.08703703703703704],[0.3177083333333333,-0.08703703703703704],[0.3177083333333333,-0.08703703703703704],[0.3177083333333333,-0.08703703703703704],[0.3177083333333333,-0.08703703703703704],[0.3177083333333333,-0.08703703703703704],[0.3177083333333333,-0.08703703703703704],[0.3177083333333333,-0.08703703703703704],[0.3177083333333333,-0.08703703703703704],[0.3177083333333333,-0.08703703703703704],[0.3177083333333333,-0.08703703703703704],[0.3177083333333333,-0.08703703703703704],[0.3177083333333333,-0.08703703703703704],[0.3177083333333333,-0.08703703703703704],[0.3177083333333333,-0.08703703703703704],[0.3177083333333333,-0.08703703703703704],[0.3177083333333333,-0.08703703703703704],[0.3177083333333333,-0.08703703703703704],[0.3177083333333333,-0.08703703703703704],[0.3177083333333333,-0.08703703703703704],[0.3177083333333333,-0.08703703703703704],[0.3177083333333333,-0.08703703703703704],[0.3177083333333333,-0.08703703703703704],[0.3177083333333333,-0.08703703703703704],[0.3177083333333333,-0.08703703703703704],[0.3177083333333333,-0.08703703703703704],[0.3177083333333333,-0.08703703703703704],[0.3177083333333333,-0.08703703703703704],[0.3177083333333333,-0.08703703703703704],[0.3177083333333333,-0.08703703703703704],[0.3177083333333333,-0.08703703703703704],[0.3177083333333333,-0.08703703703703704],[0.3177083333333333,-0.08703703703703704],[0.3177083333333333,-0.08703703703703704],[0.3177083333333333,-0.08703703703703704],[0.3177083333333333,-0.08703703703703704],[0.3177083333333333,-0.08703703703703704],[0.3177083333333333,-0.08703703703703704],[0.3177083333333333,-0.08703703703703704],[0.3177083333333333,-0.08703703703703704],[0.3177083333333333,-0.08703703703703704],[0.3177083333333333,-0.08703703703703704],[0.3177083333333333,-0.08703703703703704],[0.3177083333333333,-0.08703703703703704],[0.3177083333333333,-0.08703703703703704],[0.3177083333333333,-0.08703703703703704],[0.3177083333333333,-0.08703703703703704],[0.3177083333333333,-0.08703703703703704],[0.3177083333333333,-0.08703703703703704],[0.3177083333333333,-0.08703703703703704],[0.3177083333333333,-0.08703703703703704],[0.3177083333333333,-0.08703703703703704],[0.3177083333333333,-0.08703703703703704],[0.3177083333333333,-0.08703703703703704],[0.3177083333333333,-0.08703703703703704],[0.3177083333333333,-0.08703703703703704],[0.3177083333333333,-0.08703703703703704],[0.3177083333333333,-0.08703703703703704],[0.3177083333333333,-0.08703703703703704],[0.3177083333333333,-0.08703703703703704],[0.3177083333333333,-0.08703703703703704],[0.3177083333333333,-0.08703703703703704],[0.3177083333333333,-0.08703703703703704],[0.3177083333333333,-0.08703703703703704],[0.3177083333333333,-0.08703703703703704],[0.3177083333333333,-0.08703703703703704],[0.3177083333333333,-0.08703703703703704],[0.3177083333333333,-0.08703703703703704],[0.3177083333333333,-0.08703703703703704],[0.3177083333333333,-0.08703703703703704],[0.3177083333333333,-0.08703703703703704],[0.3177083333333333,-0.08703703703703704],[0.3177083333333333,-0.08703703703703704],[0.3177083333333333,-0.08703703703703704],[0.3177083333333333,-0.08703703703703704],[0.3177083333333333,-0.08703703703703704],[0.3177083333333333,-0.08703703703703704],[0.3177083333333333,-0.08703703703703704],[0.3177083333333333,-0.08703703703703704],[0.3177083333333333,-0.08703703703703704],[0.3177083333333333,-0.08703703703703704],[0.3177083333333333,-0.08703703703703704],[0.3177083333333333,-0.08703703703703704],[0.3177083333333333,-0.08703703703703704],[0.3177083333333333,-0.08703703703703704],[0.3177083333333333,-0.08703703703703704],[0.3177083333333333,-0.08703703703703704],[0.3177083333333333,-0.08703703703703704],[0.3177083333333333,-0.08703703703703704],[0.3177083333333333,-0.08703703703703704],[0.3177083333333333,-0.08703703703703704],[0.3177083333333333,-0.08703703703703704],[0.3177083333333333,-0.08703703703703704],[0.3177083333333333,-0.08703703703703704],[0.3177083333333333,-0.08703703703703704],[0.3177083333333333,-0.08703703703703704],[0.3177083333333333,-0.08703703703703704],[0.3177083333333333,-0.08703703703703704],[0.3177083333333333,-0.08703703703703704],[0.3177083333333333,-0.08703703703703704],[0.3177083333333333,-0.08703703703703704],[0.3177083333333333,-0.08703703703703704],[0.3177083333333333,-0.08703703703703704],[0.3177083333333333,-0.08703703703703704],[0.3177083333333333,-0.08703703703703704],[0.3177083333333333,-0.08703703703703704],[0.3177083333333333,-0.08703703703703704],[0.3177083333333333,-0.08703703703703704],[0.3177083333333333,-0.08703703703703704],[0.3177083333333333,-0.08703703703703704],[0.3177083333333333,-0.08703703703703704],[0.3177083333333333,-0.08703703703703704],[0.3177083333333333,-0.08703703703703704],[0.3177083333333333,-0.08703703703703704],[0.3177083333333333,-0.08703703703703704],[0.3177083333333333,-0.08703703703703704],[0.3177083333333333,-0.08703703703703704],[0.3177083333333333,-0.08703703703703704],[0.3177083333333333,-0.08703703703703704],[0.3177083333333333,-0.08703703703703704],[0.3177083333333333,-0.08703703703703704],[0.3177083333333333,-0.08703703703703704],[0.3177083333333333,-0.08703703703703704],[0.3177083333333333,-0.08703703703703704],[0.3177083333333333,-0.08703703703703704],[0.3177083333333333,-0.08703703703703704],[0.3177083333333333,-0.08703703703703704],[0.3177083333333333,-0.08703703703703704],[0.3177083333333333,-0.08703703703703704],[0.3177083333333333,-0.08703703703703704],[0.3177083333333333,-0.08703703703703704],[0.3177083333333333,-0.08703703703703704],[0.3177083333333333,-0.08703703703703704],[0.3177083333333333,-0.08703703703703704],[0.3177083333333333,-0.08703703703703704],[0.3177083333333333,-0.08703703703703704],[0.3177083333333333,-0.08703703703703704],[0.3177083333333333,-0.08703703703703704],[0.3177083333333333,-0.08703703703703704],[0.3177083333333333,-0.08703703703703704],[0.3177083333333333,-0.08703703703703704],[0.3177083333333333,-0.08703703703703704],[0.3177083333333333,-0.08703703703703704],[0.3177083333333333,-0.08703703703703704],[0.3177083333333333,-0.08703703703703704],[0.3177083333333333,-0.08703703703703704],[0.3177083333333333,-0.08703703703703704],[0.3177083333333333,-0.08703703703703704],[0.3177083333333333,-0.08703703703703704],[0.3177083333333333,-0.08703703703703704],[0.3177083333333333,-0.08703703703703704],[0.3177083333333333,-0.08703703703703704],[0.3177083333333333,-0.08703703703703704],[0.3177083333333333,-0.08703703703703704],[0.3177083333333333,-0.08703703703703704],[0.3177083333333333,-0.08703703703703704],[0.3177083333333333,-0.08703703703703704],[0.3177083333333333,-0.08703703703703704],[0.3177083333333333,-0.08703703703703704],[0.3177083333333333,-0.08703703703703704],[0.3177083333333333,-0.08703703703703704],[0.3177083333333333,-0.08703703703703704],[0.3177083333333333,-0.08703703703703704],[0.3177083333333333,-0.08703703703703704],[0.3177083333333333,-0.08703703703703704],[0.3177083333333333,-0.08703703703703704],[0.3177083333333333,-0.08703703703703704],[0.3177083333333333,-0.08703703703703704],[0.3177083333333333,-0.08703703703703704],[0.3177083333333333,-0.08703703703703704],[0.3177083333333333,-0.08703703703703704],[0.3177083333333333,-0.08703703703703704],[0.3177083333333333,-0.08703703703703704],[0.3177083333333333,-0.08703703703703704],[0.3177083333333333,-0.08703703703703704],[0.3177083333333333,-0.08703703703703704],[0.3177083333333333,-0.08703703703703704],[0.3177083333333333,-0.08703703703703704],[0.3177083333333333,-0.08703703703703704],[0.3177083333333333,-0.08703703703703704],[0.3177083333333333,-0.08703703703703704],[0.3177083333333333,-0.08703703703703704],[0.3177083333333333,-0.08703703703703704],[0.3177083333333333,-0.08703703703703704],[0.3177083333333333,-0.08703703703703704],[0.3177083333333333,-0.08703703703703704],[0.3177083333333333,-0.08703703703703704],[0.3177083333333333,-0.08703703703703704],[0.3177083333333333,-0.08703703703703704],[0.3177083333333333,-0.08703703703703704],[0.3177083333333333,-0.08703703703703704],[0.3177083333333333,-0.08703703703703704],[0.3177083333333333,-0.08703703703703704],[0.3177083333333333,-0.08703703703703704],[0.3177083333333333,-0.08703703703703704],[0.3177083333333333,-0.08703703703703704],[0.3177083333333333,-0.08703703703703704],[0.3177083333333333,-0.08703703703703704],[0.3177083333333333,-0.08703703703703704],[0.3177083333333333,-0.08703703703703704],[0.3177083333333333,-0.08703703703703704],[0.3177083333333333,-0.08703703703703704],[0.3177083333333333,-0.08703703703703704],[0.3177083333333333,-0.08703703703703704],[0.3177083333333333,-0.08703703703703704],[0.3177083333333333,-0.08703703703703704],[0.3177083333333333,-0.08703703703703704],[0.3177083333333333,-0.08703703703703704],[0.3177083333333333,-0.08703703703703704],[0.3177083333333333,-0.08703703703703704],[0.3177083333333333,-0.08703703703703704],[0.3177083333333333,-0.08703703703703704],[0.3177083333333333,-0.08703703703703704],[0.3177083333333333,-0.08703703703703704],[0.3177083333333333,-0.08703703703703704],[0.3177083333333333,-0.08703703703703704],[0.3177083333333333,-0.08703703703703704],[0.3177083333333333,-0.08703703703703704],[0.3177083333333333,-0.08703703703703704],[0.3177083333333333,-0.08703703703703704],[0.3177083333333333,-0.08703703703703704],[0.3177083333333333,-0.08703703703703704],[0.3177083333333333,-0.08703703703703704],[0.3177083333333333,-0.08703703703703704],[0.3177083333333333,-0.08703703703703704],[0.3177083333333333,-0.08703703703703704],[0.3177083333333333,-0.08703703703703704],[0.3177083333333333,-0.08703703703703704],[0.3177083333333333,-0.08703703703703704],[0.3177083333333333,-0.08703703703703704],[0.3177083333333333,-0.08703703703703704],[0.3177083333333333,-0.08703703703703704],[0.3177083333333333,-0.08703703703703704],[0.3177083333333333,-0.08703703703703704],[0.3177083333333333,-0.08703703703703704],[0.3177083333333333,-0.08703703703703704],[0.3177083333333333,-0.08703703703703704],[0.3177083333333333,-0.08703703703703704],[0.3177083333333333,-0.08703703703703704],[0.3177083333333333,-0.08703703703703704],[0.3177083333333333,-0.08703703703703704],[0.3177083333333333,-0.08703703703703704],[0.3177083333333333,-0.08703703703703704],[0.3177083333333333,-0.08703703703703704],[0.3177083333333333,-0.08703703703703704],[0.3177083333333333,-0.08703703703703704],[0.3177083333333333,-0.08703703703703704],[0.3177083333333333,-0.08703703703703704],[0.3177083333333333,-0.08703703703703704],[0.3177083333333333,-0.08703703703703704],[0.3177083333333333,-0.08703703703703704],[0.3177083333333333,-0.08703703703703704],[0.3177083333333333,-0.08703703703703704],[0.3177083333333333,-0.08703703703703704],[0.3177083333333333,-0.08703703703703704],[0.3177083333333333,-0.08703703703703704],[0.3177083333333333,-0.08703703703703704],[0.3177083333333333,-0.08703703703703704],[0.3177083333333333,-0.08703703703703704],[0.3177083333333333,-0.08703703703703704],[0.3177083333333333,-0.08703703703703704],[0.3177083333333333,-0.08703703703703704],[0.3177083333333333,-0.08703703703703704],[0.3177083333333333,-0.08703703703703704],[0.3177083333333333,-0.08703703703703704],[0.3177083333333333,-0.08703703703703704],[0.3177083333333333,-0.08703703703703704],[0.3177083333333333,-0.08703703703703704],[0.3177083333333333,-0.08703703703703704],[0.3177083333333333,-0.08703703703703704],[0.3177083333333333,-0.08703703703703704],[0.3177083333333333,-0.08703703703703704],[0.3177083333333333,-0.08703703703703704],[0.3177083333333333,-0.08703703703703704],[0.3177083333333333,-0.08703703703703704],[0.3177083333333333,-0.08703703703703704],[0.3177083333333333,-0.08703703703703704],[0.3177083333333333,-0.08703703703703704],[0.3177083333333333,-0.08703703703703704],[0.3177083333333333,-0.08703703703703704],[0.3177083333333333,-0.08703703703703704],[0.3177083333333333,-0.08703703703703704],[0.3177083333333333,-0.08703703703703704],[0.3177083333333333,-0.08703703703703704],[0.3177083333333333,-0.08703703703703704],[0.3177083333333333,-0.08703703703703704],[0.3177083333333333,-0.08703703703703704],[0.3177083333333333,-0.08703703703703704],[0.3177083333333333,-0.08703703703703704],[0.3177083333333333,-0.08703703703703704],[0.3177083333333333,-0.08703703703703704],[0.3177083333333333,-0.08703703703703704],[0.3177083333333333,-0.08703703703703704],[0.3177083333333333,-0.08703703703703704],[0.3177083333333333,-0.08703703703703704],[0.3177083333333333,-0.08703703703703704],[0.3177083333333333,-0.08703703703703704],[0.3177083333333333,-0.08703703703703704],[0.3177083333333333,-0.08703703703703704],[0.3177083333333333,-0.08703703703703704],[0.3177083333333333,-0.08703703703703704],[0.3177083333333333,-0.08703703703703704],[0.3177083333333333,-0.08703703703703704],[0.3177083333333333,-0.08703703703703704],[0.3177083333333333,-0.08703703703703704],[0.3177083333333333,-0.08703703703703704],[0.3177083333333333,-0.08703703703703704],[0.3177083333333333,-0.08703703703703704],[0.3177083333333333,-0.08703703703703704],[0.3177083333333333,-0.08703703703703704],[0.315625,-0.08703703703703704],[0.3125,-0.08703703703703704],[0.30625,-0.08703703703703704],[0.2989583333333333,-0.08703703703703704],[0.290625,-0.08703703703703704],[0.2791666666666667,-0.08703703703703704],[0.2635416666666667,-0.08518518518518518],[0.24270833333333333,-0.08518518518518518],[0.21354166666666666,-0.08333333333333333],[0.18125,-0.07407407407407407],[0.10416666666666667,-0.05740740740740741],[0.04895833333333333,-0.04259259259259259],[0.009375,-0.03333333333333333],[-0.011458333333333333,-0.027777777777777776],[-0.016666666666666666,-0.025925925925925925],[-0.016666666666666666,-0.025925925925925925],[-0.016666666666666666,-0.025925925925925925],[-0.016666666666666666,-0.025925925925925925],[-0.016666666666666666,-0.025925925925925925],[-0.016666666666666666,-0.025925925925925925],[-0.016666666666666666,-0.025925925925925925],[-0.016666666666666666,-0.025925925925925925],[-0.017708333333333333,-0.024074074074074074],[-0.0125,-0.020370370370370372],[-0.00625,-0.018518518518518517],[0.0020833333333333333,-0.012962962962962963],[0.007291666666666667,-0.011111111111111112],[0.013541666666666667,-0.011111111111111112],[0.01875,-0.011111111111111112],[0.025,-0.011111111111111112],[0.030208333333333334,-0.011111111111111112],[0.034375,-0.011111111111111112],[0.03854166666666667,-0.011111111111111112],[0.03958333333333333,-0.011111111111111112],[0.03958333333333333,-0.011111111111111112],[0.041666666666666664,-0.011111111111111112],[0.041666666666666664,-0.011111111111111112],[0.041666666666666664,-0.011111111111111112],[0.041666666666666664,-0.011111111111111112],[0.041666666666666664,-0.011111111111111112],[0.041666666666666664,-0.011111111111111112],[0.041666666666666664,-0.011111111111111112],[0.041666666666666664,-0.011111111111111112],[0.041666666666666664,-0.011111111111111112],[0.041666666666666664,-0.011111111111111112],[0.041666666666666664,-0.011111111111111112],[0.041666666666666664,-0.011111111111111112],[0.041666666666666664,-0.011111111111111112],[0.041666666666666664,-0.011111111111111112],[0.041666666666666664,-0.011111111111111112],[0.036458333333333336,-0.014814814814814815],[0.017708333333333333,-0.024074074074074074],[-0.005208333333333333,-0.03888888888888889],[-0.030208333333333334,-0.05],[-0.053125,-0.05925925925925926],[-0.06979166666666667,-0.06296296296296296],[-0.07916666666666666,-0.06481481481481481],[-0.08229166666666667,-0.06481481481481481],[-0.08333333333333333,-0.06481481481481481],[-0.08333333333333333,-0.06481481481481481],[-0.08333333333333333,-0.06481481481481481],[-0.08333333333333333,-0.06481481481481481],[-0.08333333333333333,-0.06481481481481481],[-0.08333333333333333,-0.06481481481481481],[-0.08333333333333333,-0.06481481481481481],[-0.084375,-0.06666666666666667],[-0.084375,-0.06666666666666667],[-0.084375,-0.06666666666666667],[-0.084375,-0.06666666666666667],[-0.084375,-0.06666666666666667],[-0.084375,-0.06666666666666667],[-0.084375,-0.06666666666666667],[-0.084375,-0.06666666666666667],[-0.084375,-0.06666666666666667],[-0.084375,-0.06666666666666667],[-0.084375,-0.06666666666666667],[-0.084375,-0.06666666666666667],[-0.084375,-0.06666666666666667],[-0.084375,-0.06666666666666667],[-0.084375,-0.06666666666666667],[-0.084375,-0.06666666666666667],[-0.084375,-0.06666666666666667],[-0.084375,-0.06666666666666667],[-0.084375,-0.06666666666666667],[-0.084375,-0.06666666666666667],[-0.084375,-0.06666666666666667],[-0.084375,-0.06666666666666667],[-0.084375,-0.06666666666666667],[-0.084375,-0.06666666666666667],[-0.084375,-0.06666666666666667],[-0.084375,-0.06666666666666667],[-0.084375,-0.06666666666666667],[-0.084375,-0.06666666666666667],[-0.084375,-0.06666666666666667],[-0.084375,-0.06666666666666667],[-0.084375,-0.06666666666666667],[-0.084375,-0.06666666666666667],[-0.084375,-0.06666666666666667],[-0.084375,-0.06666666666666667],[-0.07708333333333334,-0.025925925925925925],[-0.06145833333333333,0.04259259259259259],[-0.03125,0.17222222222222222],[-0.005208333333333333,0.28703703703703703],[0.019791666666666666,0.40555555555555556],[0.07083333333333333,0.6259259259259259],[0.09375,0.7037037037037037],[0.103125,0.7296296296296296],[0.1125,0.7592592592592593],[0.1125,0.7592592592592593],[0.1125,0.7592592592592593],[0.1125,0.7592592592592593],[0.1125,0.7592592592592593],[0.1125,0.7592592592592593],[0.1125,0.7592592592592593],[0.1125,0.7592592592592593],[0.1125,0.7592592592592593],[0.1125,0.7592592592592593],[0.1125,0.7555555555555555],[0.109375,0.7407407407407407],[0.096875,0.7018518518518518],[0.084375,0.6722222222222223],[0.07083333333333333,0.6425925925925926],[0.058333333333333334,0.6185185185185185],[0.051041666666666666,0.6037037037037037],[0.04583333333333333,0.5962962962962963],[0.04375,0.5925925925925926],[0.04375,0.5907407407407408],[0.04375,0.5907407407407408],[0.04375,0.5907407407407408],[0.04375,0.5907407407407408],[0.04375,0.5907407407407408],[0.04375,0.5907407407407408],[0.04375,0.5907407407407408],[0.04375,0.5907407407407408],[0.04375,0.5907407407407408],[0.04375,0.5907407407407408],[0.04375,0.5907407407407408],[0.04375,0.5907407407407408],[0.04375,0.5907407407407408],[0.04375,0.5907407407407408],[0.04375,0.5907407407407408],[0.04375,0.5907407407407408],[0.04375,0.5907407407407408],[0.04375,0.5907407407407408],[0.04375,0.5907407407407408],[0.04375,0.5907407407407408],[0.04375,0.5907407407407408],[0.04375,0.5907407407407408],[0.04375,0.5907407407407408],[0.04375,0.5907407407407408],[0.04375,0.5907407407407408],[0.04375,0.5907407407407408],[0.04375,0.5907407407407408],[0.04375,0.5907407407407408],[0.04375,0.5907407407407408],[0.04375,0.5907407407407408],[0.04375,0.5907407407407408],[0.04375,0.5907407407407408],[0.04375,0.5907407407407408],[0.04375,0.5907407407407408],[0.04375,0.5907407407407408],[0.04375,0.5907407407407408],[0.04375,0.5907407407407408],[0.04375,0.5907407407407408],[0.04375,0.5907407407407408],[0.04375,0.5907407407407408],[0.04375,0.5907407407407408],[0.04375,0.5907407407407408],[0.04375,0.5907407407407408],[0.04375,0.5907407407407408],[0.04375,0.5907407407407408],[0.04375,0.5907407407407408],[0.04375,0.5907407407407408],[0.04375,0.5907407407407408],[0.04375,0.5907407407407408],[0.04375,0.5907407407407408],[0.04375,0.5907407407407408],[0.04375,0.5907407407407408],[0.04375,0.5907407407407408],[0.04375,0.5907407407407408],[0.04375,0.5888888888888889],[0.04375,0.5888888888888889],[0.042708333333333334,0.587037037037037],[0.042708333333333334,0.587037037037037],[0.042708333333333334,0.587037037037037],[0.042708333333333334,0.587037037037037],[0.042708333333333334,0.587037037037037],[0.042708333333333334,0.587037037037037],[0.042708333333333334,0.587037037037037]]","[[-0.01885416666666669,-0.09222222222222225],[-0.01885416666666669,-0.09222222222222225],[-0.024895833333333308,-0.09148148148148144],[-0.026145833333333358,-0.09907407407407408],[-0.03291666666666669,-0.12999999999999998],[-0.05531250000000002,-0.15870370370370368],[-0.05531250000000002,-0.15870370370370368],[-0.05395833333333329,-0.175],[-0.05395833333333329,-0.175],[-0.06156250000000003,-0.16962962962962966],[-0.06291666666666665,-0.18555555555555553],[-0.06291666666666665,-0.18555555555555553],[-0.04635416666666667,-0.20388888888888893],[-0.05364583333333333,-0.1948148148148148],[-0.05364583333333333,-0.1948148148148148],[-0.06270833333333338,-0.20129629629629628],[-0.06270833333333338,-0.20129629629629628],[-0.059687499999999956,-0.18185185185185182],[-0.059687499999999956,-0.18185185185185182],[-0.06708333333333331,-0.18555555555555553],[-0.06843750000000005,-0.15111111111111114],[-0.043020833333333286,-0.1359259259259259],[-0.017499999999999953,-0.11240740740740739],[0.006666666666666643,-0.11962962962962967],[0.027395833333333286,-0.11222222222222226],[0.0234375,-0.08759259259259261],[0.024166666666666715,-0.09425925925925922],[-0.04854166666666669,-0.07592592592592592],[-0.11604166666666664,-0.06574074074074074],[-0.16447916666666665,-0.047037037037036995],[-0.21343749999999997,-0.04314814814814806],[-0.28145833333333337,-0.017592592592592594],[-0.34958333333333336,-0.0003703703703704546],[-0.4091666666666666,0.017407407407407365],[-0.46875,0.03518518518518519],[-0.521875,0.01703703703703712],[-0.5565625,0.011666666666666582],[-0.5209375,-0.0031481481481482323],[-0.4853125,-0.01796296296296305],[-0.46552083333333333,0.009444444444444486],[-0.4527083333333334,0.025370370370370456],[-0.44812500000000005,-0.001851851851851852],[-0.44812500000000005,-0.001851851851851852],[-0.4435416666666666,-0.02907407407407416],[-0.45427083333333335,-0.04740740740740745],[-0.4703125,-0.07537037037037035],[-0.47,-0.05722222222222218],[-0.4978125,-0.05555555555555555],[-0.5294791666666667,-0.06703703703703702],[-0.5276041666666667,-0.09129629629629632],[-0.5235416666666667,-0.15962962962962962],[-0.4810416666666667,-0.205],[-0.4382291666666667,-0.2183333333333333],[-0.3832291666666666,-0.2448148148148148],[-0.3111458333333334,-0.27166666666666667],[-0.22104166666666672,-0.2729629629629629],[-0.1469791666666667,-0.2992592592592593],[-0.06968749999999997,-0.3368518518518518],[0.016354166666666715,-0.36129629629629634],[0.05416666666666667,-0.37166666666666665],[0.09197916666666663,-0.38203703703703706],[0.09812500000000005,-0.40185185185185185],[0.09468750000000009,-0.42296296296296293],[0.07593750000000009,-0.43444444444444447],[0.08385416666666666,-0.41629629629629633],[0.06375000000000004,-0.4309259259259259],[0.06375000000000004,-0.4309259259259259],[0.04364583333333331,-0.4455555555555556],[0.04041666666666662,-0.4559259259259259],[0.04041666666666662,-0.4559259259259259],[0.04916666666666671,-0.4462962962962963],[0.0696875000000001,-0.43425925925925923],[0.09020833333333324,-0.4222222222222222],[0.14166666666666666,-0.40703703703703703],[0.15343749999999995,-0.36666666666666664],[0.1553124999999999,-0.33722222222222226],[0.16218750000000004,-0.3492592592592593],[0.1423958333333334,-0.29018518518518516],[0.13020833333333334,-0.20203703703703707],[0.1306250000000001,-0.09740740740740746],[0.11906249999999995,-0.012777777777777735],[0.11906249999999995,-0.012777777777777735],[0.13479166666666675,0.04870370370370362],[0.11906249999999995,0.10166666666666663],[0.07260416666666672,0.14944444444444452],[0.10895833333333324,0.22888888888888892],[0.15833333333333333,0.3227777777777777],[0.15833333333333333,0.3227777777777777],[0.17374999999999996,0.42296296296296293],[0.2400000000000001,0.44425925925925924],[0.2400000000000001,0.44425925925925924],[0.2986458333333334,0.4364814814814816],[0.33572916666666663,0.3874074074074075],[0.36614583333333334,0.34814814814814815],[0.37218749999999995,0.32833333333333325],[0.39385416666666656,0.2957407407407408],[0.4131249999999999,0.27814814814814826],[0.41520833333333323,0.1977777777777777],[0.41729166666666656,0.11740740740740736],[0.38614583333333335,0.03777777777777774],[0.34187500000000004,0.010185185185185186],[0.24333333333333323,-0.03611111111111111],[0.14333333333333323,-0.04685185185185177],[0.030729166666666665,-0.06759259259259259],[-0.08187500000000002,-0.0883333333333333],[-0.17781250000000004,-0.06444444444444447],[-0.2713541666666667,-0.05555555555555555],[-0.36822916666666666,-0.05703703703703706],[-0.46510416666666665,-0.05851851851851856],[-0.5377083333333333,-0.03351851851851856],[-0.6060416666666666,-0.03592592592592588],[-0.6110416666666667,-0.03814814814814819],[-0.6160416666666666,-0.040370370370370286],[-0.6127083333333334,-0.05537037037037033],[-0.6127083333333334,-0.05537037037037033],[-0.609375,-0.07037037037037037],[-0.6057291666666667,-0.11240740740740739],[-0.5932291666666667,-0.12444444444444443],[-0.5963541666666666,-0.10796296296296298],[-0.611875,-0.1235185185185185],[-0.6161458333333333,-0.16074074074074077],[-0.615625,-0.18129629629629626],[-0.6241666666666668,-0.18333333333333332],[-0.6414583333333332,-0.1933333333333333],[-0.6405208333333333,-0.19222222222222224],[-0.65125,-0.16296296296296298],[-0.6493749999999999,-0.15833333333333333],[-0.6493749999999999,-0.15833333333333333],[-0.6407291666666667,-0.18629629629629635],[-0.6407291666666667,-0.18629629629629635],[-0.6439583333333334,-0.20703703703703705],[-0.6439583333333334,-0.20703703703703705],[-0.6363541666666667,-0.21722222222222223],[-0.6363541666666667,-0.21722222222222223],[-0.6476041666666668,-0.19907407407407407],[-0.6476041666666668,-0.19907407407407407],[-0.6390625,-0.17814814814814814],[-0.6390625,-0.17814814814814814],[-0.6328125,-0.13962962962962958],[-0.6429166666666667,-0.0962962962962963],[-0.6488541666666666,-0.04796296296296292],[-0.6322916666666667,-0.017592592592592594],[-0.6221875,0.0448148148148149],[-0.6283333333333334,0.09092592592592597],[-0.6226041666666667,0.12981481481481486],[-0.6382291666666667,0.23203703703703696],[-0.621875,0.26222222222222225],[-0.6267708333333334,0.2764814814814814],[-0.629375,0.27314814814814814],[-0.5978125,0.27259259259259266],[-0.5777083333333334,0.26888888888888896],[-0.5448958333333334,0.2012962962962964],[-0.519375,0.1300000000000001],[-0.49135416666666665,0.06314814814814819],[-0.46447916666666667,0.0016666666666666245],[-0.41375000000000006,-0.10111111111111115],[-0.37614583333333335,-0.16018518518518518],[-0.34052083333333333,-0.22407407407407406],[-0.30968749999999995,-0.287962962962963],[-0.30968749999999995,-0.287962962962963],[-0.2557291666666667,-0.365925925925926],[-0.19958333333333336,-0.4316666666666667],[-0.16697916666666662,-0.44370370370370377],[-0.13895833333333332,-0.4572222222222222],[-0.07583333333333328,-0.4468518518518519],[0.007395833333333357,-0.41703703703703704],[0.08916666666666657,-0.4074074074074074],[0.15770833333333342,-0.4044444444444444],[0.22489583333333343,-0.40018518518518525],[0.30572916666666666,-0.4116666666666667],[0.3651041666666667,-0.4020370370370371],[0.42249999999999993,-0.3859259259259259],[0.4794791666666666,-0.36370370370370364],[0.5299999999999999,-0.33425925925925926],[0.5483333333333335,-0.31351851851851853],[0.5413541666666667,-0.33851851851851855],[0.5348958333333333,-0.34388888888888886],[0.5442708333333334,-0.3338888888888889],[0.5439583333333334,-0.3383333333333333],[0.5529166666666666,-0.30925925925925923],[0.5511458333333332,-0.2868518518518518],[0.5394791666666667,-0.2905555555555555],[0.5311458333333334,-0.3025925925925925],[0.5223958333333333,-0.30907407407407406],[0.5223958333333333,-0.30907407407407406],[0.5189583333333334,-0.3122222222222223],[0.5189583333333334,-0.3122222222222223],[0.5186458333333335,-0.2851851851851852],[0.5309375000000001,-0.26962962962962966],[0.5305208333333333,-0.19796296296296292],[0.5397916666666667,-0.11185185185185181],[0.5002083333333334,-0.04944444444444453],[0.4366666666666667,0.021296296296296296],[0.3974999999999999,0.0764814814814814],[0.35875000000000007,0.1300000000000001],[0.3307291666666667,0.17185185185185176],[0.2926041666666668,0.20962962962962972],[0.26364583333333325,0.26500000000000007],[0.21843750000000003,0.3285185185185185],[0.17999999999999997,0.3375925925925925],[0.13604166666666656,0.3509259259259259],[0.121875,0.37166666666666676],[0.13166666666666677,0.384074074074074],[0.15760416666666663,0.44240740740740736],[0.18020833333333333,0.5046296296296297],[0.19375,0.562037037037037],[0.19874999999999995,0.6070370370370369],[0.19260416666666677,0.6275925925925926],[0.19010416666666666,0.6514814814814814],[0.15572916666666667,0.6757407407407408],[0.13947916666666677,0.6953703703703704],[0.13645833333333332,0.7116666666666666],[0.13072916666666667,0.7462962962962963],[0.08166666666666676,0.7253703703703704],[0.03260416666666662,0.7044444444444444],[0.003958333333333286,0.7181481481481481],[-0.016145833333333335,0.7442592592592592],[-0.035416666666666666,0.7492592592592593],[-0.0546875,0.7542592592592592],[-0.026979166666666644,0.7620370370370371],[-0.011874999999999976,0.7701851851851852],[-0.025625000000000023,0.7755555555555554],[-0.04468749999999998,0.7546296296296297],[-0.028541666666666642,0.7774074074074073],[-0.012395833333333309,0.8001851851851852],[-0.012395833333333309,0.8001851851851852],[-0.03604166666666669,0.7770370370370371],[-0.033958333333333354,0.7572222222222221],[-0.027499999999999976,0.7561111111111111],[-0.06572916666666669,0.7562962962962962],[-0.12541666666666665,0.7631481481481482],[-0.12541666666666665,0.7631481481481482],[-0.23843749999999997,0.7537037037037037],[-0.33312499999999995,0.7550000000000001],[-0.33312499999999995,0.7550000000000001],[-0.4197916666666667,0.7642592592592593],[-0.5371875,0.7653703703703703],[-0.6140625,0.7531481481481482],[-0.6644791666666666,0.7398148148148148],[-0.7497916666666666,0.7118518518518518],[-0.8283333333333334,0.6838888888888888],[-0.8638541666666666,0.682037037037037],[-0.8896875000000001,0.6599999999999999],[-0.8545833333333334,0.6177777777777779],[-0.8298958333333334,0.5638888888888889],[-0.8052083333333333,0.51],[-0.7725000000000001,0.45314814814814824],[-0.7725000000000001,0.45314814814814824],[-0.7985416666666667,0.41740740740740734],[-0.7985416666666667,0.41740740740740734],[-0.8030208333333333,0.397037037037037],[-0.8030208333333333,0.397037037037037],[-0.8011458333333333,0.38574074074074066],[-0.7958333333333333,0.36648148148148146],[-0.7958333333333333,0.36648148148148146],[-0.7888541666666666,0.3198148148148149],[-0.7888541666666666,0.3198148148148149],[-0.7815624999999999,0.28962962962962957],[-0.7848958333333333,0.29259259259259257],[-0.7091666666666666,0.2774074074074073],[-0.6347916666666666,0.27814814814814826],[-0.5658333333333334,0.2868518518518518],[-0.4786458333333333,0.28777777777777774],[-0.43083333333333335,0.2824074074074074],[-0.36739583333333337,0.28851851851851845],[-0.28718750000000004,0.32703703703703707],[-0.20697916666666671,0.3655555555555555],[-0.16343749999999999,0.3822222222222222],[-0.10260416666666666,0.4072222222222222],[-0.09812500000000005,0.40796296296296286],[-0.10041666666666664,0.40185185185185185],[-0.06968749999999997,0.36277777777777775],[-0.04854166666666669,0.3022222222222223],[-0.04854166666666669,0.3022222222222223],[0.013541666666666667,0.2603703703703704],[0.058749999999999976,0.1883333333333334],[0.07697916666666677,0.09185185185185189],[0.10708333333333328,-0.007592592592592635],[0.17354166666666657,-0.10166666666666663],[0.22000000000000006,-0.20574074074074078],[0.25239583333333326,-0.26185185185185184],[0.2929166666666667,-0.32703703703703707],[0.30583333333333323,-0.3672222222222222],[0.33354166666666674,-0.3707407407407407],[0.3408333333333334,-0.3844444444444445],[0.34656250000000005,-0.39092592592592595],[0.3522916666666667,-0.39740740740740743],[0.3463541666666667,-0.39518518518518514],[0.34041666666666665,-0.39296296296296296],[0.34489583333333323,-0.41444444444444445],[0.3493750000000001,-0.4359259259259259],[0.36958333333333326,-0.4516666666666666],[0.3897916666666667,-0.4674074074074074],[0.39041666666666663,-0.5001851851851852],[0.3910416666666668,-0.532962962962963],[0.3848958333333333,-0.5477777777777778],[0.3787499999999999,-0.549074074074074],[0.35822916666666677,-0.5307407407407407],[0.32864583333333336,-0.5098148148148148],[0.3223958333333333,-0.4801851851851852],[0.31614583333333335,-0.4505555555555556],[0.28624999999999995,-0.41388888888888886],[0.25635416666666655,-0.3772222222222222],[0.25635416666666655,-0.3772222222222222],[0.24500000000000005,-0.3375925925925926],[0.21947916666666673,-0.3116666666666667],[0.21947916666666673,-0.3116666666666667],[0.20635416666666656,-0.29000000000000004],[0.20635416666666656,-0.29000000000000004],[0.17770833333333325,-0.29870370370370375],[0.17177083333333343,-0.3059259259259259],[0.17385416666666675,-0.32388888888888884],[0.14791666666666667,-0.3218518518518519],[0.12364583333333339,-0.3103703703703704],[0.10729166666666666,-0.3116666666666667],[0.10697916666666671,-0.297037037037037],[0.0978125000000001,-0.2868518518518518],[0.08250000000000005,-0.23277777777777775],[0.0671875,-0.1787037037037037],[0.049374999999999974,-0.11666666666666667],[0.02302083333333336,-0.08148148148148149],[-0.003541666666666643,-0.009444444444444486],[-0.003541666666666643,-0.009444444444444486],[-0.030104166666666644,0.0625925925925925],[-0.030104166666666644,0.0625925925925925],[-0.06958333333333329,0.09351851851851851],[-0.1219791666666667,0.12462962962962955],[-0.21749999999999994,0.14962962962962956],[-0.3393749999999999,0.20851851851851855],[-0.42374999999999996,0.2301851851851851],[-0.508125,0.2518518518518518],[-0.57625,0.26074074074074066],[-0.6420833333333333,0.2729629629629629],[-0.7089583333333334,0.24537037037037038],[-0.7758333333333333,0.21777777777777782],[-0.84375,0.21666666666666667],[-0.84375,0.21666666666666667],[-0.8987499999999999,0.2153703703703703],[-0.9280208333333333,0.23129629629629625],[-0.9275,0.25277777777777777],[-0.9441666666666666,0.28129629629629627],[-0.9347916666666667,0.32166666666666677],[-0.9236458333333334,0.38370370370370377],[-0.935,0.4244444444444445],[-0.9417708333333333,0.4479629629629629],[-0.9452083333333333,0.4729629629629629],[-0.9436458333333333,0.5285185185185185],[-0.925625,0.571111111111111],[-0.9110416666666666,0.6050000000000001],[-0.8903125000000001,0.602962962962963],[-0.8628125,0.5894444444444443],[-0.8304166666666667,0.581851851851852],[-0.7980208333333334,0.5742592592592592],[-0.7272916666666667,0.5800000000000001],[-0.6588541666666666,0.6140740740740741],[-0.6006250000000001,0.6301851851851851],[-0.5351041666666667,0.6209259259259259],[-0.49395833333333333,0.6351851851851852],[-0.43854166666666666,0.634074074074074],[-0.39395833333333335,0.6357407407407406],[-0.35614583333333333,0.6488888888888888],[-0.3334375,0.6533333333333332],[-0.2876041666666667,0.6483333333333334],[-0.2904166666666666,0.6446296296296297],[-0.29322916666666665,0.640925925925926],[-0.2985416666666667,0.6692592592592592],[-0.2985416666666667,0.6692592592592592],[-0.2907291666666667,0.6905555555555555],[-0.2907291666666667,0.6905555555555555],[-0.24479166666666666,0.6874074074074075],[-0.24479166666666666,0.6874074074074075],[-0.2140625,0.6925925925925925],[-0.1788541666666667,0.6874074074074075],[-0.1788541666666667,0.6874074074074075],[-0.1482291666666666,0.6812962962962963],[-0.1482291666666666,0.6812962962962963],[-0.13166666666666665,0.6174074074074074],[-0.13166666666666665,0.6174074074074074],[-0.14020833333333335,0.5585185185185185],[-0.10874999999999997,0.5061111111111111],[-0.10874999999999997,0.5061111111111111],[-0.08072916666666667,0.46407407407407414],[-0.050312499999999954,0.397037037037037],[-0.0390625,0.29148148148148145],[-0.04833333333333331,0.23870370370370367],[-0.06677083333333336,0.18092592592592602],[-0.08374999999999998,0.13055555555555556],[-0.08250000000000005,0.0705555555555556],[-0.090625,0.0448148148148149],[-0.0967708333333333,0.0235185185185186],[-0.10281250000000004,0.0007407407407406986],[-0.07052083333333338,-0.018703703703703747],[-0.03125,-0.028703703703703703],[0.02510416666666669,0.012592592592592508],[0.07177083333333342,0.015000000000000043],[0.14510416666666662,-0.008148148148148106],[0.2078125,0.006851851851851936],[0.24885416666666677,0.014259259259259343],[0.29749999999999993,0.03611111111111111],[0.3551041666666668,0.07148148148148152],[0.38822916666666674,0.09074074074074075],[0.38177083333333334,0.07833333333333325],[0.37531249999999994,0.06592592592592597],[0.35135416666666663,0.06296296296296296],[0.3304166666666667,0.062407407407407495],[0.30270833333333325,0.08777777777777773],[0.2849999999999999,0.069074074074074],[0.27374999999999994,0.049629629629629544],[0.23937499999999995,0.04333333333333329],[0.20499999999999996,0.03092592592592601],[0.17666666666666658,0.030740740740740784],[0.15114583333333323,0.08111111111111102],[0.12427083333333329,0.14629629629629629],[0.11593749999999996,0.17740740740740732],[0.10895833333333324,0.20259259259259255],[0.04104166666666664,0.2198148148148149],[-0.026250000000000048,0.24296296296296305],[-0.13447916666666668,0.3140740740740741],[-0.15239583333333329,0.3168518518518519],[-0.20385416666666673,0.3081481481481481],[-0.24645833333333336,0.30166666666666664],[-0.29718749999999994,0.2838888888888888],[-0.3180208333333333,0.22592592592592592],[-0.3570833333333333,0.20259259259259255],[-0.40041666666666664,0.1874074074074075],[-0.41218750000000004,0.17222222222222222],[-0.3676041666666666,0.14129629629629623],[-0.31760416666666663,0.10500000000000008],[-0.33479166666666665,0.12388888888888884],[-0.33479166666666665,0.12388888888888884],[-0.31625000000000003,0.09888888888888885],[-0.2846874999999999,0.0992592592592593],[-0.24312499999999998,0.07833333333333325],[-0.20718749999999997,0.05962962962962971],[-0.16510416666666666,0.025185185185185227],[-0.13093750000000004,0.005185185185185101],[-0.07239583333333334,-0.013518518518518435],[-0.02302083333333336,-0.011666666666666582],[0.06343749999999998,-0.03351851851851856],[0.13395833333333323,-0.051666666666666625],[0.19333333333333325,-0.021851851851851768],[0.23781249999999995,-0.000925925925925926],[0.28229166666666666,0.019999999999999917],[0.32270833333333326,0.041666666666666664],[0.3631249999999999,0.06333333333333342],[0.38468749999999996,0.0816666666666667],[0.3832291666666668,0.08499999999999996],[0.34010416666666665,0.10111111111111115],[0.29697916666666657,0.11722222222222214],[0.27395833333333336,0.11685185185185189],[0.2509375000000001,0.11648148148148144],[0.240625,0.08907407407407411],[0.2303124999999999,0.061666666666666585],[0.22020833333333342,0.018333333333333292],[0.2101041666666667,-0.025],[0.1616666666666667,-0.027222222222222307],[0.13624999999999995,-0.01444444444444436],[0.12270833333333328,-0.03129629629629625],[0.10916666666666662,-0.04814814814814815],[0.0806250000000001,-0.06388888888888888],[0.04635416666666667,-0.06851851851851852],[0.02791666666666662,-0.07222222222222222],[0.00947916666666669,-0.07592592592592592],[-0.07468750000000005,-0.0514814814814814],[-0.07468750000000005,-0.0514814814814814],[-0.15854166666666672,-0.029259259259259176],[-0.18760416666666668,-0.06425925925925924],[-0.23052083333333329,-0.09166666666666666],[-0.23468749999999997,-0.08740740740740739],[-0.2569791666666667,-0.06074074074074076],[-0.26843750000000005,-0.02240740740740745],[-0.31489583333333326,-0.013333333333333417],[-0.36062500000000003,-0.030740740740740784],[-0.4063541666666667,0.003333333333333249],[-0.4054166666666667,0.04759259259259268],[-0.4166666666666667,0.06425925925925935],[-0.41770833333333335,0.08129629629629626],[-0.3393749999999999,0.05314814814814823],[-0.3141666666666667,0.0025925925925925505],[-0.2803125,-0.05259259259259255],[-0.24645833333333336,-0.10777777777777775],[-0.1967708333333333,-0.11351851851851855],[-0.18166666666666664,-0.0809259259259259],[-0.10645833333333338,-0.09444444444444444],[-0.05531250000000002,-0.13444444444444448],[0.007708333333333309,-0.14462962962962966],[0.007708333333333309,-0.14462962962962966],[0.07489583333333343,-0.1542592592592593],[0.07489583333333343,-0.1542592592592593],[0.07729166666666672,-0.13777777777777775],[0.07729166666666672,-0.13777777777777775],[0.06583333333333338,-0.13444444444444448],[0.06583333333333338,-0.13444444444444448],[0.10010416666666658,-0.13962962962962958],[0.10010416666666658,-0.13962962962962958],[0.09645833333333324,-0.12018518518518514],[0.09645833333333324,-0.12018518518518514],[0.11958333333333329,-0.14888888888888885],[0.16114583333333338,-0.1690740740740741],[0.07260416666666672,-0.21370370370370367],[0.009791666666666643,-0.2351851851851852],[-0.006562499999999953,-0.2559259259259259],[-0.027083333333333334,-0.2772222222222222],[-0.0421875,-0.2962962962962963],[-0.0453125,-0.3101851851851852],[-0.043229166666666666,-0.3290740740740741],[-0.025729166666666713,-0.3542592592592593],[-0.034062500000000044,-0.37962962962962965],[-0.024687500000000046,-0.42592592592592593],[0.017499999999999953,-0.4372222222222223],[0.08604166666666657,-0.4487037037037037],[0.08760416666666657,-0.47018518518518515],[0.08916666666666657,-0.49166666666666664],[0.10697916666666671,-0.5105555555555555],[0.10697916666666671,-0.5105555555555555],[0.13614583333333338,-0.5224074074074074],[0.10822916666666677,-0.54],[0.08802083333333334,-0.562037037037037],[0.0865624999999999,-0.5524074074074075],[0.04822916666666662,-0.5459259259259259],[0.04822916666666662,-0.5459259259259259],[0.06385416666666661,-0.5622222222222223],[0.06385416666666661,-0.5622222222222223],[0.05333333333333338,-0.5638888888888889],[0.06291666666666665,-0.5459259259259259],[0.07979166666666657,-0.5314814814814814],[0.07979166666666657,-0.5314814814814814],[0.07427083333333329,-0.5103703703703704],[0.03875000000000005,-0.49166666666666664],[0.07218749999999995,-0.4762962962962963],[0.10395833333333329,-0.4729629629629629],[0.09302083333333329,-0.4933333333333333],[0.09260416666666677,-0.5120370370370371],[0.0828125,-0.5107407407407407],[0.07114583333333328,-0.5205555555555555],[0.07354166666666657,-0.542962962962963],[0.06864583333333343,-0.5618518518518518],[0.08479166666666677,-0.5394444444444445],[0.1330208333333334,-0.5522222222222222],[0.08520833333333329,-0.5516666666666666],[0.08864583333333324,-0.5575925925925926],[0.13468749999999996,-0.54],[0.13468749999999996,-0.54],[0.178125,-0.5107407407407407],[0.21624999999999991,-0.5062962962962962],[0.22166666666666662,-0.5122222222222222],[0.21343750000000009,-0.515925925925926],[0.2361458333333334,-0.5248148148148147],[0.23781249999999995,-0.575],[0.23781249999999995,-0.575],[0.20885416666666667,-0.5844444444444444],[0.2109375,-0.5924074074074074],[0.17822916666666658,-0.5957407407407407],[0.15364583333333334,-0.6316666666666667],[0.140625,-0.6607407407407407],[0.12510416666666657,-0.6803703703703703],[0.13250000000000003,-0.6742592592592593],[0.1336458333333333,-0.6894444444444444],[0.13739583333333344,-0.6822222222222222],[0.13406250000000006,-0.6964814814814815],[0.12927083333333325,-0.7112962962962963],[0.12927083333333325,-0.7112962962962963],[0.17062499999999994,-0.7233333333333334],[0.20583333333333323,-0.7412962962962963],[0.23822916666666671,-0.741111111111111],[0.2476041666666667,-0.7303703703703703],[0.2573958333333332,-0.7174074074074074],[0.2955208333333334,-0.7055555555555556],[0.3398958333333333,-0.6724074074074075],[0.32625000000000004,-0.6807407407407408],[0.32625000000000004,-0.6807407407407408],[0.31968750000000007,-0.6675925925925926],[0.3341666666666666,-0.6664814814814815],[0.309375,-0.6664814814814815],[0.2907291666666666,-0.6605555555555556],[0.25458333333333344,-0.6014814814814815],[0.23177083333333334,-0.5998148148148148],[0.19104166666666675,-0.4859259259259259],[0.13177083333333334,-0.38629629629629636],[0.08875000000000005,-0.3175925925925926],[0.049270833333333285,-0.23592592592592587],[0.049270833333333285,-0.23592592592592587],[0.009791666666666643,-0.1542592592592593],[0.009791666666666643,-0.1542592592592593]]","[[-0.01885416666666669,-0.09222222222222225,0.000399999998506928],[-0.01885416666666669,-0.09222222222222225,0.03750000000000142],[-0.024895833333333308,-0.09148148148148144,0.05399999999999494],[-0.026145833333333358,-0.09907407407407408,0.07070000000297938],[-0.03291666666666669,-0.12999999999999998,0.08730000000446836],[-0.05531250000000002,-0.15870370370370368,0.1039999999999992],[-0.05531250000000002,-0.15870370370370368,0.12070000000297654],[-0.05395833333333329,-0.175,0.13730000000446552],[-0.05395833333333329,-0.175,0.15410000000148472],[-0.06156250000000003,-0.16962962962962966,0.1707000000029808],[-0.06291666666666665,-0.18555555555555553,0.18930000000446512],[-0.06291666666666665,-0.18555555555555553,0.20400000000000063],[-0.04635416666666667,-0.20388888888888893,0.22070000000297796],[-0.05364583333333333,-0.1948148148148148,0.24149999999999494],[-0.05364583333333333,-0.1948148148148148,0.2539999999999978],[-0.06270833333333338,-0.20129629629629628,0.2707000000029751],[-0.06270833333333338,-0.20129629629629628,0.2873000000044712],[-0.059687499999999956,-0.18185185185185182,0.30399999999999494],[-0.059687499999999956,-0.18185185185185182,0.320600000001491],[-0.06708333333333331,-0.18555555555555553,0.3373999999985102],[-0.06843750000000005,-0.15111111111111114,0.3568000000044691],[-0.043020833333333286,-0.1359259259259259,0.37370000000297665],[-0.017499999999999953,-0.11240740740740739,0.3908999999985099],[0.006666666666666643,-0.11962962962962967,0.4058000000044686],[0.027395833333333286,-0.11222222222222226,0.4207000000029808],[0.0234375,-0.08759259259259261,0.4373000000044698],[0.024166666666666715,-0.09425925925925922,0.45389999999850517],[-0.04854166666666669,-0.07592592592592592,0.4711000000014849],[-0.11604166666666664,-0.06574074074074074,0.48730000000446694],[-0.16447916666666665,-0.047037037037036995,0.5039999999999978],[-0.21343749999999997,-0.04314814814814806,0.5207000000029751],[-0.28145833333333337,-0.017592592592592594,0.5383999999985107],[-0.34958333333333336,-0.0003703703703704546,0.5541000000014904],[-0.4091666666666666,0.017407407407407365,0.5718999999985073],[-0.46875,0.03518518518518519,0.5873000000044684],[-0.521875,0.01703703703703712,0.6039999999999992],[-0.5565625,0.011666666666666582,0.6206000000014882],[-0.5209375,-0.0031481481481482323,0.6373999999985074],[-0.4853125,-0.01796296296296305,0.6539999999999964],[-0.46552083333333333,0.009444444444444486,0.6729999999999947],[-0.4527083333333334,0.025370370370370456,0.6896000000014908],[-0.44812500000000005,-0.001851851851851852,0.705200000002975],[-0.44812500000000005,-0.001851851851851852,0.720700000002978],[-0.4435416666666666,-0.02907407407407416,0.7373000000044669],[-0.45427083333333335,-0.04740740740740745,0.7538999999985094],[-0.4703125,-0.07537037037037035,0.7707000000029751],[-0.47,-0.05722222222222218,0.7873000000044712],[-0.4978125,-0.05555555555555555,0.8063999999985043],[-0.5294791666666667,-0.06703703703703702,0.820600000001491],[-0.5276041666666667,-0.09129629629629632,0.8373000000044684],[-0.5235416666666667,-0.15962962962962962,0.8541000000014876],[-0.4810416666666667,-0.205,0.8706000000014882],[-0.4382291666666667,-0.2183333333333333,0.8873000000044655],[-0.3832291666666666,-0.2448148148148148,0.9039999999999964],[-0.3111458333333334,-0.27166666666666667,0.9207000000029808],[-0.22104166666666672,-0.2729629629629629,0.9373000000044698],[-0.1469791666666667,-0.2992592592592593,0.954100000001489],[-0.06968749999999997,-0.3368518518518518,0.9708999999985082],[0.016354166666666715,-0.36129629629629634,0.9873000000044669],[0.05416666666666667,-0.37166666666666665,1.0042000000029816],[0.09197916666666663,-0.38203703703703706,1.0206000000014868],[0.09812500000000005,-0.40185185185185185,1.0373000000044712],[0.09468750000000009,-0.42296296296296293,1.0541000000014904],[0.07593750000000009,-0.43444444444444447,1.0707000000029794],[0.08385416666666666,-0.41629629629629633,1.0873000000044684],[0.06375000000000004,-0.4309259259259259,1.1063999999985086],[0.06375000000000004,-0.4309259259259259,1.1244999999999976],[0.04364583333333331,-0.4455555555555556,1.1396000000014865],[0.04041666666666662,-0.4559259259259259,1.1539999999999964],[0.04041666666666662,-0.4559259259259259,1.1708000000044692],[0.04916666666666671,-0.4462962962962963,1.1873000000044698],[0.0696875000000001,-0.43425925925925923,1.2038999999985052],[0.09020833333333324,-0.4222222222222222,1.2206000000014896],[0.14166666666666666,-0.40703703703703703,1.2373999999985088],[0.15343749999999995,-0.36666666666666664,1.2541000000014861],[0.1553124999999999,-0.33722222222222226,1.2707000000029751],[0.16218750000000004,-0.3492592592592593,1.2873000000044712],[0.1423958333333334,-0.29018518518518516,1.303999999999995],[0.13020833333333334,-0.20203703703703707,1.3208000000044677],[0.1306250000000001,-0.09740740740740746,1.33720000000298],[0.11906249999999995,-0.012777777777777735,1.3538999999985109],[0.11906249999999995,-0.012777777777777735,1.3707000000029765],[0.13479166666666675,0.04870370370370362,1.3873000000044655],[0.11906249999999995,0.10166666666666663,1.4039999999999964],[0.07260416666666672,0.14944444444444452,1.4206000000014853],[0.10895833333333324,0.22888888888888892,1.4373999999985045],[0.15833333333333333,0.3227777777777777,1.4538999999985052],[0.15833333333333333,0.3227777777777777,1.470700000002978],[0.17374999999999996,0.42296296296296293,1.487300000004467],[0.2400000000000001,0.44425925925925924,1.5039999999999978],[0.2400000000000001,0.44425925925925924,1.5206000000014868],[0.2986458333333334,0.4364814814814816,1.5373000000044712],[0.33572916666666663,0.3874074074074075,1.553999999999995],[0.36614583333333334,0.34814814814814815,1.570600000001491],[0.37218749999999995,0.32833333333333325,1.5873000000044684],[0.39385416666666656,0.2957407407407408,1.6039999999999992],[0.4131249999999999,0.27814814814814826,1.6206000000014882],[0.41520833333333323,0.1977777777777777,1.6373000000044655],[0.41729166666666656,0.11740740740740736,1.653899999998508],[0.38614583333333335,0.03777777777777774,1.6718999999985087],[0.34187500000000004,0.010185185185185186,1.6873000000044698],[0.24333333333333323,-0.03611111111111111,1.7038999999985052],[0.14333333333333323,-0.04685185185185177,1.7206000000014896],[0.030729166666666665,-0.06759259259259259,1.737300000004467],[-0.08187500000000002,-0.0883333333333333,1.7539999999999978],[-0.17781250000000004,-0.06444444444444447,1.7707000000029751],[-0.2713541666666667,-0.05555555555555555,1.7872000000029757],[-0.36822916666666666,-0.05703703703703706,1.803999999999995],[-0.46510416666666665,-0.05851851851851856,1.820600000001491],[-0.5377083333333333,-0.03351851851851856,1.8373000000044684],[-0.6060416666666666,-0.03592592592592588,1.8539999999999992],[-0.6110416666666667,-0.03814814814814819,1.870800000004465],[-0.6160416666666666,-0.040370370370370286,1.8872000000029772],[-0.6127083333333334,-0.05537037037037033,1.9039999999999964],[-0.6127083333333334,-0.05537037037037033,1.9206000000014853],[-0.609375,-0.07037037037037037,1.9373000000044698],[-0.6057291666666667,-0.11240740740740739,1.9540000000000006],[-0.5932291666666667,-0.12444444444444443,1.9706000000014896],[-0.5963541666666666,-0.10796296296296298,1.987300000004467],[-0.611875,-0.1235185185185185,2.0038999999985094],[-0.6161458333333333,-0.16074074074074077,2.0206000000014868],[-0.615625,-0.18129629629629626,2.037300000004471],[-0.6241666666666668,-0.18333333333333332,2.053999999999995],[-0.6414583333333332,-0.1933333333333333,2.0738999999985097],[-0.6405208333333333,-0.19222222222222224,2.089800000004466],[-0.65125,-0.16296296296296298,2.103999999999999],[-0.6493749999999999,-0.15833333333333333,2.1207000000029765],[-0.6493749999999999,-0.15833333333333333,2.1373000000044655],[-0.6407291666666667,-0.18629629629629635,2.153899999998508],[-0.6407291666666667,-0.18629629629629635,2.170800000004469],[-0.6439583333333334,-0.20703703703703705,2.18730000000447],[-0.6439583333333334,-0.20703703703703705,2.203899999998505],[-0.6363541666666667,-0.21722222222222223,2.2206000000014896],[-0.6363541666666667,-0.21722222222222223,2.237399999998509],[-0.6476041666666668,-0.19907407407407407,2.2538999999985094],[-0.6476041666666668,-0.19907407407407407,2.270700000002975],[-0.6390625,-0.17814814814814814,2.287399999998506],[-0.6390625,-0.17814814814814814,2.3038999999985066],[-0.6328125,-0.13962962962962958,2.3207000000029794],[-0.6429166666666667,-0.0962962962962963,2.3373000000044684],[-0.6488541666666666,-0.04796296296296292,2.353899999998511],[-0.6322916666666667,-0.017592592592592594,2.370600000001488],[-0.6221875,0.0448148148148149,2.3873000000044655],[-0.6283333333333334,0.09092592592592597,2.403899999998508],[-0.6226041666666667,0.12981481481481486,2.4206000000014853],[-0.6382291666666667,0.23203703703703696,2.43730000000447],[-0.621875,0.26222222222222225,2.453899999998505],[-0.6267708333333334,0.2764814814814814,2.470700000002978],[-0.629375,0.27314814814814814,2.4872000000029786],[-0.5978125,0.27259259259259266,2.504100000001486],[-0.5777083333333334,0.26888888888888896,2.520700000002975],[-0.5448958333333334,0.2012962962962964,2.537300000004471],[-0.519375,0.1300000000000001,2.553999999999995],[-0.49135416666666665,0.06314814814814819,2.5711000000014863],[-0.46447916666666667,0.0016666666666666245,2.58720000000298],[-0.41375000000000006,-0.10111111111111115,2.603899999998511],[-0.37614583333333335,-0.16018518518518518,2.620600000001488],[-0.34052083333333333,-0.22407407407407406,2.6373000000044655],[-0.30968749999999995,-0.287962962962963,2.653899999998508],[-0.30968749999999995,-0.287962962962963,2.6706000000014853],[-0.2557291666666667,-0.365925925925926,2.68730000000447],[-0.19958333333333336,-0.4316666666666667,2.703899999998505],[-0.16697916666666662,-0.44370370370370377,2.7206000000014896],[-0.13895833333333332,-0.4572222222222222,2.737300000004467],[-0.07583333333333328,-0.4468518518518519,2.753999999999998],[0.007395833333333357,-0.41703703703703704,2.77170000000298],[0.08916666666666657,-0.4074074074074074,2.787300000004471],[0.15770833333333342,-0.4044444444444444,2.803999999999995],[0.22489583333333343,-0.40018518518518525,2.820600000001491],[0.30572916666666666,-0.4116666666666667,2.8373000000044684],[0.3651041666666667,-0.4020370370370371,2.853999999999999],[0.42249999999999993,-0.3859259259259259,2.8718000000044697],[0.4794791666666666,-0.36370370370370364,2.887200000002977],[0.5299999999999999,-0.33425925925925926,2.9039999999999964],[0.5483333333333335,-0.31351851851851853,2.9206000000014853],[0.5413541666666667,-0.33851851851851855,2.9372000000029814],[0.5348958333333333,-0.34388888888888886,2.953899999998505],[0.5442708333333334,-0.3338888888888889,2.974800000004471],[0.5439583333333334,-0.3383333333333333,2.9891000000014856],[0.5529166666666666,-0.30925925925925923,3.0038999999985094],[0.5511458333333332,-0.2868518518518518,3.0206000000014868],[0.5394791666666667,-0.2905555555555555,3.037300000004471],[0.5311458333333334,-0.3025925925925925,3.0538999999985066],[0.5223958333333333,-0.30907407407407406,3.0718000000044654],[0.5223958333333333,-0.30907407407407406,3.0873000000044684],[0.5189583333333334,-0.3122222222222223,3.103899999998511],[0.5189583333333334,-0.3122222222222223,3.120600000001488],[0.5186458333333335,-0.2851851851851852,3.1373000000044655],[0.5309375000000001,-0.26962962962962966,3.153899999998508],[0.5305208333333333,-0.19796296296296292,3.1743000000044717],[0.5397916666666667,-0.11185185185185181,3.1884999999999977],[0.5002083333333334,-0.04944444444444453,3.203899999998505],[0.4366666666666667,0.021296296296296296,3.2206000000014896],[0.3974999999999999,0.0764814814814814,3.237300000004467],[0.35875000000000007,0.1300000000000001,3.2538999999985094],[0.3307291666666667,0.17185185185185176,3.2706000000014868],[0.2926041666666668,0.20962962962962972,3.287300000004471],[0.26364583333333325,0.26500000000000007,3.303999999999995],[0.21843750000000003,0.3285185185185185,3.3207000000029794],[0.17999999999999997,0.3375925925925925,3.337600000001487],[0.13604166666666656,0.3509259259259259,3.3541000000014876],[0.121875,0.37166666666666676,3.370999999999995],[0.13166666666666677,0.384074074074074,3.3873999999985074],[0.15760416666666663,0.44240740740740736,3.403899999998508],[0.18020833333333333,0.5046296296296297,3.4206000000014853],[0.19375,0.562037037037037,3.43730000000447],[0.19874999999999995,0.6070370370370369,3.453899999998505],[0.19260416666666677,0.6275925925925926,3.470899999998508],[0.19010416666666666,0.6514814814814814,3.4872000000029786],[0.15572916666666667,0.6757407407407408,3.5038999999985094],[0.13947916666666677,0.6953703703703704,3.5206000000014868],[0.13645833333333332,0.7116666666666666,3.537300000004471],[0.13072916666666667,0.7462962962962963,3.5538999999985066],[0.08166666666666676,0.7253703703703704,3.5711000000014863],[0.03260416666666662,0.7044444444444444,3.58720000000298],[0.003958333333333286,0.7181481481481481,3.603899999998511],[-0.016145833333333335,0.7442592592592592,3.620600000001488],[-0.035416666666666666,0.7492592592592593,3.6373000000044655],[-0.0546875,0.7542592592592592,3.653899999998508],[-0.026979166666666644,0.7620370370370371,3.6706000000014853],[-0.011874999999999976,0.7701851851851852,3.68730000000447],[-0.025625000000000023,0.7755555555555554,3.703899999998505],[-0.04468749999999998,0.7546296296296297,3.7206000000014896],[-0.028541666666666642,0.7774074074074073,3.737300000004467],[-0.012395833333333309,0.8001851851851852,3.7538999999985094],[-0.012395833333333309,0.8001851851851852,3.770700000002975],[-0.03604166666666669,0.7770370370370371,3.7872000000029757],[-0.033958333333333354,0.7572222222222221,3.8038999999985066],[-0.027499999999999976,0.7561111111111111,3.8204999999999956],[-0.06572916666666669,0.7562962962962962,3.83720000000298],[-0.12541666666666665,0.7631481481481482,3.853899999998511],[-0.12541666666666665,0.7631481481481482,3.870600000001488],[-0.23843749999999997,0.7537037037037037,3.8873000000044655],[-0.33312499999999995,0.7550000000000001,3.903899999998508],[-0.33312499999999995,0.7550000000000001,3.9206000000014853],[-0.4197916666666667,0.7642592592592593,3.9372000000029814],[-0.5371875,0.7653703703703703,3.9540000000000006],[-0.6140625,0.7531481481481482,3.9706000000014896],[-0.6644791666666666,0.7398148148148148,3.987300000004467],[-0.7497916666666666,0.7118518518518518,4.003899999998509],[-0.8283333333333334,0.6838888888888888,4.020600000001487],[-0.8638541666666666,0.682037037037037,4.037300000004471],[-0.8896875000000001,0.6599999999999999,4.053999999999995],[-0.8545833333333334,0.6177777777777779,4.072200000002979],[-0.8298958333333334,0.5638888888888889,4.089500000000001],[-0.8052083333333333,0.51,4.103899999998511],[-0.7725000000000001,0.45314814814814824,4.120600000001488],[-0.7725000000000001,0.45314814814814824,4.1373000000044655],[-0.7985416666666667,0.41740740740740734,4.153999999999996],[-0.7985416666666667,0.41740740740740734,4.170800000004469],[-0.8030208333333333,0.397037037037037,4.18730000000447],[-0.8030208333333333,0.397037037037037,4.204000000000001],[-0.8011458333333333,0.38574074074074066,4.22060000000149],[-0.7958333333333333,0.36648148148148146,4.240899999998511],[-0.7958333333333333,0.36648148148148146,4.253899999998509],[-0.7888541666666666,0.3198148148148149,4.270600000001487],[-0.7888541666666666,0.3198148148148149,4.287300000004471],[-0.7815624999999999,0.28962962962962957,4.303899999998507],[-0.7848958333333333,0.29259259259259257,4.32239999999851],[-0.7091666666666666,0.2774074074074073,4.337300000004468],[-0.6347916666666666,0.27814814814814826,4.353899999998511],[-0.5658333333333334,0.2868518518518518,4.370600000001488],[-0.4786458333333333,0.28777777777777774,4.389100000001491],[-0.43083333333333335,0.2824074074074074,4.403899999998508],[-0.36739583333333337,0.28851851851851845,4.420600000001485],[-0.28718750000000004,0.32703703703703707,4.43730000000447],[-0.20697916666666671,0.3655555555555555,4.453899999998505],[-0.16343749999999999,0.3822222222222222,4.47060000000149],[-0.10260416666666666,0.4072222222222222,4.4883999999985065],[-0.09812500000000005,0.40796296296296286,4.504100000001486],[-0.10041666666666664,0.40185185185185185,4.520600000001487],[-0.06968749999999997,0.36277777777777775,4.53760000000149],[-0.04854166666666669,0.3022222222222223,4.553999999999995],[-0.04854166666666669,0.3022222222222223,4.570600000001491],[0.013541666666666667,0.2603703703703704,4.587300000004468],[0.058749999999999976,0.1883333333333334,4.603899999998511],[0.07697916666666677,0.09185185185185189,4.620600000001488],[0.10708333333333328,-0.007592592592592635,4.6373000000044655],[0.17354166666666657,-0.10166666666666663,4.653899999998508],[0.22000000000000006,-0.20574074074074078,4.670600000001485],[0.25239583333333326,-0.26185185185185184,4.687600000001488],[0.2929166666666667,-0.32703703703703707,4.703899999998505],[0.30583333333333323,-0.3672222222222222,4.72120000000298],[0.33354166666666674,-0.3707407407407407,4.739300000004469],[0.3408333333333334,-0.3844444444444445,4.757100000001486],[0.34656250000000005,-0.39092592592592595,4.772999999999996],[0.3522916666666667,-0.39740740740740743,4.789499999999997],[0.3463541666666667,-0.39518518518518514,4.803899999998507],[0.34041666666666665,-0.39296296296296296,4.820499999999996],[0.34489583333333323,-0.41444444444444445,4.837300000004468],[0.3493750000000001,-0.4359259259259259,4.853899999998511],[0.36958333333333326,-0.4516666666666666,4.870800000004465],[0.3897916666666667,-0.4674074074074074,4.8873000000044655],[0.39041666666666663,-0.5001851851851852,4.905000000000001],[0.3910416666666668,-0.532962962962963,4.920800000004469],[0.3848958333333333,-0.5477777777777778,4.93730000000447],[0.3787499999999999,-0.549074074074074,4.954000000000001],[0.35822916666666677,-0.5307407407407407,4.970800000004466],[0.32864583333333336,-0.5098148148148148,4.987300000004467],[0.3223958333333333,-0.4801851851851852,5.003899999998509],[0.31614583333333335,-0.4505555555555556,5.020800000004471],[0.28624999999999995,-0.41388888888888886,5.037300000004471],[0.25635416666666655,-0.3772222222222222,5.053899999998507],[0.25635416666666655,-0.3772222222222222,5.070600000001491],[0.24500000000000005,-0.3375925925925926,5.087300000004468],[0.21947916666666673,-0.3116666666666667,5.103899999998511],[0.21947916666666673,-0.3116666666666667,5.120600000001488],[0.20635416666666656,-0.29000000000000004,5.1373000000044655],[0.20635416666666656,-0.29000000000000004,5.153899999998508],[0.17770833333333325,-0.29870370370370375,5.170700000002981],[0.17177083333333343,-0.3059259259259259,5.18730000000447],[0.17385416666666675,-0.32388888888888884,5.203899999998505],[0.14791666666666667,-0.3218518518518519,5.22060000000149],[0.12364583333333339,-0.3103703703703704,5.237200000002979],[0.10729166666666666,-0.3116666666666667,5.253999999999998],[0.10697916666666671,-0.297037037037037,5.270600000001487],[0.0978125000000001,-0.2868518518518518,5.287300000004471],[0.08250000000000005,-0.23277777777777775,5.303899999998514],[0.0671875,-0.1787037037037037,5.320700000002979],[0.049374999999999974,-0.11666666666666667,5.337200000002973],[0.02302083333333336,-0.08148148148148149,5.353899999998511],[-0.003541666666666643,-0.009444444444444486,5.371800000004463],[-0.003541666666666643,-0.009444444444444486,5.388700000002977],[-0.030104166666666644,0.0625925925925925,5.4040000000000035],[-0.030104166666666644,0.0625925925925925,5.4206000000014924],[-0.06958333333333329,0.09351851851851851,5.437499999999993],[-0.1219791666666667,0.12462962962962955,5.453899999998505],[-0.21749999999999994,0.14962962962962956,5.470499999999994],[-0.3393749999999999,0.20851851851851855,5.487200000002979],[-0.42374999999999996,0.2301851851851851,5.503800000004468],[-0.508125,0.2518518518518518,5.523700000002982],[-0.57625,0.26074074074074066,5.537200000002976],[-0.6420833333333333,0.2729629629629629,5.553899999998514],[-0.7089583333333334,0.24537037037037038,5.573800000004475],[-0.7758333333333333,0.21777777777777782,5.587399999998503],[-0.84375,0.21666666666666667,5.603800000004462],[-0.84375,0.21666666666666667,5.620600000001481],[-0.8987499999999999,0.2153703703703703,5.6373000000044655],[-0.9280208333333333,0.23129629629629625,5.653800000004473],[-0.9275,0.25277777777777777,5.6706000000014924],[-0.9441666666666666,0.28129629629629627,5.687300000004463],[-0.9347916666666667,0.32166666666666677,5.70380000000447],[-0.9236458333333334,0.38370370370370377,5.723999999999997],[-0.935,0.4244444444444445,5.737200000002979],[-0.9417708333333333,0.4479629629629629,5.753899999998502],[-0.9452083333333333,0.4729629629629629,5.770600000001487],[-0.9436458333333333,0.5285185185185185,5.787200000002976],[-0.925625,0.571111111111111,5.803899999998514],[-0.9110416666666666,0.6050000000000001,5.820600000001484],[-0.8903125000000001,0.602962962962963,5.837200000002973],[-0.8628125,0.5894444444444443,5.853999999999992],[-0.8304166666666667,0.581851851851852,5.8705],[-0.7980208333333334,0.5742592592592592,5.887200000002984],[-0.7272916666666667,0.5800000000000001,5.903800000004473],[-0.6588541666666666,0.6140740740740741,5.920499999999997],[-0.6006250000000001,0.6301851851851851,5.937200000002981],[-0.5351041666666667,0.6209259259259259,5.95380000000447],[-0.49395833333333333,0.6351851851851852,5.970499999999994],[-0.43854166666666666,0.634074074074074,5.987200000002979],[-0.39395833333333335,0.6357407407407406,6.003899999998502],[-0.35614583333333333,0.6488888888888888,6.020499999999991],[-0.3334375,0.6533333333333332,6.037200000002976],[-0.2876041666666667,0.6483333333333334,6.053800000004465],[-0.2904166666666666,0.6446296296296297,6.070500000000003],[-0.29322916666666665,0.640925925925926,6.087200000002973],[-0.2985416666666667,0.6692592592592592,6.103899999998511],[-0.2985416666666667,0.6692592592592592,6.120600000001481],[-0.2907291666666667,0.6905555555555555,6.137200000002984],[-0.2907291666666667,0.6905555555555555,6.153899999998508],[-0.24479166666666666,0.6874074074074075,6.170700000002974],[-0.24479166666666666,0.6874074074074075,6.187300000004463],[-0.2140625,0.6925925925925925,6.203899999998505],[-0.1788541666666667,0.6874074074074075,6.222600000001485],[-0.1788541666666667,0.6874074074074075,6.237300000004474],[-0.1482291666666666,0.6812962962962963,6.253899999998502],[-0.1482291666666666,0.6812962962962963,6.270600000001487],[-0.13166666666666665,0.6174074074074074,6.287200000002976],[-0.13166666666666665,0.6174074074074074,6.303899999998514],[-0.14020833333333335,0.5585185185185185,6.320600000001484],[-0.10874999999999997,0.5061111111111111,6.337300000004468],[-0.10874999999999997,0.5061111111111111,6.353899999998511],[-0.08072916666666667,0.46407407407407414,6.370600000001481],[-0.050312499999999954,0.397037037037037,6.387200000002984],[-0.0390625,0.29148148148148145,6.403800000004473],[-0.04833333333333331,0.23870370370370367,6.420499999999997],[-0.06677083333333336,0.18092592592592602,6.437300000004463],[-0.08374999999999998,0.13055555555555556,6.45380000000447],[-0.08250000000000005,0.0705555555555556,6.473899999998501],[-0.090625,0.0448148148148149,6.488300000004465],[-0.0967708333333333,0.0235185185185186,6.503999999999998],[-0.10281250000000004,0.0007407407407406986,6.520600000001487],[-0.07052083333333338,-0.018703703703703747,6.537200000002976],[-0.03125,-0.028703703703703703,6.553899999998514],[0.02510416666666669,0.012592592592592508,6.571899999998514],[0.07177083333333342,0.015000000000000043,6.587300000004468],[0.14510416666666662,-0.008148148148148106,6.608399999998504],[0.2078125,0.006851851851851936,6.623200000002974],[0.24885416666666677,0.014259259259259343,6.6385000000000005],[0.29749999999999993,0.03611111111111111,6.6540000000000035],[0.3551041666666668,0.07148148148148152,6.674600000001483],[0.38822916666666674,0.09074074074074075,6.688499999999998],[0.38177083333333334,0.07833333333333325,6.704100000001482],[0.37531249999999994,0.06592592592592597,6.720700000002985],[0.35135416666666663,0.06296296296296296,6.7395],[0.3304166666666667,0.062407407407407495,6.753999999999998],[0.30270833333333325,0.08777777777777773,6.773300000004461],[0.2849999999999999,0.069074074074074,6.787300000004471],[0.27374999999999994,0.049629629629629544,6.8060000000000045],[0.23937499999999995,0.04333333333333329,6.820800000004475],[0.20499999999999996,0.03092592592592601,6.837399999998503],[0.17666666666666658,0.030740740740740784,6.853800000004462],[0.15114583333333323,0.08111111111111102,6.8705],[0.12427083333333329,0.14629629629629629,6.887200000002984],[0.11593749999999996,0.17740740740740732,6.903800000004473],[0.10895833333333324,0.20259259259259255,6.9206000000014924],[0.04104166666666664,0.2198148148148149,6.937200000002981],[-0.026250000000000048,0.24296296296296305,6.954000000000001],[-0.13447916666666668,0.3140740740740741,6.972600000001485],[-0.15239583333333329,0.3168518518518519,6.987399999998509],[-0.20385416666666673,0.3081481481481481,7.004100000001493],[-0.24645833333333336,0.30166666666666664,7.020700000002982],[-0.29718749999999994,0.2838888888888888,7.03910000000149],[-0.3180208333333333,0.22592592592592592,7.054499999999997],[-0.3570833333333333,0.20259259259259255,7.070700000002979],[-0.40041666666666664,0.1874074074074075,7.087300000004468],[-0.41218750000000004,0.17222222222222222,7.106000000000002],[-0.3676041666666666,0.14129629629629623,7.120800000004472],[-0.31760416666666663,0.10500000000000008,7.140399999998515],[-0.33479166666666665,0.12388888888888884,7.16110000000149],[-0.33479166666666665,0.12388888888888884,7.170700000002974],[-0.31625000000000003,0.09888888888888885,7.187399999998512],[-0.2846874999999999,0.0992592592592593,7.203899999998505],[-0.24312499999999998,0.07833333333333325,7.22060000000149],[-0.20718749999999997,0.05962962962962971,7.237399999998509],[-0.16510416666666666,0.025185185185185227,7.253899999998502],[-0.13093750000000004,0.005185185185185101,7.271800000004468],[-0.07239583333333334,-0.013518518518518435,7.2871000000014945],[-0.02302083333333336,-0.011666666666666582,7.303800000004465],[0.06343749999999998,-0.03351851851851856,7.320600000001484],[0.13395833333333323,-0.051666666666666625,7.337399999998503],[0.19333333333333325,-0.021851851851851768,7.353899999998511],[0.23781249999999995,-0.000925925925925926,7.371600000001486],[0.28229166666666666,0.019999999999999917,7.3873000000044655],[0.32270833333333326,0.041666666666666664,7.403899999998508],[0.3631249999999999,0.06333333333333342,7.4206000000014924],[0.38468749999999996,0.0816666666666667,7.439300000004472],[0.3832291666666668,0.08499999999999996,7.454000000000001],[0.34010416666666665,0.10111111111111115,7.471100000001492],[0.29697916666666657,0.11722222222222214,7.490700000002981],[0.27395833333333336,0.11685185185185189,7.505200000002979],[0.2509375000000001,0.11648148148148144,7.5208000000044635],[0.240625,0.08907407407407411,7.537399999998506],[0.2303124999999999,0.061666666666666585,7.557300000004467],[0.22020833333333342,0.018333333333333292,7.573],[0.2101041666666667,-0.025,7.588300000004473],[0.1616666666666667,-0.027222222222222307,7.603800000004462],[0.13624999999999995,-0.01444444444444436,7.6205],[0.12270833333333328,-0.03129629629629625,7.640700000002973],[0.10916666666666662,-0.04814814814814815,7.655800000004469],[0.0806250000000001,-0.06388888888888888,7.671800000004474],[0.04635416666666667,-0.06851851851851852,7.68880000000447],[0.02791666666666662,-0.07222222222222222,7.703899999998505],[0.00947916666666669,-0.07592592592592592,7.720499999999994],[-0.07468750000000005,-0.0514814814814814,7.737500000000004],[-0.07468750000000005,-0.0514814814814814,7.753800000004468],[-0.15854166666666672,-0.029259259259259176,7.770700000002982],[-0.18760416666666668,-0.06425925925925924,7.7871000000014945],[-0.23052083333333329,-0.09166666666666666,7.808899999998509],[-0.23468749999999997,-0.08740740740740739,7.823300000004473],[-0.2569791666666667,-0.06074074074074076,7.837399999998503],[-0.26843750000000005,-0.02240740740740745,7.853800000004462],[-0.31489583333333326,-0.013333333333333417,7.8705],[-0.36062500000000003,-0.030740740740740784,7.887100000001489],[-0.4063541666666667,0.003333333333333249,7.903800000004473],[-0.4054166666666667,0.04759259259259268,7.920499999999997],[-0.4166666666666667,0.06425925925925935,7.937100000001486],[-0.41770833333333335,0.08129629629629626,7.953899999998505],[-0.3393749999999999,0.05314814814814823,7.971700000002976],[-0.3141666666666667,0.0025925925925925505,7.987300000004474],[-0.2803125,-0.05259259259259255,8.003899999998502],[-0.24645833333333336,-0.10777777777777775,8.021600000001492],[-0.1967708333333333,-0.11351851851851855,8.037100000001494],[-0.18166666666666664,-0.0809259259259259,8.053899999998514],[-0.10645833333333338,-0.09444444444444444,8.071700000002984],[-0.05531250000000002,-0.13444444444444448,8.088399999998508],[0.007708333333333309,-0.14462962962962966,8.103800000004462],[0.007708333333333309,-0.14462962962962966,8.1205],[0.07489583333333343,-0.1542592592592593,8.137100000001489],[0.07489583333333343,-0.1542592592592593,8.153800000004473],[0.07729166666666672,-0.13777777777777775,8.170600000001492],[0.07729166666666672,-0.13777777777777775,8.187200000002981],[0.06583333333333338,-0.13444444444444448,8.203899999998505],[0.06583333333333338,-0.13444444444444448,8.220499999999994],[0.10010416666666658,-0.13962962962962958,8.237200000002979],[0.10010416666666658,-0.13962962962962958,8.256999999999998],[0.09645833333333324,-0.12018518518518514,8.270700000002982],[0.09645833333333324,-0.12018518518518514,8.287300000004471],[0.11958333333333329,-0.14888888888888885,8.303999999999995],[0.16114583333333338,-0.1690740740740741,8.324899999998514],[0.07260416666666672,-0.21370370370370367,8.339700000002985],[0.009791666666666643,-0.2351851851851852,8.355300000004469],[-0.006562499999999953,-0.2559259259259259,8.370700000002977],[-0.027083333333333334,-0.2772222222222222,8.390499999999996],[-0.0421875,-0.2962962962962963,8.404999999999994],[-0.0453125,-0.3101851851851852,8.420499999999997],[-0.043229166666666666,-0.3290740740740741,8.437300000004463],[-0.025729166666666713,-0.3542592592592593,8.453899999998505],[-0.034062500000000044,-0.37962962962962965,8.471800000004471],[-0.024687500000000046,-0.42592592592592593,8.487100000001483],[0.017499999999999953,-0.4372222222222223,8.503899999998502],[0.08604166666666657,-0.4487037037037037,8.520499999999991],[0.08760416666666657,-0.47018518518518515,8.537200000002976],[0.08916666666666657,-0.49166666666666664,8.556300000004462],[0.10697916666666671,-0.5105555555555555,8.57099999999999],[0.10697916666666671,-0.5105555555555555,8.587300000004468],[0.13614583333333338,-0.5224074074074074,8.603999999999992],[0.10822916666666677,-0.54,8.622800000004467],[0.08802083333333334,-0.562037037037037,8.637399999998514],[0.0865624999999999,-0.5524074074074075,8.654000000000003],[0.04822916666666662,-0.5459259259259259,8.677399999998507],[0.04822916666666662,-0.5459259259259259,8.687399999998512],[0.06385416666666661,-0.5622222222222223,8.704],[0.06385416666666661,-0.5622222222222223,8.720499999999994],[0.05333333333333338,-0.5638888888888889,8.737200000002979],[0.06291666666666665,-0.5459259259259259,8.753899999998502],[0.07979166666666657,-0.5314814814814814,8.772200000002975],[0.07979166666666657,-0.5314814814814814,8.787200000002976],[0.07427083333333329,-0.5103703703703704,8.803899999998514],[0.03875000000000005,-0.49166666666666664,8.821800000004465],[0.07218749999999995,-0.4762962962962963,8.837100000001492],[0.10395833333333329,-0.4729629629629629,8.853800000004462],[0.09302083333333329,-0.4933333333333333,8.8705],[0.09260416666666677,-0.5120370370370371,8.887100000001489],[0.0828125,-0.5107407407407407,8.903800000004473],[0.07114583333333328,-0.5205555555555555,8.920499999999997],[0.07354166666666657,-0.542962962962963,8.939],[0.06864583333333343,-0.5618518518518518,8.955100000001487],[0.08479166666666677,-0.5394444444444445,8.971700000002976],[0.1330208333333334,-0.5522222222222222,8.987800000004462],[0.08520833333333329,-0.5516666666666666,9.003800000004468],[0.08864583333333324,-0.5575925925925926,9.020999999999994],[0.13468749999999996,-0.54,9.037200000002976],[0.13468749999999996,-0.54,9.053800000004465],[0.178125,-0.5107407407407407,9.070600000001484],[0.21624999999999991,-0.5062962962962962,9.087700000002975],[0.22166666666666662,-0.5122222222222222,9.103800000004462],[0.21343750000000009,-0.515925925925926,9.120399999998504],[0.2361458333333334,-0.5248148148148147,9.137300000004466],[0.23781249999999995,-0.575,9.153800000004473],[0.23781249999999995,-0.575,9.170899999998504],[0.20885416666666667,-0.5844444444444444,9.187200000002981],[0.2109375,-0.5924074074074074,9.204],[0.17822916666666658,-0.5957407407407407,9.220499999999994],[0.15364583333333334,-0.6316666666666667,9.237200000002979],[0.140625,-0.6607407407407407,9.253899999998502],[0.12510416666666657,-0.6803703703703703,9.272800000004473],[0.13250000000000003,-0.6742592592592593,9.28910000000149],[0.1336458333333333,-0.6894444444444444,9.303800000004465],[0.13739583333333344,-0.6822222222222222,9.320500000000003],[0.13406250000000006,-0.6964814814814815,9.337200000002973],[0.12927083333333325,-0.7112962962962963,9.35389999999851],[0.12927083333333325,-0.7112962962962963,9.370600000001481],[0.17062499999999994,-0.7233333333333334,9.387200000002984],[0.20583333333333323,-0.7412962962962963,9.403800000004473],[0.23822916666666671,-0.741111111111111,9.420499999999997],[0.2476041666666667,-0.7303703703703703,9.437200000002981],[0.2573958333333332,-0.7174074074074074,9.45380000000447],[0.2955208333333334,-0.7055555555555556,9.471100000001492],[0.3398958333333333,-0.6724074074074075,9.487200000002979],[0.32625000000000004,-0.6807407407407408,9.503899999998502],[0.32625000000000004,-0.6807407407407408,9.520600000001487],[0.31968750000000007,-0.6675925925925926,9.537200000002976],[0.3341666666666666,-0.6664814814814815,9.553800000004465],[0.309375,-0.6664814814814815,9.570800000004475],[0.2907291666666666,-0.6605555555555556,9.588399999998508],[0.25458333333333344,-0.6014814814814815,9.606200000002978],[0.23177083333333334,-0.5998148148148148,9.620800000004472],[0.19104166666666675,-0.4859259259259259,9.637300000004466],[0.13177083333333334,-0.38629629629629636,9.653800000004473],[0.08875000000000005,-0.3175925925925926,9.672600000001488],[0.049270833333333285,-0.23592592592592587,9.68989999999851],[0.049270833333333285,-0.23592592592592587,9.715300000004468],[0.009791666666666643,-0.1542592592592593,9.733200000002974],[0.009791666666666643,-0.1542592592592593,9.7395]]","[0.000399999998506928,0.03750000000000142,0.05399999999999494,0.07070000000297938,0.08730000000446836,0.1039999999999992,0.12070000000297654,0.13730000000446552,0.15410000000148472,0.1707000000029808,0.18930000000446512,0.20400000000000063,0.22070000000297796,0.24149999999999494,0.2539999999999978,0.2707000000029751,0.2873000000044712,0.30399999999999494,0.320600000001491,0.3373999999985102,0.3568000000044691,0.37370000000297665,0.3908999999985099,0.4058000000044686,0.4207000000029808,0.4373000000044698,0.45389999999850517,0.4711000000014849,0.48730000000446694,0.5039999999999978,0.5207000000029751,0.5383999999985107,0.5541000000014904,0.5718999999985073,0.5873000000044684,0.6039999999999992,0.6206000000014882,0.6373999999985074,0.6539999999999964,0.6729999999999947,0.6896000000014908,0.705200000002975,0.720700000002978,0.7373000000044669,0.7538999999985094,0.7707000000029751,0.7873000000044712,0.8063999999985043,0.820600000001491,0.8373000000044684,0.8541000000014876,0.8706000000014882,0.8873000000044655,0.9039999999999964,0.9207000000029808,0.9373000000044698,0.954100000001489,0.9708999999985082,0.9873000000044669,1.0042000000029816,1.0206000000014868,1.0373000000044712,1.0541000000014904,1.0707000000029794,1.0873000000044684,1.1063999999985086,1.1244999999999976,1.1396000000014865,1.1539999999999964,1.1708000000044692,1.1873000000044698,1.2038999999985052,1.2206000000014896,1.2373999999985088,1.2541000000014861,1.2707000000029751,1.2873000000044712,1.303999999999995,1.3208000000044677,1.33720000000298,1.3538999999985109,1.3707000000029765,1.3873000000044655,1.4039999999999964,1.4206000000014853,1.4373999999985045,1.4538999999985052,1.470700000002978,1.487300000004467,1.5039999999999978,1.5206000000014868,1.5373000000044712,1.553999999999995,1.570600000001491,1.5873000000044684,1.6039999999999992,1.6206000000014882,1.6373000000044655,1.653899999998508,1.6718999999985087,1.6873000000044698,1.7038999999985052,1.7206000000014896,1.737300000004467,1.7539999999999978,1.7707000000029751,1.7872000000029757,1.803999999999995,1.820600000001491,1.8373000000044684,1.8539999999999992,1.870800000004465,1.8872000000029772,1.9039999999999964,1.9206000000014853,1.9373000000044698,1.9540000000000006,1.9706000000014896,1.987300000004467,2.0038999999985094,2.0206000000014868,2.037300000004471,2.053999999999995,2.0738999999985097,2.089800000004466,2.103999999999999,2.1207000000029765,2.1373000000044655,2.153899999998508,2.170800000004469,2.18730000000447,2.203899999998505,2.2206000000014896,2.237399999998509,2.2538999999985094,2.270700000002975,2.287399999998506,2.3038999999985066,2.3207000000029794,2.3373000000044684,2.353899999998511,2.370600000001488,2.3873000000044655,2.403899999998508,2.4206000000014853,2.43730000000447,2.453899999998505,2.470700000002978,2.4872000000029786,2.504100000001486,2.520700000002975,2.537300000004471,2.553999999999995,2.5711000000014863,2.58720000000298,2.603899999998511,2.620600000001488,2.6373000000044655,2.653899999998508,2.6706000000014853,2.68730000000447,2.703899999998505,2.7206000000014896,2.737300000004467,2.753999999999998,2.77170000000298,2.787300000004471,2.803999999999995,2.820600000001491,2.8373000000044684,2.853999999999999,2.8718000000044697,2.887200000002977,2.9039999999999964,2.9206000000014853,2.9372000000029814,2.953899999998505,2.974800000004471,2.9891000000014856,3.0038999999985094,3.0206000000014868,3.037300000004471,3.0538999999985066,3.0718000000044654,3.0873000000044684,3.103899999998511,3.120600000001488,3.1373000000044655,3.153899999998508,3.1743000000044717,3.1884999999999977,3.203899999998505,3.2206000000014896,3.237300000004467,3.2538999999985094,3.2706000000014868,3.287300000004471,3.303999999999995,3.3207000000029794,3.337600000001487,3.3541000000014876,3.370999999999995,3.3873999999985074,3.403899999998508,3.4206000000014853,3.43730000000447,3.453899999998505,3.470899999998508,3.4872000000029786,3.5038999999985094,3.5206000000014868,3.537300000004471,3.5538999999985066,3.5711000000014863,3.58720000000298,3.603899999998511,3.620600000001488,3.6373000000044655,3.653899999998508,3.6706000000014853,3.68730000000447,3.703899999998505,3.7206000000014896,3.737300000004467,3.7538999999985094,3.770700000002975,3.7872000000029757,3.8038999999985066,3.8204999999999956,3.83720000000298,3.853899999998511,3.870600000001488,3.8873000000044655,3.903899999998508,3.9206000000014853,3.9372000000029814,3.9540000000000006,3.9706000000014896,3.987300000004467,4.003899999998509,4.020600000001487,4.037300000004471,4.053999999999995,4.072200000002979,4.089500000000001,4.103899999998511,4.120600000001488,4.1373000000044655,4.153999999999996,4.170800000004469,4.18730000000447,4.204000000000001,4.22060000000149,4.240899999998511,4.253899999998509,4.270600000001487,4.287300000004471,4.303899999998507,4.32239999999851,4.337300000004468,4.353899999998511,4.370600000001488,4.389100000001491,4.403899999998508,4.420600000001485,4.43730000000447,4.453899999998505,4.47060000000149,4.4883999999985065,4.504100000001486,4.520600000001487,4.53760000000149,4.553999999999995,4.570600000001491,4.587300000004468,4.603899999998511,4.620600000001488,4.6373000000044655,4.653899999998508,4.670600000001485,4.687600000001488,4.703899999998505,4.72120000000298,4.739300000004469,4.757100000001486,4.772999999999996,4.789499999999997,4.803899999998507,4.820499999999996,4.837300000004468,4.853899999998511,4.870800000004465,4.8873000000044655,4.905000000000001,4.920800000004469,4.93730000000447,4.954000000000001,4.970800000004466,4.987300000004467,5.003899999998509,5.020800000004471,5.037300000004471,5.053899999998507,5.070600000001491,5.087300000004468,5.103899999998511,5.120600000001488,5.1373000000044655,5.153899999998508,5.170700000002981,5.18730000000447,5.203899999998505,5.22060000000149,5.237200000002979,5.253999999999998,5.270600000001487,5.287300000004471,5.303899999998514,5.320700000002979,5.337200000002973,5.353899999998511,5.371800000004463,5.388700000002977,5.4040000000000035,5.4206000000014924,5.437499999999993,5.453899999998505,5.470499999999994,5.487200000002979,5.503800000004468,5.523700000002982,5.537200000002976,5.553899999998514,5.573800000004475,5.587399999998503,5.603800000004462,5.620600000001481,5.6373000000044655,5.653800000004473,5.6706000000014924,5.687300000004463,5.70380000000447,5.723999999999997,5.737200000002979,5.753899999998502,5.770600000001487,5.787200000002976,5.803899999998514,5.820600000001484,5.837200000002973,5.853999999999992,5.8705,5.887200000002984,5.903800000004473,5.920499999999997,5.937200000002981,5.95380000000447,5.970499999999994,5.987200000002979,6.003899999998502,6.020499999999991,6.037200000002976,6.053800000004465,6.070500000000003,6.087200000002973,6.103899999998511,6.120600000001481,6.137200000002984,6.153899999998508,6.170700000002974,6.187300000004463,6.203899999998505,6.222600000001485,6.237300000004474,6.253899999998502,6.270600000001487,6.287200000002976,6.303899999998514,6.320600000001484,6.337300000004468,6.353899999998511,6.370600000001481,6.387200000002984,6.403800000004473,6.420499999999997,6.437300000004463,6.45380000000447,6.473899999998501,6.488300000004465,6.503999999999998,6.520600000001487,6.537200000002976,6.553899999998514,6.571899999998514,6.587300000004468,6.608399999998504,6.623200000002974,6.6385000000000005,6.6540000000000035,6.674600000001483,6.688499999999998,6.704100000001482,6.720700000002985,6.7395,6.753999999999998,6.773300000004461,6.787300000004471,6.8060000000000045,6.820800000004475,6.837399999998503,6.853800000004462,6.8705,6.887200000002984,6.903800000004473,6.9206000000014924,6.937200000002981,6.954000000000001,6.972600000001485,6.987399999998509,7.004100000001493,7.020700000002982,7.03910000000149,7.054499999999997,7.070700000002979,7.087300000004468,7.106000000000002,7.120800000004472,7.140399999998515,7.16110000000149,7.170700000002974,7.187399999998512,7.203899999998505,7.22060000000149,7.237399999998509,7.253899999998502,7.271800000004468,7.2871000000014945,7.303800000004465,7.320600000001484,7.337399999998503,7.353899999998511,7.371600000001486,7.3873000000044655,7.403899999998508,7.4206000000014924,7.439300000004472,7.454000000000001,7.471100000001492,7.490700000002981,7.505200000002979,7.5208000000044635,7.537399999998506,7.557300000004467,7.573,7.588300000004473,7.603800000004462,7.6205,7.640700000002973,7.655800000004469,7.671800000004474,7.68880000000447,7.703899999998505,7.720499999999994,7.737500000000004,7.753800000004468,7.770700000002982,7.7871000000014945,7.808899999998509,7.823300000004473,7.837399999998503,7.853800000004462,7.8705,7.887100000001489,7.903800000004473,7.920499999999997,7.937100000001486,7.953899999998505,7.971700000002976,7.987300000004474,8.003899999998502,8.021600000001492,8.037100000001494,8.053899999998514,8.071700000002984,8.088399999998508,8.103800000004462,8.1205,8.137100000001489,8.153800000004473,8.170600000001492,8.187200000002981,8.203899999998505,8.220499999999994,8.237200000002979,8.256999999999998,8.270700000002982,8.287300000004471,8.303999999999995,8.324899999998514,8.339700000002985,8.355300000004469,8.370700000002977,8.390499999999996,8.404999999999994,8.420499999999997,8.437300000004463,8.453899999998505,8.471800000004471,8.487100000001483,8.503899999998502,8.520499999999991,8.537200000002976,8.556300000004462,8.57099999999999,8.587300000004468,8.603999999999992,8.622800000004467,8.637399999998514,8.654000000000003,8.677399999998507,8.687399999998512,8.704,8.720499999999994,8.737200000002979,8.753899999998502,8.772200000002975,8.787200000002976,8.803899999998514,8.821800000004465,8.837100000001492,8.853800000004462,8.8705,8.887100000001489,8.903800000004473,8.920499999999997,8.939,8.955100000001487,8.971700000002976,8.987800000004462,9.003800000004468,9.020999999999994,9.037200000002976,9.053800000004465,9.070600000001484,9.087700000002975,9.103800000004462,9.120399999998504,9.137300000004466,9.153800000004473,9.170899999998504,9.187200000002981,9.204,9.220499999999994,9.237200000002979,9.253899999998502,9.272800000004473,9.28910000000149,9.303800000004465,9.320500000000003,9.337200000002973,9.35389999999851,9.370600000001481,9.387200000002984,9.403800000004473,9.420499999999997,9.437200000002981,9.45380000000447,9.471100000001492,9.487200000002979,9.503899999998502,9.520600000001487,9.537200000002976,9.553800000004465,9.570800000004475,9.588399999998508,9.606200000002978,9.620800000004472,9.637300000004466,9.653800000004473,9.672600000001488,9.68989999999851,9.715300000004468,9.733200000002974,9.7395]","[1733280031212,1733280031242,1733280031258,1733280031275,1733280031292,1733280031308,1733280031325,1733280031342,1733280031358,1733280031375,1733280031394,1733280031408,1733280031425,1733280031446,1733280031458,1733280031475,1733280031492,1733280031508,1733280031525,1733280031542,1733280031561,1733280031578,1733280031595,1733280031610,1733280031625,1733280031642,1733280031658,1733280031675,1733280031692,1733280031708,1733280031725,1733280031743,1733280031758,1733280031776,1733280031792,1733280031808,1733280031825,1733280031842,1733280031858,1733280031877,1733280031894,1733280031910,1733280031925,1733280031942,1733280031958,1733280031975,1733280031992,1733280032011,1733280032025,1733280032042,1733280032058,1733280032075,1733280032092,1733280032108,1733280032125,1733280032142,1733280032158,1733280032175,1733280032192,1733280032209,1733280032225,1733280032242,1733280032258,1733280032275,1733280032292,1733280032311,1733280032329,1733280032344,1733280032358,1733280032375,1733280032392,1733280032408,1733280032425,1733280032442,1733280032459,1733280032475,1733280032492,1733280032508,1733280032525,1733280032542,1733280032558,1733280032575,1733280032592,1733280032608,1733280032625,1733280032642,1733280032658,1733280032675,1733280032692,1733280032708,1733280032725,1733280032742,1733280032758,1733280032775,1733280032792,1733280032808,1733280032825,1733280032842,1733280032858,1733280032876,1733280032892,1733280032908,1733280032925,1733280032942,1733280032958,1733280032975,1733280032992,1733280033008,1733280033025,1733280033042,1733280033058,1733280033075,1733280033092,1733280033108,1733280033125,1733280033142,1733280033158,1733280033175,1733280033192,1733280033208,1733280033225,1733280033242,1733280033258,1733280033278,1733280033294,1733280033308,1733280033325,1733280033342,1733280033358,1733280033375,1733280033392,1733280033408,1733280033425,1733280033442,1733280033458,1733280033475,1733280033492,1733280033508,1733280033525,1733280033542,17