inst1_resp.keys,inst1_resp.rt,calibrationMouse.x,calibrationMouse.y,calibrationMouse.leftButton,calibrationMouse.midButton,calibrationMouse.rightButton,calibrationClick.x,calibrationClick.y,calibrationClick.leftButton,calibrationClick.midButton,calibrationClick.rightButton,trialsc.thisRepN,trialsc.thisTrialN,trialsc.thisN,trialsc.thisIndex,trialsc.ran,calibration_x,calibration_y,participant,session,date,expName,psychopyVersion,OS,frameRate,calibrationClick.clicked_name,ScreenRes_pixels,Camera_pixels,mouse_2.x,mouse_2.y,mouse_2.leftButton,mouse_2.midButton,mouse_2.rightButton,mouse_2.time,mouse_2.clicked_name,mouse.x,mouse.y,mouse.leftButton,mouse.midButton,mouse.rightButton,mouse.time,mouse.clicked_name,Choice,Trial,TrialDuration,MOUSE_GAZE,ET_GAZE,ET_GAZE_x_T,time,unixTime,ET_GAZE_NF,Loc_Option1_label,Loc_Option2_label,Loc_Cost_label,Loc_Qual_label,Loc_Option1_cost,Loc_Option2_cost,Loc_Option1_quality,Loc_Option2_quality,trials.thisRepN,trials.thisTrialN,trials.thisN,trials.thisIndex,trials.ran,Block,Device,cost1,qual1,cost2,qual2
space,1.4886,0.207291667,-0.359259259,1,0,0,0.6625,0.690740741,1,0,0,0,0,0,19,1,0.67,0.67,15,001,2024-12-05_15h26.36.266,Attention_exp_legacy,2023.1.0,Win32,60.24096386,,,,,,,,,,,,,,,,,,,,,,,,,,,,,,,,,,,,,,,,,,,,,
,,,,,,,-0.013541667,-0.672222222,1,0,0,0,1,1,9,1,0,-0.67,15,001,2024-12-05_15h26.36.266,Attention_exp_legacy,2023.1.0,Win32,60.24096386,,,,,,,,,,,,,,,,,,,,,,,,,,,,,,,,,,,,,,,,,,,,,
,,,,,,,-0.686458333,-0.316666667,1,0,0,0,2,2,1,1,-0.67,-0.33,15,001,2024-12-05_15h26.36.266,Attention_exp_legacy,2023.1.0,Win32,60.24096386,,,,,,,,,,,,,,,,,,,,,,,,,,,,,,,,,,,,,,,,,,,,,
,,,,,,,-0.3375,-0.335185185,1,0,0,0,3,3,5,1,-0.33,-0.33,15,001,2024-12-05_15h26.36.266,Attention_exp_legacy,2023.1.0,Win32,60.24096386,calibration_square,,,,,,,,,,,,,,,,,,,,,,,,,,,,,,,,,,,,,,,,,,,,
,,,,,,,0.317708333,-0.340740741,1,0,0,0,4,4,15,1,0.33,-0.33,15,001,2024-12-05_15h26.36.266,Attention_exp_legacy,2023.1.0,Win32,60.24096386,,,,,,,,,,,,,,,,,,,,,,,,,,,,,,,,,,,,,,,,,,,,,
,,,,,,,-0.326041667,-0.657407407,1,0,0,0,5,5,4,1,-0.33,-0.67,15,001,2024-12-05_15h26.36.266,Attention_exp_legacy,2023.1.0,Win32,60.24096386,,,,,,,,,,,,,,,,,,,,,,,,,,,,,,,,,,,,,,,,,,,,,
,,,,,,,0.009375,-0.014814815,1,0,0,0,6,6,11,1,0,0,15,001,2024-12-05_15h26.36.266,Attention_exp_legacy,2023.1.0,Win32,60.24096386,,,,,,,,,,,,,,,,,,,,,,,,,,,,,,,,,,,,,,,,,,,,,
,,,,,,,-0.671875,-0.675925926,1,0,0,0,7,7,0,1,-0.67,-0.67,15,001,2024-12-05_15h26.36.266,Attention_exp_legacy,2023.1.0,Win32,60.24096386,calibration_square,,,,,,,,,,,,,,,,,,,,,,,,,,,,,,,,,,,,,,,,,,,,
,,,,,,,-0.326041667,0.694444444,1,0,0,0,8,8,8,1,-0.33,0.67,15,001,2024-12-05_15h26.36.266,Attention_exp_legacy,2023.1.0,Win32,60.24096386,,,,,,,,,,,,,,,,,,,,,,,,,,,,,,,,,,,,,,,,,,,,,
,,,,,,,0.0125,-0.312962963,1,0,0,0,9,9,10,1,0,-0.33,15,001,2024-12-05_15h26.36.266,Attention_exp_legacy,2023.1.0,Win32,60.24096386,,,,,,,,,,,,,,,,,,,,,,,,,,,,,,,,,,,,,,,,,,,,,
,,,,,,,0.329166667,0.309259259,1,0,0,0,10,10,17,1,0.33,0.33,15,001,2024-12-05_15h26.36.266,Attention_exp_legacy,2023.1.0,Win32,60.24096386,,,,,,,,,,,,,,,,,,,,,,,,,,,,,,,,,,,,,,,,,,,,,
,,,,,,,0.66875,-0.67037037,1,0,0,0,11,11,20,1,0.67,-0.67,15,001,2024-12-05_15h26.36.266,Attention_exp_legacy,2023.1.0,Win32,60.24096386,calibration_square,,,,,,,,,,,,,,,,,,,,,,,,,,,,,,,,,,,,,,,,,,,,
,,,,,,,-0.672916667,0,1,0,0,0,12,12,2,1,-0.67,0,15,001,2024-12-05_15h26.36.266,Attention_exp_legacy,2023.1.0,Win32,60.24096386,calibration_square,,,,,,,,,,,,,,,,,,,,,,,,,,,,,,,,,,,,,,,,,,,,
,,,,,,,0.344791667,0,1,0,0,0,13,13,16,1,0.33,0,15,001,2024-12-05_15h26.36.266,Attention_exp_legacy,2023.1.0,Win32,60.24096386,,,,,,,,,,,,,,,,,,,,,,,,,,,,,,,,,,,,,,,,,,,,,
,,,,,,,-0.679166667,0.327777778,1,0,0,0,14,14,3,1,-0.67,0.33,15,001,2024-12-05_15h26.36.266,Attention_exp_legacy,2023.1.0,Win32,60.24096386,calibration_square,,,,,,,,,,,,,,,,,,,,,,,,,,,,,,,,,,,,,,,,,,,,
,,,,,,,0.321875,-0.672222222,1,0,0,0,15,15,14,1,0.33,-0.67,15,001,2024-12-05_15h26.36.266,Attention_exp_legacy,2023.1.0,Win32,60.24096386,calibration_square,,,,,,,,,,,,,,,,,,,,,,,,,,,,,,,,,,,,,,,,,,,,
,,,,,,,-0.00625,0.67037037,1,0,0,0,16,16,13,1,0,0.67,15,001,2024-12-05_15h26.36.266,Attention_exp_legacy,2023.1.0,Win32,60.24096386,calibration_square,,,,,,,,,,,,,,,,,,,,,,,,,,,,,,,,,,,,,,,,,,,,
,,,,,,,0.3375,0.659259259,1,0,0,0,17,17,18,1,0.33,0.67,15,001,2024-12-05_15h26.36.266,Attention_exp_legacy,2023.1.0,Win32,60.24096386,,,,,,,,,,,,,,,,,,,,,,,,,,,,,,,,,,,,,,,,,,,,,
,,,,,,,-0.019791667,0.327777778,1,0,0,0,18,18,12,1,0,0.33,15,001,2024-12-05_15h26.36.266,Attention_exp_legacy,2023.1.0,Win32,60.24096386,,,,,,,,,,,,,,,,,,,,,,,,,,,,,,,,,,,,,,,,,,,,,
,,,,,,,-0.336458333,-0.009259259,1,0,0,0,19,19,6,1,-0.33,0,15,001,2024-12-05_15h26.36.266,Attention_exp_legacy,2023.1.0,Win32,60.24096386,calibration_square,,,,,,,,,,,,,,,,,,,,,,,,,,,,,,,,,,,,,,,,,,,,
,,,,,,,-0.329166667,0.342592593,1,0,0,0,20,20,7,1,-0.33,0.33,15,001,2024-12-05_15h26.36.266,Attention_exp_legacy,2023.1.0,Win32,60.24096386,,,,,,,,,,,,,,,,,,,,,,,,,,,,,,,,,,,,,,,,,,,,,
,,,,,,,,,,,,,,,,,,,15,001,2024-12-05_15h26.36.266,Attention_exp_legacy,2023.1.0,Win32,60.24096386,,"[1920,1080]","[640,480]",[0.028125],[-0.48518518518518516],[1],[0],[0],[1.0305000000000035],"[""StartButton""]",[-0.008333333333333333],[0.34444444444444444],[1],[0],[0],[2.221400000005964],"[""Option1_label""]",Option1_label,1,3.2451,"[[0.042708333333333334,-0.4185185185185185],[0.042708333333333334,-0.4185185185185185],[0.042708333333333334,-0.4185185185185185],[0.042708333333333334,-0.4185185185185185],[0.042708333333333334,-0.4185185185185185],[0.042708333333333334,-0.4185185185185185],[0.042708333333333334,-0.4185185185185185],[0.042708333333333334,-0.4185185185185185],[0.042708333333333334,-0.4185185185185185],[0.042708333333333334,-0.4185185185185185],[0.042708333333333334,-0.4185185185185185],[0.042708333333333334,-0.4185185185185185],[0.042708333333333334,-0.4185185185185185],[0.042708333333333334,-0.4185185185185185],[0.042708333333333334,-0.4185185185185185],[0.042708333333333334,-0.4185185185185185],[0.042708333333333334,-0.4185185185185185],[0.042708333333333334,-0.4185185185185185],[0.042708333333333334,-0.4185185185185185],[0.042708333333333334,-0.4185185185185185],[0.042708333333333334,-0.4185185185185185],[0.042708333333333334,-0.4185185185185185],[0.042708333333333334,-0.4185185185185185],[0.042708333333333334,-0.4185185185185185],[0.042708333333333334,-0.4185185185185185],[0.042708333333333334,-0.4185185185185185],[0.042708333333333334,-0.4185185185185185],[0.042708333333333334,-0.4185185185185185],[0.042708333333333334,-0.4185185185185185],[0.042708333333333334,-0.4185185185185185],[0.042708333333333334,-0.4185185185185185],[0.042708333333333334,-0.4185185185185185],[0.042708333333333334,-0.4185185185185185],[0.042708333333333334,-0.4185185185185185],[0.042708333333333334,-0.4185185185185185],[0.042708333333333334,-0.4185185185185185],[0.042708333333333334,-0.4185185185185185],[0.042708333333333334,-0.4185185185185185],[0.042708333333333334,-0.4185185185185185],[0.042708333333333334,-0.4185185185185185],[0.042708333333333334,-0.4185185185185185],[0.042708333333333334,-0.4185185185185185],[0.042708333333333334,-0.4185185185185185],[0.042708333333333334,-0.4185185185185185],[0.042708333333333334,-0.4185185185185185],[0.042708333333333334,-0.4185185185185185],[0.042708333333333334,-0.4185185185185185],[0.042708333333333334,-0.4185185185185185],[0.042708333333333334,-0.4185185185185185],[0.042708333333333334,-0.4185185185185185],[0.042708333333333334,-0.4185185185185185],[0.042708333333333334,-0.4185185185185185],[0.042708333333333334,-0.4185185185185185],[0.042708333333333334,-0.4185185185185185],[0.042708333333333334,-0.4185185185185185],[0.042708333333333334,-0.4185185185185185],[0.042708333333333334,-0.4185185185185185],[0.042708333333333334,-0.4185185185185185],[0.042708333333333334,-0.4185185185185185],[0.042708333333333334,-0.4185185185185185],[0.042708333333333334,-0.4185185185185185],[0.042708333333333334,-0.4185185185185185],[0.042708333333333334,-0.4185185185185185],[0.042708333333333334,-0.4185185185185185],[0.042708333333333334,-0.4185185185185185],[0.042708333333333334,-0.4185185185185185],[0.042708333333333334,-0.4185185185185185],[0.042708333333333334,-0.4185185185185185],[0.042708333333333334,-0.4185185185185185],[0.042708333333333334,-0.4185185185185185],[0.042708333333333334,-0.4185185185185185],[0.042708333333333334,-0.4185185185185185],[0.042708333333333334,-0.4185185185185185],[0.042708333333333334,-0.4185185185185185],[0.042708333333333334,-0.4185185185185185],[0.042708333333333334,-0.4185185185185185],[0.042708333333333334,-0.4185185185185185],[0.042708333333333334,-0.4185185185185185],[0.042708333333333334,-0.4185185185185185],[0.042708333333333334,-0.4185185185185185],[0.042708333333333334,-0.4185185185185185],[0.042708333333333334,-0.4185185185185185],[0.042708333333333334,-0.4185185185185185],[0.042708333333333334,-0.4185185185185185],[0.042708333333333334,-0.4185185185185185],[0.042708333333333334,-0.4185185185185185],[0.042708333333333334,-0.4185185185185185],[0.042708333333333334,-0.4185185185185185],[0.042708333333333334,-0.4185185185185185],[0.042708333333333334,-0.4185185185185185],[0.042708333333333334,-0.4185185185185185],[0.042708333333333334,-0.4185185185185185],[0.042708333333333334,-0.4111111111111111],[0.042708333333333334,-0.40185185185185185],[0.042708333333333334,-0.38333333333333336],[0.042708333333333334,-0.3685185185185185],[0.041666666666666664,-0.34814814814814815],[0.03854166666666667,-0.31296296296296294],[0.03854166666666667,-0.2611111111111111],[0.035416666666666666,-0.18703703703703703],[0.028125,-0.1],[0.015625,0.02962962962962963],[0.008333333333333333,0.09444444444444444],[0.003125,0.13333333333333333],[0,0.16666666666666666],[-0.003125,0.19444444444444445],[-0.005208333333333333,0.21851851851851853],[-0.007291666666666667,0.2388888888888889],[-0.008333333333333333,0.2537037037037037],[-0.008333333333333333,0.27037037037037037],[-0.008333333333333333,0.28703703703703703],[-0.008333333333333333,0.30185185185185187],[-0.008333333333333333,0.3111111111111111],[-0.008333333333333333,0.31851851851851853],[-0.008333333333333333,0.32037037037037036],[-0.008333333333333333,0.32222222222222224],[-0.008333333333333333,0.32407407407407407],[-0.008333333333333333,0.32407407407407407],[-0.008333333333333333,0.3296296296296296],[-0.008333333333333333,0.3314814814814815],[-0.008333333333333333,0.337037037037037],[-0.008333333333333333,0.3388888888888889],[-0.008333333333333333,0.3425925925925926],[-0.008333333333333333,0.3425925925925926],[-0.008333333333333333,0.3425925925925926],[-0.008333333333333333,0.3425925925925926],[-0.008333333333333333,0.3425925925925926],[-0.008333333333333333,0.3425925925925926],[-0.008333333333333333,0.3425925925925926],[-0.008333333333333333,0.34444444444444444],[-0.008333333333333333,0.34444444444444444],[-0.008333333333333333,0.34444444444444444],[-0.008333333333333333,0.34444444444444444],[-0.008333333333333333,0.34444444444444444],[-0.008333333333333333,0.34444444444444444],[-0.008333333333333333,0.34444444444444444],[-0.008333333333333333,0.34444444444444444],[-0.008333333333333333,0.34444444444444444],[-0.008333333333333333,0.34444444444444444],[-0.008333333333333333,0.34444444444444444],[-0.008333333333333333,0.34444444444444444],[-0.008333333333333333,0.34444444444444444],[-0.008333333333333333,0.34444444444444444],[-0.008333333333333333,0.34444444444444444],[-0.008333333333333333,0.34444444444444444],[-0.008333333333333333,0.34444444444444444],[-0.008333333333333333,0.34444444444444444],[-0.008333333333333333,0.34444444444444444],[-0.008333333333333333,0.34444444444444444],[-0.008333333333333333,0.34444444444444444],[-0.008333333333333333,0.34444444444444444],[-0.008333333333333333,0.34444444444444444],[-0.008333333333333333,0.34444444444444444],[-0.008333333333333333,0.34444444444444444],[-0.008333333333333333,0.34444444444444444],[-0.008333333333333333,0.34444444444444444],[-0.008333333333333333,0.34444444444444444],[-0.008333333333333333,0.34444444444444444],[-0.008333333333333333,0.34444444444444444],[-0.008333333333333333,0.34444444444444444],[-0.008333333333333333,0.34444444444444444],[-0.008333333333333333,0.34444444444444444],[-0.008333333333333333,0.34444444444444444],[-0.008333333333333333,0.34444444444444444],[-0.008333333333333333,0.34444444444444444],[-0.008333333333333333,0.34444444444444444],[-0.008333333333333333,0.34444444444444444],[-0.008333333333333333,0.34444444444444444],[-0.008333333333333333,0.34444444444444444],[-0.008333333333333333,0.34444444444444444],[-0.008333333333333333,0.34444444444444444],[-0.008333333333333333,0.34444444444444444],[-0.008333333333333333,0.34444444444444444],[-0.008333333333333333,0.34444444444444444],[-0.008333333333333333,0.34444444444444444],[-0.008333333333333333,0.34444444444444444],[-0.008333333333333333,0.34444444444444444],[-0.008333333333333333,0.34444444444444444],[-0.008333333333333333,0.34444444444444444],[-0.008333333333333333,0.34444444444444444],[-0.008333333333333333,0.34444444444444444],[-0.008333333333333333,0.34444444444444444],[-0.008333333333333333,0.34444444444444444],[-0.008333333333333333,0.34444444444444444],[-0.008333333333333333,0.34444444444444444],[-0.008333333333333333,0.34444444444444444],[-0.008333333333333333,0.34444444444444444],[-0.008333333333333333,0.34444444444444444],[-0.008333333333333333,0.34444444444444444],[-0.008333333333333333,0.34444444444444444],[-0.008333333333333333,0.34444444444444444],[-0.008333333333333333,0.34444444444444444],[-0.008333333333333333,0.34444444444444444],[-0.008333333333333333,0.34444444444444444],[-0.008333333333333333,0.34444444444444444]]","[[0.07677083333333339,-0.3122222222222223],[0.07677083333333339,-0.3122222222222223],[0.03927083333333338,-0.3316666666666667],[0.051874999999999956,-0.3331481481481481],[0.060104166666666715,-0.35962962962962963],[0.04656250000000005,-0.377962962962963],[0.03302083333333338,-0.3962962962962963],[0.018333333333333358,-0.4027777777777778],[-0.00947916666666669,-0.4196296296296297],[-0.043958333333333384,-0.3983333333333334],[-0.07250000000000002,-0.39037037037037037],[-0.057083333333333285,-0.35759259259259263],[-0.04500000000000005,-0.36148148148148146],[-0.03229166666666667,-0.33648148148148144],[-0.010208333333333286,-0.30648148148148147],[0.005937500000000048,-0.30037037037037034],[0.022083333333333382,-0.2942592592592592],[0.050729166666666714,-0.3022222222222222],[0.09197916666666663,-0.30092592592592593],[0.13312499999999997,-0.29148148148148145],[0.1742708333333333,-0.28203703703703703],[0.2037499999999999,-0.27999999999999997],[0.23989583333333328,-0.25],[0.23406250000000003,-0.2257407407407407],[0.22822916666666657,-0.2014814814814815],[0.24145833333333327,-0.17444444444444443],[0.2546875,-0.14740740740740746],[0.24468750000000009,-0.1455555555555556],[0.2352083333333333,-0.1425925925925926],[0.2508333333333333,-0.11407407407407412],[0.2664583333333333,-0.08555555555555554],[0.253125,-0.09666666666666665],[0.2525000000000001,-0.1007407407407407],[0.2453125,-0.13518518518518519],[0.24093749999999994,-0.1551851851851852],[0.25770833333333343,-0.167037037037037],[0.26624999999999993,-0.17166666666666663],[0.2898958333333333,-0.18370370370370367],[0.31354166666666666,-0.19574074074074072],[0.3142708333333334,-0.24518518518518514],[0.3150000000000001,-0.2946296296296297],[0.3064583333333334,-0.3274074074074074],[0.29791666666666666,-0.36018518518518516],[0.31927083333333334,-0.3707407407407407],[0.3408333333333334,-0.3792592592592593],[0.3484375,-0.3877777777777777],[0.3642708333333334,-0.4035185185185185],[0.37999999999999995,-0.38499999999999995],[0.39604166666666674,-0.355],[0.40343749999999995,-0.32462962962962966],[0.4033333333333334,-0.2759259259259259],[0.4088541666666667,-0.2644444444444445],[0.42770833333333325,-0.21074074074074076],[0.4322916666666667,-0.17314814814814813],[0.43385416666666665,-0.15203703703703708],[0.4196875000000001,-0.13759259259259263],[0.4055208333333333,-0.12314814814814815],[0.36770833333333336,-0.0772222222222222],[0.32958333333333345,-0.04277777777777782],[0.30364583333333334,-0.008888888888888804],[0.30364583333333334,-0.008888888888888804],[0.29968750000000005,0.020740740740740823],[0.25416666666666665,0.05944444444444449],[0.23052083333333329,0.06611111111111119],[0.19239583333333338,0.07166666666666675],[0.16677083333333323,0.10092592592592593],[0.16677083333333323,0.10092592592592593],[0.12354166666666658,0.11481481481481481],[0.05562499999999997,0.13629629629629633],[0.017604166666666643,0.11740740740740736],[-0.01604166666666664,0.0985185185185186],[-0.07166666666666661,0.07370370370370362],[-0.07166666666666661,0.07370370370370362],[-0.14031250000000003,0.03555555555555564],[-0.1779166666666666,0.03314814814814811],[-0.22541666666666665,0.03740740740740749],[-0.2563541666666667,0.051666666666666625],[-0.3069791666666667,0.0242592592592593],[-0.3069791666666667,0.0242592592592593],[-0.33312499999999995,0.030000000000000086],[-0.34375,0.024629629629629547],[-0.3696875,0.034444444444444486],[-0.3854166666666667,0.04759259259259268],[-0.36302083333333335,0.06925925925925921],[-0.3420833333333333,0.09018518518518527],[-0.3107291666666666,0.08740740740740749],[-0.3046875,0.06777777777777783],[-0.2752083333333334,0.05722222222222218],[-0.25416666666666665,0.04388888888888897],[-0.25416666666666665,0.04388888888888897],[-0.24510416666666662,0.010185185185185186],[-0.19666666666666663,-0.002407407407407323],[-0.19666666666666663,-0.002407407407407323],[-0.15197916666666664,-0.001851851851851852],[-0.11312500000000002,0.011666666666666582],[-0.09197916666666663,-0.032777777777777864],[-0.07479166666666662,-0.015000000000000043],[-0.024374999999999977,0.020555555555555598],[0.008854166666666666,0.052407407407407326],[0.008854166666666666,0.052407407407407326],[0.043124999999999976,0.08111111111111102],[0.0655208333333333,0.13222222222222219],[0.09989583333333343,0.2037037037037037],[0.10020833333333339,0.2103703703703704],[0.10906250000000005,0.1992592592592593],[0.1165625000000001,0.1655555555555555],[0.1165625000000001,0.1655555555555555],[0.10802083333333339,0.17166666666666675],[0.10802083333333339,0.17166666666666675],[0.09718749999999995,0.12888888888888894],[0.07489583333333343,0.11314814814814819],[0.05677083333333333,0.08796296296296297],[0.01416666666666669,0.05685185185185194],[-0.024687500000000046,0.013518518518518435],[-0.06354166666666666,-0.029814814814814856],[-0.09468749999999998,0.010925925925925884],[-0.09895833333333333,-0.013518518518518435],[-0.11749999999999995,-0.04018518518518527],[-0.125,-0.06148148148148146],[-0.12041666666666669,-0.10037037037037035],[-0.1264583333333333,-0.15351851851851847],[-0.11291666666666664,-0.18851851851851853],[-0.09937499999999998,-0.2235185185185185],[-0.07406250000000002,-0.2485185185185185],[-0.04874999999999995,-0.2735185185185185],[-0.034166666666666616,-0.3455555555555556],[-0.034166666666666616,-0.3455555555555556],[-0.050937499999999976,-0.3394444444444445],[-0.05604166666666662,-0.297037037037037],[-0.05604166666666662,-0.297037037037037],[-0.04572916666666664,-0.29500000000000004],[-0.06479166666666672,-0.2929629629629629],[-0.06479166666666672,-0.2929629629629629],[-0.08489583333333334,-0.3025925925925925],[-0.0829166666666667,-0.2964814814814815],[-0.0829166666666667,-0.2964814814814815],[-0.08770833333333337,-0.31203703703703706],[-0.08572916666666662,-0.3031481481481481],[-0.08572916666666662,-0.3031481481481481],[-0.08031250000000002,-0.3087037037037037],[-0.06510416666666667,-0.32537037037037037],[-0.04229166666666669,-0.29148148148148145],[-0.024270833333333287,-0.2853703703703704],[-0.008854166666666666,-0.2838888888888889],[-0.008854166666666666,-0.2838888888888889],[0.030104166666666644,-0.27814814814814814],[0.04885416666666664,-0.2662962962962963],[0.043437500000000046,-0.2692592592592592],[0.08604166666666657,-0.2711111111111111],[0.08604166666666657,-0.2711111111111111],[0.12760416666666666,-0.30462962962962964],[0.16687500000000005,-0.3472222222222222],[0.20322916666666657,-0.3685185185185185],[0.2209374999999999,-0.4414814814814814],[0.22552083333333334,-0.4938888888888889],[0.2412499999999999,-0.4722222222222222],[0.2613541666666668,-0.44240740740740736],[0.2613541666666668,-0.44240740740740736],[0.26927083333333335,-0.4016666666666666],[0.2742708333333333,-0.3461111111111111],[0.2742708333333333,-0.3461111111111111],[0.23822916666666671,-0.2707407407407407],[0.23822916666666671,-0.2707407407407407],[0.2037499999999999,-0.23148148148148148],[0.2037499999999999,-0.23148148148148148],[0.1872916666666666,-0.1603703703703704],[0.1872916666666666,-0.1603703703703704],[0.19052083333333342,-0.13259259259259262],[0.19052083333333342,-0.13259259259259262],[0.20656249999999995,-0.09129629629629632],[0.20656249999999995,-0.09129629629629632],[0.24645833333333325,-0.07185185185185188],[0.22687499999999997,-0.09277777777777782],[0.23125,-0.12185185185185188],[0.26114583333333335,-0.1492592592592593],[0.28968749999999993,-0.20333333333333337],[0.2998958333333334,-0.25759259259259265],[0.3234375,-0.2651851851851852],[0.32781250000000006,-0.28111111111111114],[0.3155208333333334,-0.24981481481481477],[0.30708333333333326,-0.247037037037037],[0.28916666666666657,-0.24092592592592596],[0.33125,-0.2088888888888889],[0.34520833333333345,-0.19240740740740736],[0.36604166666666677,-0.19462962962962968],[0.35666666666666674,-0.21240740740740738],[0.36739583333333337,-0.22629629629629627],[0.3857291666666666,-0.2383333333333333],[0.4040625000000001,-0.25037037037037035],[0.41520833333333323,-0.28277777777777774],[0.41770833333333335,-0.3148148148148148],[0.4383333333333333,-0.32],[0.4344791666666666,-0.3398148148148148],[0.43947916666666675,-0.3496296296296296],[0.43729166666666663,-0.3531481481481481]]","[[0.07677083333333339,-0.3122222222222223,0.00020000001787678912],[0.07677083333333339,-0.3122222222222223,0.03760000002384345],[0.03927083333333338,-0.3316666666666667,0.04710000002383907],[0.051874999999999956,-0.3331481481481481,0.061900000005955746],[0.060104166666666715,-0.35962962962962963,0.07860000002384027],[0.04656250000000005,-0.377962962962963,0.09520000001788276],[0.03302083333333338,-0.3962962962962963,0.11190000000596001],[0.018333333333333358,-0.4027777777777778,0.1284999999999954],[-0.00947916666666669,-0.4196296296296297,0.14520000001787992],[-0.043958333333333384,-0.3983333333333334,0.16260000002384345],[-0.07250000000000002,-0.39037037037037037,0.1786000000238417],[-0.057083333333333285,-0.35759259259259263,0.19520000001787707],[-0.04500000000000005,-0.36148148148148146,0.21180000001191956],[-0.03229166666666667,-0.33648148148148144,0.22849999999999682],[-0.010208333333333286,-0.30648148148148147,0.24510000002383947],[0.005937500000000048,-0.30037037037037034,0.2619000000059586],[0.022083333333333382,-0.2942592592592592,0.2785000000000011],[0.050729166666666714,-0.3022222222222222,0.2952000000178785],[0.09197916666666663,-0.30092592592592593,0.31190000000595575],[0.13312499999999997,-0.29148148148148145,0.32940000000596115],[0.1742708333333333,-0.28203703703703703,0.34520000001788276],[0.2037499999999999,-0.27999999999999997,0.36190000000596],[0.23989583333333328,-0.25,0.3786000000238374],[0.23406250000000003,-0.2257407407407407,0.3952000000178799],[0.22822916666666657,-0.2014814814814815,0.41240000000595955],[0.24145833333333327,-0.17444444444444443,0.42849999999999966],[0.2546875,-0.14740740740740746,0.4452000000178771],[0.24468750000000009,-0.1455555555555556,0.46180000001191956],[0.2352083333333333,-0.1425925925925926,0.4784999999999968],[0.2508333333333333,-0.11407407407407412,0.499300000011921],[0.2664583333333333,-0.08555555555555554,0.5156000000238379],[0.253125,-0.09666666666666665,0.5314000000059593],[0.2525000000000001,-0.1007407407407407,0.5452000000178785],[0.2453125,-0.13518518518518519,0.5619000000059557],[0.24093749999999994,-0.1551851851851852,0.5784999999999982],[0.25770833333333343,-0.167037037037037,0.5952000000178828],[0.26624999999999993,-0.17166666666666663,0.6119999999999948],[0.2898958333333333,-0.18370370370370367,0.6287000000178793],[0.31354166666666666,-0.19574074074074072,0.6452000000178799],[0.3142708333333334,-0.24518518518518514,0.6644999999999968],[0.3150000000000001,-0.2946296296296297,0.6784999999999997],[0.3064583333333334,-0.3274074074074074,0.6953000000119189],[0.29791666666666666,-0.36018518518518516,0.7119000000059614],[0.31927083333333334,-0.3707407407407407,0.7284999999999968],[0.3408333333333334,-0.3792592592592593,0.7452000000178813],[0.3484375,-0.3877777777777777,0.7618000000119167],[0.3642708333333334,-0.4035185185185185,0.7785000000000011],[0.37999999999999995,-0.38499999999999995,0.7952000000178785],[0.39604166666666674,-0.355,0.8119000000059557],[0.40343749999999995,-0.32462962962962966,0.8287000000178821],[0.4033333333333334,-0.2759259259259259,0.8452000000178828],[0.4088541666666667,-0.2644444444444445,0.8623000000119205],[0.42770833333333325,-0.21074074074074076,0.8784999999999954],[0.4322916666666667,-0.17314814814814813,0.8956000000238404],[0.43385416666666665,-0.15203703703703708,0.9151000000238412],[0.4196875000000001,-0.13759259259259263,0.9318000000119184],[0.4055208333333333,-0.12314814814814815,0.9453000000119189],[0.36770833333333336,-0.0772222222222222,0.9627000000178825],[0.32958333333333345,-0.04277777777777782,0.9784999999999968],[0.30364583333333334,-0.008888888888888804,0.9959000000059604],[0.30364583333333334,-0.008888888888888804,1.0119000000059586],[0.29968750000000005,0.020740740740740823,1.028600000023843],[0.25416666666666665,0.05944444444444449,1.0452000000178785],[0.23052083333333329,0.06611111111111119,1.061800000011921],[0.19239583333333338,0.07166666666666675,1.0784999999999982],[0.16677083333333323,0.10092592592592593,1.0954000000059594],[0.16677083333333323,0.10092592592592593,1.1121000000238368],[0.12354166666666658,0.11481481481481481,1.1284999999999954],[0.05562499999999997,0.13629629629629633,1.145100000023838],[0.017604166666666643,0.11740740740740736,1.1619000000059572],[-0.01604166666666664,0.0985185185185186,1.1812000000178813],[-0.07166666666666661,0.07370370370370362,1.1971000000238377],[-0.07166666666666661,0.07370370370370362,1.2119999999999962],[-0.14031250000000003,0.03555555555555564,1.2286000000238388],[-0.1779166666666666,0.03314814814814811,1.2451000000238395],[-0.22541666666666665,0.03740740740740749,1.2620000000000005],[-0.2563541666666667,0.051666666666666625,1.278500000000001],[-0.3069791666666667,0.0242592592592593,1.2952000000178785],[-0.3069791666666667,0.0242592592592593,1.3119000000059557],[-0.33312499999999995,0.030000000000000086,1.3284999999999982],[-0.34375,0.024629629629629547,1.3455000000000013],[-0.3696875,0.034444444444444486,1.3649000000059601],[-0.3854166666666667,0.04759259259259268,1.3826000000238423],[-0.36302083333333335,0.06925925925925921,1.3994999999999962],[-0.3420833333333333,0.09018518518518527,1.4149999999999991],[-0.3107291666666666,0.08740740740740749,1.431999999999995],[-0.3046875,0.06777777777777783,1.4482000000178772],[-0.2752083333333334,0.05722222222222218,1.4644000000059592],[-0.25416666666666665,0.04388888888888897,1.4791000000238412],[-0.25416666666666665,0.04388888888888897,1.4952000000178813],[-0.24510416666666662,0.010185185185185186,1.5120000000000005],[-0.19666666666666663,-0.002407407407407323,1.5342000000178828],[-0.19666666666666663,-0.002407407407407323,1.5497000000178787],[-0.15197916666666664,-0.001851851851851852,1.5619999999999976],[-0.11312500000000002,0.011666666666666582,1.5805000000000007],[-0.09197916666666663,-0.032777777777777864,1.599499999999999],[-0.07479166666666662,-0.015000000000000043,1.6153000000119206],[-0.024374999999999977,0.020555555555555598,1.6293000000119164],[0.008854166666666666,0.052407407407407326,1.6453000000119218],[0.008854166666666666,0.052407407407407326,1.6664000000059573],[0.043124999999999976,0.08111111111111102,1.6787000000178764],[0.0655208333333333,0.13222222222222219,1.699900000005961],[0.09989583333333343,0.2037037037037037,1.7176000000238432],[0.10020833333333339,0.2103703703703704,1.733100000023839],[0.10906250000000005,0.1992592592592593,1.7489000000059605],[0.1165625000000001,0.1655555555555555,1.7677000000178822],[0.1165625000000001,0.1655555555555555,1.7789000000059616],[0.10802083333333339,0.17166666666666675,1.7957000000178809],[0.10802083333333339,0.17166666666666675,1.8121000000238396],[0.09718749999999995,0.12888888888888894,1.8323000000119194],[0.07489583333333343,0.11314814814814819,1.8483000000119176],[0.05677083333333333,0.08796296296296297,1.8624000000059553],[0.01416666666666669,0.05685185185185194,1.8816000000238375],[-0.024687500000000046,0.013518518518518435,1.8986000000238406],[-0.06354166666666666,-0.029814814814814856,1.915200000017883],[-0.09468749999999998,0.010925925925925884,1.932800000011916],[-0.09895833333333333,-0.013518518518518435,1.9478000000119167],[-0.11749999999999995,-0.04018518518518527,1.9619000000059614],[-0.125,-0.06148148148148146,1.9797000000178784],[-0.12041666666666669,-0.10037037037037035,1.9989000000059605],[-0.1264583333333333,-0.15351851851851847,2.015499999999996],[-0.11291666666666664,-0.18851851851851853,2.031500000000001],[-0.09937499999999998,-0.2235185185185185,2.045400000005955],[-0.07406250000000002,-0.2485185185185185,2.0619000000059557],[-0.04874999999999995,-0.2735185185185185,2.0784999999999982],[-0.034166666666666616,-0.3455555555555556,2.0952000000178828],[-0.034166666666666616,-0.3455555555555556,2.1119999999999948],[-0.050937499999999976,-0.3394444444444445,2.1286000000238374],[-0.05604166666666662,-0.297037037037037,2.14520000001788],[-0.05604166666666662,-0.297037037037037,2.1649000000059573],[-0.04572916666666664,-0.29500000000000004,2.1784999999999997],[-0.06479166666666672,-0.2929629629629629,2.195900000005956],[-0.06479166666666672,-0.2929629629629629,2.2119000000059614],[-0.08489583333333334,-0.3025925925925925,2.228600000023839],[-0.0829166666666667,-0.2964814814814815,2.245400000005958],[-0.0829166666666667,-0.2964814814814815,2.2619000000059586],[-0.08770833333333337,-0.31203703703703706,2.278500000000001],[-0.08572916666666662,-0.3031481481481481,2.2952000000178785],[-0.08572916666666662,-0.3031481481481481,2.312700000017877],[-0.08031250000000002,-0.3087037037037037,2.3284999999999982],[-0.06510416666666667,-0.32537037037037037,2.345100000023841],[-0.04229166666666669,-0.29148148148148145,2.361800000011918],[-0.024270833333333287,-0.2853703703703704,2.3784999999999954],[-0.008854166666666666,-0.2838888888888889,2.397999999999996],[-0.008854166666666666,-0.2838888888888889,2.411999999999999],[0.030104166666666644,-0.27814814814814814,2.4284999999999997],[0.04885416666666664,-0.2662962962962963,2.4473000000119214],[0.043437500000000046,-0.2692592592592592,2.4651000000238383],[0.08604166666666657,-0.2711111111111111,2.482900000005955],[0.08604166666666657,-0.2711111111111111,2.4952000000178813],[0.12760416666666666,-0.30462962962962964,2.5120000000000005],[0.16687500000000005,-0.3472222222222222,2.5319000000059617],[0.20322916666666657,-0.3685185185185185,2.54940000000596],[0.2209374999999999,-0.4414814814814814,2.5659999999999954],[0.22552083333333334,-0.4938888888888889,2.579600000023838],[0.2412499999999999,-0.4722222222222222,2.5984000000059595],[0.2613541666666668,-0.44240740740740736,2.614999999999995],[0.2613541666666668,-0.44240740740740736,2.6284999999999954],[0.26927083333333335,-0.4016666666666666,2.64520000001788],[0.2742708333333333,-0.3461111111111111,2.661900000005957],[0.2742708333333333,-0.3461111111111111,2.6784999999999997],[0.23822916666666671,-0.2707407407407407,2.695200000017877],[0.23822916666666671,-0.2707407407407407,2.7119000000059614],[0.2037499999999999,-0.23148148148148148,2.728600000023839],[0.2037499999999999,-0.23148148148148148,2.7452000000178813],[0.1872916666666666,-0.1603703703703704,2.7619000000059586],[0.1872916666666666,-0.1603703703703704,2.778400000005959],[0.19052083333333342,-0.13259259259259262,2.795400000005955],[0.19052083333333342,-0.13259259259259262,2.8119000000059557],[0.20656249999999995,-0.09129629629629632,2.8284999999999982],[0.20656249999999995,-0.09129629629629632,2.8452000000178828],[0.24645833333333325,-0.07185185185185188,2.86190000000596],[0.22687499999999997,-0.09277777777777782,2.88210000002384],[0.23125,-0.12185185185185188,2.89520000001788],[0.26114583333333335,-0.1492592592592593,2.911999999999999],[0.28968749999999993,-0.20333333333333337,2.9284999999999997],[0.2998958333333334,-0.25759259259259265,2.945200000017877],[0.3234375,-0.2651851851851852,2.9618000000119196],[0.32781250000000006,-0.28111111111111114,2.978499999999997],[0.3155208333333334,-0.24981481481481477,2.9951000000238395],[0.30708333333333326,-0.247037037037037,3.0118000000119167],[0.28916666666666657,-0.24092592592592596,3.0289000000059616],[0.33125,-0.2088888888888889,3.0453000000119204],[0.34520833333333345,-0.19240740740740736,3.061800000011921],[0.36604166666666677,-0.19462962962962968,3.0784999999999982],[0.35666666666666674,-0.21240740740740738,3.095100000023841],[0.36739583333333337,-0.22629629629629627,3.1119999999999948],[0.3857291666666666,-0.2383333333333333,3.1284999999999954],[0.4040625000000001,-0.25037037037037035,3.14520000001788],[0.41520833333333323,-0.28277777777777774,3.161900000005957],[0.41770833333333335,-0.3148148148148148,3.1784999999999997],[0.4383333333333333,-0.32,3.1951000000238423],[0.4344791666666666,-0.3398148148148148,3.212100000023838],[0.43947916666666675,-0.3496296296296296,3.228400000005962],[0.43729166666666663,-0.3531481481481481,3.2451000000238395]]","[0.00020000001787678912,0.03760000002384345,0.04710000002383907,0.061900000005955746,0.07860000002384027,0.09520000001788276,0.11190000000596001,0.1284999999999954,0.14520000001787992,0.16260000002384345,0.1786000000238417,0.19520000001787707,0.21180000001191956,0.22849999999999682,0.24510000002383947,0.2619000000059586,0.2785000000000011,0.2952000000178785,0.31190000000595575,0.32940000000596115,0.34520000001788276,0.36190000000596,0.3786000000238374,0.3952000000178799,0.41240000000595955,0.42849999999999966,0.4452000000178771,0.46180000001191956,0.4784999999999968,0.499300000011921,0.5156000000238379,0.5314000000059593,0.5452000000178785,0.5619000000059557,0.5784999999999982,0.5952000000178828,0.6119999999999948,0.6287000000178793,0.6452000000178799,0.6644999999999968,0.6784999999999997,0.6953000000119189,0.7119000000059614,0.7284999999999968,0.7452000000178813,0.7618000000119167,0.7785000000000011,0.7952000000178785,0.8119000000059557,0.8287000000178821,0.8452000000178828,0.8623000000119205,0.8784999999999954,0.8956000000238404,0.9151000000238412,0.9318000000119184,0.9453000000119189,0.9627000000178825,0.9784999999999968,0.9959000000059604,1.0119000000059586,1.028600000023843,1.0452000000178785,1.061800000011921,1.0784999999999982,1.0954000000059594,1.1121000000238368,1.1284999999999954,1.145100000023838,1.1619000000059572,1.1812000000178813,1.1971000000238377,1.2119999999999962,1.2286000000238388,1.2451000000238395,1.2620000000000005,1.278500000000001,1.2952000000178785,1.3119000000059557,1.3284999999999982,1.3455000000000013,1.3649000000059601,1.3826000000238423,1.3994999999999962,1.4149999999999991,1.431999999999995,1.4482000000178772,1.4644000000059592,1.4791000000238412,1.4952000000178813,1.5120000000000005,1.5342000000178828,1.5497000000178787,1.5619999999999976,1.5805000000000007,1.599499999999999,1.6153000000119206,1.6293000000119164,1.6453000000119218,1.6664000000059573,1.6787000000178764,1.699900000005961,1.7176000000238432,1.733100000023839,1.7489000000059605,1.7677000000178822,1.7789000000059616,1.7957000000178809,1.8121000000238396,1.8323000000119194,1.8483000000119176,1.8624000000059553,1.8816000000238375,1.8986000000238406,1.915200000017883,1.932800000011916,1.9478000000119167,1.9619000000059614,1.9797000000178784,1.9989000000059605,2.015499999999996,2.031500000000001,2.045400000005955,2.0619000000059557,2.0784999999999982,2.0952000000178828,2.1119999999999948,2.1286000000238374,2.14520000001788,2.1649000000059573,2.1784999999999997,2.195900000005956,2.2119000000059614,2.228600000023839,2.245400000005958,2.2619000000059586,2.278500000000001,2.2952000000178785,2.312700000017877,2.3284999999999982,2.345100000023841,2.361800000011918,2.3784999999999954,2.397999999999996,2.411999999999999,2.4284999999999997,2.4473000000119214,2.4651000000238383,2.482900000005955,2.4952000000178813,2.5120000000000005,2.5319000000059617,2.54940000000596,2.5659999999999954,2.579600000023838,2.5984000000059595,2.614999999999995,2.6284999999999954,2.64520000001788,2.661900000005957,2.6784999999999997,2.695200000017877,2.7119000000059614,2.728600000023839,2.7452000000178813,2.7619000000059586,2.778400000005959,2.795400000005955,2.8119000000059557,2.8284999999999982,2.8452000000178828,2.86190000000596,2.88210000002384,2.89520000001788,2.911999999999999,2.9284999999999997,2.945200000017877,2.9618000000119196,2.978499999999997,2.9951000000238395,3.0118000000119167,3.0289000000059616,3.0453000000119204,3.061800000011921,3.0784999999999982,3.095100000023841,3.1119999999999948,3.1284999999999954,3.14520000001788,3.161900000005957,3.1784999999999997,3.1951000000238423,3.212100000023838,3.228400000005962,3.2451000000238395]","[1733383634060,1733383634090,1733383634100,1733383634115,1733383634131,1733383634148,1733383634165,1733383634181,1733383634198,1733383634215,1733383634231,1733383634248,1733383634265,1733383634281,1733383634298,1733383634315,1733383634331,1733383634348,1733383634365,1733383634382,1733383634398,1733383634415,1733383634431,1733383634448,1733383634465,1733383634481,1733383634498,1733383634515,1733383634531,1733383634552,1733383634568,1733383634584,1733383634598,1733383634615,1733383634631,1733383634648,1733383634665,1733383634681,1733383634698,1733383634717,1733383634731,1733383634748,1733383634765,1733383634781,1733383634798,1733383634815,1733383634831,1733383634848,1733383634865,1733383634881,1733383634898,1733383634915,1733383634931,1733383634948,1733383634968,1733383634985,1733383634998,1733383635015,1733383635031,1733383635049,1733383635065,1733383635081,1733383635098,1733383635115,1733383635131,1733383635148,1733383635165,1733383635181,1733383635198,1733383635215,1733383635234,1733383635250,1733383635265,1733383635281,1733383635298,1733383635315,1733383635331,1733383635348,1733383635365,1733383635381,1733383635398,1733383635418,1733383635435,1733383635452,1733383635468,1733383635485,1733383635501,1733383635517,1733383635532,1733383635548,1733383635565,1733383635587,1733383635602,1733383635615,1733383635633,1733383635652,1733383635668,1733383635682,1733383635698,1733383635719,1733383635731,1733383635753,1733383635770,1733383635786,1733383635802,1733383635820,1733383635832,1733383635848,1733383635865,1733383635885,1733383635901,1733383635915,1733383635934,1733383635951,1733383635968,1733383635986,1733383636001,1733383636015,1733383636032,1733383636052,1733383636068,1733383636084,1733383636098,1733383636115,1733383636131,1733383636148,1733383636165,1733383636181,1733383636198,1733383636218,1733383636231,1733383636249,1733383636265,1733383636281,1733383636298,1733383636315,1733383636331,1733383636348,1733383636365,1733383636381,1733383636398,1733383636415,1733383636431,1733383636451,1733383636465,1733383636481,1733383636500,1733383636518,1733383636536,1733383636548,1733383636565,1733383636585,1733383636602,1733383636619,1733383636632,1733383636651,1733383636668,1733383636681,1733383636698,1733383636715,1733383636731,1733383636748,1733383636765,1733383636781,1733383636798,1733383636815,1733383636831,1733383636848,1733383636865,1733383636881,1733383636898,1733383636915,1733383636935,1733383636948,1733383636965,1733383636981,1733383636998,1733383637015,1733383637031,1733383637048,1733383637065,1733383637082,1733383637098,1733383637115,1733383637131,1733383637148,1733383637165,1733383637181,1733383637198,1733383637215,1733383637231,1733383637248,1733383637265,1733383637281,1733383637298]","[[1033.7,371.4],[1033.7,371.4],[997.7,360.9],[1009.8,360.1],[1017.7,345.8],[1004.7,335.9],[991.7,326],[977.6,322.5],[950.9,313.4],[917.8,324.9],[890.4,329.2],[905.2,346.9],[916.8,344.8],[929,358.3],[950.2,374.5],[965.7,377.8],[981.2,381.1],[1008.7,376.8],[1048.3,377.5],[1087.8,382.6],[1127.3,387.7],[1155.6,388.8],[1190.3,405],[1184.7,418.1],[1179.1,431.2],[1191.8,445.8],[1204.5,460.4],[1194.9,461.4],[1185.8,463],[1200.8,478.4],[1215.8,493.8],[1203,487.8],[1202.4,485.6],[1195.5,467],[1191.3,456.2],[1207.4,449.8],[1215.6,447.3],[1238.3,440.8],[1261,434.3],[1261.7,407.6],[1262.4,380.9],[1254.2,363.2],[1246,345.5],[1266.5,339.8],[1287.2,335.2],[1294.5,330.6],[1309.7,322.1],[1324.8,332.1],[1340.2,348.3],[1347.3,364.7],[1347.2,391],[1352.5,397.2],[1370.6,426.2],[1375,446.5],[1376.5,457.9],[1362.9,465.7],[1349.3,473.5],[1313,498.3],[1276.4,516.9],[1251.5,535.2],[1251.5,535.2],[1247.7,551.2],[1204,572.1],[1181.3,575.7],[1144.7,578.7],[1120.1,594.5],[1120.1,594.5],[1078.6,602],[1013.4,613.6],[976.9,603.4],[944.6,593.2],[891.2,579.8],[891.2,579.8],[825.3,559.2],[789.2,557.9],[743.6,560.2],[713.9,567.9],[665.3,553.1],[665.3,553.1],[640.2,556.2],[630,553.3],[605.1,558.6],[590,565.7],[611.5,577.4],[631.6,588.7],[661.7,587.2],[667.5,576.6],[695.8,570.9],[716,563.7],[716,563.7],[724.7,545.5],[771.2,538.7],[771.2,538.7],[814.1,539],[851.4,546.3],[871.7,522.3],[888.2,531.9],[936.6,551.1],[968.5,568.3],[968.5,568.3],[1001.4,583.8],[1022.9,611.4],[1055.9,650],[1056.2,653.6],[1064.7,647.6],[1071.9,629.4],[1071.9,629.4],[1063.7,632.7],[1063.7,632.7],[1053.3,609.6],[1031.9,601.1],[1014.5,587.5],[973.6,570.7],[936.3,547.3],[899,523.9],[869.1,545.9],[865,532.7],[847.2,518.3],[840,506.8],[844.4,485.8],[838.6,457.1],[851.6,438.2],[864.6,419.3],[888.9,405.8],[913.2,392.3],[927.2,353.4],[927.2,353.4],[911.1,356.7],[906.2,379.6],[906.2,379.6],[916.1,380.7],[897.8,381.8],[897.8,381.8],[878.5,376.6],[880.4,379.9],[880.4,379.9],[875.8,371.5],[877.7,376.3],[877.7,376.3],[882.9,373.3],[897.5,364.3],[919.4,382.6],[936.7,385.9],[951.5,386.7],[951.5,386.7],[988.9,389.8],[1006.9,396.2],[1001.7,394.6],[1042.6,393.6],[1042.6,393.6],[1082.5,375.5],[1120.2,352.5],[1155.1,341],[1172.1,301.6],[1176.5,273.3],[1191.6,285],[1210.9,301.1],[1210.9,301.1],[1218.5,323.1],[1223.3,353.1],[1223.3,353.1],[1188.7,393.8],[1188.7,393.8],[1155.6,415],[1155.6,415],[1139.8,453.4],[1139.8,453.4],[1142.9,468.4],[1142.9,468.4],[1158.3,490.7],[1158.3,490.7],[1196.6,501.2],[1177.8,489.9],[1182,474.2],[1210.7,459.4],[1238.1,430.2],[1247.9,400.9],[1270.5,396.8],[1274.7,388.2],[1262.9,405.1],[1254.8,406.6],[1237.6,409.9],[1278,427.2],[1291.4,436.1],[1311.4,434.9],[1302.4,425.3],[1312.7,417.8],[1330.3,411.3],[1347.9,404.8],[1358.6,387.3],[1361,370],[1380.8,367.2],[1377.1,356.5],[1381.9,351.2],[1379.8,349.3]]","[0,0.37864299999999995]","[0.37864299999999995,0.37864299999999995]","[-0.37864299999999995,0]","[-0.37864299999999995,-0.37864299999999995]","[0,0]","[0.37864299999999995,0]","[0,-0.37864299999999995]","[0.37864299999999995,-0.37864299999999995]",0,0,0,0,1,3,Laptop,11,9,9,1
,,,,,,,,,,,,,,,,,,,15,001,2024-12-05_15h26.36.266,Attention_exp_legacy,2023.1.0,Win32,60.24096386,,,,,,,,,,,[0.31979166666666664],[0.35555555555555557],[1],[0],[0],[2.2777000000178873],"[""Option2_label""]",Option2_label,2,3.2833,"[[-0.008333333333333333,0.34444444444444444],[-0.008333333333333333,0.34444444444444444],[-0.008333333333333333,0.34444444444444444],[-0.008333333333333333,0.34444444444444444],[-0.008333333333333333,0.34444444444444444],[-0.008333333333333333,0.34444444444444444],[-0.008333333333333333,0.34444444444444444],[-0.008333333333333333,0.34444444444444444],[-0.008333333333333333,0.34444444444444444],[-0.008333333333333333,0.34444444444444444],[-0.008333333333333333,0.34444444444444444],[-0.008333333333333333,0.34444444444444444],[-0.008333333333333333,0.34444444444444444],[-0.008333333333333333,0.34444444444444444],[-0.008333333333333333,0.34444444444444444],[-0.008333333333333333,0.34444444444444444],[-0.008333333333333333,0.34444444444444444],[-0.008333333333333333,0.34444444444444444],[-0.008333333333333333,0.34444444444444444],[-0.008333333333333333,0.34444444444444444],[-0.008333333333333333,0.34444444444444444],[-0.008333333333333333,0.34444444444444444],[-0.008333333333333333,0.34444444444444444],[-0.008333333333333333,0.34444444444444444],[-0.008333333333333333,0.34444444444444444],[-0.008333333333333333,0.34444444444444444],[-0.008333333333333333,0.34444444444444444],[-0.008333333333333333,0.34444444444444444],[-0.008333333333333333,0.34444444444444444],[-0.008333333333333333,0.34444444444444444],[-0.008333333333333333,0.34444444444444444],[-0.008333333333333333,0.34444444444444444],[-0.008333333333333333,0.34444444444444444],[-0.008333333333333333,0.34444444444444444],[-0.008333333333333333,0.34444444444444444],[-0.008333333333333333,0.34444444444444444],[-0.008333333333333333,0.34444444444444444],[-0.008333333333333333,0.34444444444444444],[-0.008333333333333333,0.34444444444444444],[-0.008333333333333333,0.34444444444444444],[-0.008333333333333333,0.34444444444444444],[-0.008333333333333333,0.34444444444444444],[-0.008333333333333333,0.34444444444444444],[-0.008333333333333333,0.34444444444444444],[-0.008333333333333333,0.34444444444444444],[-0.008333333333333333,0.34444444444444444],[-0.008333333333333333,0.34444444444444444],[-0.008333333333333333,0.34444444444444444],[-0.008333333333333333,0.34444444444444444],[-0.008333333333333333,0.34444444444444444],[-0.008333333333333333,0.34444444444444444],[-0.008333333333333333,0.34444444444444444],[-0.008333333333333333,0.34444444444444444],[-0.008333333333333333,0.34444444444444444],[-0.008333333333333333,0.34444444444444444],[-0.008333333333333333,0.34444444444444444],[-0.008333333333333333,0.34444444444444444],[-0.008333333333333333,0.34444444444444444],[-0.008333333333333333,0.34444444444444444],[-0.008333333333333333,0.34444444444444444],[-0.008333333333333333,0.34444444444444444],[-0.008333333333333333,0.34444444444444444],[-0.008333333333333333,0.34444444444444444],[-0.008333333333333333,0.34444444444444444],[-0.008333333333333333,0.34444444444444444],[-0.008333333333333333,0.34629629629629627],[-0.008333333333333333,0.34629629629629627],[-0.008333333333333333,0.34629629629629627],[-0.008333333333333333,0.34629629629629627],[-0.008333333333333333,0.34629629629629627],[-0.008333333333333333,0.34629629629629627],[-0.008333333333333333,0.34629629629629627],[-0.008333333333333333,0.34629629629629627],[-0.008333333333333333,0.34629629629629627],[-0.008333333333333333,0.34629629629629627],[-0.008333333333333333,0.34629629629629627],[-0.0020833333333333333,0.35],[0.0125,0.3611111111111111],[0.04791666666666667,0.37407407407407406],[0.06145833333333333,0.3814814814814815],[0.09270833333333334,0.3888888888888889],[0.14166666666666666,0.3962962962962963],[0.16979166666666667,0.4],[0.20208333333333334,0.4],[0.23125,0.4],[0.25625,0.4],[0.27708333333333335,0.4],[0.2916666666666667,0.4],[0.30416666666666664,0.39814814814814814],[0.3104166666666667,0.3925925925925926],[0.3145833333333333,0.3851851851851852],[0.31666666666666665,0.3814814814814815],[0.31875,0.37222222222222223],[0.31979166666666664,0.3648148148148148],[0.31979166666666664,0.362962962962963],[0.31979166666666664,0.3611111111111111],[0.31979166666666664,0.3592592592592593],[0.31979166666666664,0.3592592592592593],[0.31979166666666664,0.35555555555555557],[0.31979166666666664,0.35555555555555557],[0.31979166666666664,0.35555555555555557],[0.31979166666666664,0.35555555555555557],[0.31979166666666664,0.35555555555555557],[0.31979166666666664,0.35555555555555557],[0.31979166666666664,0.35555555555555557],[0.31979166666666664,0.35555555555555557],[0.31979166666666664,0.35555555555555557],[0.31979166666666664,0.35555555555555557],[0.31979166666666664,0.35555555555555557],[0.31979166666666664,0.35555555555555557],[0.31979166666666664,0.35555555555555557],[0.31979166666666664,0.35555555555555557],[0.31979166666666664,0.35555555555555557],[0.31979166666666664,0.35555555555555557],[0.31979166666666664,0.35555555555555557],[0.31979166666666664,0.35555555555555557],[0.31979166666666664,0.35555555555555557],[0.31979166666666664,0.35555555555555557],[0.31979166666666664,0.35555555555555557],[0.31979166666666664,0.35555555555555557],[0.31979166666666664,0.35555555555555557],[0.31979166666666664,0.35555555555555557],[0.31979166666666664,0.35555555555555557],[0.31979166666666664,0.35555555555555557],[0.31979166666666664,0.35555555555555557],[0.31979166666666664,0.35555555555555557],[0.31979166666666664,0.35555555555555557],[0.31979166666666664,0.35555555555555557],[0.31979166666666664,0.35555555555555557],[0.31979166666666664,0.35555555555555557],[0.31979166666666664,0.35555555555555557],[0.31979166666666664,0.35555555555555557],[0.31979166666666664,0.35555555555555557],[0.31979166666666664,0.35555555555555557],[0.31979166666666664,0.35555555555555557],[0.31979166666666664,0.35555555555555557],[0.31979166666666664,0.35555555555555557],[0.31979166666666664,0.35555555555555557],[0.31979166666666664,0.35555555555555557],[0.31979166666666664,0.35555555555555557],[0.31979166666666664,0.35555555555555557],[0.31979166666666664,0.35555555555555557],[0.31979166666666664,0.35555555555555557],[0.31979166666666664,0.35555555555555557],[0.31979166666666664,0.35555555555555557],[0.31979166666666664,0.35555555555555557],[0.31979166666666664,0.35555555555555557],[0.31979166666666664,0.35555555555555557],[0.31979166666666664,0.35555555555555557],[0.31979166666666664,0.35555555555555557],[0.31979166666666664,0.35555555555555557],[0.31979166666666664,0.35555555555555557],[0.31979166666666664,0.35555555555555557],[0.31979166666666664,0.35555555555555557],[0.31979166666666664,0.35555555555555557],[0.31979166666666664,0.35555555555555557],[0.31979166666666664,0.35555555555555557],[0.31979166666666664,0.35555555555555557],[0.31979166666666664,0.35555555555555557],[0.31979166666666664,0.35555555555555557],[0.31979166666666664,0.35555555555555557],[0.31979166666666664,0.35555555555555557],[0.31979166666666664,0.35555555555555557],[0.31979166666666664,0.35555555555555557],[0.31979166666666664,0.35555555555555557],[0.31979166666666664,0.35555555555555557],[0.31979166666666664,0.35555555555555557],[0.31979166666666664,0.35555555555555557],[0.31979166666666664,0.35555555555555557],[0.31979166666666664,0.35555555555555557],[0.31979166666666664,0.35555555555555557],[0.31979166666666664,0.35555555555555557],[0.31979166666666664,0.35555555555555557],[0.31979166666666664,0.35555555555555557],[0.31979166666666664,0.35555555555555557],[0.31979166666666664,0.35555555555555557],[0.31979166666666664,0.35555555555555557],[0.31979166666666664,0.35555555555555557],[0.31979166666666664,0.35555555555555557],[0.31979166666666664,0.35555555555555557],[0.31979166666666664,0.35555555555555557],[0.31979166666666664,0.35555555555555557],[0.31979166666666664,0.35555555555555557],[0.31979166666666664,0.35555555555555557],[0.31979166666666664,0.35555555555555557],[0.31979166666666664,0.35555555555555557],[0.31979166666666664,0.35555555555555557],[0.31979166666666664,0.35555555555555557],[0.31979166666666664,0.35555555555555557],[0.31979166666666664,0.35555555555555557],[0.31979166666666664,0.35555555555555557],[0.31979166666666664,0.35555555555555557],[0.31979166666666664,0.35555555555555557],[0.31979166666666664,0.35555555555555557],[0.31979166666666664,0.35555555555555557],[0.31979166666666664,0.35555555555555557],[0.31979166666666664,0.35555555555555557],[0.31979166666666664,0.35555555555555557]]","[[0.41416666666666657,-0.2007407407407407],[0.41416666666666657,-0.2007407407407407],[0.41395833333333343,-0.23351851851851857],[0.4009375000000001,-0.24759259259259256],[0.38791666666666674,-0.2616666666666667],[0.39083333333333337,-0.2559259259259259],[0.39520833333333344,-0.2616666666666667],[0.4040625000000001,-0.2627777777777777],[0.41520833333333323,-0.26796296296296296],[0.42135416666666664,-0.2524074074074074],[0.4721874999999999,-0.2383333333333333],[0.5182291666666666,-0.2192592592592592],[0.5360416666666665,-0.1948148148148148],[0.5546875,-0.1868518518518518],[0.5733333333333335,-0.17888888888888893],[0.57375,-0.16500000000000004],[0.5741666666666667,-0.15111111111111114],[0.5832291666666668,-0.1346296296296296],[0.5698958333333333,-0.11592592592592597],[0.5497916666666666,-0.12907407407407406],[0.5171875,-0.12851851851851848],[0.49937500000000007,-0.14333333333333328],[0.48156249999999995,-0.1581481481481481],[0.4731250000000001,-0.1844444444444445],[0.4646874999999999,-0.21074074074074076],[0.4795833333333334,-0.2190740740740741],[0.4944791666666667,-0.22740740740740742],[0.5127083333333334,-0.19037037037037038],[0.5127083333333334,-0.19037037037037038],[0.5533333333333333,-0.15555555555555556],[0.5726041666666667,-0.13962962962962958],[0.6140625,-0.14462962962962966],[0.64375,-0.14907407407407408],[0.6660416666666668,-0.1557407407407408],[0.6954166666666666,-0.13796296296296295],[0.7321875000000001,-0.11333333333333331],[0.7522916666666667,-0.10851851851851856],[0.7736458333333334,-0.10685185185185184],[0.7783333333333334,-0.14018518518518516],[0.7830208333333334,-0.1735185185185185],[0.7958333333333333,-0.1772222222222222],[0.7676041666666668,-0.14833333333333337],[0.7411458333333333,-0.1096296296296296],[0.7262500000000001,-0.05129629629629638],[0.7068749999999999,-0.008148148148148106],[0.6884375000000001,0.01629629629629621],[0.6884375000000001,0.01629629629629621],[0.67,0.040740740740740744],[0.67,0.040740740740740744],[0.6644791666666667,0.06351851851851843],[0.6644791666666667,0.06351851851851843],[0.6771874999999999,0.06592592592592597],[0.6771874999999999,0.06592592592592597],[0.6553124999999999,0.06851851851851852],[0.6496875000000001,0.07925925925925917],[0.6476041666666668,0.07444444444444454],[0.6455208333333334,0.06962962962962967],[0.6532291666666665,0.03944444444444436],[0.6609375,0.009259259259259259],[0.6255208333333333,0.006481481481481481],[0.5901041666666667,0.003703703703703704],[0.5220833333333333,0.004814814814814857],[0.45197916666666677,0.017592592592592594],[0.4010416666666667,0.014629629629629588],[0.35145833333333343,0.057962962962962876],[0.321875,0.10351851851851848],[0.26833333333333326,0.06851851851851852],[0.196875,0.02814814814814823],[0.12541666666666676,-0.012222222222222264],[0.06739583333333338,-0.1014814814814815],[0.06739583333333338,-0.1014814814814815],[0.036145833333333384,-0.14592592592592596],[0.005937500000000048,-0.20981481481481484],[0.01083333333333331,-0.26240740740740737],[0.03114583333333331,-0.2994444444444444],[0.030520833333333285,-0.39222222222222225],[0.030520833333333285,-0.39222222222222225],[0.007187499999999976,-0.4733333333333334],[-0.001979166666666643,-0.5024074074074074],[-0.015416666666666618,-0.5520370370370371],[-0.028854166666666715,-0.6016666666666666],[0.03989583333333328,-0.5685185185185185],[0.0818749999999999,-0.5801851851851852],[0.1578125,-0.5609259259259259],[0.1568749999999999,-0.5570370370370371],[0.18166666666666675,-0.5737037037037037],[0.19249999999999995,-0.6109259259259259],[0.19249999999999995,-0.6109259259259259],[0.2091666666666666,-0.6268518518518519],[0.2431250000000001,-0.5738888888888889],[0.29229166666666656,-0.5155555555555555],[0.34479166666666666,-0.4427777777777778],[0.33645833333333336,-0.41944444444444445],[0.3277083333333332,-0.43851851851851853],[0.3023958333333333,-0.46814814814814815],[0.3238541666666668,-0.4644444444444445],[0.32302083333333326,-0.4498148148148148],[0.34562499999999996,-0.4],[0.38041666666666674,-0.3814814814814815],[0.390625,-0.4112962962962963],[0.390625,-0.4112962962962963],[0.39385416666666656,-0.4125925925925926],[0.4028125000000001,-0.4607407407407408],[0.40645833333333337,-0.4987037037037037],[0.4015625,-0.48870370370370364],[0.3961458333333333,-0.49592592592592594],[0.3961458333333333,-0.49592592592592594],[0.38291666666666657,-0.534074074074074],[0.38041666666666674,-0.5390740740740741],[0.35947916666666657,-0.4948148148148148],[0.3296875,-0.48944444444444446],[0.30229166666666674,-0.4816666666666667],[0.27489583333333345,-0.47388888888888886],[0.22531249999999994,-0.37537037037037035],[0.18104166666666663,-0.28703703703703703],[0.12291666666666666,-0.2346296296296296],[0.06531250000000005,-0.16500000000000004],[0.06031249999999998,-0.08222222222222218],[0.06031249999999998,-0.08222222222222218],[0.04114583333333333,-0.02296296296296292],[0.030624999999999975,-0.04148148148148144],[0.05,0.018148148148148063],[0.05,0.018148148148148063],[0.08406250000000005,0.08333333333333333],[0.08406250000000005,0.08333333333333333],[0.09989583333333343,0.11388888888888889],[0.10718750000000009,0.0816666666666667],[0.12833333333333338,0.004629629629629629],[0.15031249999999996,-0.004814814814814857],[0.18354166666666671,-0.0257407407407407],[0.15197916666666675,-0.07240740740740745],[0.11937499999999991,-0.09833333333333337],[0.09718749999999995,-0.10703703703703706],[0.03833333333333329,-0.1772222222222222],[-0.02052083333333338,-0.24740740740740744],[-0.05385416666666672,-0.2594444444444445],[-0.05385416666666672,-0.2594444444444445],[-0.06124999999999995,-0.2692592592592592],[-0.06124999999999995,-0.2692592592592592],[-0.09427083333333333,-0.22759259259259254],[-0.10437500000000005,-0.22833333333333336],[-0.14708333333333337,-0.23425925925925925],[-0.14708333333333337,-0.23425925925925925],[-0.10708333333333328,-0.23148148148148148],[-0.07322916666666662,-0.24833333333333338],[-0.036458333333333336,-0.262037037037037],[0.01593749999999995,-0.2535185185185185],[0.07635416666666663,-0.2740740740740741],[0.12947916666666662,-0.3181481481481482],[0.1720833333333334,-0.37351851851851847],[0.1720833333333334,-0.37351851851851847],[0.22312500000000005,-0.4403703703703704],[0.2778125000000001,-0.4581481481481481],[0.35281250000000003,-0.4674074074074074],[0.35281250000000003,-0.4674074074074074],[0.3696875000000001,-0.4844444444444445],[0.3694791666666667,-0.5042592592592593],[0.3797916666666666,-0.4975925925925926],[0.39010416666666664,-0.490925925925926],[0.3984375,-0.4235185185185185],[0.40677083333333336,-0.35611111111111116],[0.4189583333333334,-0.31444444444444447],[0.4344791666666666,-0.26796296296296296],[0.4344791666666666,-0.26796296296296296],[0.4334374999999999,-0.2748148148148148],[0.45729166666666665,-0.2614814814814815],[0.45729166666666665,-0.2614814814814815],[0.46875,-0.23648148148148146],[0.5028125,-0.18481481481481485],[0.5426041666666668,-0.14722222222222223],[0.5823958333333332,-0.1096296296296296],[0.6023958333333332,-0.10666666666666672],[0.6023958333333332,-0.10666666666666672],[0.6078125,-0.11092592592592589],[0.5947916666666667,-0.06111111111111111],[0.5947916666666667,-0.06111111111111111],[0.5743750000000001,-0.015555555555555513],[0.5815625,0.03166666666666671],[0.5648958333333333,0.0668518518518519],[0.5155208333333334,0.10240740740740732],[0.47020833333333345,0.10629629629629625],[0.4248958333333334,0.05814814814814811],[0.4248958333333334,0.05814814814814811],[0.3536458333333333,-0.0035185185185184764],[0.3536458333333333,-0.0035185185185184764],[0.2961458333333333,-0.06222222222222226],[0.2961458333333333,-0.06222222222222226],[0.27541666666666675,-0.10555555555555556],[0.27541666666666675,-0.10555555555555556],[0.25635416666666655,-0.13277777777777774],[0.25635416666666655,-0.13277777777777774],[0.25770833333333343,-0.1801851851851852],[0.25770833333333343,-0.1801851851851852],[0.27145833333333325,-0.21425925925925923],[0.3076041666666666,-0.259074074074074],[0.36729166666666657,-0.30777777777777776],[0.42458333333333326,-0.34981481481481475],[0.4665625000000001,-0.34074074074074073]]","[[0.41416666666666657,-0.2007407407407407,0.0000999999940418661],[0.41416666666666657,-0.2007407407407407,0.012699999988079469],[0.41395833333333343,-0.23351851851851857,0.029399999976163826],[0.4009375000000001,-0.24759259259259256,0.045999999999999375],[0.38791666666666674,-0.2616666666666667,0.06279999998211849],[0.39083333333333337,-0.2559259259259259,0.07959999999404488],[0.39520833333333344,-0.2616666666666667,0.0960999999940455],[0.4040625000000001,-0.2627777777777777,0.11259999999403902],[0.41520833333333323,-0.26796296296296296,0.12939999997615814],[0.42135416666666664,-0.2524074074074074,0.1462999999821193],[0.4721874999999999,-0.2383333333333333,0.1646999999880805],[0.5182291666666666,-0.2192592592592592,0.1793999999761624],[0.5360416666666665,-0.1948148148148148,0.19600000000000506],[0.5546875,-0.1868518518518518,0.2126999999880823],[0.5733333333333335,-0.17888888888888893,0.2292999999821248],[0.57375,-0.16500000000000004,0.24609999999404408],[0.5741666666666667,-0.15111111111111114,0.2628999999761632],[0.5832291666666668,-0.1346296296296296,0.2793999999761638],[0.5698958333333333,-0.11592592592592597,0.2961999999880831],[0.5497916666666666,-0.12907407407407406,0.31269999998808373],[0.5171875,-0.12851851851851848,0.329399999976161],[0.49937500000000007,-0.14333333333333328,0.34600000000000364],[0.48156249999999995,-0.1581481481481481,0.3626999999880809],[0.4731250000000001,-0.1844444444444445,0.3792999999821234],[0.4646874999999999,-0.21074074074074076,0.39609999999404266],[0.4795833333333334,-0.2190740740740741,0.41269999998808515],[0.4944791666666667,-0.22740740740740742,0.42929999998212054],[0.5127083333333334,-0.19037037037037038,0.4466999999880841],[0.5127083333333334,-0.19037037037037038,0.46300000000000097],[0.5533333333333333,-0.15555555555555556,0.47939999997615956],[0.5726041666666667,-0.13962962962962958,0.4980999999940394],[0.6140625,-0.14462962962962966,0.5167999999821191],[0.64375,-0.14907407407407408,0.5325999999940407],[0.6660416666666668,-0.1557407407407408,0.5498999999761622],[0.6954166666666666,-0.13796296296296295,0.5635999999940395],[0.7321875000000001,-0.11333333333333331,0.5815999999940402],[0.7522916666666667,-0.10851851851851856,0.5985999999940432],[0.7736458333333334,-0.10685185185185184,0.6155000000000044],[0.7783333333333334,-0.14018518518518516,0.633399999976163],[0.7830208333333334,-0.1735185185185185,0.6468999999761635],[0.7958333333333333,-0.1772222222222222,0.66579999998212],[0.7676041666666668,-0.14833333333333337,0.6823999999761625],[0.7411458333333333,-0.1096296296296296,0.6988999999761631],[0.7262500000000001,-0.05129629629629638,0.7166999999880801],[0.7068749999999999,-0.008148148148148106,0.7312999999821201],[0.6884375000000001,0.01629629629629621,0.7490000000000023],[0.6884375000000001,0.01629629629629621,0.7715000000000032],[0.67,0.040740740740740744,0.7858999999761593],[0.67,0.040740740740740744,0.7959999999999994],[0.6644791666666667,0.06351851851851843,0.8127999999821185],[0.6644791666666667,0.06351851851851843,0.829399999976161],[0.6771874999999999,0.06592592592592597,0.8460999999940455],[0.6771874999999999,0.06592592592592597,0.8627999999821228],[0.6553124999999999,0.06851851851851852,0.8793999999761581],[0.6496875000000001,0.07925925925925917,0.8960000000000008],[0.6476041666666668,0.07444444444444454,0.9126999999880852],[0.6455208333333334,0.06962962962962967,0.9293999999761624],[0.6532291666666665,0.03944444444444436,0.9466999999880841],[0.6609375,0.009259259259259259,0.9663999999761614],[0.6255208333333333,0.006481481481481481,0.9797999999821201],[0.5901041666666667,0.003703703703703704,0.9960999999940441],[0.5220833333333333,0.004814814814814857,1.0126999999880795],[0.45197916666666677,0.017592592592592594,1.0293999999761638],[0.4010416666666667,0.014629629629629588,1.0462999999821179],[0.35145833333333343,0.057962962962962876,1.0628999999761604],[0.321875,0.10351851851851848,1.0820999999940426],[0.26833333333333326,0.06851851851851852,1.0961999999880803],[0.196875,0.02814814814814823,1.112699999988081],[0.12541666666666676,-0.012222222222222264,1.1292999999821234],[0.06739583333333338,-0.1014814814814815,1.1460000000000008],[0.06739583333333338,-0.1014814814814815,1.1626999999880852],[0.036145833333333384,-0.14592592592592596,1.1792999999821205],[0.005937500000000048,-0.20981481481481484,1.196000000000005],[0.01083333333333331,-0.26240740740740737,1.2125999999940404],[0.03114583333333331,-0.2994444444444444,1.2292999999821248],[0.030520833333333285,-0.39222222222222225,1.2481999999880813],[0.030520833333333285,-0.39222222222222225,1.267000000000003],[0.007187499999999976,-0.4733333333333334,1.2796999999880825],[-0.001979166666666643,-0.5024074074074074,1.2981999999880784],[-0.015416666666666618,-0.5520370370370371,1.3128999999761604],[-0.028854166666666715,-0.6016666666666666,1.332399999976161],[0.03989583333333328,-0.5685185185185185,1.3461999999880803],[0.0818749999999999,-0.5801851851851852,1.3660999999940415],[0.1578125,-0.5609259259259259,1.3830000000000027],[0.1568749999999999,-0.5570370370370371,1.3961999999880845],[0.18166666666666675,-0.5737037037037037,1.4131999999880804],[0.19249999999999995,-0.6109259259259259,1.4325999999940393],[0.19249999999999995,-0.6109259259259259,1.4462999999821236],[0.2091666666666666,-0.6268518518518519,1.463000000000001],[0.2431250000000001,-0.5738888888888889,1.4831999999880807],[0.29229166666666656,-0.5155555555555555,1.498399999976158],[0.34479166666666666,-0.4427777777777778,1.5128999999761632],[0.33645833333333336,-0.41944444444444445,1.532299999982122],[0.3277083333333332,-0.43851851851851853,1.550199999988081],[0.3023958333333333,-0.46814814814814815,1.565399999976158],[0.3238541666666668,-0.4644444444444445,1.579500000000003],[0.32302083333333326,-0.4498148148148148,1.5988999999761617],[0.34562499999999996,-0.4,1.612599999994039],[0.38041666666666674,-0.3814814814814815,1.629599999994042],[0.390625,-0.4112962962962963,1.6460999999940427],[0.390625,-0.4112962962962963,1.66279999998212],[0.39385416666666656,-0.4125925925925926,1.6793999999761624],[0.4028125000000001,-0.4607407407407408,1.6965000000000003],[0.40645833333333337,-0.4987037037037037,1.7131999999880847],[0.4015625,-0.48870370370370364,1.7293999999761596],[0.3961458333333333,-0.49592592592592594,1.7460000000000022],[0.3961458333333333,-0.49592592592592594,1.7627999999821213],[0.38291666666666657,-0.534074074074074,1.7795000000000059],[0.38041666666666674,-0.5390740740740741,1.7959999999999994],[0.35947916666666657,-0.4948148148148148,1.8125999999940419],[0.3296875,-0.48944444444444446,1.8327999999821216],[0.30229166666666674,-0.4816666666666667,1.8460000000000036],[0.27489583333333345,-0.47388888888888886,1.8627999999821228],[0.22531249999999994,-0.37537037037037035,1.8821999999880816],[0.18104166666666663,-0.28703703703703703,1.8990999999940428],[0.12291666666666666,-0.2346296296296296,1.91579999998212],[0.06531250000000005,-0.16500000000000004,1.9295999999940392],[0.06031249999999998,-0.08222222222222218,1.9467999999821188],[0.06031249999999998,-0.08222222222222218,1.9627999999821242],[0.04114583333333333,-0.02296296296296292,1.9793999999761596],[0.030624999999999975,-0.04148148148148144,1.9980000000000047],[0.05,0.018148148148148063,2.015399999976161],[0.05,0.018148148148148063,2.029299999982122],[0.08406250000000005,0.08333333333333333,2.046199999988083],[0.08406250000000005,0.08333333333333333,2.0627999999821185],[0.09989583333333343,0.11388888888888889,2.079399999976161],[0.10718750000000009,0.0816666666666667,2.0960000000000036],[0.12833333333333338,0.004629629629629629,2.1153999999761623],[0.15031249999999996,-0.004814814814814857,2.1312999999821187],[0.18354166666666671,-0.0257407407407407,2.148799999982124],[0.15197916666666675,-0.07240740740740745,2.1661999999880805],[0.11937499999999991,-0.09833333333333337,2.18339999997616],[0.09718749999999995,-0.10703703703703706,2.199199999988082],[0.03833333333333329,-0.1772222222222222,2.214599999994043],[-0.02052083333333338,-0.24740740740740744,2.2304999999999993],[-0.05385416666666672,-0.2594444444444445,2.2512999999821233],[-0.05385416666666672,-0.2594444444444445,2.263799999982119],[-0.06124999999999995,-0.2692592592592592,2.279500000000006],[-0.06124999999999995,-0.2692592592592592,2.296199999988083],[-0.09427083333333333,-0.22759259259259254,2.3126999999880837],[-0.10437500000000005,-0.22833333333333336,2.332500000000003],[-0.14708333333333337,-0.23425925925925925,2.3500000000000014],[-0.14708333333333337,-0.23425925925925925,2.3660999999940415],[-0.10708333333333328,-0.23148148148148148,2.379399999976158],[-0.07322916666666662,-0.24833333333333338,2.396500000000003],[-0.036458333333333336,-0.262037037037037,2.413000000000004],[0.01593749999999995,-0.2535185185185185,2.4293999999761624],[0.07635416666666663,-0.2740740740740741,2.4463999999761583],[0.12947916666666662,-0.3181481481481482,2.467699999988085],[0.1720833333333334,-0.37351851851851847,2.4835999999940412],[0.1720833333333334,-0.37351851851851847,2.496000000000002],[0.22312500000000005,-0.4403703703703704,2.5125999999940447],[0.2778125000000001,-0.4581481481481481,2.5320999999940454],[0.35281250000000003,-0.4674074074074074,2.5487999999821227],[0.35281250000000003,-0.4674074074074074,2.5626999999880837],[0.3696875000000001,-0.4844444444444445,2.579399999976161],[0.3694791666666667,-0.5042592592592593,2.598699999988085],[0.3797916666666666,-0.4975925925925926,2.6146999999880833],[0.39010416666666664,-0.490925925925926,2.6300999999940444],[0.3984375,-0.4235185185185185,2.650399999976159],[0.40677083333333336,-0.35611111111111116,2.667500000000004],[0.4189583333333334,-0.31444444444444447,2.6838999999761626],[0.4344791666666666,-0.26796296296296296,2.7020000000000053],[0.4344791666666666,-0.26796296296296296,2.7126999999880823],[0.4334374999999999,-0.2748148148148148,2.729299999982125],[0.45729166666666665,-0.2614814814814815,2.746799999982123],[0.45729166666666665,-0.2614814814814815,2.7627999999821213],[0.46875,-0.23648148148148146,2.779500000000006],[0.5028125,-0.18481481481481485,2.7959999999999994],[0.5426041666666668,-0.14722222222222223,2.8155],[0.5823958333333332,-0.1096296296296296,2.8303999999761587],[0.6023958333333332,-0.10666666666666672,2.8490000000000038],[0.6023958333333332,-0.10666666666666672,2.8627999999821228],[0.6078125,-0.11092592592592589,2.879399999976158],[0.5947916666666667,-0.06111111111111111,2.896000000000001],[0.5947916666666667,-0.06111111111111111,2.912699999988085],[0.5743750000000001,-0.015555555555555513,2.9292999999821205],[0.5815625,0.03166666666666671,2.95059999999404],[0.5648958333333333,0.0668518518518519,2.966899999976164],[0.5155208333333334,0.10240740740740732,2.9816999999880807],[0.47020833333333345,0.10629629629629625,2.996899999976158],[0.4248958333333334,0.05814814814814811,3.013799999982119],[0.4248958333333334,0.05814814814814811,3.029299999982122],[0.3536458333333333,-0.0035185185185184764,3.046299999982118],[0.3536458333333333,-0.0035185185185184764,3.0626999999880837],[0.2961458333333333,-0.06222222222222226,3.079299999982119],[0.2961458333333333,-0.06222222222222226,3.0960000000000036],[0.27541666666666675,-0.10555555555555556,3.112599999994039],[0.27541666666666675,-0.10555555555555556,3.129399999976158],[0.25635416666666655,-0.13277777777777774,3.146000000000001],[0.25635416666666655,-0.13277777777777774,3.16279999998212],[0.25770833333333343,-0.1801851851851852,3.1846999999880836],[0.25770833333333343,-0.1801851851851852,3.196000000000005],[0.27145833333333325,-0.21425925925925923,3.2126999999880823],[0.3076041666666666,-0.259074074074074,3.229899999976162],[0.36729166666666657,-0.30777777777777776,3.246000000000002],[0.42458333333333326,-0.34981481481481475,3.26309999999404],[0.4665625000000001,-0.34074074074074073,3.2832999999821197]]","[0.0000999999940418661,0.012699999988079469,0.029399999976163826,0.045999999999999375,0.06279999998211849,0.07959999999404488,0.0960999999940455,0.11259999999403902,0.12939999997615814,0.1462999999821193,0.1646999999880805,0.1793999999761624,0.19600000000000506,0.2126999999880823,0.2292999999821248,0.24609999999404408,0.2628999999761632,0.2793999999761638,0.2961999999880831,0.31269999998808373,0.329399999976161,0.34600000000000364,0.3626999999880809,0.3792999999821234,0.39609999999404266,0.41269999998808515,0.42929999998212054,0.4466999999880841,0.46300000000000097,0.47939999997615956,0.4980999999940394,0.5167999999821191,0.5325999999940407,0.5498999999761622,0.5635999999940395,0.5815999999940402,0.5985999999940432,0.6155000000000044,0.633399999976163,0.6468999999761635,0.66579999998212,0.6823999999761625,0.6988999999761631,0.7166999999880801,0.7312999999821201,0.7490000000000023,0.7715000000000032,0.7858999999761593,0.7959999999999994,0.8127999999821185,0.829399999976161,0.8460999999940455,0.8627999999821228,0.8793999999761581,0.8960000000000008,0.9126999999880852,0.9293999999761624,0.9466999999880841,0.9663999999761614,0.9797999999821201,0.9960999999940441,1.0126999999880795,1.0293999999761638,1.0462999999821179,1.0628999999761604,1.0820999999940426,1.0961999999880803,1.112699999988081,1.1292999999821234,1.1460000000000008,1.1626999999880852,1.1792999999821205,1.196000000000005,1.2125999999940404,1.2292999999821248,1.2481999999880813,1.267000000000003,1.2796999999880825,1.2981999999880784,1.3128999999761604,1.332399999976161,1.3461999999880803,1.3660999999940415,1.3830000000000027,1.3961999999880845,1.4131999999880804,1.4325999999940393,1.4462999999821236,1.463000000000001,1.4831999999880807,1.498399999976158,1.5128999999761632,1.532299999982122,1.550199999988081,1.565399999976158,1.579500000000003,1.5988999999761617,1.612599999994039,1.629599999994042,1.6460999999940427,1.66279999998212,1.6793999999761624,1.6965000000000003,1.7131999999880847,1.7293999999761596,1.7460000000000022,1.7627999999821213,1.7795000000000059,1.7959999999999994,1.8125999999940419,1.8327999999821216,1.8460000000000036,1.8627999999821228,1.8821999999880816,1.8990999999940428,1.91579999998212,1.9295999999940392,1.9467999999821188,1.9627999999821242,1.9793999999761596,1.9980000000000047,2.015399999976161,2.029299999982122,2.046199999988083,2.0627999999821185,2.079399999976161,2.0960000000000036,2.1153999999761623,2.1312999999821187,2.148799999982124,2.1661999999880805,2.18339999997616,2.199199999988082,2.214599999994043,2.2304999999999993,2.2512999999821233,2.263799999982119,2.279500000000006,2.296199999988083,2.3126999999880837,2.332500000000003,2.3500000000000014,2.3660999999940415,2.379399999976158,2.396500000000003,2.413000000000004,2.4293999999761624,2.4463999999761583,2.467699999988085,2.4835999999940412,2.496000000000002,2.5125999999940447,2.5320999999940454,2.5487999999821227,2.5626999999880837,2.579399999976161,2.598699999988085,2.6146999999880833,2.6300999999940444,2.650399999976159,2.667500000000004,2.6838999999761626,2.7020000000000053,2.7126999999880823,2.729299999982125,2.746799999982123,2.7627999999821213,2.779500000000006,2.7959999999999994,2.8155,2.8303999999761587,2.8490000000000038,2.8627999999821228,2.879399999976158,2.896000000000001,2.912699999988085,2.9292999999821205,2.95059999999404,2.966899999976164,2.9816999999880807,2.996899999976158,3.013799999982119,3.029299999982122,3.046299999982118,3.0626999999880837,3.079299999982119,3.0960000000000036,3.112599999994039,3.129399999976158,3.146000000000001,3.16279999998212,3.1846999999880836,3.196000000000005,3.2126999999880823,3.229899999976162,3.246000000000002,3.26309999999404,3.2832999999821197]","[1733383638304,1733383638315,1733383638331,1733383638348,1733383638365,1733383638381,1733383638398,1733383638415,1733383638431,1733383638448,1733383638466,1733383638481,1733383638498,1733383638514,1733383638531,1733383638548,1733383638565,1733383638581,1733383638598,1733383638615,1733383638631,1733383638648,1733383638665,1733383638681,1733383638698,1733383638715,1733383638731,1733383638749,1733383638765,1733383638781,1733383638800,1733383638819,1733383638834,1733383638852,1733383638865,1733383638883,1733383638900,1733383638917,1733383638935,1733383638949,1733383638968,1733383638984,1733383639001,1733383639019,1733383639033,1733383639051,1733383639073,1733383639088,1733383639098,1733383639115,1733383639131,1733383639148,1733383639165,1733383639181,1733383639198,1733383639215,1733383639231,1733383639249,1733383639268,1733383639282,1733383639298,1733383639315,1733383639331,1733383639348,1733383639365,1733383639384,1733383639398,1733383639415,1733383639431,1733383639448,1733383639465,1733383639481,1733383639498,1733383639514,1733383639531,1733383639550,1733383639569,1733383639582,1733383639600,1733383639615,1733383639634,1733383639648,1733383639668,1733383639685,1733383639698,1733383639715,1733383639734,1733383639748,1733383639765,1733383639785,1733383639800,1733383639815,1733383639834,1733383639852,1733383639867,1733383639881,1733383639901,1733383639914,1733383639931,1733383639948,1733383639965,1733383639981,1733383639998,1733383640015,1733383640031,1733383640048,1733383640065,1733383640081,1733383640098,1733383640114,1733383640135,1733383640148,1733383640165,1733383640184,1733383640201,1733383640218,1733383640231,1733383640249,1733383640265,1733383640281,1733383640300,1733383640317,1733383640331,1733383640348,1733383640365,1733383640381,1733383640398,1733383640417,1733383640435,1733383640452,1733383640470,1733383640487,1733383640503,1733383640518,1733383640534,1733383640555,1733383640567,1733383640583,1733383640600,1733383640616,1733383640636,1733383640653,1733383640669,1733383640683,1733383640700,1733383640716,1733383640733,1733383640750,1733383640771,1733383640787,1733383640799,1733383640816,1733383640835,1733383640852,1733383640866,1733383640883,1733383640902,1733383640918,1733383640933,1733383640954,1733383640971,1733383640987,1733383641005,1733383641016,1733383641033,1733383641050,1733383641066,1733383641083,1733383641099,1733383641119,1733383641134,1733383641152,1733383641166,1733383641183,1733383641199,1733383641216,1733383641233,1733383641254,1733383641270,1733383641285,1733383641300,1733383641317,1733383641333,1733383641350,1733383641366,1733383641383,1733383641399,1733383641416,1733383641433,1733383641449,1733383641466,1733383641488,1733383641499,1733383641516,1733383641533,1733383641549,1733383641566,1733383641587]","[[1357.6,431.6],[1357.6,431.6],[1357.4,413.9],[1344.9,406.3],[1332.4,398.7],[1335.2,401.8],[1339.4,398.7],[1347.9,398.1],[1358.6,395.3],[1364.5,403.7],[1413.3,411.3],[1457.5,421.6],[1474.6,434.8],[1492.5,439.1],[1510.4,443.4],[1510.8,450.9],[1511.2,458.4],[1519.9,467.3],[1507.1,477.4],[1487.8,470.3],[1456.5,470.6],[1439.4,462.6],[1422.3,454.6],[1414.2,440.4],[1406.1,426.2],[1420.4,421.7],[1434.7,417.2],[1452.2,437.2],[1452.2,437.2],[1491.2,456],[1509.7,464.6],[1549.5,461.9],[1578,459.5],[1599.4,455.9],[1627.6,465.5],[1662.9,478.8],[1682.2,481.4],[1702.7,482.3],[1707.2,464.3],[1711.7,446.3],[1724,444.3],[1696.9,459.9],[1671.5,480.8],[1657.2,512.3],[1638.6,535.6],[1620.9,548.8],[1620.9,548.8],[1603.2,562],[1603.2,562],[1597.9,574.3],[1597.9,574.3],[1610.1,575.6],[1610.1,575.6],[1589.1,577],[1583.7,582.8],[1581.7,580.2],[1579.7,577.6],[1587.1,561.3],[1594.5,545],[1560.5,543.5],[1526.5,542],[1461.2,542.6],[1393.9,549.5],[1345,547.9],[1297.4,571.3],[1269,595.9],[1217.6,577],[1149,555.2],[1080.4,533.4],[1024.7,485.2],[1024.7,485.2],[994.7,461.2],[965.7,426.7],[970.4,398.3],[989.9,378.3],[989.3,328.2],[989.3,328.2],[966.9,284.4],[958.1,268.7],[945.2,241.9],[932.3,215.1],[998.3,233],[1038.6,226.7],[1111.5,237.1],[1110.6,239.2],[1134.4,230.2],[1144.8,210.1],[1144.8,210.1],[1160.8,201.5],[1193.4,230.1],[1240.6,261.6],[1291,300.9],[1283,313.5],[1274.6,303.2],[1250.3,287.2],[1270.9,289.2],[1270.1,297.1],[1291.8,324],[1325.2,334],[1335,317.9],[1335,317.9],[1338.1,317.2],[1346.7,291.2],[1350.2,270.7],[1345.5,276.1],[1340.3,272.2],[1340.3,272.2],[1327.6,251.6],[1325.2,248.9],[1305.1,272.8],[1276.5,275.7],[1250.2,279.9],[1223.9,284.1],[1176.3,337.3],[1133.8,385],[1078,413.3],[1022.7,450.9],[1017.9,495.6],[1017.9,495.6],[999.5,527.6],[989.4,517.6],[1008,549.8],[1008,549.8],[1040.7,585],[1040.7,585],[1055.9,601.5],[1062.9,584.1],[1083.2,542.5],[1104.3,537.4],[1136.2,526.1],[1105.9,500.9],[1074.6,486.9],[1053.3,482.2],[996.8,444.3],[940.3,406.4],[908.3,399.9],[908.3,399.9],[901.2,394.6],[901.2,394.6],[869.5,417.1],[859.8,416.7],[818.8,413.5],[818.8,413.5],[857.2,415],[889.7,405.9],[925,398.5],[975.3,403.1],[1033.3,392],[1084.3,368.2],[1125.2,338.3],[1125.2,338.3],[1174.2,302.2],[1226.7,292.6],[1298.7,287.6],[1298.7,287.6],[1314.9,278.4],[1314.7,267.7],[1324.6,271.3],[1334.5,274.9],[1342.5,311.3],[1350.5,347.7],[1362.2,370.2],[1377.1,395.3],[1377.1,395.3],[1376.1,391.6],[1399,398.8],[1399,398.8],[1410,412.3],[1442.7,440.2],[1480.9,460.5],[1519.1,480.8],[1538.3,482.4],[1538.3,482.4],[1543.5,480.1],[1531,507],[1531,507],[1511.4,531.6],[1518.3,557.1],[1502.3,576.1],[1454.9,595.3],[1411.4,597.4],[1367.9,571.4],[1367.9,571.4],[1299.5,538.1],[1299.5,538.1],[1244.3,506.4],[1244.3,506.4],[1224.4,483],[1224.4,483],[1206.1,468.3],[1206.1,468.3],[1207.4,442.7],[1207.4,442.7],[1220.6,424.3],[1255.3,400.1],[1312.6,373.8],[1367.6,351.1],[1407.9,356]]","[0,0.37864299999999995]","[0.37864299999999995,0.37864299999999995]","[-0.37864299999999995,-0.37864299999999995]","[-0.37864299999999995,0]","[0,-0.37864299999999995]","[0.37864299999999995,-0.37864299999999995]","[0,0]","[0.37864299999999995,0]",0,1,1,1,1,3,Laptop,5,5,13,7
