inst1_resp.keys,inst1_resp.rt,calibrationMouse.x,calibrationMouse.y,calibrationMouse.leftButton,calibrationMouse.midButton,calibrationMouse.rightButton,calibrationClick.x,calibrationClick.y,calibrationClick.leftButton,calibrationClick.midButton,calibrationClick.rightButton,trialsc.thisRepN,trialsc.thisTrialN,trialsc.thisN,trialsc.thisIndex,trialsc.ran,calibration_x,calibration_y,participant,session,date,expName,psychopyVersion,OS,frameRate,calibrationClick.clicked_name,ScreenRes_pixels,mouse_2.x,mouse_2.y,mouse_2.leftButton,mouse_2.midButton,mouse_2.rightButton,mouse_2.time,mouse_2.clicked_name,Camera_pixels,mouse.x,mouse.y,mouse.leftButton,mouse.midButton,mouse.rightButton,mouse.time,mouse.clicked_name,Choice,Trial,TrialDuration,MOUSE_GAZE,ET_GAZE,ET_GAZE_x_T,time,unixTime,ET_GAZE_NF,Loc_Option1_label,Loc_Option2_label,Loc_Cost_label,Loc_Qual_label,Loc_Option1_cost,Loc_Option2_cost,Loc_Option1_quality,Loc_Option2_quality,trials.thisRepN,trials.thisTrialN,trials.thisN,trials.thisIndex,trials.ran,Block,Device,cost1,qual1,cost2,qual2
space,1.6656,-0.175,-0.192592593,1,0,0,-0.329166667,0.333333333,0,0,0,0,0,0,7,1,-0.33,0.33,44,001,2024-12-05_14h50.14.568,Attention_exp_legacy,2023.1.0,Win32,59.88023952,,,,,,,,,,,,,,,,,,,,,,,,,,,,,,,,,,,,,,,,,,,,,
,,,,,,,-0.665625,0.327777778,1,0,0,0,1,1,3,1,-0.67,0.33,44,001,2024-12-05_14h50.14.568,Attention_exp_legacy,2023.1.0,Win32,59.88023952,calibration_square,,,,,,,,,,,,,,,,,,,,,,,,,,,,,,,,,,,,,,,,,,,,
,,,,,,,-0.673958333,-0.657407407,1,0,0,0,2,2,0,1,-0.67,-0.67,44,001,2024-12-05_14h50.14.568,Attention_exp_legacy,2023.1.0,Win32,59.88023952,,,,,,,,,,,,,,,,,,,,,,,,,,,,,,,,,,,,,,,,,,,,,
,,,,,,,-0.328125,-0.674074074,1,0,0,0,3,3,4,1,-0.33,-0.67,44,001,2024-12-05_14h50.14.568,Attention_exp_legacy,2023.1.0,Win32,59.88023952,calibration_square,,,,,,,,,,,,,,,,,,,,,,,,,,,,,,,,,,,,,,,,,,,,
,,,,,,,0.334375,-0.318518519,1,0,0,0,4,4,15,1,0.33,-0.33,44,001,2024-12-05_14h50.14.568,Attention_exp_legacy,2023.1.0,Win32,59.88023952,,,,,,,,,,,,,,,,,,,,,,,,,,,,,,,,,,,,,,,,,,,,,
,,,,,,,0.001041667,-0.32962963,1,0,0,0,5,5,10,1,0,-0.33,44,001,2024-12-05_14h50.14.568,Attention_exp_legacy,2023.1.0,Win32,59.88023952,calibration_square,,,,,,,,,,,,,,,,,,,,,,,,,,,,,,,,,,,,,,,,,,,,
,,,,,,,0.320833333,0.67037037,1,0,0,0,6,6,18,1,0.33,0.67,44,001,2024-12-05_14h50.14.568,Attention_exp_legacy,2023.1.0,Win32,59.88023952,calibration_square,,,,,,,,,,,,,,,,,,,,,,,,,,,,,,,,,,,,,,,,,,,,
,,,,,,,0.336458333,0.331481481,1,0,0,0,7,7,17,1,0.33,0.33,44,001,2024-12-05_14h50.14.568,Attention_exp_legacy,2023.1.0,Win32,59.88023952,calibration_square,,,,,,,,,,,,,,,,,,,,,,,,,,,,,,,,,,,,,,,,,,,,
,,,,,,,-0.667708333,-0.32962963,1,0,0,0,8,8,1,1,-0.67,-0.33,44,001,2024-12-05_14h50.14.568,Attention_exp_legacy,2023.1.0,Win32,59.88023952,calibration_square,,,,,,,,,,,,,,,,,,,,,,,,,,,,,,,,,,,,,,,,,,,,
,,,,,,,-0.34375,-0.327777778,1,0,0,0,9,9,5,1,-0.33,-0.33,44,001,2024-12-05_14h50.14.568,Attention_exp_legacy,2023.1.0,Win32,59.88023952,,,,,,,,,,,,,,,,,,,,,,,,,,,,,,,,,,,,,,,,,,,,,
,,,,,,,0.0125,-0.664814815,1,0,0,0,10,10,9,1,0,-0.67,44,001,2024-12-05_14h50.14.568,Attention_exp_legacy,2023.1.0,Win32,59.88023952,,,,,,,,,,,,,,,,,,,,,,,,,,,,,,,,,,,,,,,,,,,,,
,,,,,,,0,0.331481481,1,0,0,0,11,11,12,1,0,0.33,44,001,2024-12-05_14h50.14.568,Attention_exp_legacy,2023.1.0,Win32,59.88023952,calibration_square,,,,,,,,,,,,,,,,,,,,,,,,,,,,,,,,,,,,,,,,,,,,
,,,,,,,0.326041667,0.007407407,1,0,0,0,12,12,16,1,0.33,0,44,001,2024-12-05_14h50.14.568,Attention_exp_legacy,2023.1.0,Win32,59.88023952,calibration_square,,,,,,,,,,,,,,,,,,,,,,,,,,,,,,,,,,,,,,,,,,,,
,,,,,,,-0.336458333,0.681481481,1,0,0,0,13,13,8,1,-0.33,0.67,44,001,2024-12-05_14h50.14.568,Attention_exp_legacy,2023.1.0,Win32,59.88023952,,,,,,,,,,,,,,,,,,,,,,,,,,,,,,,,,,,,,,,,,,,,,
,,,,,,,0.332291667,-0.677777778,1,0,0,0,14,14,14,1,0.33,-0.67,44,001,2024-12-05_14h50.14.568,Attention_exp_legacy,2023.1.0,Win32,59.88023952,calibration_square,,,,,,,,,,,,,,,,,,,,,,,,,,,,,,,,,,,,,,,,,,,,
,,,,,,,-0.671875,0,1,0,0,0,15,15,2,1,-0.67,0,44,001,2024-12-05_14h50.14.568,Attention_exp_legacy,2023.1.0,Win32,59.88023952,calibration_square,,,,,,,,,,,,,,,,,,,,,,,,,,,,,,,,,,,,,,,,,,,,
,,,,,,,0.675,0.677777778,1,0,0,0,16,16,19,1,0.67,0.67,44,001,2024-12-05_14h50.14.568,Attention_exp_legacy,2023.1.0,Win32,59.88023952,calibration_square,,,,,,,,,,,,,,,,,,,,,,,,,,,,,,,,,,,,,,,,,,,,
,,,,,,,0.671875,-0.668518519,1,0,0,0,17,17,20,1,0.67,-0.67,44,001,2024-12-05_14h50.14.568,Attention_exp_legacy,2023.1.0,Win32,59.88023952,calibration_square,,,,,,,,,,,,,,,,,,,,,,,,,,,,,,,,,,,,,,,,,,,,
,,,,,,,0.009375,0.666666667,1,0,0,0,18,18,13,1,0,0.67,44,001,2024-12-05_14h50.14.568,Attention_exp_legacy,2023.1.0,Win32,59.88023952,calibration_square,,,,,,,,,,,,,,,,,,,,,,,,,,,,,,,,,,,,,,,,,,,,
,,,,,,,-0.005208333,-0.022222222,1,0,0,0,19,19,11,1,0,0,44,001,2024-12-05_14h50.14.568,Attention_exp_legacy,2023.1.0,Win32,59.88023952,,,,,,,,,,,,,,,,,,,,,,,,,,,,,,,,,,,,,,,,,,,,,
,,,,,,,-0.334375,0.007407407,1,0,0,0,20,20,6,1,-0.33,0,44,001,2024-12-05_14h50.14.568,Attention_exp_legacy,2023.1.0,Win32,59.88023952,calibration_square,,,,,,,,,,,,,,,,,,,,,,,,,,,,,,,,,,,,,,,,,,,,
,,,,,,,,,,,,,,,,,,,44,001,2024-12-05_14h50.14.568,Attention_exp_legacy,2023.1.0,Win32,59.88023952,,"[1920,1080]",[0.03958333333333333],[-0.5203703703703704],[1],[0],[0],[0.9978000000119209],"[""StartButton""]","[640,480]",[0.022916666666666665],[0.4203703703703704],[1],[0],[0],[2.5513000000119206],"[""Option1_label""]",Option1_label,1,3.5639,"[[0.04583333333333333,-0.2796296296296296],[0.04583333333333333,-0.2796296296296296],[0.04583333333333333,-0.2796296296296296],[0.04583333333333333,-0.2796296296296296],[0.04583333333333333,-0.2796296296296296],[0.04583333333333333,-0.2796296296296296],[0.04583333333333333,-0.2796296296296296],[0.04583333333333333,-0.2796296296296296],[0.04583333333333333,-0.2759259259259259],[0.04583333333333333,-0.26851851851851855],[0.04583333333333333,-0.26666666666666666],[0.04583333333333333,-0.26296296296296295],[0.04479166666666667,-0.2611111111111111],[0.04479166666666667,-0.25555555555555554],[0.04479166666666667,-0.25555555555555554],[0.04479166666666667,-0.25555555555555554],[0.04375,-0.25555555555555554],[0.04375,-0.25555555555555554],[0.04375,-0.2537037037037037],[0.042708333333333334,-0.25],[0.041666666666666664,-0.24814814814814815],[0.040625,-0.24444444444444444],[0.03958333333333333,-0.24074074074074073],[0.0375,-0.2388888888888889],[0.036458333333333336,-0.2351851851851852],[0.035416666666666666,-0.23333333333333334],[0.034375,-0.23148148148148148],[0.03333333333333333,-0.22962962962962963],[0.03229166666666667,-0.22592592592592592],[0.03125,-0.22407407407407406],[0.030208333333333334,-0.2222222222222222],[0.030208333333333334,-0.22037037037037038],[0.030208333333333334,-0.22037037037037038],[0.029166666666666667,-0.22037037037037038],[0.029166666666666667,-0.22037037037037038],[0.029166666666666667,-0.22037037037037038],[0.029166666666666667,-0.22037037037037038],[0.029166666666666667,-0.22037037037037038],[0.029166666666666667,-0.22037037037037038],[0.029166666666666667,-0.22037037037037038],[0.029166666666666667,-0.22037037037037038],[0.029166666666666667,-0.22037037037037038],[0.029166666666666667,-0.22037037037037038],[0.028125,-0.21851851851851853],[0.028125,-0.21851851851851853],[0.028125,-0.21851851851851853],[0.028125,-0.21851851851851853],[0.028125,-0.21851851851851853],[0.028125,-0.21851851851851853],[0.028125,-0.21851851851851853],[0.028125,-0.21851851851851853],[0.028125,-0.21851851851851853],[0.026041666666666668,-0.21851851851851853],[0.023958333333333335,-0.21851851851851853],[0.019791666666666666,-0.21851851851851853],[0.014583333333333334,-0.21851851851851853],[0.005208333333333333,-0.21851851851851853],[0.0020833333333333333,-0.21851851851851853],[-0.008333333333333333,-0.21666666666666667],[-0.014583333333333334,-0.21666666666666667],[-0.021875,-0.21666666666666667],[-0.03125,-0.21666666666666667],[-0.042708333333333334,-0.21666666666666667],[-0.05416666666666667,-0.21666666666666667],[-0.06145833333333333,-0.21666666666666667],[-0.06666666666666667,-0.21666666666666667],[-0.071875,-0.21666666666666667],[-0.07708333333333334,-0.21851851851851853],[-0.08229166666666667,-0.2222222222222222],[-0.08958333333333333,-0.22592592592592592],[-0.10416666666666667,-0.2388888888888889],[-0.11354166666666667,-0.24814814814814815],[-0.12291666666666666,-0.2518518518518518],[-0.128125,-0.2611111111111111],[-0.13333333333333333,-0.26851851851851855],[-0.13645833333333332,-0.2759259259259259],[-0.13958333333333334,-0.2833333333333333],[-0.14375,-0.29259259259259257],[-0.14791666666666667,-0.31296296296296294],[-0.14895833333333333,-0.32407407407407407],[-0.15,-0.337037037037037],[-0.15104166666666666,-0.3611111111111111],[-0.15104166666666666,-0.36666666666666664],[-0.15104166666666666,-0.37962962962962965],[-0.15104166666666666,-0.38333333333333336],[-0.15104166666666666,-0.387037037037037],[-0.15104166666666666,-0.3907407407407407],[-0.14895833333333333,-0.39444444444444443],[-0.14791666666666667,-0.39444444444444443],[-0.14375,-0.3962962962962963],[-0.13541666666666666,-0.40185185185185185],[-0.12291666666666666,-0.40370370370370373],[-0.10104166666666667,-0.40370370370370373],[-0.09479166666666666,-0.40370370370370373],[-0.071875,-0.40370370370370373],[-0.06041666666666667,-0.40370370370370373],[-0.04895833333333333,-0.40370370370370373],[-0.040625,-0.4],[-0.030208333333333334,-0.3907407407407407],[-0.021875,-0.38333333333333336],[-0.0125,-0.37037037037037035],[0,-0.35185185185185186],[0.008333333333333333,-0.3333333333333333],[0.017708333333333333,-0.31666666666666665],[0.025,-0.29814814814814816],[0.034375,-0.2796296296296296],[0.053125,-0.24814814814814815],[0.06458333333333334,-0.22777777777777777],[0.075,-0.20925925925925926],[0.08645833333333333,-0.1925925925925926],[0.09479166666666666,-0.17407407407407408],[0.10520833333333333,-0.15555555555555556],[0.11145833333333334,-0.14074074074074075],[0.11666666666666667,-0.12222222222222222],[0.12083333333333333,-0.10740740740740741],[0.12291666666666666,-0.0962962962962963],[0.12395833333333334,-0.08333333333333333],[0.12395833333333334,-0.07222222222222222],[0.12395833333333334,-0.06481481481481481],[0.12291666666666666,-0.05740740740740741],[0.11875,-0.04814814814814815],[0.11458333333333333,-0.040740740740740744],[0.11145833333333334,-0.03333333333333333],[0.10208333333333333,-0.024074074074074074],[0.08958333333333333,-0.011111111111111112],[0.075,0],[0.06354166666666666,0.012962962962962963],[0.05,0.027777777777777776],[0.03958333333333333,0.03888888888888889],[0.022916666666666665,0.06481481481481481],[0.017708333333333333,0.07777777777777778],[0.010416666666666666,0.09444444444444444],[0.004166666666666667,0.11666666666666667],[0,0.13703703703703704],[-0.003125,0.16111111111111112],[-0.003125,0.1962962962962963],[-0.003125,0.22777777777777777],[-0.003125,0.25925925925925924],[0.0010416666666666667,0.29444444444444445],[0.003125,0.32222222222222224],[0.005208333333333333,0.34629629629629627],[0.009375,0.37222222222222223],[0.014583333333333334,0.39814814814814814],[0.016666666666666666,0.40925925925925927],[0.019791666666666666,0.4148148148148148],[0.020833333333333332,0.4166666666666667],[0.021875,0.4185185185185185],[0.022916666666666665,0.4203703703703704],[0.022916666666666665,0.4203703703703704],[0.022916666666666665,0.4203703703703704],[0.022916666666666665,0.4203703703703704],[0.022916666666666665,0.4203703703703704],[0.022916666666666665,0.4203703703703704],[0.022916666666666665,0.4203703703703704],[0.022916666666666665,0.4203703703703704],[0.022916666666666665,0.4203703703703704],[0.022916666666666665,0.4203703703703704],[0.022916666666666665,0.4203703703703704],[0.022916666666666665,0.4203703703703704],[0.022916666666666665,0.4203703703703704],[0.022916666666666665,0.4203703703703704],[0.022916666666666665,0.4203703703703704],[0.022916666666666665,0.4203703703703704],[0.022916666666666665,0.4203703703703704],[0.022916666666666665,0.4203703703703704],[0.022916666666666665,0.4203703703703704],[0.022916666666666665,0.4203703703703704],[0.022916666666666665,0.4203703703703704],[0.022916666666666665,0.4203703703703704],[0.022916666666666665,0.4203703703703704],[0.022916666666666665,0.4203703703703704],[0.022916666666666665,0.4203703703703704],[0.022916666666666665,0.4203703703703704],[0.022916666666666665,0.4203703703703704],[0.022916666666666665,0.4203703703703704],[0.022916666666666665,0.4203703703703704],[0.022916666666666665,0.4203703703703704],[0.022916666666666665,0.4203703703703704],[0.022916666666666665,0.4203703703703704],[0.022916666666666665,0.4203703703703704],[0.022916666666666665,0.4203703703703704],[0.022916666666666665,0.4203703703703704],[0.022916666666666665,0.4203703703703704],[0.022916666666666665,0.4203703703703704],[0.022916666666666665,0.4203703703703704],[0.022916666666666665,0.4203703703703704],[0.022916666666666665,0.4203703703703704],[0.022916666666666665,0.4203703703703704],[0.022916666666666665,0.4203703703703704],[0.022916666666666665,0.4203703703703704],[0.022916666666666665,0.4203703703703704],[0.022916666666666665,0.4203703703703704],[0.022916666666666665,0.4203703703703704],[0.022916666666666665,0.4203703703703704],[0.022916666666666665,0.4203703703703704],[0.022916666666666665,0.4203703703703704],[0.022916666666666665,0.4203703703703704],[0.022916666666666665,0.4203703703703704],[0.022916666666666665,0.4203703703703704],[0.022916666666666665,0.4203703703703704],[0.022916666666666665,0.4203703703703704],[0.022916666666666665,0.4203703703703704],[0.022916666666666665,0.4203703703703704],[0.022916666666666665,0.4185185185185185],[0.022916666666666665,0.4185185185185185],[0.022916666666666665,0.4185185185185185],[0.022916666666666665,0.4185185185185185],[0.022916666666666665,0.4166666666666667],[0.022916666666666665,0.4166666666666667],[0.022916666666666665,0.4166666666666667],[0.022916666666666665,0.4166666666666667],[0.022916666666666665,0.4166666666666667],[0.022916666666666665,0.4166666666666667],[0.022916666666666665,0.4166666666666667]]","[[-0.43208333333333326,0.49129629629629623],[-0.43208333333333326,0.49129629629629623],[-0.40656249999999994,0.48648148148148157],[-0.38125,0.49611111111111106],[-0.38125,0.49611111111111106],[-0.3333333333333333,0.5238888888888888],[-0.28239583333333335,0.547037037037037],[-0.25447916666666665,0.5805555555555556],[-0.22364583333333338,0.5829629629629629],[-0.19500000000000003,0.5275925925925925],[-0.19500000000000003,0.5275925925925925],[-0.16499999999999998,0.48351851851851857],[-0.1094791666666667,0.490925925925926],[-0.0765625,0.5124074074074075],[-0.057291666666666664,0.4777777777777778],[-0.03145833333333338,0.431111111111111],[-0.019166666666666644,0.3851851851851852],[-0.019166666666666644,0.3851851851851852],[-0.021145833333333287,0.3603703703703704],[-0.02312500000000005,0.33555555555555566],[-0.02312500000000005,0.33555555555555566],[-0.04781249999999997,0.2699999999999999],[-0.04781249999999997,0.2699999999999999],[-0.08395833333333336,0.2433333333333333],[-0.08395833333333336,0.2433333333333333],[-0.1265625,0.22981481481481486],[-0.1265625,0.22981481481481486],[-0.15031249999999996,0.20685185185185193],[-0.15031249999999996,0.20685185185185193],[-0.1609375,0.23499999999999996],[-0.1609375,0.23499999999999996],[-0.21927083333333333,0.22481481481481477],[-0.21927083333333333,0.22481481481481477],[-0.25062500000000004,0.26222222222222225],[-0.2741666666666667,0.25388888888888894],[-0.28635416666666663,0.21148148148148158],[-0.30531250000000004,0.18870370370370365],[-0.2951041666666666,0.21851851851851853],[-0.2951041666666666,0.21851851851851853],[-0.288125,0.23648148148148157],[-0.2690624999999999,0.2505555555555555],[-0.2869791666666667,0.25314814814814823],[-0.22927083333333337,0.20888888888888882],[-0.13937499999999994,0.22555555555555548],[-0.13937499999999994,0.22555555555555548],[-0.14583333333333334,0.2183333333333333],[-0.1734375,0.24740740740740744],[-0.19968750000000005,0.26518518518518525],[-0.17895833333333327,0.25851851851851854],[-0.15822916666666664,0.2518518518518518],[-0.15916666666666662,0.32166666666666677],[-0.15854166666666672,0.4083333333333333],[-0.15854166666666672,0.4083333333333333],[-0.13635416666666664,0.44592592592592584],[-0.18739583333333332,0.41092592592592586],[-0.23843749999999997,0.37592592592592594],[-0.20499999999999996,0.387037037037037],[-0.16479166666666673,0.3648148148148148],[-0.12468750000000005,0.3472222222222222],[-0.12541666666666665,0.302962962962963],[-0.12458333333333335,0.2933333333333333],[-0.07385416666666664,0.24722222222222223],[-0.05427083333333336,0.18185185185185193],[-0.03770833333333338,0.15351851851851847],[-0.050312499999999954,0.2507407407407407],[-0.02833333333333338,0.294074074074074],[-0.025520833333333333,0.2833333333333333],[-0.024791666666666618,0.275],[0.007395833333333357,0.31574074074074077],[0.03260416666666662,0.3983333333333334],[0.046875,0.4366666666666666],[0.017083333333333308,0.49166666666666664],[0.025416666666666643,0.5205555555555555],[0.017812500000000023,0.6103703703703705],[0.059062500000000046,0.5894444444444443],[0.08375000000000009,0.5888888888888889],[0.11520833333333323,0.6196296296296296],[0.1478125000000001,0.6572222222222222],[0.10760416666666663,0.5853703703703704],[0.075,0.5031481481481482],[0.10489583333333338,0.42833333333333323],[0.10062499999999991,0.3725925925925927],[0.09916666666666671,0.3494444444444445],[0.1046875,0.280925925925926],[0.08791666666666677,0.28666666666666657],[0.053125,0.32592592592592595],[0.013437499999999976,0.3014814814814814],[-0.027187500000000024,0.2803703703703703],[-0.013645833333333357,0.3194444444444444],[0.0018749999999999527,0.40777777777777785],[-0.03687499999999998,0.4262962962962964],[-0.02822916666666669,0.39296296296296307],[-0.026041666666666668,0.39537037037037037],[-0.026041666666666668,0.39537037037037037],[-0.011041666666666691,0.37222222222222223],[-0.011041666666666691,0.37222222222222223],[0.008645833333333287,0.31666666666666665],[0.025625000000000023,0.30925925925925923],[0.020833333333333332,0.2788888888888889],[0.004375000000000047,0.24277777777777781],[0.004375000000000047,0.24277777777777781],[-0.010208333333333286,0.1596296296296297],[-0.01395833333333331,0.07555555555555547],[-0.016562499999999977,0.06351851851851843],[-0.036354166666666646,0.03296296296296288],[-0.04874999999999995,-0.014629629629629588],[-0.07999999999999995,-0.05740740740740741],[-0.090625,-0.038703703703703664],[-0.10395833333333329,-0.09314814814814817],[-0.10020833333333339,-0.0883333333333333],[-0.04833333333333331,-0.04296296296296305],[-0.035416666666666666,0.025],[-0.029062499999999977,0.05981481481481473],[-0.027083333333333334,0.07092592592592584],[-0.012187500000000047,0.09055555555555551],[0.00916666666666662,0.11722222222222214],[0.04520833333333331,0.19407407407407398],[0.06135416666666664,0.2161111111111112],[0.06135416666666664,0.2161111111111112],[0.05593750000000005,0.21277777777777773],[0.059583333333333384,0.1866666666666666],[0.05364583333333333,0.11277777777777774],[0.05499999999999995,0.1124074074074075],[0.05010416666666669,0.09685185185185177],[0.04864583333333338,0.08759259259259251],[0.05291666666666662,0.0868518518518518],[0.014791666666666713,0.07574074074074069],[-0.02687499999999995,0.041111111111111195],[-0.06749999999999995,0.009629629629629714],[-0.058333333333333334,0.010185185185185186],[-0.04854166666666669,0.01777777777777782],[-0.04854166666666669,0.01777777777777782],[-0.06177083333333329,0.03481481481481473],[-0.049270833333333285,0.025185185185185227],[-0.057604166666666616,-0.015555555555555513],[-0.06499999999999997,-0.03888888888888889],[-0.07052083333333338,-0.05907407407407403],[-0.04583333333333333,-0.09666666666666665],[-0.03187500000000002,-0.11425925925925924],[-0.01260416666666669,-0.1588888888888889],[-0.00927083333333331,-0.17518518518518522],[0.009895833333333333,-0.18277777777777776],[0.006458333333333381,-0.19740740740740745],[-0.01583333333333338,-0.23537037037037042],[-0.019166666666666644,-0.23962962962962958],[-0.005416666666666714,-0.25629629629629624],[0.019166666666666644,-0.2542592592592593],[0.028541666666666642,-0.23277777777777775],[0.05583333333333336,-0.23703703703703705],[0.07604166666666666,-0.22407407407407406],[0.07760416666666667,-0.19703703703703698],[0.049270833333333285,-0.18222222222222217],[0.07458333333333324,-0.1205555555555556],[0.07458333333333324,-0.1205555555555556],[0.10166666666666657,-0.04611111111111107],[0.10166666666666657,-0.04611111111111107],[0.15750000000000006,-0.009999999999999959],[0.19729166666666675,0.04759259259259268],[0.2085416666666667,0.06111111111111111],[0.2085416666666667,0.06111111111111111],[0.22302083333333325,0.072037037037037],[0.22427083333333328,0.10222222222222231],[0.20427083333333323,0.12666666666666662],[0.19604166666666673,0.1270370370370371],[0.21739583333333337,0.1270370370370371],[0.20354166666666676,0.075],[0.1955208333333334,0.0301851851851851],[0.16020833333333329,0.015555555555555513],[0.1234375,-0.027962962962963005],[0.10104166666666667,-0.0477777777777777],[0.10322916666666657,-0.07407407407407407],[0.10322916666666657,-0.07407407407407407],[0.10510416666666676,-0.12000000000000002],[0.09395833333333338,-0.14833333333333337],[0.09166666666666666,-0.1661111111111111],[0.07697916666666677,-0.1772222222222222],[0.07322916666666662,-0.1925925925925926],[0.06822916666666666,-0.22629629629629627],[0.07677083333333339,-0.285],[0.08572916666666662,-0.32388888888888884],[0.0655208333333333,-0.35703703703703704],[0.02822916666666669,-0.3224074074074075],[0.006666666666666643,-0.2633333333333333],[0.006666666666666643,-0.2633333333333333],[0.017812500000000023,-0.18277777777777776],[0.010520833333333358,-0.21574074074074073],[0.004999999999999952,-0.2631481481481482],[0.0003124999999999526,-0.25574074074074077],[-0.0020833333333333333,-0.25277777777777777],[-0.0020833333333333333,-0.25277777777777777],[-0.017812500000000023,-0.25148148148148153],[-0.04541666666666669,-0.21944444444444444],[-0.028854166666666715,-0.1675925925925926],[-0.012812499999999952,-0.17907407407407405],[-0.021875,-0.22259259259259256],[-0.021875,-0.22259259259259256],[-0.026041666666666668,-0.30037037037037034],[-0.024895833333333308,-0.32462962962962966],[-0.02020833333333331,-0.30407407407407405],[-0.0328125,-0.31203703703703706],[-0.052083333333333336,-0.34074074074074073],[-0.058541666666666714,-0.3362962962962963],[-0.04093749999999995,-0.3640740740740741],[-0.026145833333333358,-0.4255555555555556],[-0.03572916666666662,-0.4624074074074074],[-0.03989583333333328,-0.47240740740740744],[-0.03947916666666664,-0.47759259259259257],[-0.03947916666666664,-0.47759259259259257],[-0.03781249999999995,-0.41703703703703704],[-0.025729166666666713,-0.35851851851851857],[0.03875000000000005,-0.2844444444444445],[0.10322916666666657,-0.1824074074074074],[0.15510416666666677,-0.07925925925925928],[0.17218749999999997,0.011111111111111112]]","[[-0.43208333333333326,0.49129629629629623,0.0003000000119186552],[-0.43208333333333326,0.49129629629629623,0.036999999999999034],[-0.40656249999999994,0.48648148148148157,0.0449999999999946],[-0.38125,0.49611111111111106,0.06440000000596058],[-0.38125,0.49611111111111106,0.07549999999999812],[-0.3333333333333333,0.5238888888888888,0.09219999998807538],[-0.28239583333333335,0.547037037037037,0.11140000000595762],[-0.25447916666666665,0.5805555555555556,0.12780000001191638],[-0.22364583333333338,0.5829629629629629,0.14630000001191945],[-0.19500000000000003,0.5275925925925925,0.1634999999999991],[-0.19500000000000003,0.5275925925925925,0.1755999999940343],[-0.16499999999999998,0.48351851851851857,0.1921999999880768],[-0.1094791666666667,0.490925925925926,0.21300000000000097],[-0.0765625,0.5124074074074075,0.22859999999403868],[-0.057291666666666664,0.4777777777777778,0.2446999999880788],[-0.03145833333333338,0.431111111111111,0.26340000000595865],[-0.019166666666666644,0.3851851851851852,0.2816999999880778],[-0.019166666666666644,0.3851851851851852,0.2919999999999945],[-0.021145833333333287,0.3603703703703704,0.30890000000595563],[-0.02312500000000005,0.33555555555555566,0.3254999999999981],[-0.02312500000000005,0.33555555555555566,0.34780000001191524],[-0.04781249999999997,0.2699999999999999,0.35899999999999466],[-0.04781249999999997,0.2699999999999999,0.375699999988079],[-0.08395833333333336,0.2433333333333333,0.3920999999940378],[-0.08395833333333336,0.2433333333333333,0.4155999999940363],[-0.1265625,0.22981481481481486,0.4255999999940343],[-0.1265625,0.22981481481481486,0.44209999999403493],[-0.15031249999999996,0.20685185185185193,0.4685999999940407],[-0.15031249999999996,0.20685185185185193,0.4764999999999944],[-0.1609375,0.23499999999999996,0.4920999999940392],[-0.1609375,0.23499999999999996,0.5088000000119166],[-0.21927083333333333,0.22481481481481477,0.5329999999999941],[-0.21927083333333333,0.22481481481481477,0.5423000000119202],[-0.25062500000000004,0.26222222222222225,0.5590999999940394],[-0.2741666666666667,0.25388888888888894,0.5754999999999981],[-0.28635416666666663,0.21148148148148158,0.5919999999999987],[-0.30531250000000004,0.18870370370370365,0.608699999988076],[-0.2951041666666666,0.21851851851851853,0.6296999999880768],[-0.2951041666666666,0.21851851851851853,0.6423000000119217],[-0.288125,0.23648148148148157,0.6588000000119152],[-0.2690624999999999,0.2505555555555555,0.6754999999999995],[-0.2869791666666667,0.25314814814814823,0.6920000000000002],[-0.22927083333333337,0.20888888888888882,0.7086999999880774],[-0.13937499999999994,0.22555555555555548,0.7304999999999993],[-0.13937499999999994,0.22555555555555548,0.7455999999940346],[-0.14583333333333334,0.2183333333333333,0.7585999999940398],[-0.1734375,0.24740740740740744,0.7755999999940357],[-0.19968750000000005,0.26518518518518525,0.7919999999999945],[-0.17895833333333327,0.25851851851851854,0.8086999999880788],[-0.15822916666666664,0.2518518518518518,0.8254000000059563],[-0.15916666666666662,0.32166666666666677,0.8419999999999987],[-0.15854166666666672,0.4083333333333333,0.8609000000059552],[-0.15854166666666672,0.4083333333333333,0.8778000000119164],[-0.13635416666666664,0.44592592592592584,0.8921999999880796],[-0.18739583333333332,0.41092592592592586,0.908900000005957],[-0.23843749999999997,0.37592592592592594,0.9284000000059578],[-0.20499999999999996,0.387037037037037,0.9436999999880769],[-0.16479166666666673,0.3648148148148148,0.9593000000119218],[-0.12468750000000005,0.3472222222222222,0.9776999999880758],[-0.12541666666666665,0.302962962962963,0.9920999999940392],[-0.12458333333333335,0.2933333333333333,1.0088000000119166],[-0.07385416666666664,0.24722222222222223,1.025500000000001],[-0.05427083333333336,0.18185185185185193,1.0441999999880736],[-0.03770833333333338,0.15351851851851847,1.0608000000119162],[-0.050312499999999954,0.2507407407407407,1.0754999999999981],[-0.02833333333333338,0.294074074074074,1.0920999999940406],[-0.025520833333333333,0.2833333333333333,1.1111999999880737],[-0.024791666666666618,0.275,1.1255999999940371],[0.007395833333333357,0.31574074074074077,1.1421999999880796],[0.03260416666666662,0.3983333333333334,1.158900000005957],[0.046875,0.4366666666666666,1.178199999988074],[0.017083333333333308,0.49166666666666664,1.192099999994035],[0.025416666666666643,0.5205555555555555,1.2089000000059613],[0.017812500000000023,0.6103703703703705,1.229099999994034],[0.059062500000000046,0.5894444444444443,1.2429000000059602],[0.08375000000000009,0.5888888888888889,1.2588000000119166],[0.11520833333333323,0.6196296296296296,1.275500000000001],[0.1478125000000001,0.6572222222222222,1.2964999999999947],[0.10760416666666663,0.5853703703703704,1.311800000011921],[0.075,0.5031481481481482,1.32559999999404],[0.10489583333333338,0.42833333333333323,1.3451999999880755],[0.10062499999999991,0.3725925925925927,1.3615999999940342],[0.09916666666666671,0.3494444444444445,1.3755999999940371],[0.1046875,0.280925925925926,1.3951999999880798],[0.08791666666666677,0.28666666666666657,1.4094000000059594],[0.053125,0.32592592592592595,1.4254999999999995],[0.013437499999999976,0.3014814814814814,1.4445999999940398],[-0.027187500000000024,0.2803703703703703,1.461400000005959],[-0.013645833333333357,0.3194444444444444,1.4758000000119154],[0.0018749999999999527,0.40777777777777785,1.4949000000059556],[-0.03687499999999998,0.4262962962962964,1.5089000000059585],[-0.02822916666666669,0.39296296296296307,1.5255999999940357],[-0.026041666666666668,0.39537037037037037,1.5464999999999947],[-0.026041666666666668,0.39537037037037037,1.5590999999940394],[-0.011041666666666691,0.37222222222222223,1.5758000000119168],[-0.011041666666666691,0.37222222222222223,1.5920999999940406],[0.008645833333333287,0.31666666666666665,1.6116999999880761],[0.025625000000000023,0.30925925925925923,1.6293000000119164],[0.020833333333333332,0.2788888888888889,1.6445000000000007],[0.004375000000000047,0.24277777777777781,1.6648000000119154],[0.004375000000000047,0.24277777777777781,1.6755999999940343],[-0.010208333333333286,0.1596296296296297,1.6923000000119188],[-0.01395833333333331,0.07555555555555547,1.7089000000059613],[-0.016562499999999977,0.06351851851851843,1.7286999999880734],[-0.036354166666666646,0.03296296296296288,1.7424000000059578],[-0.04874999999999995,-0.014629629629629588,1.7590000000000003],[-0.07999999999999995,-0.05740740740740741,1.7813000000119175],[-0.090625,-0.038703703703703664,1.7955999999940389],[-0.10395833333333329,-0.09314814814814817,1.809400000005958],[-0.10020833333333339,-0.0883333333333333,1.8254999999999981],[-0.04833333333333331,-0.04296296296296305,1.8446999999880802],[-0.035416666666666666,0.025,1.8609000000059552],[-0.029062499999999977,0.05981481481481473,1.8769999999999953],[-0.027083333333333334,0.07092592592592584,1.8920999999940378],[-0.012187500000000047,0.09055555555555551,1.91130000001192],[0.00916666666666662,0.11722222222222214,1.9254000000059577],[0.04520833333333331,0.19407407407407398,1.9423000000119188],[0.06135416666666664,0.2161111111111112,1.9659000000059592],[0.06135416666666664,0.2161111111111112,1.9758000000119154],[0.05593750000000005,0.21277777777777773,1.9920999999940392],[0.059583333333333384,0.1866666666666666,2.0094999999999956],[0.05364583333333333,0.11277777777777774,2.02919999998808],[0.05499999999999995,0.1124074074074075,2.043900000005955],[0.05010416666666669,0.09685185185185177,2.059300000011916],[0.04864583333333338,0.08759259259259251,2.07559999999404],[0.05291666666666662,0.0868518518518518,2.095599999994036],[0.014791666666666713,0.07574074074074069,2.109499999999997],[-0.02687499999999995,0.041111111111111195,2.1254000000059605],[-0.06749999999999995,0.009629629629629714,2.1445999999940355],[-0.058333333333333334,0.010185185185185186,2.161199999988078],[-0.04854166666666669,0.01777777777777782,2.1794999999999973],[-0.04854166666666669,0.01777777777777782,2.201400000005961],[-0.06177083333333329,0.03481481481481473,2.2088000000119195],[-0.049270833333333285,0.025185185185185227,2.229199999988076],[-0.057604166666666616,-0.015555555555555513,2.242300000011916],[-0.06499999999999997,-0.03888888888888889,2.261499999999998],[-0.07052083333333338,-0.05907407407407403,2.275500000000001],[-0.04583333333333333,-0.09666666666666665,2.292199999988078],[-0.03187500000000002,-0.11425925925925924,2.310699999988074],[-0.01260416666666669,-0.1588888888888889,2.32559999999404],[-0.00927083333333331,-0.17518518518518522,2.3421999999880754],[0.009895833333333333,-0.18277777777777776,2.3629000000059577],[0.006458333333333381,-0.19740740740740745,2.3785999999940373],[-0.01583333333333338,-0.23537037037037042,2.3921999999880796],[-0.019166666666666644,-0.23962962962962958,2.4109999999999943],[-0.005416666666666714,-0.25629629629629624,2.425699999988076],[0.019166666666666644,-0.2542592592592593,2.442099999994035],[0.028541666666666642,-0.23277777777777775,2.458999999999996],[0.05583333333333336,-0.23703703703703705,2.476099999994034],[0.07604166666666666,-0.22407407407407406,2.492099999994039],[0.07760416666666667,-0.19703703703703698,2.5088000000119166],[0.049270833333333285,-0.18222222222222217,2.525400000005959],[0.07458333333333324,-0.1205555555555556,2.543999999999997],[0.07458333333333324,-0.1205555555555556,2.558800000011921],[0.10166666666666657,-0.04611111111111107,2.5754000000059563],[0.10166666666666657,-0.04611111111111107,2.591900000005957],[0.15750000000000006,-0.009999999999999959,2.608699999988076],[0.19729166666666675,0.04759259259259268,2.6285999999940373],[0.2085416666666667,0.06111111111111111,2.6420999999940378],[0.2085416666666667,0.06111111111111111,2.658800000011915],[0.22302083333333325,0.072037037037037,2.6754000000059577],[0.22427083333333328,0.10222222222222231,2.692099999994035],[0.20427083333333323,0.12666666666666662,2.7088000000119195],[0.19604166666666673,0.1270370370370371,2.7279999999999944],[0.21739583333333337,0.1270370370370371,2.7419999999999973],[0.20354166666666676,0.075,2.7589000000059585],[0.1955208333333334,0.0301851851851851,2.7753000000119172],[0.16020833333333329,0.015555555555555513,2.7950999999940365],[0.1234375,-0.027962962962963005,2.8113000000119186],[0.10104166666666667,-0.0477777777777777,2.8253000000119215],[0.10322916666666657,-0.07407407407407407,2.8419999999999987],[0.10322916666666657,-0.07407407407407407,2.858699999988076],[0.10510416666666676,-0.12000000000000002,2.8754000000059605],[0.09395833333333338,-0.14833333333333337,2.891999999999996],[0.09166666666666666,-0.1661111111111111,2.908699999988073],[0.07697916666666677,-0.1772222222222222,2.925199999988074],[0.07322916666666662,-0.1925925925925926,2.942300000011919],[0.06822916666666666,-0.22629629629629627,2.95919999998808],[0.07677083333333339,-0.285,2.975400000005955],[0.08572916666666662,-0.32388888888888884,2.9919000000059555],[0.0655208333333333,-0.35703703703703704,3.0086999999880746],[0.02822916666666669,-0.3224074074074075,3.0258000000119196],[0.006666666666666643,-0.2633333333333333,3.042199999988078],[0.006666666666666643,-0.2633333333333333,3.058800000011921],[0.017812500000000023,-0.18277777777777776,3.0754000000059563],[0.010520833333333358,-0.21574074074074073,3.0920999999940406],[0.004999999999999952,-0.2631481481481482,3.108699999988076],[0.0003124999999999526,-0.25574074074074077,3.1259999999999977],[-0.0020833333333333333,-0.25277777777777777,3.1423000000119217],[-0.0020833333333333333,-0.25277777777777777,3.158699999988073],[-0.017812500000000023,-0.25148148148148153,3.1754000000059577],[-0.04541666666666669,-0.21944444444444444,3.1956999999880793],[-0.028854166666666715,-0.1675925925925926,3.2085999999940356],[-0.012812499999999952,-0.17907407407407405,3.22530000001192],[-0.021875,-0.22259259259259256,3.242300000011916],[-0.021875,-0.22259259259259256,3.2586999999880746],[-0.026041666666666668,-0.30037037037037034,3.275400000005959],[-0.024895833333333308,-0.32462962962962966,3.292199999988078],[-0.02020833333333331,-0.30407407407407405,3.308599999994037],[-0.0328125,-0.31203703703703706,3.3278000000119192],[-0.052083333333333336,-0.34074074074074073,3.3423000000119174],[-0.058541666666666714,-0.3362962962962963,3.35890000000596],[-0.04093749999999995,-0.3640740740740741,3.3778000000119164],[-0.026145833333333358,-0.4255555555555556,3.3960999999940356],[-0.03572916666666662,-0.4624074074074074,3.4115999999940385],[-0.03989583333333328,-0.47240740740740744,3.4286999999880763],[-0.03947916666666664,-0.47759259259259257,3.4425999999940373],[-0.03947916666666664,-0.47759259259259257,3.462300000011922],[-0.03781249999999995,-0.41703703703703704,3.47530000001192],[-0.025729166666666713,-0.35851851851851857,3.4928000000119184],[0.03875000000000005,-0.2844444444444445,3.5113000000119214],[0.10322916666666657,-0.1824074074074074,3.5253000000119172],[0.15510416666666677,-0.07925925925925928,3.5456999999880736],[0.17218749999999997,0.011111111111111112,3.563900000005958]]","[0.0003000000119186552,0.036999999999999034,0.0449999999999946,0.06440000000596058,0.07549999999999812,0.09219999998807538,0.11140000000595762,0.12780000001191638,0.14630000001191945,0.1634999999999991,0.1755999999940343,0.1921999999880768,0.21300000000000097,0.22859999999403868,0.2446999999880788,0.26340000000595865,0.2816999999880778,0.2919999999999945,0.30890000000595563,0.3254999999999981,0.34780000001191524,0.35899999999999466,0.375699999988079,0.3920999999940378,0.4155999999940363,0.4255999999940343,0.44209999999403493,0.4685999999940407,0.4764999999999944,0.4920999999940392,0.5088000000119166,0.5329999999999941,0.5423000000119202,0.5590999999940394,0.5754999999999981,0.5919999999999987,0.608699999988076,0.6296999999880768,0.6423000000119217,0.6588000000119152,0.6754999999999995,0.6920000000000002,0.7086999999880774,0.7304999999999993,0.7455999999940346,0.7585999999940398,0.7755999999940357,0.7919999999999945,0.8086999999880788,0.8254000000059563,0.8419999999999987,0.8609000000059552,0.8778000000119164,0.8921999999880796,0.908900000005957,0.9284000000059578,0.9436999999880769,0.9593000000119218,0.9776999999880758,0.9920999999940392,1.0088000000119166,1.025500000000001,1.0441999999880736,1.0608000000119162,1.0754999999999981,1.0920999999940406,1.1111999999880737,1.1255999999940371,1.1421999999880796,1.158900000005957,1.178199999988074,1.192099999994035,1.2089000000059613,1.229099999994034,1.2429000000059602,1.2588000000119166,1.275500000000001,1.2964999999999947,1.311800000011921,1.32559999999404,1.3451999999880755,1.3615999999940342,1.3755999999940371,1.3951999999880798,1.4094000000059594,1.4254999999999995,1.4445999999940398,1.461400000005959,1.4758000000119154,1.4949000000059556,1.5089000000059585,1.5255999999940357,1.5464999999999947,1.5590999999940394,1.5758000000119168,1.5920999999940406,1.6116999999880761,1.6293000000119164,1.6445000000000007,1.6648000000119154,1.6755999999940343,1.6923000000119188,1.7089000000059613,1.7286999999880734,1.7424000000059578,1.7590000000000003,1.7813000000119175,1.7955999999940389,1.809400000005958,1.8254999999999981,1.8446999999880802,1.8609000000059552,1.8769999999999953,1.8920999999940378,1.91130000001192,1.9254000000059577,1.9423000000119188,1.9659000000059592,1.9758000000119154,1.9920999999940392,2.0094999999999956,2.02919999998808,2.043900000005955,2.059300000011916,2.07559999999404,2.095599999994036,2.109499999999997,2.1254000000059605,2.1445999999940355,2.161199999988078,2.1794999999999973,2.201400000005961,2.2088000000119195,2.229199999988076,2.242300000011916,2.261499999999998,2.275500000000001,2.292199999988078,2.310699999988074,2.32559999999404,2.3421999999880754,2.3629000000059577,2.3785999999940373,2.3921999999880796,2.4109999999999943,2.425699999988076,2.442099999994035,2.458999999999996,2.476099999994034,2.492099999994039,2.5088000000119166,2.525400000005959,2.543999999999997,2.558800000011921,2.5754000000059563,2.591900000005957,2.608699999988076,2.6285999999940373,2.6420999999940378,2.658800000011915,2.6754000000059577,2.692099999994035,2.7088000000119195,2.7279999999999944,2.7419999999999973,2.7589000000059585,2.7753000000119172,2.7950999999940365,2.8113000000119186,2.8253000000119215,2.8419999999999987,2.858699999988076,2.8754000000059605,2.891999999999996,2.908699999988073,2.925199999988074,2.942300000011919,2.95919999998808,2.975400000005955,2.9919000000059555,3.0086999999880746,3.0258000000119196,3.042199999988078,3.058800000011921,3.0754000000059563,3.0920999999940406,3.108699999988076,3.1259999999999977,3.1423000000119217,3.158699999988073,3.1754000000059577,3.1956999999880793,3.2085999999940356,3.22530000001192,3.242300000011916,3.2586999999880746,3.275400000005959,3.292199999988078,3.308599999994037,3.3278000000119192,3.3423000000119174,3.35890000000596,3.3778000000119164,3.3960999999940356,3.4115999999940385,3.4286999999880763,3.4425999999940373,3.462300000011922,3.47530000001192,3.4928000000119184,3.5113000000119214,3.5253000000119172,3.5456999999880736,3.563900000005958]","[1733381458050,1733381458079,1733381458087,1733381458106,1733381458117,1733381458134,1733381458153,1733381458170,1733381458188,1733381458206,1733381458218,1733381458234,1733381458255,1733381458271,1733381458287,1733381458305,1733381458324,1733381458334,1733381458351,1733381458368,1733381458390,1733381458401,1733381458418,1733381458434,1733381458458,1733381458468,1733381458484,1733381458511,1733381458518,1733381458534,1733381458551,1733381458575,1733381458584,1733381458601,1733381458618,1733381458634,1733381458651,1733381458672,1733381458684,1733381458701,1733381458717,1733381458734,1733381458751,1733381458773,1733381458788,1733381458801,1733381458818,1733381458834,1733381458851,1733381458867,1733381458884,1733381458903,1733381458920,1733381458934,1733381458951,1733381458970,1733381458988,1733381459003,1733381459022,1733381459036,1733381459053,1733381459069,1733381459088,1733381459105,1733381459120,1733381459136,1733381459155,1733381459170,1733381459186,1733381459203,1733381459222,1733381459236,1733381459253,1733381459273,1733381459287,1733381459303,1733381459319,1733381459340,1733381459356,1733381459370,1733381459389,1733381459406,1733381459420,1733381459439,1733381459453,1733381459470,1733381459489,1733381459505,1733381459520,1733381459539,1733381459553,1733381459570,1733381459590,1733381459603,1733381459620,1733381459636,1733381459656,1733381459673,1733381459688,1733381459709,1733381459719,1733381459736,1733381459753,1733381459773,1733381459786,1733381459803,1733381459825,1733381459840,1733381459853,1733381459869,1733381459889,1733381459905,1733381459921,1733381459936,1733381459955,1733381459969,1733381459986,1733381460010,1733381460020,1733381460036,1733381460053,1733381460073,1733381460088,1733381460103,1733381460120,1733381460139,1733381460153,1733381460169,1733381460189,1733381460205,1733381460224,1733381460245,1733381460253,1733381460273,1733381460286,1733381460305,1733381460319,1733381460336,1733381460355,1733381460370,1733381460386,1733381460407,1733381460423,1733381460436,1733381460455,1733381460470,1733381460486,1733381460503,1733381460520,1733381460536,1733381460553,1733381460569,1733381460588,1733381460603,1733381460619,1733381460636,1733381460653,1733381460672,1733381460686,1733381460703,1733381460719,1733381460736,1733381460753,1733381460772,1733381460786,1733381460803,1733381460819,1733381460839,1733381460855,1733381460869,1733381460886,1733381460903,1733381460919,1733381460936,1733381460953,1733381460969,1733381460986,1733381461003,1733381461019,1733381461036,1733381461053,1733381461070,1733381461086,1733381461103,1733381461119,1733381461136,1733381461153,1733381461170,1733381461186,1733381461203,1733381461219,1733381461240,1733381461253,1733381461269,1733381461286,1733381461303,1733381461319,1733381461336,1733381461353,1733381461372,1733381461386,1733381461403,1733381461422,1733381461440,1733381461455,1733381461473,1733381461487,1733381461506,1733381461519,1733381461537,1733381461555,1733381461569,1733381461590,1733381461608]","[[545.2,805.3],[545.2,805.3],[569.7,802.7],[594,807.9],[594,807.9],[640,822.9],[688.9,835.4],[715.7,853.5],[745.3,854.8],[772.8,824.9],[772.8,824.9],[801.6,801.1],[854.9,805.1],[886.5,816.7],[905,798],[929.8,772.8],[941.6,748],[941.6,748],[939.7,734.6],[937.8,721.2],[937.8,721.2],[914.1,685.8],[914.1,685.8],[879.4,671.4],[879.4,671.4],[838.5,664.1],[838.5,664.1],[815.7,651.7],[815.7,651.7],[805.5,666.9],[805.5,666.9],[749.5,661.4],[749.5,661.4],[719.4,681.6],[696.8,677.1],[685.1,654.2],[666.9,641.9],[676.7,658],[676.7,658],[683.4,667.7],[701.7,675.3],[684.5,676.7],[739.9,652.8],[826.2,661.8],[826.2,661.8],[820,657.9],[793.5,673.6],[768.3,683.2],[788.2,679.6],[808.1,676],[807.2,713.7],[807.8,760.5],[807.8,760.5],[829.1,780.8],[780.1,761.9],[731.1,743],[763.2,749],[801.8,737],[840.3,727.5],[839.6,703.6],[840.4,698.4],[889.1,673.5],[907.9,638.2],[923.8,622.9],[911.7,675.4],[932.8,698.8],[935.5,693],[936.2,688.5],[967.1,710.5],[991.3,755.1],[1005,775.8],[976.4,805.5],[984.4,821.1],[977.1,869.6],[1016.7,858.3],[1040.4,858],[1070.6,874.6],[1101.9,894.9],[1063.3,856.1],[1032,811.7],[1060.7,771.3],[1056.6,741.2],[1055.2,728.7],[1060.5,691.7],[1044.4,694.8],[1011,716],[972.9,702.8],[933.9,691.4],[946.9,712.5],[961.8,760.2],[924.6,770.2],[932.9,752.2],[935,753.5],[935,753.5],[949.4,741],[949.4,741],[968.3,711],[984.6,707],[980,690.6],[964.2,671.1],[964.2,671.1],[950.2,626.2],[946.6,580.8],[944.1,574.3],[925.1,557.8],[913.2,532.1],[883.2,509],[873,519.1],[860.2,489.7],[863.8,492.3],[913.6,516.8],[926,553.5],[932.1,572.3],[934,578.3],[948.3,588.9],[968.8,603.3],[1003.4,644.8],[1018.9,656.7],[1018.9,656.7],[1013.7,654.9],[1017.2,640.8],[1011.5,600.9],[1012.8,600.7],[1008.1,592.3],[1006.7,587.3],[1010.8,586.9],[974.2,580.9],[934.2,562.2],[895.2,545.2],[904,545.5],[913.4,549.6],[913.4,549.6],[900.7,558.8],[912.7,553.6],[904.7,531.6],[897.6,519],[892.3,508.1],[916,487.8],[929.4,478.3],[947.9,454.2],[951.1,445.4],[969.5,441.3],[966.2,433.4],[944.8,412.9],[941.6,410.6],[954.8,401.6],[978.4,402.7],[987.4,414.3],[1013.6,412],[1033,419],[1034.5,433.6],[1007.3,441.6],[1031.6,474.9],[1031.6,474.9],[1057.6,515.1],[1057.6,515.1],[1111.2,534.6],[1149.4,565.7],[1160.2,573],[1160.2,573],[1174.1,578.9],[1175.3,595.2],[1156.1,608.4],[1148.2,608.6],[1168.7,608.6],[1155.4,580.5],[1147.7,556.3],[1113.8,548.4],[1078.5,524.9],[1057,514.2],[1059.1,500],[1059.1,500],[1060.9,475.2],[1050.2,459.9],[1048,450.3],[1033.9,444.3],[1030.3,436],[1025.5,417.8],[1033.7,386.1],[1042.3,365.1],[1022.9,347.2],[987.1,365.9],[966.4,397.8],[966.4,397.8],[977.1,441.3],[970.1,423.5],[964.8,397.9],[960.3,401.9],[958,403.5],[958,403.5],[942.9,404.2],[916.4,421.5],[932.3,449.5],[947.7,443.3],[939,419.8],[939,419.8],[935,377.8],[936.1,364.7],[940.6,375.8],[928.5,371.5],[910,356],[903.8,358.4],[920.7,343.4],[934.9,310.2],[925.7,290.3],[921.7,284.9],[922.1,282.1],[922.1,282.1],[923.7,314.8],[935.3,346.4],[997.2,386.4],[1059.1,441.5],[1108.9,497.2],[1125.3,546]]","[0,0.37864299999999995]","[0.37864299999999995,0.37864299999999995]","[-0.37864299999999995,0]","[-0.37864299999999995,-0.37864299999999995]","[0,0]","[0.37864299999999995,0]","[0,-0.37864299999999995]","[0.37864299999999995,-0.37864299999999995]",0,0,0,0,1,4,Laptop,11,5,13,9
,,,,,,,,,,,,,,,,,,,44,001,2024-12-05_14h50.14.568,Attention_exp_legacy,2023.1.0,Win32,59.88023952,,,,,,,,,,,[0.44375],[0.37407407407407406],[1],[0],[0],[1.8124000000059652],"[""Option2_label""]",Option2_label,2,2.8301,"[[0.019791666666666666,0.31851851851851853],[0.019791666666666666,0.31666666666666665],[0.019791666666666666,0.31666666666666665],[0.019791666666666666,0.31666666666666665],[0.019791666666666666,0.31666666666666665],[0.019791666666666666,0.31666666666666665],[0.019791666666666666,0.3148148148148148],[0.019791666666666666,0.31296296296296294],[0.019791666666666666,0.31296296296296294],[0.019791666666666666,0.31296296296296294],[0.019791666666666666,0.31296296296296294],[0.019791666666666666,0.31296296296296294],[0.019791666666666666,0.3111111111111111],[0.019791666666666666,0.3111111111111111],[0.019791666666666666,0.3111111111111111],[0.019791666666666666,0.30925925925925923],[0.019791666666666666,0.30925925925925923],[0.019791666666666666,0.30925925925925923],[0.019791666666666666,0.3074074074074074],[0.019791666666666666,0.3074074074074074],[0.019791666666666666,0.3074074074074074],[0.019791666666666666,0.3074074074074074],[0.019791666666666666,0.3074074074074074],[0.019791666666666666,0.3074074074074074],[0.019791666666666666,0.3074074074074074],[0.019791666666666666,0.3074074074074074],[0.019791666666666666,0.3055555555555556],[0.019791666666666666,0.3055555555555556],[0.019791666666666666,0.3055555555555556],[0.019791666666666666,0.3055555555555556],[0.019791666666666666,0.3037037037037037],[0.019791666666666666,0.3037037037037037],[0.019791666666666666,0.3037037037037037],[0.019791666666666666,0.3037037037037037],[0.019791666666666666,0.3037037037037037],[0.019791666666666666,0.3037037037037037],[0.019791666666666666,0.3037037037037037],[0.019791666666666666,0.3037037037037037],[0.019791666666666666,0.3037037037037037],[0.019791666666666666,0.3037037037037037],[0.019791666666666666,0.3037037037037037],[0.019791666666666666,0.3037037037037037],[0.019791666666666666,0.3037037037037037],[0.019791666666666666,0.3037037037037037],[0.019791666666666666,0.3037037037037037],[0.019791666666666666,0.3037037037037037],[0.019791666666666666,0.3037037037037037],[0.019791666666666666,0.3037037037037037],[0.019791666666666666,0.3037037037037037],[0.019791666666666666,0.3037037037037037],[0.019791666666666666,0.3037037037037037],[0.019791666666666666,0.30185185185185187],[0.019791666666666666,0.30185185185185187],[0.019791666666666666,0.30185185185185187],[0.019791666666666666,0.30185185185185187],[0.019791666666666666,0.30185185185185187],[0.019791666666666666,0.30185185185185187],[0.019791666666666666,0.30185185185185187],[0.019791666666666666,0.30185185185185187],[0.019791666666666666,0.30185185185185187],[0.019791666666666666,0.30185185185185187],[0.019791666666666666,0.30185185185185187],[0.019791666666666666,0.30185185185185187],[0.019791666666666666,0.30185185185185187],[0.019791666666666666,0.30185185185185187],[0.019791666666666666,0.30185185185185187],[0.019791666666666666,0.30185185185185187],[0.019791666666666666,0.30185185185185187],[0.019791666666666666,0.30185185185185187],[0.019791666666666666,0.30185185185185187],[0.019791666666666666,0.30185185185185187],[0.019791666666666666,0.30185185185185187],[0.019791666666666666,0.30185185185185187],[0.019791666666666666,0.30185185185185187],[0.019791666666666666,0.30185185185185187],[0.019791666666666666,0.30185185185185187],[0.019791666666666666,0.30185185185185187],[0.019791666666666666,0.30185185185185187],[0.019791666666666666,0.30185185185185187],[0.019791666666666666,0.30185185185185187],[0.019791666666666666,0.30185185185185187],[0.019791666666666666,0.30185185185185187],[0.019791666666666666,0.30185185185185187],[0.019791666666666666,0.30185185185185187],[0.019791666666666666,0.30185185185185187],[0.019791666666666666,0.30185185185185187],[0.019791666666666666,0.3],[0.028125,0.30185185185185187],[0.04791666666666667,0.3074074074074074],[0.075,0.3148148148148148],[0.11354166666666667,0.32592592592592595],[0.16770833333333332,0.3388888888888889],[0.23020833333333332,0.3537037037037037],[0.2708333333333333,0.36666666666666664],[0.296875,0.37037037037037035],[0.31354166666666666,0.37407407407407406],[0.33645833333333336,0.37407407407407406],[0.353125,0.37407407407407406],[0.3697916666666667,0.37407407407407406],[0.38333333333333336,0.37407407407407406],[0.39479166666666665,0.37407407407407406],[0.40520833333333334,0.37407407407407406],[0.41875,0.37407407407407406],[0.43020833333333336,0.37407407407407406],[0.43854166666666666,0.37407407407407406],[0.44375,0.37407407407407406],[0.44375,0.37407407407407406],[0.44375,0.37407407407407406],[0.44375,0.37407407407407406],[0.44375,0.37407407407407406],[0.44479166666666664,0.37407407407407406],[0.44479166666666664,0.37407407407407406],[0.44479166666666664,0.37407407407407406],[0.44479166666666664,0.37407407407407406],[0.44479166666666664,0.37407407407407406],[0.44479166666666664,0.37407407407407406],[0.44479166666666664,0.37407407407407406],[0.44479166666666664,0.37407407407407406],[0.44479166666666664,0.37407407407407406],[0.44479166666666664,0.37407407407407406],[0.44479166666666664,0.37407407407407406],[0.44479166666666664,0.37407407407407406],[0.44479166666666664,0.37407407407407406],[0.44479166666666664,0.37407407407407406],[0.44479166666666664,0.37407407407407406],[0.44479166666666664,0.37407407407407406],[0.44479166666666664,0.37407407407407406],[0.44479166666666664,0.37407407407407406],[0.44479166666666664,0.37407407407407406],[0.44479166666666664,0.37407407407407406],[0.44479166666666664,0.37407407407407406],[0.44479166666666664,0.37407407407407406],[0.44479166666666664,0.37407407407407406],[0.44479166666666664,0.37407407407407406],[0.44479166666666664,0.37407407407407406],[0.44479166666666664,0.37407407407407406],[0.44479166666666664,0.37407407407407406],[0.44479166666666664,0.37407407407407406],[0.44479166666666664,0.37407407407407406],[0.44479166666666664,0.37407407407407406],[0.44479166666666664,0.37407407407407406],[0.44479166666666664,0.37407407407407406],[0.44479166666666664,0.37407407407407406],[0.44479166666666664,0.37407407407407406],[0.44479166666666664,0.37407407407407406],[0.44479166666666664,0.37407407407407406],[0.44479166666666664,0.37407407407407406],[0.44479166666666664,0.37407407407407406],[0.44479166666666664,0.37407407407407406],[0.44479166666666664,0.37407407407407406],[0.44479166666666664,0.37407407407407406],[0.44479166666666664,0.37407407407407406],[0.44479166666666664,0.37407407407407406],[0.44479166666666664,0.37407407407407406],[0.44375,0.37407407407407406],[0.44375,0.37407407407407406],[0.44375,0.37407407407407406],[0.4427083333333333,0.37407407407407406],[0.4427083333333333,0.37407407407407406],[0.4427083333333333,0.37407407407407406],[0.44166666666666665,0.37222222222222223],[0.44166666666666665,0.37222222222222223],[0.44166666666666665,0.37222222222222223],[0.44166666666666665,0.37222222222222223],[0.44166666666666665,0.37222222222222223],[0.44166666666666665,0.37222222222222223],[0.440625,0.37037037037037035],[0.440625,0.37037037037037035],[0.440625,0.37037037037037035],[0.440625,0.37037037037037035],[0.440625,0.37037037037037035]]","[[0.0984375,-0.06481481481481481],[0.08322916666666676,-0.09592592592592594],[0.08958333333333333,-0.08666666666666668],[0.0990624999999999,-0.07555555555555557],[0.11666666666666667,-0.009259259259259259],[0.11166666666666672,0.0294444444444444],[0.09739583333333333,0.025],[0.07083333333333333,-0.07185185185185188],[-0.01854166666666662,-0.1527777777777778],[-0.01854166666666662,-0.1527777777777778],[-0.01583333333333338,-0.11555555555555551],[0.029166666666666667,-0.03814814814814819],[0.07354166666666657,0.072037037037037],[0.08739583333333342,0.032777777777777864],[0.10125000000000005,-0.006481481481481481],[0.14416666666666675,-0.04388888888888897],[0.15270833333333325,-0.08962962962962959],[0.21979166666666666,-0.07222222222222222],[0.25416666666666665,-0.011481481481481566],[0.30499999999999994,0.020740740740740823],[0.3081249999999999,0.030000000000000086],[0.30197916666666674,0.047037037037036995],[0.2985416666666666,0.06444444444444436],[0.278125,0.1485185185185186],[0.25760416666666663,0.24777777777777768],[0.25760416666666663,0.24777777777777768],[0.23156249999999995,0.33777777777777773],[0.24187500000000003,0.3257407407407407],[0.22020833333333342,0.2301851851851851],[0.21520833333333325,0.13666666666666658],[0.21572916666666658,0.06962962962962967],[0.21572916666666658,0.06962962962962967],[0.17833333333333337,-0.014074074074074116],[0.16260416666666658,-0.08185185185185183],[0.13781249999999995,-0.1714814814814815],[0.13156249999999994,-0.24462962962962967],[0.12062499999999995,-0.2922222222222222],[0.10968749999999995,-0.3398148148148148],[0.04666666666666662,-0.2918518518518519],[-0.015625,-0.25833333333333336],[-0.06656249999999998,-0.18425925925925926],[-0.12062499999999995,-0.12981481481481486],[-0.13031250000000003,-0.0816666666666667],[-0.1404166666666666,-0.06648148148148143],[-0.14427083333333332,-0.0257407407407407],[-0.1454166666666667,0.009999999999999959],[-0.13635416666666664,0.000925925925925926],[-0.12729166666666672,-0.008148148148148106],[-0.12729166666666672,-0.008148148148148106],[-0.08739583333333331,0.03351851851851856],[-0.09937499999999998,0.06648148148148143],[-0.11135416666666664,0.06666666666666667],[-0.08489583333333334,0.03037037037037033],[-0.08958333333333333,0.05092592592592592],[-0.1388541666666666,0.08277777777777787],[-0.17020833333333332,0.09499999999999992],[-0.23374999999999999,0.08592592592592588],[-0.30270833333333336,0.08092592592592601],[-0.37124999999999997,0.06462962962962959],[-0.4055208333333333,-0.034074074074074034],[-0.42468750000000005,-0.026111111111111154],[-0.4522916666666667,-0.03981481481481482],[-0.4952083333333333,-0.03185185185185194],[-0.5057291666666667,-0.046296296296296294],[-0.5013541666666667,-0.059999999999999956],[-0.5141666666666667,-0.09092592592592597],[-0.49135416666666665,-0.08074074074074078],[-0.49041666666666667,-0.10314814814814813],[-0.515,-0.10981481481481484],[-0.5298958333333333,-0.08925925925925923],[-0.5545833333333333,-0.07555555555555557],[-0.5671875,-0.08111111111111113],[-0.5671875,-0.08111111111111113],[-0.5841666666666666,-0.02962962962962963],[-0.5223958333333333,0.010925925925925884],[-0.4509375,0.0742592592592593],[-0.39093749999999994,0.14944444444444452],[-0.33708333333333335,0.20981481481481473],[-0.2612499999999999,0.3022222222222223],[-0.16031249999999997,0.39018518518518525],[-0.04083333333333338,0.4507407407407407],[0.10354166666666677,0.459074074074074],[0.22625000000000003,0.48814814814814816],[0.3172916666666666,0.42611111111111116],[0.27291666666666664,0.47851851851851845],[0.2741666666666667,0.40981481481481474],[0.2921875,0.322037037037037],[0.28916666666666657,0.21277777777777773],[0.290625,0.13796296296296295],[0.2920833333333334,0.06314814814814819],[0.240625,-0.03351851851851856],[0.19927083333333329,-0.12925925925925927],[0.1650000000000001,-0.20129629629629628],[0.14958333333333323,-0.21944444444444444],[0.1868750000000001,-0.36574074074074076],[0.17802083333333343,-0.41574074074074074],[0.1554166666666667,-0.4888888888888889],[0.16281249999999994,-0.5225925925925926],[0.15510416666666677,-0.5444444444444444],[0.17062499999999994,-0.5612962962962963],[0.21145833333333333,-0.4692592592592592],[0.2421875,-0.3781481481481481],[0.26062500000000005,-0.31351851851851853],[0.2794791666666666,-0.3153703703703704],[0.31520833333333326,-0.2581481481481481],[0.35093750000000007,-0.20092592592592592],[0.38166666666666677,-0.1257407407407407],[0.421875,-0.10055555555555558],[0.4305208333333333,-0.08314814814814811],[0.4305208333333333,-0.08314814814814811],[0.42218749999999994,-0.075],[0.38270833333333343,-0.08611111111111111],[0.35437500000000005,-0.11444444444444446],[0.3408333333333334,-0.14148148148148143],[0.3085416666666667,-0.12777777777777777],[0.2982291666666666,-0.16222222222222227],[0.27614583333333326,-0.17611111111111116],[0.26749999999999996,-0.17759259259259255],[0.2638541666666666,-0.152962962962963],[0.30229166666666674,-0.16629629629629633],[0.31979166666666664,-0.17555555555555558],[0.35281250000000003,-0.2059259259259259],[0.37374999999999997,-0.20388888888888893],[0.38937499999999997,-0.22629629629629627],[0.39906249999999993,-0.20907407407407402],[0.38333333333333336,-0.13648148148148145],[0.378125,-0.11796296296296294],[0.35604166666666665,-0.15722222222222218],[0.2991666666666667,-0.15],[0.2365624999999999,-0.13870370370370366],[0.19479166666666667,-0.11648148148148144],[0.15302083333333344,-0.09425925925925922],[0.12854166666666675,-0.09722222222222222],[0.12854166666666675,-0.09722222222222222],[0.10979166666666676,-0.09537037037037037],[0.09770833333333329,-0.1051851851851852],[0.09375,-0.19018518518518515],[0.09104166666666676,-0.24166666666666667],[0.07802083333333343,-0.23851851851851855],[0.0875,-0.24574074074074073],[0.10270833333333323,-0.2759259259259259],[0.11177083333333329,-0.3168518518518519],[0.12354166666666658,-0.3772222222222222],[0.11895833333333337,-0.4275925925925925],[0.12999999999999995,-0.4361111111111111],[0.12999999999999995,-0.4361111111111111],[0.15031249999999996,-0.45870370370370367],[0.134375,-0.4759259259259259],[0.16614583333333333,-0.5248148148148147],[0.21770833333333334,-0.5842592592592593],[0.2415625000000001,-0.6109259259259259],[0.26541666666666663,-0.6187037037037038],[0.28843750000000007,-0.6659259259259259],[0.31197916666666664,-0.6775925925925925],[0.3419791666666666,-0.6512962962962963],[0.3446875000000001,-0.6398148148148148],[0.3446875000000001,-0.6398148148148148],[0.3472916666666668,-0.6274074074074074],[0.4006249999999999,-0.5401851851851852],[0.3650000000000001,-0.4281481481481481],[0.3615624999999999,-0.31074074074074076],[0.3845833333333334,-0.2683333333333333],[0.4071875000000001,-0.24981481481481477],[0.4132291666666667,-0.19018518518518515],[0.3921875,-0.1527777777777778],[0.3646874999999999,-0.15333333333333335],[0.3646874999999999,-0.15333333333333335],[0.37687499999999996,-0.1544444444444444],[0.38958333333333334,-0.17555555555555558],[0.38958333333333334,-0.17555555555555558],[0.3736458333333334,-0.24666666666666665]]","[[0.0984375,-0.06481481481481481,0.0000999999940418661],[0.08322916666666676,-0.09592592592592594,0.01780000001191695],[0.08958333333333333,-0.08666666666666668,0.031900000005961715],[0.0990624999999999,-0.07555555555555557,0.04940000000596001],[0.11666666666666667,-0.009259259259259259,0.06519999998808146],[0.11166666666666672,0.0294444444444444,0.08259999999403789],[0.09739583333333333,0.025,0.10030000001192008],[0.07083333333333333,-0.07185185185185188,0.11430000001192298],[-0.01854166666666662,-0.1527777777777778,0.13469999998807936],[-0.01854166666666662,-0.1527777777777778,0.1469000000059566],[-0.01583333333333338,-0.11555555555555551,0.16380000001191775],[0.029166666666666667,-0.03814814814814819,0.18330000001191848],[0.07354166666666657,0.072037037037037,0.2015000000000029],[0.08739583333333342,0.032777777777777864,0.21799999999999642],[0.10125000000000005,-0.006481481481481481,0.2334000000059575],[0.14416666666666675,-0.04388888888888897,0.2511999999880814],[0.15270833333333325,-0.08962962962962959,0.26599999999999824],[0.21979166666666666,-0.07222222222222222,0.2819000000059617],[0.25416666666666665,-0.011481481481481566,0.2970999999940389],[0.30499999999999994,0.020740740740740823,0.3134000000059629],[0.3081249999999999,0.030000000000000086,0.33009999999404016],[0.30197916666666674,0.047037037037036995,0.3468000000119176],[0.2985416666666666,0.06444444444444436,0.36350000000000193],[0.278125,0.1485185185185186,0.38090000000595836],[0.25760416666666663,0.24777777777777768,0.39919999998807754],[0.25760416666666663,0.24777777777777768,0.4134000000059572],[0.23156249999999995,0.33777777777777773,0.43299999999999983],[0.24187500000000003,0.3257407407407407,0.4475999999940399],[0.22020833333333342,0.2301851851851851,0.4635999999940381],[0.21520833333333325,0.13666666666666658,0.4834000000059575],[0.21572916666666658,0.06962962962962967,0.5005000000000024],[0.21572916666666658,0.06962962962962967,0.5134000000059586],[0.17833333333333337,-0.014074074074074116,0.5301999999880778],[0.16260416666666658,-0.08185185185185183,0.5468000000119204],[0.13781249999999995,-0.1714814814814815,0.5634999999999977],[0.13156249999999994,-0.24462962962962967,0.5800999999940402],[0.12062499999999995,-0.2922222222222222,0.5971999999880779],[0.10968749999999995,-0.3398148148148148,0.6134000000059601],[0.04666666666666662,-0.2918518518518519,0.6300999999940373],[-0.015625,-0.25833333333333336,0.6468000000119218],[-0.06656249999999998,-0.18425925925925926,0.6634999999999991],[-0.12062499999999995,-0.12981481481481486,0.682900000005958],[-0.13031250000000003,-0.0816666666666667,0.6974000000059632],[-0.1404166666666666,-0.06648148148148143,0.7134999999999962],[-0.14427083333333332,-0.0257407407407407,0.7300999999940387],[-0.1454166666666667,0.009999999999999959,0.7466999999880812],[-0.13635416666666664,0.000925925925925926,0.7635999999940424],[-0.12729166666666672,-0.008148148148148106,0.7845999999940361],[-0.12729166666666672,-0.008148148148148106,0.7993000000119181],[-0.08739583333333331,0.03351851851851856,0.8134000000059629],[-0.09937499999999998,0.06648148148148143,0.8301999999880749],[-0.11135416666666664,0.06666666666666667,0.8490999999940385],[-0.08489583333333334,0.03037037037037033,0.8635000000000019],[-0.08958333333333333,0.05092592592592592,0.8800999999940373],[-0.1388541666666666,0.08277777777777787,0.8968000000119218],[-0.17020833333333332,0.09499999999999992,0.9134999999999991],[-0.23374999999999999,0.08592592592592588,0.9301999999880763],[-0.30270833333333336,0.08092592592592601,0.9469000000059609],[-0.37124999999999997,0.06462962962962959,0.9635999999940381],[-0.4055208333333333,-0.034074074074074034,0.9833000000119227],[-0.42468750000000005,-0.026111111111111154,0.996900000005958],[-0.4522916666666667,-0.03981481481481482,1.0134000000059586],[-0.4952083333333333,-0.03185185185185194,1.030099999994036],[-0.5057291666666667,-0.046296296296296294,1.0466999999880784],[-0.5013541666666667,-0.059999999999999956,1.0634999999999977],[-0.5141666666666667,-0.09092592592592597,1.0828000000119218],[-0.49135416666666665,-0.08074074074074078,1.0969000000059594],[-0.49041666666666667,-0.10314814814814813,1.11340000000596],[-0.515,-0.10981481481481484,1.1301999999880792],[-0.5298958333333333,-0.08925925925925923,1.1468000000119218],[-0.5545833333333333,-0.07555555555555557,1.163499999999999],[-0.5671875,-0.08111111111111113,1.1800999999940416],[-0.5671875,-0.08111111111111113,1.1969000000059609],[-0.5841666666666666,-0.02962962962962963,1.2134000000059615],[-0.5223958333333333,0.010925925925925884,1.2301999999880806],[-0.4509375,0.0742592592592593,1.246900000005958],[-0.39093749999999994,0.14944444444444452,1.2635000000000005],[-0.33708333333333335,0.20981481481481473,1.2836999999880803],[-0.2612499999999999,0.3022222222222223,1.298499999999997],[-0.16031249999999997,0.39018518518518525,1.313400000005963],[-0.04083333333333338,0.4507407407407407,1.330199999988075],[0.10354166666666677,0.459074074074074,1.3468000000119176],[0.22625000000000003,0.48814814814814816,1.363500000000002],[0.3172916666666666,0.42611111111111116,1.3803000000119212],[0.27291666666666664,0.47851851851851845,1.3970999999940403],[0.2741666666666667,0.40981481481481474,1.4134000000059572],[0.2921875,0.322037037037037,1.4324000000059627],[0.28916666666666657,0.21277777777777773,1.4471999999880794],[0.290625,0.13796296296296295,1.4635999999940381],[0.2920833333333334,0.06314814814814819,1.4833000000119227],[0.240625,-0.03351851851851856,1.5000999999940419],[0.19927083333333329,-0.12925925925925927,1.5135000000000005],[0.1650000000000001,-0.20129629629629628,1.5323000000119222],[0.14958333333333323,-0.21944444444444444,1.5469000000059623],[0.1868750000000001,-0.36574074074074076,1.5636999999880814],[0.17802083333333343,-0.41574074074074074,1.5835999999940356],[0.1554166666666667,-0.4888888888888889,1.59730000001192],[0.16281249999999994,-0.5225925925925926,1.6135999999940367],[0.15510416666666677,-0.5444444444444444,1.632800000011919],[0.17062499999999994,-0.5612962962962963,1.649000000000001],[0.21145833333333333,-0.4692592592592592,1.664400000005962],[0.2421875,-0.3781481481481481,1.6801999999880763],[0.26062500000000005,-0.31351851851851853,1.699699999988077],[0.2794791666666666,-0.3153703703703704,1.7135999999940381],[0.31520833333333326,-0.2581481481481481,1.7301999999880806],[0.35093750000000007,-0.20092592592592592,1.746900000005958],[0.38166666666666677,-0.1257407407407407,1.7634000000059586],[0.421875,-0.10055555555555558,1.7829000000059594],[0.4305208333333333,-0.08314814814814811,1.7971999999880808],[0.4305208333333333,-0.08314814814814811,1.813400000005963],[0.42218749999999994,-0.075,1.830300000011917],[0.38270833333333343,-0.08611111111111111,1.8470000000000013],[0.35437500000000005,-0.11444444444444446,1.8659000000059578],[0.3408333333333334,-0.14148148148148143,1.8838000000119237],[0.3085416666666667,-0.12777777777777777,1.897199999988075],[0.2982291666666666,-0.16222222222222227,1.919800000011918],[0.27614583333333326,-0.17611111111111116,1.9343000000119233],[0.26749999999999996,-0.17759259259259255,1.95059999999404],[0.2638541666666666,-0.152962962962963,1.9688000000119175],[0.30229166666666674,-0.16629629629629633,1.9849000000059576],[0.31979166666666664,-0.17555555555555558,2.0013000000119234],[0.35281250000000003,-0.2059259259259259,2.0170999999940378],[0.37374999999999997,-0.20388888888888893,2.0329000000059594],[0.38937499999999997,-0.22629629629629627,2.0474999999999994],[0.39906249999999993,-0.20907407407407402,2.066199999988079],[0.38333333333333336,-0.13648148148148145,2.084699999988075],[0.378125,-0.11796296296296294,2.1009000000059572],[0.35604166666666665,-0.15722222222222218,2.1166999999880787],[0.2991666666666667,-0.15,2.1306999999880816],[0.2365624999999999,-0.13870370370370366,2.146800000011922],[0.19479166666666667,-0.11648148148148144,2.163599999994041],[0.15302083333333344,-0.09425925925925922,2.1831999999880765],[0.12854166666666675,-0.09722222222222222,2.2003000000119215],[0.12854166666666675,-0.09722222222222222,2.2210999999940384],[0.10979166666666676,-0.09537037037037037,2.2300999999940387],[0.09770833333333329,-0.1051851851851852,2.246900000005958],[0.09375,-0.19018518518518515,2.2635000000000005],[0.09104166666666676,-0.24166666666666667,2.28069999998808],[0.07802083333333343,-0.23851851851851855,2.2969000000059623],[0.0875,-0.24574074074074073,2.313400000005963],[0.10270833333333323,-0.2759259259259259,2.33009999999404],[0.11177083333333329,-0.3168518518518519,2.3468000000119176],[0.12354166666666658,-0.3772222222222222,2.363500000000002],[0.11895833333333337,-0.4275925925925925,2.3805999999940397],[0.12999999999999995,-0.4361111111111111,2.398699999988075],[0.12999999999999995,-0.4361111111111111,2.4134000000059572],[0.15031249999999996,-0.45870370370370367,2.4301999999880763],[0.134375,-0.4759259259259259,2.446800000011919],[0.16614583333333333,-0.5248148148148147,2.4634999999999962],[0.21770833333333334,-0.5842592592592593,2.4801999999880806],[0.2415625000000001,-0.6109259259259259,2.4968000000119233],[0.26541666666666663,-0.6187037037037038,2.513900000005961],[0.28843750000000007,-0.6659259259259259,2.530099999994036],[0.31197916666666664,-0.6775925925925925,2.5471999999880808],[0.3419791666666666,-0.6512962962962963,2.5659000000059606],[0.3446875000000001,-0.6398148148148148,2.5806999999880773],[0.3446875000000001,-0.6398148148148148,2.5969000000059594],[0.3472916666666668,-0.6274074074074074,2.616599999994037],[0.4006249999999999,-0.5401851851851852,2.6300999999940373],[0.3650000000000001,-0.4281481481481481,2.64669999998808],[0.3615624999999999,-0.31074074074074076,2.6636999999880757],[0.3845833333333334,-0.2683333333333333,2.6800999999940416],[0.4071875000000001,-0.24981481481481477,2.696800000011919],[0.4132291666666667,-0.19018518518518515,2.7134000000059615],[0.3921875,-0.1527777777777778,2.7301999999880806],[0.3646874999999999,-0.15333333333333335,2.7495999999940395],[0.3646874999999999,-0.15333333333333335,2.7666999999880773],[0.37687499999999996,-0.1544444444444444,2.7801999999880778],[0.38958333333333334,-0.17555555555555558,2.7969000000059623],[0.38958333333333334,-0.17555555555555558,2.813400000005963],[0.3736458333333334,-0.24666666666666665,2.83009999999404]]","[0.0000999999940418661,0.01780000001191695,0.031900000005961715,0.04940000000596001,0.06519999998808146,0.08259999999403789,0.10030000001192008,0.11430000001192298,0.13469999998807936,0.1469000000059566,0.16380000001191775,0.18330000001191848,0.2015000000000029,0.21799999999999642,0.2334000000059575,0.2511999999880814,0.26599999999999824,0.2819000000059617,0.2970999999940389,0.3134000000059629,0.33009999999404016,0.3468000000119176,0.36350000000000193,0.38090000000595836,0.39919999998807754,0.4134000000059572,0.43299999999999983,0.4475999999940399,0.4635999999940381,0.4834000000059575,0.5005000000000024,0.5134000000059586,0.5301999999880778,0.5468000000119204,0.5634999999999977,0.5800999999940402,0.5971999999880779,0.6134000000059601,0.6300999999940373,0.6468000000119218,0.6634999999999991,0.682900000005958,0.6974000000059632,0.7134999999999962,0.7300999999940387,0.7466999999880812,0.7635999999940424,0.7845999999940361,0.7993000000119181,0.8134000000059629,0.8301999999880749,0.8490999999940385,0.8635000000000019,0.8800999999940373,0.8968000000119218,0.9134999999999991,0.9301999999880763,0.9469000000059609,0.9635999999940381,0.9833000000119227,0.996900000005958,1.0134000000059586,1.030099999994036,1.0466999999880784,1.0634999999999977,1.0828000000119218,1.0969000000059594,1.11340000000596,1.1301999999880792,1.1468000000119218,1.163499999999999,1.1800999999940416,1.1969000000059609,1.2134000000059615,1.2301999999880806,1.246900000005958,1.2635000000000005,1.2836999999880803,1.298499999999997,1.313400000005963,1.330199999988075,1.3468000000119176,1.363500000000002,1.3803000000119212,1.3970999999940403,1.4134000000059572,1.4324000000059627,1.4471999999880794,1.4635999999940381,1.4833000000119227,1.5000999999940419,1.5135000000000005,1.5323000000119222,1.5469000000059623,1.5636999999880814,1.5835999999940356,1.59730000001192,1.6135999999940367,1.632800000011919,1.649000000000001,1.664400000005962,1.6801999999880763,1.699699999988077,1.7135999999940381,1.7301999999880806,1.746900000005958,1.7634000000059586,1.7829000000059594,1.7971999999880808,1.813400000005963,1.830300000011917,1.8470000000000013,1.8659000000059578,1.8838000000119237,1.897199999988075,1.919800000011918,1.9343000000119233,1.95059999999404,1.9688000000119175,1.9849000000059576,2.0013000000119234,2.0170999999940378,2.0329000000059594,2.0474999999999994,2.066199999988079,2.084699999988075,2.1009000000059572,2.1166999999880787,2.1306999999880816,2.146800000011922,2.163599999994041,2.1831999999880765,2.2003000000119215,2.2210999999940384,2.2300999999940387,2.246900000005958,2.2635000000000005,2.28069999998808,2.2969000000059623,2.313400000005963,2.33009999999404,2.3468000000119176,2.363500000000002,2.3805999999940397,2.398699999988075,2.4134000000059572,2.4301999999880763,2.446800000011919,2.4634999999999962,2.4801999999880806,2.4968000000119233,2.513900000005961,2.530099999994036,2.5471999999880808,2.5659000000059606,2.5806999999880773,2.5969000000059594,2.616599999994037,2.6300999999940373,2.64669999998808,2.6636999999880757,2.6800999999940416,2.696800000011919,2.7134000000059615,2.7301999999880806,2.7495999999940395,2.7666999999880773,2.7801999999880778,2.7969000000059623,2.813400000005963,2.83009999999404]","[1733381462623,1733381462640,1733381462654,1733381462672,1733381462688,1733381462705,1733381462723,1733381462737,1733381462757,1733381462769,1733381462786,1733381462806,1733381462824,1733381462840,1733381462856,1733381462874,1733381462888,1733381462904,1733381462919,1733381462936,1733381462953,1733381462969,1733381462986,1733381463003,1733381463022,1733381463036,1733381463055,1733381463070,1733381463086,1733381463106,1733381463123,1733381463136,1733381463153,1733381463169,1733381463186,1733381463203,1733381463220,1733381463236,1733381463253,1733381463269,1733381463286,1733381463305,1733381463320,1733381463336,1733381463353,1733381463369,1733381463386,1733381463407,1733381463422,1733381463436,1733381463453,1733381463471,1733381463486,1733381463503,1733381463519,1733381463536,1733381463553,1733381463569,1733381463586,1733381463606,1733381463619,1733381463636,1733381463653,1733381463669,1733381463686,1733381463705,1733381463719,1733381463736,1733381463753,1733381463769,1733381463786,1733381463803,1733381463819,1733381463836,1733381463853,1733381463869,1733381463886,1733381463906,1733381463921,1733381463936,1733381463953,1733381463969,1733381463986,1733381464003,1733381464020,1733381464036,1733381464055,1733381464070,1733381464086,1733381464106,1733381464123,1733381464136,1733381464155,1733381464169,1733381464186,1733381464206,1733381464220,1733381464236,1733381464255,1733381464271,1733381464287,1733381464303,1733381464322,1733381464336,1733381464353,1733381464369,1733381464386,1733381464405,1733381464420,1733381464436,1733381464453,1733381464469,1733381464488,1733381464506,1733381464520,1733381464542,1733381464557,1733381464573,1733381464591,1733381464607,1733381464624,1733381464640,1733381464655,1733381464670,1733381464689,1733381464707,1733381464723,1733381464739,1733381464753,1733381464769,1733381464786,1733381464806,1733381464823,1733381464844,1733381464853,1733381464869,1733381464886,1733381464903,1733381464919,1733381464936,1733381464953,1733381464969,1733381464986,1733381465003,1733381465021,1733381465036,1733381465053,1733381465069,1733381465086,1733381465103,1733381465119,1733381465136,1733381465153,1733381465170,1733381465188,1733381465203,1733381465219,1733381465239,1733381465253,1733381465269,1733381465286,1733381465303,1733381465319,1733381465336,1733381465353,1733381465372,1733381465389,1733381465403,1733381465419,1733381465436,1733381465453]","[[1054.5,505],[1039.9,488.2],[1046,493.2],[1055.1,499.2],[1072,535],[1067.2,555.9],[1053.5,553.5],[1028,501.2],[942.2,457.5],[942.2,457.5],[944.8,477.6],[988,519.4],[1030.6,578.9],[1043.9,557.7],[1057.2,536.5],[1098.4,516.3],[1106.6,491.6],[1171,501],[1204,533.8],[1252.8,551.2],[1255.8,556.2],[1249.9,565.4],[1246.6,574.8],[1227,620.2],[1207.3,673.8],[1207.3,673.8],[1182.3,722.4],[1192.2,715.9],[1171.4,664.3],[1166.6,613.8],[1167.1,577.6],[1167.1,577.6],[1131.2,532.4],[1116.1,495.8],[1092.3,447.4],[1086.3,407.9],[1075.8,382.2],[1065.3,356.5],[1004.8,382.4],[945,400.5],[896.1,440.5],[844.2,469.9],[834.9,495.9],[825.2,504.1],[821.5,526.1],[820.4,545.4],[829.1,540.5],[837.8,535.6],[837.8,535.6],[876.1,558.1],[864.6,575.9],[853.1,576],[878.5,556.4],[874,567.5],[826.7,584.7],[796.6,591.3],[735.6,586.4],[669.4,583.7],[603.6,574.9],[570.7,521.6],[552.3,525.9],[525.8,518.5],[484.6,522.8],[474.5,515],[478.7,507.6],[466.4,490.9],[488.3,496.4],[489.2,484.3],[465.6,480.7],[451.3,491.8],[427.6,499.2],[415.5,496.2],[415.5,496.2],[399.2,524],[458.5,545.9],[527.1,580.1],[584.7,620.7],[636.4,653.3],[709.2,703.2],[806.1,750.7],[920.8,783.4],[1059.4,787.9],[1177.2,803.6],[1264.6,770.1],[1222,798.4],[1223.2,761.3],[1240.5,713.9],[1237.6,654.9],[1239,614.5],[1240.4,574.1],[1191,521.9],[1151.3,470.2],[1118.4,431.3],[1103.6,421.5],[1139.4,342.5],[1130.9,315.5],[1109.2,276],[1116.3,257.8],[1108.9,246],[1123.8,236.9],[1163,286.6],[1192.5,335.8],[1210.2,370.7],[1228.3,369.7],[1262.6,400.6],[1296.9,431.5],[1326.4,472.1],[1365,485.7],[1373.3,495.1],[1373.3,495.1],[1365.3,499.5],[1327.4,493.5],[1300.2,478.2],[1287.2,463.6],[1256.2,471],[1246.3,452.4],[1225.1,444.9],[1216.8,444.1],[1213.3,457.4],[1250.2,450.2],[1267,445.2],[1298.7,428.8],[1318.8,429.9],[1333.8,417.8],[1343.1,427.1],[1328,466.3],[1323,476.3],[1301.8,455.1],[1247.2,459],[1187.1,465.1],[1147,477.1],[1106.9,489.1],[1083.4,487.5],[1083.4,487.5],[1065.4,488.5],[1053.8,483.2],[1050,437.3],[1047.4,409.5],[1034.9,411.2],[1044,407.3],[1058.6,391],[1067.3,368.9],[1078.6,336.3],[1074.2,309.1],[1084.8,304.5],[1084.8,304.5],[1104.3,292.3],[1089,283],[1119.5,256.6],[1169,224.5],[1191.9,210.1],[1214.8,205.9],[1236.9,180.4],[1259.5,174.1],[1288.3,188.3],[1290.9,194.5],[1290.9,194.5],[1293.4,201.2],[1344.6,248.3],[1310.4,308.8],[1307.1,372.2],[1329.2,395.1],[1350.9,405.1],[1356.7,437.3],[1336.5,457.5],[1310.1,457.2],[1310.1,457.2],[1321.8,456.6],[1334,445.2],[1334,445.2],[1318.7,406.8]]","[0,0.37864299999999995]","[0.37864299999999995,0.37864299999999995]","[-0.37864299999999995,0]","[-0.37864299999999995,-0.37864299999999995]","[0,0]","[0.37864299999999995,0]","[0,-0.37864299999999995]","[0.37864299999999995,-0.37864299999999995]",0,1,1,1,1,4,Laptop,5,1,13,7
