inst1_resp.keys,inst1_resp.rt,calibrationMouse.x,calibrationMouse.y,calibrationMouse.leftButton,calibrationMouse.midButton,calibrationMouse.rightButton,calibrationClick.x,calibrationClick.y,calibrationClick.leftButton,calibrationClick.midButton,calibrationClick.rightButton,trialsc.thisRepN,trialsc.thisTrialN,trialsc.thisN,trialsc.thisIndex,trialsc.ran,calibration_x,calibration_y,participant,session,date,expName,psychopyVersion,OS,frameRate,calibrationClick.clicked_name,ScreenRes_pixels,mouse_2.x,mouse_2.y,mouse_2.leftButton,mouse_2.midButton,mouse_2.rightButton,mouse_2.time,mouse_2.clicked_name,Camera_pixels,mouse.x,mouse.y,mouse.leftButton,mouse.midButton,mouse.rightButton,mouse.time,mouse.clicked_name,Choice,Trial,TrialDuration,MOUSE_GAZE,ET_GAZE,ET_GAZE_x_T,time,unixTime,ET_GAZE_NF,Loc_Option1_label,Loc_Option2_label,Loc_Cost_label,Loc_Qual_label,Loc_Option1_cost,Loc_Option2_cost,Loc_Option1_quality,Loc_Option2_quality,trials.thisRepN,trials.thisTrialN,trials.thisN,trials.thisIndex,trials.ran,Block,Device,cost1,qual1,cost2,qual2
space,1.097,-0.019791667,-0.537037037,1,0,0,-0.005208333,0.014814815,1,0,0,0,0,0,11,1,0,0,49,001,2024-12-05_15h23.29.630,Attention_exp_legacy,2023.1.0,Win32,60.24096386,,,,,,,,,,,,,,,,,,,,,,,,,,,,,,,,,,,,,,,,,,,,,
,,,,,,,0.336458333,0.333333333,1,0,0,0,1,1,17,1,0.33,0.33,49,001,2024-12-05_15h23.29.630,Attention_exp_legacy,2023.1.0,Win32,60.24096386,calibration_square,,,,,,,,,,,,,,,,,,,,,,,,,,,,,,,,,,,,,,,,,,,,
,,,,,,,-0.328125,0.340740741,1,0,0,0,2,2,7,1,-0.33,0.33,49,001,2024-12-05_15h23.29.630,Attention_exp_legacy,2023.1.0,Win32,60.24096386,,,,,,,,,,,,,,,,,,,,,,,,,,,,,,,,,,,,,,,,,,,,,
,,,,,,,0.34375,-0.683333333,1,0,0,0,3,3,14,1,0.33,-0.67,49,001,2024-12-05_15h23.29.630,Attention_exp_legacy,2023.1.0,Win32,60.24096386,,,,,,,,,,,,,,,,,,,,,,,,,,,,,,,,,,,,,,,,,,,,,
,,,,,,,-0.00625,-0.32962963,1,0,0,0,4,4,10,1,0,-0.33,49,001,2024-12-05_15h23.29.630,Attention_exp_legacy,2023.1.0,Win32,60.24096386,calibration_square,,,,,,,,,,,,,,,,,,,,,,,,,,,,,,,,,,,,,,,,,,,,
,,,,,,,0.007291667,0.335185185,1,0,0,0,5,5,12,1,0,0.33,49,001,2024-12-05_15h23.29.630,Attention_exp_legacy,2023.1.0,Win32,60.24096386,calibration_square,,,,,,,,,,,,,,,,,,,,,,,,,,,,,,,,,,,,,,,,,,,,
,,,,,,,0.340625,-0.001851852,1,0,0,0,6,6,16,1,0.33,0,49,001,2024-12-05_15h23.29.630,Attention_exp_legacy,2023.1.0,Win32,60.24096386,,,,,,,,,,,,,,,,,,,,,,,,,,,,,,,,,,,,,,,,,,,,,
,,,,,,,0.678125,0.674074074,1,0,0,0,7,7,19,1,0.67,0.67,49,001,2024-12-05_15h23.29.630,Attention_exp_legacy,2023.1.0,Win32,60.24096386,calibration_square,,,,,,,,,,,,,,,,,,,,,,,,,,,,,,,,,,,,,,,,,,,,
,,,,,,,-0.653125,-0.672222222,1,0,0,0,8,8,0,1,-0.67,-0.67,49,001,2024-12-05_15h23.29.630,Attention_exp_legacy,2023.1.0,Win32,60.24096386,,,,,,,,,,,,,,,,,,,,,,,,,,,,,,,,,,,,,,,,,,,,,
,,,,,,,-0.670833333,-0.346296296,1,0,0,0,9,9,1,1,-0.67,-0.33,49,001,2024-12-05_15h23.29.630,Attention_exp_legacy,2023.1.0,Win32,60.24096386,,,,,,,,,,,,,,,,,,,,,,,,,,,,,,,,,,,,,,,,,,,,,
,,,,,,,0.003125,0.653703704,1,0,0,0,10,10,13,1,0,0.67,49,001,2024-12-05_15h23.29.630,Attention_exp_legacy,2023.1.0,Win32,60.24096386,,,,,,,,,,,,,,,,,,,,,,,,,,,,,,,,,,,,,,,,,,,,,
,,,,,,,0.357291667,0.653703704,1,0,0,0,11,11,18,1,0.33,0.67,49,001,2024-12-05_15h23.29.630,Attention_exp_legacy,2023.1.0,Win32,60.24096386,,,,,,,,,,,,,,,,,,,,,,,,,,,,,,,,,,,,,,,,,,,,,
,,,,,,,-0.34375,-0.662962963,1,0,0,0,12,12,4,1,-0.33,-0.67,49,001,2024-12-05_15h23.29.630,Attention_exp_legacy,2023.1.0,Win32,60.24096386,,,,,,,,,,,,,,,,,,,,,,,,,,,,,,,,,,,,,,,,,,,,,
,,,,,,,-0.671875,0.327777778,1,0,0,0,13,13,3,1,-0.67,0.33,49,001,2024-12-05_15h23.29.630,Attention_exp_legacy,2023.1.0,Win32,60.24096386,calibration_square,,,,,,,,,,,,,,,,,,,,,,,,,,,,,,,,,,,,,,,,,,,,
,,,,,,,-0.325,-0.35,1,0,0,0,14,14,5,1,-0.33,-0.33,49,001,2024-12-05_15h23.29.630,Attention_exp_legacy,2023.1.0,Win32,60.24096386,,,,,,,,,,,,,,,,,,,,,,,,,,,,,,,,,,,,,,,,,,,,,
,,,,,,,-0.688541667,0,1,0,0,0,15,15,2,1,-0.67,0,49,001,2024-12-05_15h23.29.630,Attention_exp_legacy,2023.1.0,Win32,60.24096386,,,,,,,,,,,,,,,,,,,,,,,,,,,,,,,,,,,,,,,,,,,,,
,,,,,,,0.311458333,-0.331481481,1,0,0,0,16,16,15,1,0.33,-0.33,49,001,2024-12-05_15h23.29.630,Attention_exp_legacy,2023.1.0,Win32,60.24096386,,,,,,,,,,,,,,,,,,,,,,,,,,,,,,,,,,,,,,,,,,,,,
,,,,,,,-0.010416667,-0.67037037,1,0,0,0,17,17,9,1,0,-0.67,49,001,2024-12-05_15h23.29.630,Attention_exp_legacy,2023.1.0,Win32,60.24096386,,,,,,,,,,,,,,,,,,,,,,,,,,,,,,,,,,,,,,,,,,,,,
,,,,,,,-0.328125,-0.022222222,1,0,0,0,18,18,6,1,-0.33,0,49,001,2024-12-05_15h23.29.630,Attention_exp_legacy,2023.1.0,Win32,60.24096386,,,,,,,,,,,,,,,,,,,,,,,,,,,,,,,,,,,,,,,,,,,,,
,,,,,,,-0.33125,0.653703704,1,0,0,0,19,19,8,1,-0.33,0.67,49,001,2024-12-05_15h23.29.630,Attention_exp_legacy,2023.1.0,Win32,60.24096386,,,,,,,,,,,,,,,,,,,,,,,,,,,,,,,,,,,,,,,,,,,,,
,,,,,,,0.691666667,-0.655555556,1,0,0,0,20,20,20,1,0.67,-0.67,49,001,2024-12-05_15h23.29.630,Attention_exp_legacy,2023.1.0,Win32,60.24096386,,,,,,,,,,,,,,,,,,,,,,,,,,,,,,,,,,,,,,,,,,,,,
,,,,,,,,,,,,,,,,,,,49,001,2024-12-05_15h23.29.630,Attention_exp_legacy,2023.1.0,Win32,60.24096386,,"[1920,1080]",[0.016666666666666666],[-0.512962962962963],[1],[0],[0],[0.9704999999999941],"[""StartButton""]","[640,480]",[0.3104166666666667],[0.2796296296296296],[1],[0],[0],[2.1283000000119188],"[""Option2_label""]",Option2_label,1,3.1511,"[[0.09583333333333334,0.06481481481481481],[0.09583333333333334,0.06481481481481481],[0.09583333333333334,0.06481481481481481],[0.09583333333333334,0.06481481481481481],[0.09583333333333334,0.06481481481481481],[0.096875,0.06666666666666667],[0.096875,0.06666666666666667],[0.09791666666666667,0.06666666666666667],[0.1,0.06851851851851852],[0.1,0.06851851851851852],[0.1,0.07037037037037037],[0.10104166666666667,0.07037037037037037],[0.10208333333333333,0.07037037037037037],[0.10208333333333333,0.07037037037037037],[0.10208333333333333,0.07037037037037037],[0.10208333333333333,0.07037037037037037],[0.10208333333333333,0.07037037037037037],[0.10208333333333333,0.07037037037037037],[0.10208333333333333,0.07037037037037037],[0.10208333333333333,0.07037037037037037],[0.10208333333333333,0.07037037037037037],[0.10208333333333333,0.07037037037037037],[0.10208333333333333,0.07037037037037037],[0.10208333333333333,0.07037037037037037],[0.10208333333333333,0.07037037037037037],[0.10208333333333333,0.07037037037037037],[0.10208333333333333,0.07037037037037037],[0.10208333333333333,0.07037037037037037],[0.10208333333333333,0.07037037037037037],[0.10208333333333333,0.07037037037037037],[0.10208333333333333,0.07037037037037037],[0.10208333333333333,0.07037037037037037],[0.10208333333333333,0.07037037037037037],[0.10208333333333333,0.07037037037037037],[0.10208333333333333,0.07037037037037037],[0.10208333333333333,0.07037037037037037],[0.10208333333333333,0.07037037037037037],[0.10208333333333333,0.07037037037037037],[0.10208333333333333,0.07037037037037037],[0.10208333333333333,0.07037037037037037],[0.10208333333333333,0.07037037037037037],[0.10208333333333333,0.07037037037037037],[0.10208333333333333,0.07037037037037037],[0.10208333333333333,0.07037037037037037],[0.10208333333333333,0.07037037037037037],[0.10208333333333333,0.07037037037037037],[0.10208333333333333,0.07037037037037037],[0.10208333333333333,0.07037037037037037],[0.10208333333333333,0.07037037037037037],[0.10208333333333333,0.07037037037037037],[0.10208333333333333,0.07037037037037037],[0.10208333333333333,0.07037037037037037],[0.10208333333333333,0.07037037037037037],[0.10208333333333333,0.07037037037037037],[0.10208333333333333,0.07037037037037037],[0.10208333333333333,0.07037037037037037],[0.10208333333333333,0.07037037037037037],[0.10208333333333333,0.07037037037037037],[0.10208333333333333,0.07037037037037037],[0.10208333333333333,0.07037037037037037],[0.10208333333333333,0.07037037037037037],[0.10208333333333333,0.07037037037037037],[0.10208333333333333,0.07037037037037037],[0.10208333333333333,0.07037037037037037],[0.10208333333333333,0.07037037037037037],[0.10208333333333333,0.07037037037037037],[0.10208333333333333,0.07037037037037037],[0.10208333333333333,0.07037037037037037],[0.10208333333333333,0.07037037037037037],[0.10208333333333333,0.07037037037037037],[0.10208333333333333,0.07037037037037037],[0.10208333333333333,0.07037037037037037],[0.10208333333333333,0.07037037037037037],[0.10208333333333333,0.07037037037037037],[0.10208333333333333,0.07037037037037037],[0.10208333333333333,0.07037037037037037],[0.10208333333333333,0.07037037037037037],[0.10208333333333333,0.07037037037037037],[0.10208333333333333,0.07037037037037037],[0.10208333333333333,0.07037037037037037],[0.10208333333333333,0.07037037037037037],[0.10208333333333333,0.07037037037037037],[0.10208333333333333,0.07037037037037037],[0.10208333333333333,0.07037037037037037],[0.10208333333333333,0.07037037037037037],[0.10208333333333333,0.07037037037037037],[0.10208333333333333,0.07037037037037037],[0.10208333333333333,0.07037037037037037],[0.10208333333333333,0.07037037037037037],[0.10208333333333333,0.07037037037037037],[0.10208333333333333,0.07037037037037037],[0.10208333333333333,0.07037037037037037],[0.10208333333333333,0.07037037037037037],[0.10208333333333333,0.07037037037037037],[0.10208333333333333,0.07037037037037037],[0.10208333333333333,0.07037037037037037],[0.10208333333333333,0.07037037037037037],[0.10208333333333333,0.07037037037037037],[0.10208333333333333,0.07037037037037037],[0.10208333333333333,0.07407407407407407],[0.115625,0.12037037037037036],[0.13125,0.1537037037037037],[0.14895833333333333,0.17777777777777778],[0.16875,0.1962962962962963],[0.18854166666666666,0.21481481481481482],[0.21354166666666666,0.22962962962962963],[0.2375,0.24444444444444444],[0.25729166666666664,0.2537037037037037],[0.27708333333333335,0.26296296296296295],[0.2916666666666667,0.26851851851851855],[0.303125,0.2777777777777778],[0.30625,0.2777777777777778],[0.3104166666666667,0.2796296296296296],[0.3104166666666667,0.2796296296296296],[0.3104166666666667,0.2796296296296296],[0.3104166666666667,0.2796296296296296],[0.3104166666666667,0.2796296296296296],[0.3104166666666667,0.2796296296296296],[0.3104166666666667,0.2796296296296296],[0.3104166666666667,0.2796296296296296],[0.3104166666666667,0.2796296296296296],[0.3104166666666667,0.2796296296296296],[0.3104166666666667,0.2796296296296296],[0.3104166666666667,0.2796296296296296],[0.3104166666666667,0.2796296296296296],[0.3104166666666667,0.2796296296296296],[0.3104166666666667,0.2796296296296296],[0.3104166666666667,0.2796296296296296],[0.3104166666666667,0.2796296296296296],[0.3104166666666667,0.2796296296296296],[0.3104166666666667,0.2796296296296296],[0.3104166666666667,0.2796296296296296],[0.3104166666666667,0.2796296296296296],[0.3104166666666667,0.2796296296296296],[0.3104166666666667,0.2796296296296296],[0.3104166666666667,0.2796296296296296],[0.3104166666666667,0.2796296296296296],[0.3104166666666667,0.2796296296296296],[0.3104166666666667,0.2796296296296296],[0.3104166666666667,0.2796296296296296],[0.3104166666666667,0.2796296296296296],[0.3104166666666667,0.2796296296296296],[0.3104166666666667,0.2796296296296296],[0.3104166666666667,0.2796296296296296],[0.3104166666666667,0.2796296296296296],[0.3104166666666667,0.2796296296296296],[0.3104166666666667,0.2796296296296296],[0.3104166666666667,0.2796296296296296],[0.3104166666666667,0.2796296296296296],[0.3104166666666667,0.2796296296296296],[0.3104166666666667,0.2796296296296296],[0.3104166666666667,0.2796296296296296],[0.3104166666666667,0.2796296296296296],[0.3104166666666667,0.2796296296296296],[0.3104166666666667,0.2796296296296296],[0.3104166666666667,0.2796296296296296],[0.3104166666666667,0.2796296296296296],[0.3104166666666667,0.2796296296296296],[0.3104166666666667,0.2796296296296296],[0.3104166666666667,0.2796296296296296],[0.3104166666666667,0.2796296296296296],[0.3104166666666667,0.2796296296296296],[0.3104166666666667,0.2796296296296296],[0.3104166666666667,0.2796296296296296],[0.3104166666666667,0.2796296296296296],[0.3104166666666667,0.2796296296296296],[0.3104166666666667,0.2796296296296296],[0.3104166666666667,0.2796296296296296],[0.3104166666666667,0.2796296296296296],[0.3104166666666667,0.2796296296296296],[0.3104166666666667,0.2796296296296296],[0.3104166666666667,0.2796296296296296],[0.3104166666666667,0.2796296296296296],[0.3104166666666667,0.2796296296296296],[0.3104166666666667,0.2796296296296296],[0.3104166666666667,0.2796296296296296],[0.3104166666666667,0.2796296296296296],[0.3104166666666667,0.2796296296296296],[0.3104166666666667,0.2796296296296296],[0.3104166666666667,0.2796296296296296],[0.3104166666666667,0.2796296296296296],[0.3104166666666667,0.2796296296296296],[0.3104166666666667,0.2796296296296296],[0.3104166666666667,0.2796296296296296],[0.3104166666666667,0.2796296296296296],[0.3104166666666667,0.2796296296296296],[0.3104166666666667,0.2796296296296296],[0.3104166666666667,0.2796296296296296],[0.3104166666666667,0.2796296296296296]]","[[-0.000833333333333286,-0.10462962962962963],[-0.000833333333333286,-0.10462962962962963],[0.02010416666666662,-0.08740740740740739],[0.02010416666666662,-0.08740740740740739],[0.0484375,-0.056296296296296254],[0.0484375,-0.056296296296296254],[0.05239583333333329,-0.047037037037036995],[0.05239583333333329,-0.047037037037036995],[0.05,-0.046296296296296294],[0.060000000000000026,-0.04407407407407399],[0.06072916666666662,-0.03222222222222218],[0.06031249999999998,-0.049629629629629544],[0.06947916666666672,-0.08981481481481482],[0.08052083333333329,-0.10314814814814813],[0.06927083333333334,-0.15018518518518523],[0.06124999999999995,-0.16148148148148145],[0.033749999999999974,-0.18759259259259262],[0.028750000000000022,-0.17814814814814814],[-0.008645833333333287,-0.17685185185185184],[-0.008645833333333287,-0.17685185185185184],[-0.044375000000000026,-0.1648148148148148],[-0.0985416666666667,-0.17222222222222222],[-0.1515625,-0.16166666666666668],[-0.2045833333333333,-0.15111111111111114],[-0.24052083333333332,-0.15314814814814812],[-0.2764583333333333,-0.1551851851851852],[-0.32625000000000004,-0.10611111111111113],[-0.3615625,-0.07462962962962966],[-0.4158333333333334,-0.05870370370370368],[-0.46,-0.06425925925925924],[-0.4732291666666667,-0.0690740740740741],[-0.4955208333333333,-0.075],[-0.5178125,-0.06962962962962967],[-0.5109375,-0.07222222222222222],[-0.5241666666666667,-0.06277777777777774],[-0.5241666666666667,-0.06277777777777774],[-0.48208333333333336,-0.0418518518518519],[-0.43374999999999997,-0.10555555555555556],[-0.3854166666666667,-0.16925925925925922],[-0.318125,-0.21740740740740735],[-0.2140625,-0.22537037037037036],[-0.1516666666666667,-0.24407407407407408],[-0.07645833333333331,-0.25685185185185183],[-0.0012500000000000473,-0.26962962962962966],[0.04666666666666662,-0.26740740740740737],[0.09770833333333329,-0.26185185185185184],[0.13802083333333334,-0.2324074074074074],[0.1638541666666666,-0.2116666666666667],[0.1570833333333333,-0.17537037037037034],[0.14479166666666668,-0.14759259259259258],[0.1710416666666667,-0.13648148148148145],[0.2109375,-0.11444444444444446],[0.25104166666666666,-0.11277777777777774],[0.2897916666666667,-0.04759259259259268],[0.3303124999999999,-0.01703703703703712],[0.36822916666666666,-0.012037037037037037],[0.3615624999999999,-0.042407407407407366],[0.3848958333333333,-0.012962962962962963],[0.42000000000000004,-0.03222222222222218],[0.45677083333333335,-0.016111111111111194],[0.4349999999999999,-0.025370370370370456],[0.42520833333333335,-0.025185185185185227],[0.4201041666666666,0.00592592592592601],[0.39177083333333323,-0.07888888888888893],[0.3788541666666667,-0.10481481481481486],[0.3788541666666667,-0.10481481481481486],[0.3685416666666666,-0.1051851851851852],[0.34916666666666674,-0.10888888888888891],[0.32625000000000004,-0.11370370370370367],[0.3241666666666667,-0.08537037037037042],[0.3297916666666666,-0.040370370370370286],[0.35041666666666677,-0.020370370370370372],[0.3618750000000001,-0.006296296296296254],[0.3733333333333334,0.007777777777777862],[0.3733333333333334,0.007777777777777862],[0.3578125,0.11037037037037041],[0.34041666666666665,0.16351851851851842],[0.3167708333333332,0.25018518518518523],[0.30343749999999997,0.32759259259259255],[0.2837500000000001,0.3875925925925925],[0.26197916666666665,0.46055555555555566],[0.23666666666666672,0.4294444444444444],[0.19031250000000005,0.41870370370370374],[0.14520833333333344,0.3942592592592592],[0.10010416666666658,0.3698148148148149],[0.1053124999999999,0.3285185185185185],[0.08687500000000009,0.330925925925926],[0.07468750000000005,0.29981481481481476],[0.05552083333333328,0.25166666666666665],[0.05270833333333336,0.18074074074074079],[0.05666666666666664,0.12111111111111107],[0.06031249999999998,0.122037037037037],[0.03708333333333336,0.09870370370370361],[0.009791666666666643,0.08555555555555563],[0.04041666666666662,0.11074074074074065],[0.07229166666666677,0.11666666666666667],[0.04468749999999998,0.13907407407407413],[0.02791666666666662,0.15592592592592602],[0.024166666666666715,0.17555555555555546],[0.044062499999999956,0.19018518518518526],[0.036249999999999956,0.18314814814814812],[0.024479166666666666,0.11888888888888897],[0.07239583333333334,0.13759259259259252],[0.12197916666666657,0.15611111111111103],[0.11364583333333324,0.13629629629629633],[0.07781250000000005,0.13481481481481472],[0.12614583333333323,0.04814814814814815],[0.15791666666666657,-0.0301851851851851],[0.18239583333333323,-0.0816666666666667],[0.1586458333333333,-0.14425925925925923],[0.18072916666666666,-0.1727777777777778],[0.21062500000000003,-0.13703703703703704],[0.21375000000000005,-0.15537037037037033],[0.21375000000000005,-0.15537037037037033],[0.21427083333333338,-0.18518518518518517],[0.21427083333333338,-0.18518518518518517],[0.21395833333333342,-0.22259259259259256],[0.21395833333333342,-0.22259259259259256],[0.23125,-0.28351851851851856],[0.23125,-0.28351851851851856],[0.21479166666666671,-0.252962962962963],[0.21479166666666671,-0.252962962962963],[0.22177083333333342,-0.25870370370370366],[0.22177083333333342,-0.25870370370370366],[0.18864583333333323,-0.23592592592592587],[0.18864583333333323,-0.23592592592592587],[0.13583333333333342,-0.1655555555555555],[0.06895833333333339,-0.1542592592592593],[-0.0017708333333333807,-0.15],[-0.07270833333333329,-0.12981481481481486],[-0.14270833333333333,-0.09796296296296292],[-0.215625,-0.03796296296296296],[-0.2786458333333333,0.027222222222222307],[-0.3251041666666667,0.0016666666666666245],[-0.3892708333333334,0.009629629629629714],[-0.3728125,-0.013333333333333417],[-0.3264583333333333,-0.04407407407407399],[-0.28885416666666663,-0.05240740740740743],[-0.23072916666666668,-0.020185185185185143],[-0.17239583333333333,-0.003888888888888931],[-0.1264583333333333,0.016851851851851896],[-0.07677083333333339,0.01703703703703712],[-0.016979166666666618,0.022037037037036994],[0.041770833333333354,0.06944444444444445],[0.12666666666666657,0.1381481481481482],[0.15885416666666666,0.13055555555555556],[0.19479166666666667,0.08518518518518518],[0.2337500000000001,0.07296296296296292],[0.2490624999999999,0.011111111111111112],[0.2359375,-0.023148148148148147],[0.2646874999999999,-0.06148148148148146],[0.28937499999999994,-0.1227777777777778],[0.3039583333333333,-0.18888888888888888],[0.32531249999999995,-0.2559259259259259],[0.32052083333333337,-0.3442592592592592],[0.3255208333333333,-0.33777777777777773],[0.3267708333333334,-0.2935185185185185],[0.31833333333333325,-0.24740740740740744],[0.29791666666666666,-0.21388888888888888],[0.28406250000000005,-0.1814814814814815],[0.2573958333333332,-0.14148148148148143],[0.19947916666666668,-0.10092592592592593],[0.23572916666666663,-0.06129629629629634],[0.27447916666666666,-0.009999999999999959],[0.2913541666666667,0.0772222222222223],[0.3064583333333334,0.14333333333333328],[0.3178124999999999,0.20703703703703696],[0.3246875000000001,0.23666666666666658],[0.3477083333333333,0.2646296296296296],[0.39385416666666656,0.2540740740740742],[0.41593749999999996,0.22481481481481477],[0.47854166666666675,0.2442592592592592],[0.46031250000000007,0.25277777777777777],[0.43427083333333344,0.24018518518518528],[0.45281250000000006,0.22092592592592583],[0.4756249999999999,0.16592592592592598],[0.49197916666666663,0.13444444444444448],[0.46749999999999997,0.16796296296296304],[0.43114583333333345,0.25703703703703695],[0.41531250000000003,0.31814814814814807],[0.3703125,0.38981481481481484],[0.3203125,0.4455555555555556],[0.2569791666666667,0.5131481481481482],[0.1837500000000001,0.6],[0.08499999999999991,0.6011111111111112],[-0.013854166666666619,0.6429629629629631],[-0.10562499999999998,0.5866666666666666],[-0.1454166666666667,0.4644444444444444],[-0.1554166666666667,0.34666666666666673]]","[[-0.000833333333333286,-0.10462962962962963,0.00019999998807662678],[-0.000833333333333286,-0.10462962962962963,0.041299999982122415],[0.02010416666666662,-0.08740740740740739,0.05250000000000199],[0.02010416666666662,-0.08740740740740739,0.07489999997616081],[0.0484375,-0.056296296296296254,0.09250000000000114],[0.0484375,-0.056296296296296254,0.10600000000000165],[0.05239583333333329,-0.047037037037036995,0.11789999997616007],[0.05239583333333329,-0.047037037037036995,0.13469999998807936],[0.05,-0.046296296296296294,0.1513999999761566],[0.060000000000000026,-0.04407407407407399,0.16789999997615723],[0.06072916666666662,-0.03222222222222218,0.18689999997615558],[0.06031249999999998,-0.049629629629629544,0.20199999999999818],[0.06947916666666672,-0.08981481481481482,0.21809999999403828],[0.08052083333333329,-0.10314814814814813,0.2345999999940389],[0.06927083333333334,-0.15018518518518523,0.2518999999761604],[0.06124999999999995,-0.16148148148148145,0.27089999997615877],[0.033749999999999974,-0.18759259259259262,0.2882999999821223],[0.028750000000000022,-0.17814814814814814,0.3018999999761576],[-0.008645833333333287,-0.17685185185185184,0.3178999999761558],[-0.008645833333333287,-0.17685185185185184,0.33459999999404033],[-0.044375000000000026,-0.1648148148148148,0.3512999999821176],[-0.0985416666666667,-0.17222222222222222,0.3678999999761601],[-0.1515625,-0.16166666666666668,0.3850999999940399],[-0.2045833333333333,-0.15111111111111114,0.4013999999761566],[-0.24052083333333332,-0.15314814814814812,0.41789999997615723],[-0.2764583333333333,-0.1551851851851852,0.43459999999404175],[-0.32625000000000004,-0.10611111111111113,0.45119999998807714],[-0.3615625,-0.07462962962962966,0.4678999999761615],[-0.4158333333333334,-0.05870370370370368,0.4845999999940389],[-0.46,-0.06425925925925924,0.5015999999940419],[-0.4732291666666667,-0.0690740740740741,0.5178999999761587],[-0.4955208333333333,-0.075,0.5348999999761617],[-0.5178125,-0.06962962962962967,0.5511999999880786],[-0.5109375,-0.07222222222222222,0.5678999999761558],[-0.5241666666666667,-0.06277777777777774,0.5850999999940427],[-0.5241666666666667,-0.06277777777777774,0.6012999999821176],[-0.48208333333333336,-0.0418518518518519,0.6178999999761601],[-0.43374999999999997,-0.10555555555555556,0.6345999999940375],[-0.3854166666666667,-0.16925925925925922,0.65119999998808],[-0.318125,-0.21740740740740735,0.6677999999821225],[-0.2140625,-0.22537037037037036,0.6845999999940418],[-0.1516666666666667,-0.24407407407407408,0.701299999982119],[-0.07645833333333331,-0.25685185185185183,0.7178999999761615],[-0.0012500000000000473,-0.26962962962962966,0.734499999999997],[0.04666666666666662,-0.26740740740740737,0.7511999999880814],[0.09770833333333329,-0.26185185185185184,0.7678999999761587],[0.13802083333333334,-0.2324074074074074,0.7845999999940432],[0.1638541666666666,-0.2116666666666667,0.8011999999880786],[0.1570833333333333,-0.17537037037037034,0.8178999999761558],[0.14479166666666668,-0.14759259259259258,0.8345999999940403],[0.1710416666666667,-0.13648148148148145,0.8511999999880828],[0.2109375,-0.11444444444444446,0.8678999999761601],[0.25104166666666666,-0.11277777777777774,0.8845999999940375],[0.2897916666666667,-0.04759259259259268,0.90119999998808],[0.3303124999999999,-0.01703703703703712,0.9179999999999993],[0.36822916666666666,-0.012037037037037037,0.9345999999940418],[0.3615624999999999,-0.042407407407407366,0.9511999999880771],[0.3848958333333333,-0.012962962962962963,0.9680000000000035],[0.42000000000000004,-0.03222222222222218,0.9845999999940389],[0.45677083333333335,-0.016111111111111194,1.0011999999880814],[0.4349999999999999,-0.025370370370370456,1.0177999999821168],[0.42520833333333335,-0.025185185185185227,1.0345000000000013],[0.4201041666666666,0.00592592592592601,1.0511999999880786],[0.39177083333333323,-0.07888888888888893,1.067799999982121],[0.3788541666666667,-0.10481481481481486,1.0844999999999985],[0.3788541666666667,-0.10481481481481486,1.1011999999880828],[0.3685416666666666,-0.1051851851851852,1.11789999997616],[0.34916666666666674,-0.10888888888888891,1.1345999999940375],[0.32625000000000004,-0.11370370370370367,1.15119999998808],[0.3241666666666667,-0.08537037037037042,1.1678999999761572],[0.3297916666666666,-0.040370370370370286,1.1844999999999999],[0.35041666666666677,-0.020370370370370372,1.2011999999880771],[0.3618750000000001,-0.006296296296296254,1.2177999999821196],[0.3733333333333334,0.007777777777777862,1.2385999999940367],[0.3733333333333334,0.007777777777777862,1.2512999999821162],[0.3578125,0.11037037037037041,1.2678999999761587],[0.34041666666666665,0.16351851851851842,1.2862999999821199],[0.3167708333333332,0.25018518518518523,1.3012999999821204],[0.30343749999999997,0.32759259259259255,1.3178999999761558],[0.2837500000000001,0.3875925925925925,1.3350000000000009],[0.26197916666666665,0.46055555555555566,1.3511999999880828],[0.23666666666666672,0.4294444444444444,1.3677999999821182],[0.19031250000000005,0.41870370370370374,1.3845000000000027],[0.14520833333333344,0.3942592592592592,1.40119999998808],[0.10010416666666658,0.3698148148148149,1.4178999999761572],[0.1053124999999999,0.3285185185185185,1.4344999999999999],[0.08687500000000009,0.330925925925926,1.4511999999880771],[0.07468750000000005,0.29981481481481476,1.4678999999761615],[0.05552083333333328,0.25166666666666665,1.485199999988076],[0.05270833333333336,0.18074074074074079,1.5025999999940396],[0.05666666666666664,0.12111111111111107,1.5178999999761587],[0.06031249999999998,0.122037037037037,1.5345000000000013],[0.03708333333333336,0.09870370370370361,1.5514999999999972],[0.009791666666666643,0.08555555555555563,1.5678999999761558],[0.04041666666666662,0.11074074074074065,1.5850000000000009],[0.07229166666666677,0.11666666666666667,1.6011999999880828],[0.04468749999999998,0.13907407407407413,1.6177999999821182],[0.02791666666666662,0.15592592592592602,1.6345999999940375],[0.024166666666666715,0.17555555555555546,1.6512999999821218],[0.044062499999999956,0.19018518518518526,1.6705999999940389],[0.036249999999999956,0.18314814814814812,1.6863999999761603],[0.024479166666666666,0.11888888888888897,1.703699999988082],[0.07239583333333334,0.13759259259259252,1.7220999999940432],[0.12197916666666657,0.15611111111111103,1.7371999999880785],[0.11364583333333324,0.13629629629629633,1.752199999988079],[0.07781250000000005,0.13481481481481472,1.7705999999940403],[0.12614583333333323,0.04814814814814815,1.786899999976157],[0.15791666666666657,-0.0301851851851851,1.801599999994039],[0.18239583333333323,-0.0816666666666667,1.8179999999999978],[0.1586458333333333,-0.14425925925925923,1.837099999994038],[0.18072916666666666,-0.1727777777777778,1.8530000000000015],[0.21062500000000003,-0.13703703703703704,1.8683999999761554],[0.21375000000000005,-0.15537037037037033,1.88809999999404],[0.21375000000000005,-0.15537037037037033,1.9010999999940381],[0.21427083333333338,-0.18518518518518517,1.9178999999761572],[0.21427083333333338,-0.18518518518518517,1.9344999999999999],[0.21395833333333342,-0.22259259259259256,1.9510999999940424],[0.21395833333333342,-0.22259259259259256,1.9678999999761615],[0.23125,-0.28351851851851856,1.984599999994039],[0.23125,-0.28351851851851856,2.0011999999880814],[0.21479166666666671,-0.252962962962963,2.0178999999761587],[0.21479166666666671,-0.252962962962963,2.0345000000000013],[0.22177083333333342,-0.25870370370370366,2.0511999999880786],[0.22177083333333342,-0.25870370370370366,2.067899999976156],[0.18864583333333323,-0.23592592592592587,2.0845999999940403],[0.18864583333333323,-0.23592592592592587,2.101199999988083],[0.13583333333333342,-0.1655555555555555,2.11789999997616],[0.06895833333333339,-0.1542592592592593,2.1353999999761584],[-0.0017708333333333807,-0.15,2.15119999998808],[-0.07270833333333329,-0.12981481481481486,2.1678999999761572],[-0.14270833333333333,-0.09796296296296292,2.1853999999761555],[-0.215625,-0.03796296296296296,2.201199999988077],[-0.2786458333333333,0.027222222222222307,2.2178999999761615],[-0.3251041666666667,0.0016666666666666245,2.234599999994039],[-0.3892708333333334,0.009629629629629714,2.2525999999940396],[-0.3728125,-0.013333333333333417,2.2678999999761587],[-0.3264583333333333,-0.04407407407407399,2.285299999982122],[-0.28885416666666663,-0.05240740740740743,2.30239999997616],[-0.23072916666666668,-0.020185185185185143,2.317899999976156],[-0.17239583333333333,-0.003888888888888931,2.3344999999999985],[-0.1264583333333333,0.016851851851851896,2.351199999988083],[-0.07677083333333339,0.01703703703703712,2.36789999997616],[-0.016979166666666618,0.022037037037036994,2.3845000000000027],[0.041770833333333354,0.06944444444444445,2.4013999999761566],[0.12666666666666657,0.1381481481481482,2.4178999999761572],[0.15885416666666666,0.13055555555555556,2.4345999999940418],[0.19479166666666667,0.08518518518518518,2.451199999988077],[0.2337500000000001,0.07296296296296292,2.4677999999821196],[0.2490624999999999,0.011111111111111112,2.484499999999997],[0.2359375,-0.023148148148148147,2.501299999982116],[0.2646874999999999,-0.06148148148148146,2.5180000000000007],[0.28937499999999994,-0.1227777777777778,2.5357999999821175],[0.3039583333333333,-0.18888888888888888,2.5510999999940367],[0.32531249999999995,-0.2559259259259259,2.567899999976156],[0.32052083333333337,-0.3442592592592592,2.5850999999940427],[0.3255208333333333,-0.33777777777777773,2.601099999994041],[0.3267708333333334,-0.2935185185185185,2.617799999982118],[0.31833333333333325,-0.24740740740740744,2.6345999999940375],[0.29791666666666666,-0.21388888888888888,2.65119999998808],[0.28406250000000005,-0.1814814814814815,2.6677999999821225],[0.2573958333333332,-0.14148148148148143,2.6845],[0.19947916666666668,-0.10092592592592593,2.701199999988077],[0.23572916666666663,-0.06129629629629634,2.7178999999761615],[0.27447916666666666,-0.009999999999999959,2.734499999999997],[0.2913541666666667,0.0772222222222223,2.7510999999940395],[0.3064583333333334,0.14333333333333328,2.767799999982117],[0.3178124999999999,0.20703703703703696,2.7845000000000013],[0.3246875000000001,0.23666666666666658,2.8012999999821204],[0.3477083333333333,0.2646296296296296,2.817899999976156],[0.39385416666666656,0.2540740740740742,2.8344999999999985],[0.41593749999999996,0.22481481481481477,2.851099999994041],[0.47854166666666675,0.2442592592592592,2.867799999982118],[0.46031250000000007,0.25277777777777777,2.8845999999940375],[0.43427083333333344,0.24018518518518528,2.90119999998808],[0.45281250000000006,0.22092592592592583,2.9178999999761572],[0.4756249999999999,0.16592592592592598,2.9345],[0.49197916666666663,0.13444444444444448,2.951199999988077],[0.46749999999999997,0.16796296296296304,2.9678999999761615],[0.43114583333333345,0.25703703703703695,2.984599999994039],[0.41531250000000003,0.31814814814814807,3.0010999999940395],[0.3703125,0.38981481481481484,3.017799999982117],[0.3203125,0.4455555555555556,3.034599999994043],[0.2569791666666667,0.5131481481481482,3.0511999999880786],[0.1837500000000001,0.6,3.067999999999998],[0.08499999999999991,0.6011111111111112,3.0844999999999985],[-0.013854166666666619,0.6429629629629631,3.101199999988083],[-0.10562499999999998,0.5866666666666666,3.117799999982118],[-0.1454166666666667,0.4644444444444444,3.1345000000000027],[-0.1554166666666667,0.34666666666666673,3.151099999994038]]","[0.00019999998807662678,0.041299999982122415,0.05250000000000199,0.07489999997616081,0.09250000000000114,0.10600000000000165,0.11789999997616007,0.13469999998807936,0.1513999999761566,0.16789999997615723,0.18689999997615558,0.20199999999999818,0.21809999999403828,0.2345999999940389,0.2518999999761604,0.27089999997615877,0.2882999999821223,0.3018999999761576,0.3178999999761558,0.33459999999404033,0.3512999999821176,0.3678999999761601,0.3850999999940399,0.4013999999761566,0.41789999997615723,0.43459999999404175,0.45119999998807714,0.4678999999761615,0.4845999999940389,0.5015999999940419,0.5178999999761587,0.5348999999761617,0.5511999999880786,0.5678999999761558,0.5850999999940427,0.6012999999821176,0.6178999999761601,0.6345999999940375,0.65119999998808,0.6677999999821225,0.6845999999940418,0.701299999982119,0.7178999999761615,0.734499999999997,0.7511999999880814,0.7678999999761587,0.7845999999940432,0.8011999999880786,0.8178999999761558,0.8345999999940403,0.8511999999880828,0.8678999999761601,0.8845999999940375,0.90119999998808,0.9179999999999993,0.9345999999940418,0.9511999999880771,0.9680000000000035,0.9845999999940389,1.0011999999880814,1.0177999999821168,1.0345000000000013,1.0511999999880786,1.067799999982121,1.0844999999999985,1.1011999999880828,1.11789999997616,1.1345999999940375,1.15119999998808,1.1678999999761572,1.1844999999999999,1.2011999999880771,1.2177999999821196,1.2385999999940367,1.2512999999821162,1.2678999999761587,1.2862999999821199,1.3012999999821204,1.3178999999761558,1.3350000000000009,1.3511999999880828,1.3677999999821182,1.3845000000000027,1.40119999998808,1.4178999999761572,1.4344999999999999,1.4511999999880771,1.4678999999761615,1.485199999988076,1.5025999999940396,1.5178999999761587,1.5345000000000013,1.5514999999999972,1.5678999999761558,1.5850000000000009,1.6011999999880828,1.6177999999821182,1.6345999999940375,1.6512999999821218,1.6705999999940389,1.6863999999761603,1.703699999988082,1.7220999999940432,1.7371999999880785,1.752199999988079,1.7705999999940403,1.786899999976157,1.801599999994039,1.8179999999999978,1.837099999994038,1.8530000000000015,1.8683999999761554,1.88809999999404,1.9010999999940381,1.9178999999761572,1.9344999999999999,1.9510999999940424,1.9678999999761615,1.984599999994039,2.0011999999880814,2.0178999999761587,2.0345000000000013,2.0511999999880786,2.067899999976156,2.0845999999940403,2.101199999988083,2.11789999997616,2.1353999999761584,2.15119999998808,2.1678999999761572,2.1853999999761555,2.201199999988077,2.2178999999761615,2.234599999994039,2.2525999999940396,2.2678999999761587,2.285299999982122,2.30239999997616,2.317899999976156,2.3344999999999985,2.351199999988083,2.36789999997616,2.3845000000000027,2.4013999999761566,2.4178999999761572,2.4345999999940418,2.451199999988077,2.4677999999821196,2.484499999999997,2.501299999982116,2.5180000000000007,2.5357999999821175,2.5510999999940367,2.567899999976156,2.5850999999940427,2.601099999994041,2.617799999982118,2.6345999999940375,2.65119999998808,2.6677999999821225,2.6845,2.701199999988077,2.7178999999761615,2.734499999999997,2.7510999999940395,2.767799999982117,2.7845000000000013,2.8012999999821204,2.817899999976156,2.8344999999999985,2.851099999994041,2.867799999982118,2.8845999999940375,2.90119999998808,2.9178999999761572,2.9345,2.951199999988077,2.9678999999761615,2.984599999994039,3.0010999999940395,3.017799999982117,3.034599999994043,3.0511999999880786,3.067999999999998,3.0844999999999985,3.101199999988083,3.117799999982118,3.1345000000000027,3.151099999994038]","[1733383444086,1733383444120,1733383444132,1733383444154,1733383444171,1733383444185,1733383444197,1733383444214,1733383444230,1733383444247,1733383444266,1733383444281,1733383444297,1733383444314,1733383444331,1733383444350,1733383444367,1733383444381,1733383444397,1733383444414,1733383444430,1733383444447,1733383444464,1733383444480,1733383444497,1733383444514,1733383444530,1733383444547,1733383444564,1733383444580,1733383444597,1733383444614,1733383444630,1733383444647,1733383444664,1733383444680,1733383444697,1733383444714,1733383444730,1733383444747,1733383444764,1733383444780,1733383444797,1733383444814,1733383444830,1733383444847,1733383444864,1733383444880,1733383444897,1733383444914,1733383444930,1733383444947,1733383444964,1733383444980,1733383444997,1733383445014,1733383445030,1733383445047,1733383445064,1733383445080,1733383445097,1733383445113,1733383445130,1733383445147,1733383445164,1733383445180,1733383445197,1733383445214,1733383445230,1733383445247,1733383445264,1733383445280,1733383445297,1733383445318,1733383445330,1733383445347,1733383445365,1733383445380,1733383445397,1733383445414,1733383445430,1733383445447,1733383445464,1733383445480,1733383445497,1733383445513,1733383445530,1733383445547,1733383445564,1733383445582,1733383445597,1733383445614,1733383445630,1733383445647,1733383445664,1733383445680,1733383445697,1733383445713,1733383445730,1733383445750,1733383445765,1733383445783,1733383445801,1733383445816,1733383445831,1733383445850,1733383445866,1733383445881,1733383445897,1733383445916,1733383445932,1733383445947,1733383445967,1733383445980,1733383445997,1733383446013,1733383446030,1733383446047,1733383446064,1733383446080,1733383446097,1733383446113,1733383446130,1733383446147,1733383446164,1733383446180,1733383446197,1733383446214,1733383446230,1733383446247,1733383446264,1733383446280,1733383446297,1733383446314,1733383446332,1733383446347,1733383446364,1733383446381,1733383446397,1733383446413,1733383446430,1733383446447,1733383446463,1733383446480,1733383446497,1733383446514,1733383446530,1733383446547,1733383446564,1733383446580,1733383446597,1733383446615,1733383446630,1733383446647,1733383446664,1733383446680,1733383446697,1733383446714,1733383446730,1733383446747,1733383446763,1733383446780,1733383446797,1733383446813,1733383446830,1733383446847,1733383446863,1733383446880,1733383446897,1733383446913,1733383446930,1733383446947,1733383446964,1733383446980,1733383446997,1733383447014,1733383447030,1733383447047,1733383447064,1733383447080,1733383447097,1733383447114,1733383447130,1733383447147,1733383447163,1733383447180,1733383447197,1733383447213,1733383447230]","[[959.2,483.5],[959.2,483.5],[979.3,492.8],[979.3,492.8],[1006.5,509.6],[1006.5,509.6],[1010.3,514.6],[1010.3,514.6],[1008,515],[1017.6,516.2],[1018.3,522.6],[1017.9,513.2],[1026.7,491.5],[1037.3,484.3],[1026.5,458.9],[1018.8,452.8],[992.4,438.7],[987.6,443.8],[951.7,444.5],[951.7,444.5],[917.4,451],[865.4,447],[814.5,452.7],[763.6,458.4],[729.1,457.3],[694.6,456.2],[646.8,482.7],[612.9,499.7],[560.8,508.3],[518.4,505.3],[505.7,502.7],[484.3,499.5],[462.9,502.4],[469.5,501],[456.8,506.1],[456.8,506.1],[497.2,517.4],[543.6,483],[590,448.6],[654.6,422.6],[754.5,418.3],[814.4,408.2],[886.6,401.3],[958.8,394.4],[1004.8,395.6],[1053.8,398.6],[1092.5,414.5],[1117.3,425.7],[1110.8,445.3],[1099,460.3],[1124.2,466.3],[1162.5,478.2],[1201,479.1],[1238.2,514.3],[1277.1,530.8],[1313.5,533.5],[1307.1,517.1],[1329.5,533],[1363.2,522.6],[1398.5,531.3],[1377.6,526.3],[1368.2,526.4],[1363.3,543.2],[1336.1,497.4],[1323.7,483.4],[1323.7,483.4],[1313.8,483.2],[1295.2,481.2],[1273.2,478.6],[1271.2,493.9],[1276.6,518.2],[1296.4,529],[1307.4,536.6],[1318.4,544.2],[1318.4,544.2],[1303.5,599.6],[1286.8,628.3],[1264.1,675.1],[1251.3,716.9],[1232.4,749.3],[1211.5,788.7],[1187.2,771.9],[1142.7,766.1],[1099.4,752.9],[1056.1,739.7],[1061.1,717.4],[1043.4,718.7],[1031.7,701.9],[1013.3,675.9],[1010.6,637.6],[1014.4,605.4],[1017.9,605.9],[995.6,593.3],[969.4,586.2],[998.8,599.8],[1029.4,603],[1002.9,615.1],[986.8,624.2],[983.2,634.8],[1002.3,642.7],[994.8,638.9],[983.5,604.2],[1029.5,614.3],[1077.1,624.3],[1069.1,613.6],[1034.7,612.8],[1081.1,566],[1111.6,523.7],[1135.1,495.9],[1112.3,462.1],[1133.5,446.7],[1162.2,466],[1165.2,456.1],[1165.2,456.1],[1165.7,440],[1165.7,440],[1165.4,419.8],[1165.4,419.8],[1182,386.9],[1182,386.9],[1166.2,403.4],[1166.2,403.4],[1172.9,400.3],[1172.9,400.3],[1141.1,412.6],[1141.1,412.6],[1090.4,450.6],[1026.2,456.7],[958.3,459],[890.2,469.9],[823,487.1],[753,519.5],[692.5,554.7],[647.9,540.9],[586.3,545.2],[602.1,532.8],[646.6,516.2],[682.7,511.7],[738.5,529.1],[794.5,537.9],[838.6,549.1],[886.3,549.2],[943.7,551.9],[1000.1,577.5],[1081.6,614.6],[1112.5,610.5],[1147,586],[1184.4,579.4],[1199.1,546],[1186.5,527.5],[1214.1,506.8],[1237.8,473.7],[1251.8,438],[1272.3,401.8],[1267.7,354.1],[1272.5,357.6],[1273.7,381.5],[1265.6,406.4],[1246,424.5],[1232.7,442],[1207.1,463.6],[1151.5,485.5],[1186.3,506.9],[1223.5,534.6],[1239.7,581.7],[1254.2,617.4],[1265.1,651.8],[1271.7,667.8],[1293.8,682.9],[1338.1,677.2],[1359.3,661.4],[1419.4,671.9],[1401.9,676.5],[1376.9,669.7],[1394.7,659.3],[1416.6,629.6],[1432.3,612.6],[1408.8,630.7],[1373.9,678.8],[1358.7,711.8],[1315.5,750.5],[1267.5,780.6],[1206.7,817.1],[1136.4,864],[1041.6,864.6],[946.7,887.2],[858.6,856.8],[820.4,790.8],[810.8,727.2]]","[0,0.3527331528]","[0.3527331528,0.3527331528]","[-0.3527331528,-0.3527331528]","[-0.3527331528,0]","[0,-0.3527331528]","[0.3527331528,-0.3527331528]","[0,0]","[0.3527331528,0]",0,0,0,0,1,2,Tablet,7,1,11,9
,,,,,,,,,,,,,,,,,,,49,001,2024-12-05_15h23.29.630,Attention_exp_legacy,2023.1.0,Win32,60.24096386,,,,,,,,,,,[0.016666666666666666],[0.32037037037037036],[1],[0],[0],[1.6485999999940404],"[""Option1_label""]",Option1_label,2,2.6664,"[[0.3104166666666667,0.2796296296296296],[0.3104166666666667,0.2796296296296296],[0.3104166666666667,0.2796296296296296],[0.3104166666666667,0.2796296296296296],[0.3104166666666667,0.2796296296296296],[0.3104166666666667,0.2796296296296296],[0.3104166666666667,0.2796296296296296],[0.3104166666666667,0.2796296296296296],[0.3104166666666667,0.2796296296296296],[0.3104166666666667,0.2796296296296296],[0.3104166666666667,0.2796296296296296],[0.3104166666666667,0.2796296296296296],[0.3104166666666667,0.2796296296296296],[0.3104166666666667,0.2796296296296296],[0.3104166666666667,0.2796296296296296],[0.3104166666666667,0.2796296296296296],[0.3104166666666667,0.2796296296296296],[0.3104166666666667,0.2796296296296296],[0.3104166666666667,0.2796296296296296],[0.3104166666666667,0.2796296296296296],[0.3104166666666667,0.2796296296296296],[0.3104166666666667,0.2796296296296296],[0.3104166666666667,0.2796296296296296],[0.3104166666666667,0.2796296296296296],[0.3104166666666667,0.2796296296296296],[0.3104166666666667,0.2796296296296296],[0.3104166666666667,0.2796296296296296],[0.3104166666666667,0.2796296296296296],[0.3104166666666667,0.2796296296296296],[0.3104166666666667,0.2796296296296296],[0.3104166666666667,0.2796296296296296],[0.3104166666666667,0.2796296296296296],[0.3104166666666667,0.2796296296296296],[0.3104166666666667,0.2796296296296296],[0.3104166666666667,0.2796296296296296],[0.3104166666666667,0.2796296296296296],[0.3104166666666667,0.2796296296296296],[0.3104166666666667,0.2796296296296296],[0.3104166666666667,0.2796296296296296],[0.3104166666666667,0.2796296296296296],[0.3104166666666667,0.2796296296296296],[0.3104166666666667,0.2796296296296296],[0.3104166666666667,0.2796296296296296],[0.3104166666666667,0.2796296296296296],[0.3104166666666667,0.2796296296296296],[0.3104166666666667,0.2796296296296296],[0.3104166666666667,0.2796296296296296],[0.3104166666666667,0.2796296296296296],[0.3104166666666667,0.2796296296296296],[0.3104166666666667,0.2796296296296296],[0.3104166666666667,0.2796296296296296],[0.3104166666666667,0.2796296296296296],[0.3104166666666667,0.2796296296296296],[0.3104166666666667,0.2796296296296296],[0.3104166666666667,0.2796296296296296],[0.3104166666666667,0.2796296296296296],[0.3104166666666667,0.2796296296296296],[0.3104166666666667,0.2796296296296296],[0.3104166666666667,0.2796296296296296],[0.3104166666666667,0.2796296296296296],[0.3104166666666667,0.2796296296296296],[0.3104166666666667,0.2796296296296296],[0.3104166666666667,0.2796296296296296],[0.3104166666666667,0.2796296296296296],[0.3104166666666667,0.2796296296296296],[0.3104166666666667,0.2796296296296296],[0.3104166666666667,0.2796296296296296],[0.3104166666666667,0.2796296296296296],[0.3104166666666667,0.2796296296296296],[0.3104166666666667,0.2796296296296296],[0.3104166666666667,0.2796296296296296],[0.3104166666666667,0.2796296296296296],[0.3104166666666667,0.2796296296296296],[0.3104166666666667,0.2796296296296296],[0.3104166666666667,0.2796296296296296],[0.3104166666666667,0.2796296296296296],[0.3104166666666667,0.2796296296296296],[0.3104166666666667,0.2796296296296296],[0.3104166666666667,0.2796296296296296],[0.3104166666666667,0.2796296296296296],[0.30520833333333336,0.2796296296296296],[0.2916666666666667,0.2833333333333333],[0.26875,0.28703703703703703],[0.24479166666666666,0.29259259259259257],[0.21354166666666666,0.29814814814814816],[0.184375,0.30185185185185187],[0.14895833333333333,0.3055555555555556],[0.11979166666666667,0.30925925925925923],[0.08854166666666667,0.31296296296296294],[0.06041666666666667,0.32037037037037036],[0.0375,0.32037037037037036],[0.021875,0.32037037037037036],[0.019791666666666666,0.32037037037037036],[0.017708333333333333,0.32037037037037036],[0.016666666666666666,0.32037037037037036],[0.016666666666666666,0.32037037037037036],[0.016666666666666666,0.32037037037037036],[0.016666666666666666,0.32037037037037036],[0.016666666666666666,0.32037037037037036],[0.016666666666666666,0.32037037037037036],[0.016666666666666666,0.32037037037037036],[0.016666666666666666,0.32037037037037036],[0.016666666666666666,0.32037037037037036],[0.016666666666666666,0.32037037037037036],[0.016666666666666666,0.32037037037037036],[0.016666666666666666,0.32037037037037036],[0.016666666666666666,0.32037037037037036],[0.016666666666666666,0.32037037037037036],[0.016666666666666666,0.32037037037037036],[0.016666666666666666,0.32037037037037036],[0.016666666666666666,0.32037037037037036],[0.016666666666666666,0.32037037037037036],[0.016666666666666666,0.32037037037037036],[0.016666666666666666,0.32037037037037036],[0.016666666666666666,0.32037037037037036],[0.016666666666666666,0.32037037037037036],[0.016666666666666666,0.32037037037037036],[0.016666666666666666,0.32037037037037036],[0.016666666666666666,0.32037037037037036],[0.016666666666666666,0.32037037037037036],[0.016666666666666666,0.32037037037037036],[0.016666666666666666,0.32037037037037036],[0.016666666666666666,0.32037037037037036],[0.016666666666666666,0.32037037037037036],[0.016666666666666666,0.32037037037037036],[0.016666666666666666,0.32037037037037036],[0.016666666666666666,0.32037037037037036],[0.016666666666666666,0.32037037037037036],[0.016666666666666666,0.32037037037037036],[0.016666666666666666,0.32037037037037036],[0.016666666666666666,0.32037037037037036],[0.016666666666666666,0.32037037037037036],[0.016666666666666666,0.32037037037037036],[0.016666666666666666,0.32037037037037036],[0.016666666666666666,0.32037037037037036],[0.016666666666666666,0.32037037037037036],[0.016666666666666666,0.32037037037037036],[0.016666666666666666,0.32037037037037036],[0.016666666666666666,0.32037037037037036],[0.016666666666666666,0.32037037037037036],[0.016666666666666666,0.32037037037037036],[0.016666666666666666,0.32037037037037036],[0.016666666666666666,0.32037037037037036],[0.016666666666666666,0.32037037037037036],[0.016666666666666666,0.32037037037037036],[0.016666666666666666,0.32037037037037036],[0.016666666666666666,0.32037037037037036],[0.016666666666666666,0.32037037037037036],[0.016666666666666666,0.32037037037037036],[0.016666666666666666,0.32037037037037036],[0.016666666666666666,0.32037037037037036],[0.016666666666666666,0.32037037037037036],[0.016666666666666666,0.32037037037037036],[0.016666666666666666,0.32037037037037036],[0.016666666666666666,0.32037037037037036],[0.016666666666666666,0.32037037037037036],[0.016666666666666666,0.32037037037037036],[0.016666666666666666,0.32037037037037036],[0.016666666666666666,0.32037037037037036],[0.016666666666666666,0.32037037037037036],[0.016666666666666666,0.32037037037037036]]","[[-0.41510416666666666,0.3764814814814814],[-0.35989583333333336,0.4348148148148147],[-0.28624999999999995,0.4087037037037038],[-0.23333333333333334,0.4322222222222222],[-0.17749999999999996,0.4107407407407407],[-0.12000000000000005,0.372037037037037],[-0.12000000000000005,0.372037037037037],[-0.035208333333333286,0.33666666666666656],[0.08958333333333333,0.32981481481481484],[0.17177083333333343,0.26851851851851855],[0.2539583333333333,0.20722222222222217],[0.26885416666666656,0.15055555555555547],[0.3069791666666667,0.08518518518518518],[0.2991666666666667,0.08277777777777787],[0.2913541666666667,0.08037037037037033],[0.2929166666666667,0.05129629629629638],[0.3067708333333333,0.0235185185185186],[0.29322916666666665,-0.0035185185185184764],[0.2796875,-0.030555555555555555],[0.271875,-0.002407407407407323],[0.2595833333333334,-0.009999999999999959],[0.25750000000000006,-0.025185185185185227],[0.2413541666666667,-0.011296296296296339],[0.23708333333333323,-0.012407407407407492],[0.23604166666666657,-0.014259259259259343],[0.2181250000000001,-0.0001851851851852273],[0.1877083333333334,0.026481481481481398],[0.1638541666666666,0.041666666666666664],[0.16156249999999991,0.04129629629629621],[0.17854166666666677,0.022222222222222223],[0.17218749999999997,0.038703703703703664],[0.1658333333333334,0.0551851851851851],[0.15031249999999996,0.05129629629629638],[0.15135416666666662,0.027777777777777776],[0.14916666666666673,0.005000000000000084],[0.16708333333333342,0.002407407407407323],[0.1974999999999999,-0.012777777777777735],[0.21541666666666662,-0.04981481481481477],[0.20416666666666666,-0.06148148148148146],[0.20177083333333337,-0.010370370370370412],[0.22885416666666672,0.014814814814814815],[0.2691666666666668,0.006481481481481481],[0.3094791666666666,-0.001851851851851852],[0.30531249999999993,0.041111111111111195],[0.3178124999999999,0.0868518518518518],[0.3042708333333332,0.05185185185185185],[0.28104166666666663,0.057037037037036956],[0.2703125,0.08407407407407404],[0.26624999999999993,0.13925925925925933],[0.26510416666666664,0.09685185185185177],[0.25197916666666675,0.07685185185185185],[0.2099999999999999,0.10277777777777777],[0.17489583333333342,0.16722222222222213],[0.17739583333333328,0.17462962962962955],[0.15958333333333338,0.18055555555555555],[0.14770833333333327,0.247037037037037],[0.14552083333333338,0.2733333333333334],[0.13270833333333343,0.256111111111111],[0.12083333333333333,0.20092592592592592],[0.08958333333333333,0.18888888888888888],[0.06864583333333343,0.18055555555555555],[0.06645833333333329,0.1544444444444444],[0.057395833333333354,0.08981481481481482],[0.027395833333333286,0.020370370370370372],[0.0010416666666666667,-0.050370370370370454],[0.0010416666666666667,-0.050370370370370454],[-0.03447916666666669,-0.09962962962962965],[-0.036666666666666715,-0.11537037037037039],[-0.02822916666666669,-0.08759259259259261],[-0.04802083333333336,-0.06259259259259262],[-0.07260416666666672,-0.0448148148148149],[-0.09718749999999995,-0.027037037037037078],[-0.08927083333333338,0.005370370370370328],[-0.08135416666666669,0.03777777777777774],[-0.0655208333333333,0.07166666666666675],[-0.049687500000000044,0.10555555555555556],[-0.03239583333333336,0.09962962962962954],[-0.0484375,0.06018518518518518],[-0.04666666666666662,0.04462962962962967],[-0.016666666666666666,0.03185185185185194],[0.025729166666666713,0.01796296296296305],[0.08041666666666672,-0.03759259259259251],[0.07489583333333343,-0.07611111111111116],[0.08979166666666671,-0.08277777777777776],[0.11052083333333323,-0.1081481481481481],[0.1243750000000001,-0.12407407407407407],[0.14593749999999991,-0.12166666666666665],[0.1759375000000001,-0.10907407407407403],[0.1646874999999999,-0.15333333333333335],[0.1640625,-0.1594444444444445],[0.1423958333333334,-0.20703703703703705],[0.10843749999999991,-0.21296296296296297],[0.0990624999999999,-0.24518518518518514],[0.0884375000000001,-0.30481481481481487],[0.09739583333333333,-0.30092592592592593],[0.11322916666666671,-0.30648148148148147],[0.08718750000000004,-0.29666666666666663],[0.050416666666666644,-0.290925925925926],[0.07041666666666657,-0.2851851851851852],[0.07791666666666662,-0.30777777777777776],[0.11104166666666657,-0.31500000000000006],[0.14416666666666675,-0.32222222222222224],[0.19500000000000003,-0.2442592592592592],[0.22666666666666657,-0.17074074074074072],[0.23624999999999996,-0.11333333333333331],[0.23624999999999996,-0.11333333333333331],[0.2205208333333334,-0.14444444444444443],[0.2205208333333334,-0.14444444444444443],[0.2404166666666666,-0.18037037037037032],[0.25322916666666656,-0.2507407407407407],[0.25322916666666656,-0.2507407407407407],[0.2842708333333334,-0.2403703703703704],[0.2842708333333334,-0.2403703703703704],[0.31145833333333334,-0.24111111111111108],[0.31145833333333334,-0.24111111111111108],[0.2990624999999999,-0.18777777777777774],[0.2990624999999999,-0.18777777777777774],[0.25750000000000006,-0.207962962962963],[0.21083333333333343,-0.32629629629629625],[0.16416666666666657,-0.44462962962962965],[0.15,-0.49314814814814817],[0.15,-0.49314814814814817],[0.10666666666666676,-0.5042592592592593],[0.12687499999999996,-0.4381481481481482],[0.09083333333333338,-0.34370370370370373],[0.01593749999999995,-0.27870370370370373],[0.021562500000000047,-0.22388888888888886],[0.06218750000000005,-0.19703703703703698],[0.1319791666666667,-0.09666666666666665],[0.14614583333333328,0.06722222222222214],[0.1603125000000001,0.23111111111111102],[0.16218750000000004,0.25388888888888894],[0.2185416666666666,0.3277777777777778],[0.1881249999999999,0.30999999999999994],[0.1881249999999999,0.30999999999999994],[0.22333333333333344,0.29222222222222216],[0.2430208333333333,0.25703703703703695],[0.21124999999999997,0.24518518518518514],[0.1794791666666666,0.23333333333333334],[0.1609375,0.15611111111111103],[0.18541666666666667,0.02833333333333325],[0.1944791666666667,-0.04814814814814815],[0.15343749999999995,-0.10611111111111113],[0.15770833333333342,-0.14481481481481479],[0.17447916666666666,-0.18111111111111114],[0.15281250000000005,-0.25629629629629624],[0.15052083333333333,-0.3175925925925926],[0.12322916666666663,-0.3937037037037037],[0.10572916666666667,-0.4677777777777778],[0.08333333333333333,-0.4788888888888889],[0.04624999999999998,-0.4542592592592593],[0.0484375,-0.4888888888888889],[0.08052083333333329,-0.47074074074074074],[0.035312499999999976,-0.43407407407407406],[0.007083333333333286,-0.39592592592592596],[0.0078125,-0.3888888888888889],[-0.008020833333333382,-0.39666666666666667],[-0.00916666666666662,-0.3001851851851852],[-0.02010416666666662,-0.20574074074074078],[-0.0375,-0.14611111111111108],[-0.04020833333333336,-0.12222222222222222]]","[[-0.41510416666666666,0.3764814814814814,0.0000999999940418661],[-0.35989583333333336,0.4348148148148147,0.016500000000000625],[-0.28624999999999995,0.4087037037037038,0.03300000000000125],[-0.23333333333333334,0.4322222222222222,0.0496999999880785],[-0.17749999999999996,0.4107407407407407,0.06640000000595592],[-0.12000000000000005,0.372037037037037,0.08640000000595904],[-0.12000000000000005,0.372037037037037,0.09979999998211753],[-0.035208333333333286,0.33666666666666656,0.11650000000000205],[0.08958333333333333,0.32981481481481484,0.1334000000059561],[0.17177083333333343,0.26851851851851855,0.14979999998211468],[0.2539583333333333,0.20722222222222217,0.16640000000595734],[0.26885416666666656,0.15055555555555547,0.1830999999940417],[0.3069791666666667,0.08518518518518518,0.19969999998807708],[0.2991666666666667,0.08277777777777787,0.2164000000059616],[0.2913541666666667,0.08037037037037033,0.23309999999403885],[0.2929166666666667,0.05129629629629638,0.24969999998808134],[0.3067708333333333,0.0235185185185186,0.26640000000595876],[0.29322916666666665,-0.0035185185185184764,0.28300000000000125],[0.2796875,-0.030555555555555555,0.2996999999880785],[0.271875,-0.002407407407407323,0.3201999999880769],[0.2595833333333334,-0.009999999999999959,0.33340000000595893],[0.25750000000000006,-0.025185185185185227,0.34969999998807566],[0.2413541666666667,-0.011296296296296339,0.36790000000596024],[0.23708333333333323,-0.012407407407407492,0.38309999999403743],[0.23604166666666657,-0.014259259259259343,0.3996999999880799],[0.2181250000000001,-0.0001851851851852273,0.41640000000595734],[0.1877083333333334,0.026481481481481398,0.43299999999999983],[0.1638541666666666,0.041666666666666664,0.44979999998211895],[0.16156249999999991,0.04129629629629621,0.46649999999999636],[0.17854166666666677,0.022222222222222223,0.48309999999403885],[0.17218749999999997,0.038703703703703664,0.4997999999821161],[0.1658333333333334,0.0551851851851851,0.5164000000059588],[0.15031249999999996,0.05129629629629638,0.533099999994036],[0.15135416666666662,0.027777777777777776,0.5497999999821204],[0.14916666666666673,0.005000000000000084,0.5664000000059559],[0.16708333333333342,0.002407407407407323,0.5830999999940403],[0.1974999999999999,-0.012777777777777735,0.6009999999999991],[0.21541666666666662,-0.04981481481481477,0.6177999999821182],[0.20416666666666666,-0.06148148148148146,0.634999999999998],[0.20177083333333337,-0.010370370370370412,0.6496999999880799],[0.22885416666666672,0.014814814814814815,0.6664000000059573],[0.2691666666666668,0.006481481481481481,0.6829999999999998],[0.3094791666666666,-0.001851851851851852,0.6996999999880771],[0.30531249999999993,0.041111111111111195,0.7162999999821196],[0.3178124999999999,0.0868518518518518,0.7330999999940389],[0.3042708333333332,0.05185185185185185,0.7496999999880813],[0.28104166666666663,0.057037037037036956,0.7665000000000006],[0.2703125,0.08407407407407404,0.7830000000000013],[0.26624999999999993,0.13925925925925933,0.7999999999999972],[0.26510416666666664,0.09685185185185177,0.8191999999880792],[0.25197916666666675,0.07685185185185185,0.8354999999999961],[0.2099999999999999,0.10277777777777777,0.8497999999821175],[0.17489583333333342,0.16722222222222213,0.8699000000059627],[0.17739583333333328,0.17462962962962955,0.8830999999940374],[0.15958333333333338,0.18055555555555555,0.8996999999880799],[0.14770833333333327,0.247037037037037,0.9164000000059573],[0.14552083333333338,0.2733333333333334,0.9330999999940417],[0.13270833333333343,0.256111111111111,0.9496999999880771],[0.12083333333333333,0.20092592592592592,0.9664000000059616],[0.08958333333333333,0.18888888888888888,0.982999999999997],[0.06864583333333343,0.18055555555555555,0.9997999999821161],[0.06645833333333329,0.1544444444444444,1.0165000000000006],[0.057395833333333354,0.08981481481481482,1.0330000000000013],[0.027395833333333286,0.020370370370370372,1.0496999999880785],[0.0010416666666666667,-0.050370370370370454,1.066400000005956],[0.0010416666666666667,-0.050370370370370454,1.0830999999940403],[-0.03447916666666669,-0.09962962962962965,1.0997999999821175],[-0.036666666666666715,-0.11537037037037039,1.116500000000002],[-0.02822916666666669,-0.08759259259259261,1.1329999999999956],[-0.04802083333333336,-0.06259259259259262,1.14969999998808],[-0.07260416666666672,-0.0448148148148149,1.1664000000059573],[-0.09718749999999995,-0.027037037037037078,1.1830999999940417],[-0.08927083333333338,0.005370370370370328,1.199799999982119],[-0.08135416666666669,0.03777777777777774,1.2164000000059616],[-0.0655208333333333,0.07166666666666675,1.232999999999997],[-0.049687500000000044,0.10555555555555556,1.2496999999880813],[-0.03239583333333336,0.09962962962962954,1.2664000000059588],[-0.0484375,0.06018518518518518,1.2830000000000013],[-0.04666666666666662,0.04462962962962967,1.2996999999880785],[-0.016666666666666666,0.03185185185185194,1.3166999999880815],[0.025729166666666713,0.01796296296296305,1.3354999999999961],[0.08041666666666672,-0.03759259259259251,1.3499000000059596],[0.07489583333333343,-0.07611111111111116,1.3665999999940368],[0.08979166666666671,-0.08277777777777776,1.3862999999821142],[0.11052083333333323,-0.1081481481481481,1.4014000000059568],[0.1243750000000001,-0.12407407407407407,1.416599999994041],[0.14593749999999991,-0.12166666666666665,1.4352999999821208],[0.1759375000000001,-0.10907407407407403,1.4502999999821142],[0.1646874999999999,-0.15333333333333335,1.4665999999940382],[0.1640625,-0.1594444444444445,1.4862999999821156],[0.1423958333333334,-0.20703703703703705,1.5004000000059605],[0.10843749999999991,-0.21296296296296297,1.5165000000000006],[0.0990624999999999,-0.24518518518518514,1.5374000000059596],[0.0884375000000001,-0.30481481481481487,1.5521999999880762],[0.09739583333333333,-0.30092592592592593,1.5670000000000002],[0.11322916666666671,-0.30648148148148147,1.5829999999999984],[0.08718750000000004,-0.29666666666666663,1.5996999999880757],[0.050416666666666644,-0.290925925925926,1.6162999999821182],[0.07041666666666657,-0.2851851851851852,1.6329999999999956],[0.07791666666666662,-0.30777777777777776,1.64969999998808],[0.11104166666666657,-0.31500000000000006,1.6662999999821153],[0.14416666666666675,-0.32222222222222224,1.6829999999999998],[0.19500000000000003,-0.2442592592592592,1.699699999988077],[0.22666666666666657,-0.17074074074074072,1.7164000000059616],[0.23624999999999996,-0.11333333333333331,1.732999999999997],[0.23624999999999996,-0.11333333333333331,1.7500999999940419],[0.2205208333333334,-0.14444444444444443,1.7664000000059588],[0.2205208333333334,-0.14444444444444443,1.7830000000000013],[0.2404166666666666,-0.18037037037037032,1.7996999999880785],[0.25322916666666656,-0.2507407407407407,1.822499999999998],[0.25322916666666656,-0.2507407407407407,1.8329999999999984],[0.2842708333333334,-0.2403703703703704,1.8496999999880757],[0.2842708333333334,-0.2403703703703704,1.8664000000059602],[0.31145833333333334,-0.24111111111111108,1.8829999999999956],[0.31145833333333334,-0.24111111111111108,1.8997999999821147],[0.2990624999999999,-0.18777777777777774,1.9164999999999992],[0.2990624999999999,-0.18777777777777774,1.9329999999999998],[0.25750000000000006,-0.207962962962963,1.949699999988077],[0.21083333333333343,-0.32629629629629625,1.967599999994036],[0.16416666666666657,-0.44462962962962965,1.9830999999940389],[0.15,-0.49314814814814817,1.9996999999880813],[0.15,-0.49314814814814817,2.0164000000059588],[0.10666666666666676,-0.5042592592592593,2.033099999994036],[0.12687499999999996,-0.4381481481481482,2.0496999999880785],[0.09083333333333338,-0.34370370370370373,2.066499999999998],[0.01593749999999995,-0.27870370370370373,2.0842999999821146],[0.021562500000000047,-0.22388888888888886,2.101099999994041],[0.06218750000000005,-0.19703703703703698,2.116500000000002],[0.1319791666666667,-0.09666666666666665,2.1329999999999956],[0.14614583333333328,0.06722222222222214,2.14969999998808],[0.1603125000000001,0.23111111111111102,2.1664000000059573],[0.16218750000000004,0.25388888888888894,2.1830999999940417],[0.2185416666666666,0.3277777777777778,2.199699999988077],[0.1881249999999999,0.30999999999999994,2.21819999998808],[0.1881249999999999,0.30999999999999994,2.2340000000000018],[0.22333333333333344,0.29222222222222216,2.249799999982116],[0.2430208333333333,0.25703703703703695,2.2664000000059588],[0.21124999999999997,0.24518518518518514,2.2830000000000013],[0.1794791666666666,0.23333333333333334,2.2996999999880785],[0.1609375,0.15611111111111103,2.316400000005956],[0.18541666666666667,0.02833333333333325,2.3329999999999984],[0.1944791666666667,-0.04814814814814815,2.3496999999880757],[0.15343749999999995,-0.10611111111111113,2.36640000000596],[0.15770833333333342,-0.14481481481481479,2.3830999999940374],[0.17447916666666666,-0.18111111111111114,2.39969999998808],[0.15281250000000005,-0.25629629629629624,2.4164000000059573],[0.15052083333333333,-0.3175925925925926,2.433],[0.12322916666666663,-0.3937037037037037,2.449699999988077],[0.10572916666666667,-0.4677777777777778,2.469199999988078],[0.08333333333333333,-0.4788888888888889,2.483099999994039],[0.04624999999999998,-0.4542592592592593,2.4996999999880813],[0.0484375,-0.4888888888888889,2.5164000000059588],[0.08052083333333329,-0.47074074074074074,2.533099999994036],[0.035312499999999976,-0.43407407407407406,2.5496999999880785],[0.007083333333333286,-0.39592592592592596,2.566400000005956],[0.0078125,-0.3888888888888889,2.5829999999999984],[-0.008020833333333382,-0.39666666666666667,2.5997999999821175],[-0.00916666666666662,-0.3001851851851852,2.616299999982118],[-0.02010416666666662,-0.20574074074074078,2.6329999999999956],[-0.0375,-0.14611111111111108,2.64969999998808],[-0.04020833333333336,-0.12222222222222222,2.6664000000059573]]","[0.0000999999940418661,0.016500000000000625,0.03300000000000125,0.0496999999880785,0.06640000000595592,0.08640000000595904,0.09979999998211753,0.11650000000000205,0.1334000000059561,0.14979999998211468,0.16640000000595734,0.1830999999940417,0.19969999998807708,0.2164000000059616,0.23309999999403885,0.24969999998808134,0.26640000000595876,0.28300000000000125,0.2996999999880785,0.3201999999880769,0.33340000000595893,0.34969999998807566,0.36790000000596024,0.38309999999403743,0.3996999999880799,0.41640000000595734,0.43299999999999983,0.44979999998211895,0.46649999999999636,0.48309999999403885,0.4997999999821161,0.5164000000059588,0.533099999994036,0.5497999999821204,0.5664000000059559,0.5830999999940403,0.6009999999999991,0.6177999999821182,0.634999999999998,0.6496999999880799,0.6664000000059573,0.6829999999999998,0.6996999999880771,0.7162999999821196,0.7330999999940389,0.7496999999880813,0.7665000000000006,0.7830000000000013,0.7999999999999972,0.8191999999880792,0.8354999999999961,0.8497999999821175,0.8699000000059627,0.8830999999940374,0.8996999999880799,0.9164000000059573,0.9330999999940417,0.9496999999880771,0.9664000000059616,0.982999999999997,0.9997999999821161,1.0165000000000006,1.0330000000000013,1.0496999999880785,1.066400000005956,1.0830999999940403,1.0997999999821175,1.116500000000002,1.1329999999999956,1.14969999998808,1.1664000000059573,1.1830999999940417,1.199799999982119,1.2164000000059616,1.232999999999997,1.2496999999880813,1.2664000000059588,1.2830000000000013,1.2996999999880785,1.3166999999880815,1.3354999999999961,1.3499000000059596,1.3665999999940368,1.3862999999821142,1.4014000000059568,1.416599999994041,1.4352999999821208,1.4502999999821142,1.4665999999940382,1.4862999999821156,1.5004000000059605,1.5165000000000006,1.5374000000059596,1.5521999999880762,1.5670000000000002,1.5829999999999984,1.5996999999880757,1.6162999999821182,1.6329999999999956,1.64969999998808,1.6662999999821153,1.6829999999999998,1.699699999988077,1.7164000000059616,1.732999999999997,1.7500999999940419,1.7664000000059588,1.7830000000000013,1.7996999999880785,1.822499999999998,1.8329999999999984,1.8496999999880757,1.8664000000059602,1.8829999999999956,1.8997999999821147,1.9164999999999992,1.9329999999999998,1.949699999988077,1.967599999994036,1.9830999999940389,1.9996999999880813,2.0164000000059588,2.033099999994036,2.0496999999880785,2.066499999999998,2.0842999999821146,2.101099999994041,2.116500000000002,2.1329999999999956,2.14969999998808,2.1664000000059573,2.1830999999940417,2.199699999988077,2.21819999998808,2.2340000000000018,2.249799999982116,2.2664000000059588,2.2830000000000013,2.2996999999880785,2.316400000005956,2.3329999999999984,2.3496999999880757,2.36640000000596,2.3830999999940374,2.39969999998808,2.4164000000059573,2.433,2.449699999988077,2.469199999988078,2.483099999994039,2.4996999999880813,2.5164000000059588,2.533099999994036,2.5496999999880785,2.566400000005956,2.5829999999999984,2.5997999999821175,2.616299999982118,2.6329999999999956,2.64969999998808,2.6664000000059573]","[1733383448248,1733383448264,1733383448280,1733383448297,1733383448314,1733383448334,1733383448347,1733383448364,1733383448381,1733383448397,1733383448413,1733383448430,1733383448447,1733383448463,1733383448480,1733383448497,1733383448513,1733383448530,1733383448547,1733383448567,1733383448581,1733383448597,1733383448615,1733383448630,1733383448647,1733383448663,1733383448680,1733383448697,1733383448714,1733383448730,1733383448747,1733383448763,1733383448780,1733383448797,1733383448813,1733383448830,1733383448848,1733383448865,1733383448882,1733383448897,1733383448913,1733383448930,1733383448947,1733383448963,1733383448980,1733383448997,1733383449013,1733383449030,1733383449047,1733383449066,1733383449083,1733383449097,1733383449117,1733383449130,1733383449147,1733383449163,1733383449180,1733383449197,1733383449213,1733383449230,1733383449247,1733383449263,1733383449280,1733383449297,1733383449314,1733383449330,1733383449347,1733383449363,1733383449380,1733383449397,1733383449413,1733383449430,1733383449447,1733383449463,1733383449480,1733383449497,1733383449513,1733383449530,1733383449547,1733383449564,1733383449583,1733383449597,1733383449614,1733383449633,1733383449648,1733383449664,1733383449682,1733383449697,1733383449714,1733383449733,1733383449747,1733383449764,1733383449784,1733383449799,1733383449814,1733383449830,1733383449847,1733383449863,1733383449880,1733383449897,1733383449913,1733383449930,1733383449947,1733383449963,1733383449980,1733383449997,1733383450013,1733383450030,1733383450047,1733383450070,1733383450080,1733383450097,1733383450113,1733383450130,1733383450147,1733383450163,1733383450180,1733383450197,1733383450215,1733383450230,1733383450247,1733383450263,1733383450280,1733383450297,1733383450314,1733383450331,1733383450348,1733383450364,1733383450380,1733383450397,1733383450413,1733383450430,1733383450447,1733383450465,1733383450481,1733383450497,1733383450513,1733383450530,1733383450547,1733383450563,1733383450580,1733383450597,1733383450613,1733383450630,1733383450647,1733383450664,1733383450680,1733383450697,1733383450716,1733383450730,1733383450747,1733383450763,1733383450780,1733383450797,1733383450813,1733383450830,1733383450847,1733383450863,1733383450880,1733383450897,1733383450913]","[[561.5,743.3],[614.5,774.8],[685.2,760.7],[736,773.4],[789.6,761.8],[844.8,740.9],[844.8,740.9],[926.2,721.8],[1046,718.1],[1124.9,685],[1203.8,651.9],[1218.1,621.3],[1254.7,586],[1247.2,584.7],[1239.7,583.4],[1241.2,567.7],[1254.5,552.7],[1241.5,538.1],[1228.5,523.5],[1221,538.7],[1209.2,534.6],[1207.2,526.4],[1191.7,533.9],[1187.6,533.3],[1186.6,532.3],[1169.4,539.9],[1140.2,554.3],[1117.3,562.5],[1115.1,562.3],[1131.4,552],[1125.3,560.9],[1119.2,569.8],[1104.3,567.7],[1105.3,555],[1103.2,542.7],[1120.4,541.3],[1149.6,533.1],[1166.8,513.1],[1156,506.8],[1153.7,534.4],[1179.7,548],[1218.4,543.5],[1257.1,539],[1253.1,562.2],[1265.1,586.9],[1252.1,568],[1229.8,570.8],[1219.5,585.4],[1215.6,615.2],[1214.5,592.3],[1201.9,581.5],[1161.6,595.5],[1127.9,630.3],[1130.3,634.3],[1113.2,637.5],[1101.8,673.4],[1099.7,687.6],[1087.4,678.3],[1076,648.5],[1046,642],[1025.9,637.5],[1023.8,623.4],[1015.1,588.5],[986.3,551],[961,512.8],[961,512.8],[926.9,486.2],[924.8,477.7],[932.9,492.7],[913.9,506.2],[890.3,515.8],[866.7,525.4],[874.3,542.9],[881.9,560.4],[897.1,578.7],[912.3,597],[928.9,593.8],[913.5,572.5],[915.2,564.1],[944,557.2],[984.7,549.7],[1037.2,519.7],[1031.9,498.9],[1046.2,495.3],[1066.1,481.6],[1079.4,473],[1100.1,474.3],[1128.9,481.1],[1118.1,457.2],[1117.5,453.9],[1096.7,428.2],[1064.1,425],[1055.1,407.6],[1044.9,375.4],[1053.5,377.5],[1068.7,374.5],[1043.7,379.8],[1008.4,382.9],[1027.6,386],[1034.8,373.8],[1066.6,369.9],[1098.4,366],[1147.2,408.1],[1177.6,447.8],[1186.8,478.8],[1186.8,478.8],[1171.7,462],[1171.7,462],[1190.8,442.6],[1203.1,404.6],[1203.1,404.6],[1232.9,410.2],[1232.9,410.2],[1259,409.8],[1259,409.8],[1247.1,438.6],[1247.1,438.6],[1207.2,427.7],[1162.4,363.8],[1117.6,299.9],[1104,273.7],[1104,273.7],[1062.4,267.7],[1081.8,303.4],[1047.2,354.4],[975.3,389.5],[980.7,419.1],[1019.7,433.6],[1086.7,487.8],[1100.3,576.3],[1113.9,664.8],[1115.7,677.1],[1169.8,717],[1140.6,707.4],[1140.6,707.4],[1174.4,697.8],[1193.3,678.8],[1162.8,672.4],[1132.3,666],[1114.5,624.3],[1138,555.3],[1146.7,514],[1107.3,482.7],[1111.4,461.8],[1127.5,442.2],[1106.7,401.6],[1104.5,368.5],[1078.3,327.4],[1061.5,287.4],[1040,281.4],[1004.4,294.7],[1006.5,276],[1037.3,285.8],[993.9,305.6],[966.8,326.2],[967.5,330],[952.3,325.8],[951.2,377.9],[940.7,428.9],[924,461.1],[921.4,474]]","[0,0.3527331528]","[0.3527331528,0.3527331528]","[-0.3527331528,-0.3527331528]","[-0.3527331528,0]","[0,-0.3527331528]","[0.3527331528,-0.3527331528]","[0,0]","[0.3527331528,0]",0,1,1,1,1,2,Tablet,13,7,11,1
