inst1_resp.keys,inst1_resp.rt,calibrationMouse.x,calibrationMouse.y,calibrationMouse.leftButton,calibrationMouse.midButton,calibrationMouse.rightButton,calibrationClick.x,calibrationClick.y,calibrationClick.leftButton,calibrationClick.midButton,calibrationClick.rightButton,trialsc.thisRepN,trialsc.thisTrialN,trialsc.thisN,trialsc.thisIndex,trialsc.ran,calibration_x,calibration_y,participant,session,date,expName,psychopyVersion,OS,frameRate,calibrationClick.clicked_name,ScreenRes_pixels,Camera_pixels,mouse_2.x,mouse_2.y,mouse_2.leftButton,mouse_2.midButton,mouse_2.rightButton,mouse_2.time,mouse_2.clicked_name,mouse.x,mouse.y,mouse.leftButton,mouse.midButton,mouse.rightButton,mouse.time,mouse.clicked_name,Choice,Trial,TrialDuration,MOUSE_GAZE,ET_GAZE,ET_GAZE_x_T,time,unixTime,ET_GAZE_NF,Loc_Option1_label,Loc_Option2_label,Loc_Cost_label,Loc_Qual_label,Loc_Option1_cost,Loc_Option2_cost,Loc_Option1_quality,Loc_Option2_quality,trials.thisRepN,trials.thisTrialN,trials.thisN,trials.thisIndex,trials.ran,Block,Device,cost1,qual1,cost2,qual2
space,3.3009,-0.997916667,-0.148148148,1,0,0,-0.31875,0,1,0,0,0,0,0,6,1,-0.33,0,20,001,2024-12-04_11h36.37.682,Attention_exp_legacy,2023.1.0,Win32,60.60606061,,,,,,,,,,,,,,,,,,,,,,,,,,,,,,,,,,,,,,,,,,,,,
,,,,,,,0.332291667,-0.675925926,1,0,0,0,1,1,14,1,0.33,-0.67,20,001,2024-12-04_11h36.37.682,Attention_exp_legacy,2023.1.0,Win32,60.60606061,calibration_square,,,,,,,,,,,,,,,,,,,,,,,,,,,,,,,,,,,,,,,,,,,,
,,,,,,,-0.339583333,-0.327777778,1,0,0,0,2,2,5,1,-0.33,-0.33,20,001,2024-12-04_11h36.37.682,Attention_exp_legacy,2023.1.0,Win32,60.60606061,calibration_square,,,,,,,,,,,,,,,,,,,,,,,,,,,,,,,,,,,,,,,,,,,,
,,,,,,,0.678125,-0.668518519,1,0,0,0,3,3,20,1,0.67,-0.67,20,001,2024-12-04_11h36.37.682,Attention_exp_legacy,2023.1.0,Win32,60.60606061,calibration_square,,,,,,,,,,,,,,,,,,,,,,,,,,,,,,,,,,,,,,,,,,,,
,,,,,,,-0.010416667,-0.668518519,1,0,0,0,4,4,9,1,0,-0.67,20,001,2024-12-04_11h36.37.682,Attention_exp_legacy,2023.1.0,Win32,60.60606061,,,,,,,,,,,,,,,,,,,,,,,,,,,,,,,,,,,,,,,,,,,,,
,,,,,,,0.00625,0.32962963,1,0,0,0,5,5,12,1,0,0.33,20,001,2024-12-04_11h36.37.682,Attention_exp_legacy,2023.1.0,Win32,60.60606061,calibration_square,,,,,,,,,,,,,,,,,,,,,,,,,,,,,,,,,,,,,,,,,,,,
,,,,,,,0.33125,0.327777778,1,0,0,0,6,6,17,1,0.33,0.33,20,001,2024-12-04_11h36.37.682,Attention_exp_legacy,2023.1.0,Win32,60.60606061,calibration_square,,,,,,,,,,,,,,,,,,,,,,,,,,,,,,,,,,,,,,,,,,,,
,,,,,,,-0.323958333,0.327777778,1,0,0,0,7,7,7,1,-0.33,0.33,20,001,2024-12-04_11h36.37.682,Attention_exp_legacy,2023.1.0,Win32,60.60606061,calibration_square,,,,,,,,,,,,,,,,,,,,,,,,,,,,,,,,,,,,,,,,,,,,
,,,,,,,0.673958333,0.67037037,1,0,0,0,8,8,19,1,0.67,0.67,20,001,2024-12-04_11h36.37.682,Attention_exp_legacy,2023.1.0,Win32,60.60606061,calibration_square,,,,,,,,,,,,,,,,,,,,,,,,,,,,,,,,,,,,,,,,,,,,
,,,,,,,0.31875,-0.340740741,1,0,0,0,9,9,15,1,0.33,-0.33,20,001,2024-12-04_11h36.37.682,Attention_exp_legacy,2023.1.0,Win32,60.60606061,,,,,,,,,,,,,,,,,,,,,,,,,,,,,,,,,,,,,,,,,,,,,
,,,,,,,-0.663541667,-0.677777778,1,0,0,0,10,10,0,1,-0.67,-0.67,20,001,2024-12-04_11h36.37.682,Attention_exp_legacy,2023.1.0,Win32,60.60606061,calibration_square,,,,,,,,,,,,,,,,,,,,,,,,,,,,,,,,,,,,,,,,,,,,
,,,,,,,0.339583333,0.672222222,1,0,0,0,11,11,18,1,0.33,0.67,20,001,2024-12-04_11h36.37.682,Attention_exp_legacy,2023.1.0,Win32,60.60606061,calibration_square,,,,,,,,,,,,,,,,,,,,,,,,,,,,,,,,,,,,,,,,,,,,
,,,,,,,-0.00625,0.007407407,1,0,0,0,12,12,11,1,0,0,20,001,2024-12-04_11h36.37.682,Attention_exp_legacy,2023.1.0,Win32,60.60606061,calibration_square,,,,,,,,,,,,,,,,,,,,,,,,,,,,,,,,,,,,,,,,,,,,
,,,,,,,-0.664583333,0.333333333,1,0,0,0,13,13,3,1,-0.67,0.33,20,001,2024-12-04_11h36.37.682,Attention_exp_legacy,2023.1.0,Win32,60.60606061,calibration_square,,,,,,,,,,,,,,,,,,,,,,,,,,,,,,,,,,,,,,,,,,,,
,,,,,,,-0.330208333,-0.67037037,1,0,0,0,14,14,4,1,-0.33,-0.67,20,001,2024-12-04_11h36.37.682,Attention_exp_legacy,2023.1.0,Win32,60.60606061,calibration_square,,,,,,,,,,,,,,,,,,,,,,,,,,,,,,,,,,,,,,,,,,,,
,,,,,,,0.330208333,-0.001851852,1,0,0,0,15,15,16,1,0.33,0,20,001,2024-12-04_11h36.37.682,Attention_exp_legacy,2023.1.0,Win32,60.60606061,calibration_square,,,,,,,,,,,,,,,,,,,,,,,,,,,,,,,,,,,,,,,,,,,,
,,,,,,,-0.676041667,0,1,0,0,0,16,16,2,1,-0.67,0,20,001,2024-12-04_11h36.37.682,Attention_exp_legacy,2023.1.0,Win32,60.60606061,calibration_square,,,,,,,,,,,,,,,,,,,,,,,,,,,,,,,,,,,,,,,,,,,,
,,,,,,,-0.664583333,-0.337037037,1,0,0,0,17,17,1,1,-0.67,-0.33,20,001,2024-12-04_11h36.37.682,Attention_exp_legacy,2023.1.0,Win32,60.60606061,calibration_square,,,,,,,,,,,,,,,,,,,,,,,,,,,,,,,,,,,,,,,,,,,,
,,,,,,,0,0.672222222,1,0,0,0,18,18,13,1,0,0.67,20,001,2024-12-04_11h36.37.682,Attention_exp_legacy,2023.1.0,Win32,60.60606061,calibration_square,,,,,,,,,,,,,,,,,,,,,,,,,,,,,,,,,,,,,,,,,,,,
,,,,,,,0,-0.338888889,1,0,0,0,19,19,10,1,0,-0.33,20,001,2024-12-04_11h36.37.682,Attention_exp_legacy,2023.1.0,Win32,60.60606061,calibration_square,,,,,,,,,,,,,,,,,,,,,,,,,,,,,,,,,,,,,,,,,,,,
,,,,,,,-0.325,0.675925926,1,0,0,0,20,20,8,1,-0.33,0.67,20,001,2024-12-04_11h36.37.682,Attention_exp_legacy,2023.1.0,Win32,60.60606061,calibration_square,,,,,,,,,,,,,,,,,,,,,,,,,,,,,,,,,,,,,,,,,,,,
,,,,,,,,,,,,,,,,,,,20,001,2024-12-04_11h36.37.682,Attention_exp_legacy,2023.1.0,Win32,60.60606061,,"[1920,1080]","[640,480]",[0.021875],[-0.5148148148148148],[1],[0],[0],[2.7635999999940424],"[""StartButton""]","[0.146875,0.175]","[-0.011111111111111112,0.1685185185185185]","[1,1]","[0,0]","[0,0]","[2.1385999999940424,3.7525999999940325]","[""Option2_label""]",Option2_label,1,4.7619,"[[0.022916666666666665,-0.5],[0.022916666666666665,-0.5],[0.022916666666666665,-0.5],[0.022916666666666665,-0.5],[0.022916666666666665,-0.5],[0.022916666666666665,-0.5],[0.022916666666666665,-0.4981481481481482],[0.022916666666666665,-0.4962962962962963],[0.022916666666666665,-0.4962962962962963],[0.022916666666666665,-0.4962962962962963],[0.022916666666666665,-0.4962962962962963],[0.022916666666666665,-0.4962962962962963],[0.022916666666666665,-0.4962962962962963],[0.022916666666666665,-0.4962962962962963],[0.022916666666666665,-0.4962962962962963],[0.022916666666666665,-0.4962962962962963],[0.022916666666666665,-0.4962962962962963],[0.022916666666666665,-0.4962962962962963],[0.022916666666666665,-0.4962962962962963],[0.022916666666666665,-0.4962962962962963],[0.022916666666666665,-0.4962962962962963],[0.022916666666666665,-0.4962962962962963],[0.022916666666666665,-0.4962962962962963],[0.022916666666666665,-0.4962962962962963],[0.022916666666666665,-0.4962962962962963],[0.022916666666666665,-0.4962962962962963],[0.022916666666666665,-0.4962962962962963],[0.022916666666666665,-0.4962962962962963],[0.022916666666666665,-0.4962962962962963],[0.022916666666666665,-0.4962962962962963],[0.022916666666666665,-0.4962962962962963],[0.022916666666666665,-0.49444444444444446],[0.022916666666666665,-0.49444444444444446],[0.022916666666666665,-0.49074074074074076],[0.022916666666666665,-0.49074074074074076],[0.022916666666666665,-0.48703703703703705],[0.022916666666666665,-0.48703703703703705],[0.022916666666666665,-0.48333333333333334],[0.022916666666666665,-0.48148148148148145],[0.022916666666666665,-0.47962962962962963],[0.022916666666666665,-0.47962962962962963],[0.022916666666666665,-0.4759259259259259],[0.022916666666666665,-0.4759259259259259],[0.022916666666666665,-0.4759259259259259],[0.022916666666666665,-0.4740740740740741],[0.022916666666666665,-0.4703703703703704],[0.022916666666666665,-0.4703703703703704],[0.023958333333333335,-0.4648148148148148],[0.023958333333333335,-0.4648148148148148],[0.023958333333333335,-0.46111111111111114],[0.023958333333333335,-0.46111111111111114],[0.023958333333333335,-0.46111111111111114],[0.023958333333333335,-0.45925925925925926],[0.023958333333333335,-0.4537037037037037],[0.023958333333333335,-0.45185185185185184],[0.023958333333333335,-0.4444444444444444],[0.023958333333333335,-0.4425925925925926],[0.023958333333333335,-0.4351851851851852],[0.023958333333333335,-0.43148148148148147],[0.023958333333333335,-0.4222222222222222],[0.023958333333333335,-0.4222222222222222],[0.023958333333333335,-0.4166666666666667],[0.023958333333333335,-0.412962962962963],[0.023958333333333335,-0.4],[0.023958333333333335,-0.39814814814814814],[0.023958333333333335,-0.37962962962962965],[0.023958333333333335,-0.37222222222222223],[0.023958333333333335,-0.35],[0.023958333333333335,-0.3314814814814815],[0.026041666666666668,-0.3148148148148148],[0.027083333333333334,-0.3055555555555556],[0.028125,-0.26296296296296295],[0.028125,-0.2518518518518518],[0.030208333333333334,-0.22037037037037038],[0.030208333333333334,-0.21481481481481482],[0.03229166666666667,-0.18518518518518517],[0.03229166666666667,-0.1685185185185185],[0.03229166666666667,-0.14444444444444443],[0.03229166666666667,-0.1388888888888889],[0.03333333333333333,-0.12407407407407407],[0.034375,-0.11851851851851852],[0.035416666666666666,-0.11296296296296296],[0.035416666666666666,-0.11296296296296296],[0.0375,-0.10740740740740741],[0.03854166666666667,-0.1037037037037037],[0.03854166666666667,-0.1037037037037037],[0.03854166666666667,-0.10185185185185185],[0.040625,-0.0962962962962963],[0.040625,-0.0962962962962963],[0.04375,-0.08888888888888889],[0.04583333333333333,-0.08703703703703704],[0.052083333333333336,-0.08148148148148149],[0.053125,-0.07962962962962963],[0.057291666666666664,-0.07777777777777778],[0.058333333333333334,-0.07592592592592592],[0.0625,-0.07222222222222222],[0.06354166666666666,-0.07037037037037037],[0.06770833333333333,-0.06851851851851852],[0.06979166666666667,-0.06666666666666667],[0.07395833333333333,-0.06296296296296296],[0.07604166666666666,-0.06296296296296296],[0.08229166666666667,-0.05925925925925926],[0.084375,-0.05740740740740741],[0.09270833333333334,-0.05185185185185185],[0.09583333333333334,-0.05],[0.10208333333333333,-0.044444444444444446],[0.10520833333333333,-0.040740740740740744],[0.11458333333333333,-0.03333333333333333],[0.115625,-0.03148148148148148],[0.12708333333333333,-0.022222222222222223],[0.13020833333333334,-0.020370370370370372],[0.13854166666666667,-0.016666666666666666],[0.140625,-0.014814814814814815],[0.14375,-0.014814814814814815],[0.14375,-0.012962962962962963],[0.14479166666666668,-0.012962962962962963],[0.146875,-0.012962962962962963],[0.146875,-0.012962962962962963],[0.146875,-0.012962962962962963],[0.146875,-0.011111111111111112],[0.146875,-0.011111111111111112],[0.146875,-0.011111111111111112],[0.146875,-0.011111111111111112],[0.146875,-0.011111111111111112],[0.146875,-0.011111111111111112],[0.146875,-0.011111111111111112],[0.146875,-0.011111111111111112],[0.146875,-0.011111111111111112],[0.146875,-0.011111111111111112],[0.146875,-0.011111111111111112],[0.146875,-0.011111111111111112],[0.146875,-0.011111111111111112],[0.146875,-0.011111111111111112],[0.146875,-0.011111111111111112],[0.146875,-0.011111111111111112],[0.146875,-0.011111111111111112],[0.146875,-0.011111111111111112],[0.146875,-0.011111111111111112],[0.146875,-0.011111111111111112],[0.146875,-0.011111111111111112],[0.146875,-0.011111111111111112],[0.146875,-0.011111111111111112],[0.146875,-0.011111111111111112],[0.146875,-0.011111111111111112],[0.146875,-0.011111111111111112],[0.146875,-0.011111111111111112],[0.146875,-0.011111111111111112],[0.146875,-0.011111111111111112],[0.146875,-0.011111111111111112],[0.146875,-0.011111111111111112],[0.146875,-0.011111111111111112],[0.146875,-0.011111111111111112],[0.146875,-0.011111111111111112],[0.146875,-0.011111111111111112],[0.146875,-0.011111111111111112],[0.146875,-0.011111111111111112],[0.146875,-0.011111111111111112],[0.146875,-0.011111111111111112],[0.146875,-0.011111111111111112],[0.146875,-0.011111111111111112],[0.146875,-0.011111111111111112],[0.146875,-0.011111111111111112],[0.146875,-0.011111111111111112],[0.146875,-0.011111111111111112],[0.146875,-0.011111111111111112],[0.146875,-0.011111111111111112],[0.146875,-0.011111111111111112],[0.146875,-0.011111111111111112],[0.14895833333333333,-0.009259259259259259],[0.15,0.001851851851851852],[0.15416666666666667,0.025925925925925925],[0.15625,0.03518518518518519],[0.16041666666666668,0.05925925925925926],[0.16145833333333334,0.06481481481481481],[0.16354166666666667,0.07592592592592592],[0.16458333333333333,0.07962962962962963],[0.16666666666666666,0.09074074074074075],[0.16770833333333332,0.09814814814814815],[0.16875,0.1111111111111111],[0.16875,0.1111111111111111],[0.16979166666666667,0.12222222222222222],[0.16979166666666667,0.12407407407407407],[0.16979166666666667,0.12407407407407407],[0.17083333333333334,0.13148148148148148],[0.171875,0.14444444444444443],[0.17395833333333333,0.14814814814814814],[0.175,0.1537037037037037],[0.175,0.15555555555555556],[0.175,0.16296296296296298],[0.175,0.1685185185185185],[0.175,0.1685185185185185],[0.175,0.1685185185185185],[0.175,0.1685185185185185],[0.175,0.1685185185185185],[0.175,0.1685185185185185],[0.175,0.1685185185185185],[0.175,0.1685185185185185],[0.175,0.1685185185185185],[0.175,0.1685185185185185],[0.175,0.1685185185185185],[0.175,0.1685185185185185],[0.175,0.1685185185185185],[0.175,0.1685185185185185],[0.175,0.1685185185185185],[0.175,0.1685185185185185],[0.175,0.1685185185185185],[0.175,0.1685185185185185],[0.175,0.1685185185185185],[0.175,0.1685185185185185],[0.175,0.1685185185185185],[0.175,0.1685185185185185],[0.175,0.1685185185185185],[0.175,0.1685185185185185],[0.175,0.1685185185185185],[0.175,0.1685185185185185],[0.175,0.1685185185185185],[0.175,0.1685185185185185],[0.175,0.1685185185185185],[0.175,0.1685185185185185],[0.175,0.1685185185185185],[0.175,0.1685185185185185],[0.175,0.1685185185185185],[0.175,0.1685185185185185],[0.175,0.1685185185185185],[0.175,0.1685185185185185],[0.175,0.1685185185185185],[0.175,0.1685185185185185],[0.175,0.1685185185185185],[0.175,0.1685185185185185],[0.175,0.1685185185185185],[0.175,0.1685185185185185],[0.175,0.1685185185185185],[0.175,0.1685185185185185],[0.175,0.1685185185185185],[0.175,0.1685185185185185],[0.175,0.1685185185185185],[0.175,0.1685185185185185],[0.175,0.1685185185185185],[0.175,0.1685185185185185],[0.175,0.1685185185185185],[0.175,0.1685185185185185],[0.175,0.1685185185185185],[0.175,0.1685185185185185],[0.175,0.1685185185185185],[0.175,0.1685185185185185],[0.175,0.1685185185185185],[0.175,0.1685185185185185],[0.175,0.1685185185185185],[0.175,0.1685185185185185],[0.175,0.1685185185185185],[0.175,0.1685185185185185],[0.175,0.1685185185185185],[0.175,0.1685185185185185],[0.175,0.1685185185185185],[0.175,0.1685185185185185],[0.175,0.1685185185185185],[0.175,0.1685185185185185],[0.175,0.1685185185185185],[0.175,0.1685185185185185],[0.175,0.1685185185185185],[0.175,0.1685185185185185],[0.175,0.1685185185185185],[0.175,0.1685185185185185],[0.175,0.1685185185185185],[0.175,0.1685185185185185],[0.175,0.1685185185185185],[0.175,0.1685185185185185],[0.175,0.1685185185185185],[0.175,0.1685185185185185],[0.175,0.1685185185185185],[0.175,0.1685185185185185],[0.175,0.1685185185185185],[0.175,0.1685185185185185],[0.175,0.1685185185185185],[0.175,0.1685185185185185],[0.175,0.1685185185185185],[0.175,0.1685185185185185],[0.175,0.1685185185185185],[0.175,0.1685185185185185],[0.175,0.1685185185185185],[0.175,0.1685185185185185],[0.175,0.1685185185185185],[0.175,0.1685185185185185],[0.175,0.1685185185185185],[0.175,0.1685185185185185]]","[[0.3848958333333333,0.29666666666666675],[0.3848958333333333,0.29666666666666675],[0.3537499999999999,0.2740740740740741],[0.3537499999999999,0.2740740740740741],[0.35281250000000003,0.2512962962962964],[0.35281250000000003,0.2512962962962964],[0.35281250000000003,0.2512962962962964],[0.2952083333333334,0.22314814814814815],[0.2952083333333334,0.22314814814814815],[0.23156249999999995,0.23574074074074067],[0.23156249999999995,0.23574074074074067],[0.22041666666666657,0.2522222222222223],[0.22041666666666657,0.2522222222222223],[0.1881249999999999,0.19888888888888884],[0.1881249999999999,0.19888888888888884],[0.12052083333333338,0.18518518518518517],[0.12052083333333338,0.18518518518518517],[0.08708333333333323,0.17685185185185184],[0.08708333333333323,0.17685185185185184],[0.05802083333333338,0.2111111111111111],[0.05802083333333338,0.2111111111111111],[0.05,0.21388888888888888],[0.05,0.21388888888888888],[0.05406249999999998,0.22851851851851848],[0.05406249999999998,0.22851851851851848],[0.05406249999999998,0.22851851851851848],[0.05406249999999998,0.22851851851851848],[0.01729166666666669,0.25500000000000006],[0.01729166666666669,0.25500000000000006],[0.01729166666666669,0.25500000000000006],[0.01729166666666669,0.25500000000000006],[0.036145833333333384,0.26370370370370366],[0.036145833333333384,0.26370370370370366],[0.0546875,0.32759259259259255],[0.0546875,0.32759259259259255],[0.04562499999999995,0.444074074074074],[0.04562499999999995,0.444074074074074],[0.002499999999999976,0.4740740740740741],[0.002499999999999976,0.4740740740740741],[0.06593749999999995,0.5127777777777778],[0.06593749999999995,0.5127777777777778],[0.07291666666666667,0.5075925925925926],[0.07291666666666667,0.5075925925925926],[0.01593749999999995,0.5281481481481483],[0.01593749999999995,0.5281481481481483],[0.0046875,0.5748148148148148],[0.0046875,0.5748148148148148],[0.008124999999999953,0.6588888888888889],[0.008124999999999953,0.6588888888888889],[-0.002812500000000047,0.693888888888889],[-0.002812500000000047,0.693888888888889],[-0.002812500000000047,0.693888888888889],[-0.002812500000000047,0.693888888888889],[0.028958333333333287,0.7418518518518519],[0.028958333333333287,0.7418518518518519],[0.058437500000000024,0.6814814814814815],[0.058437500000000024,0.6814814814814815],[0.034791666666666644,0.5577777777777778],[0.034791666666666644,0.5577777777777778],[0.06364583333333336,0.5696296296296297],[0.06364583333333336,0.5696296296296297],[0.005624999999999976,0.5435185185185185],[0.005624999999999976,0.5435185185185185],[-0.059895833333333336,0.5468518518518518],[-0.059895833333333336,0.5468518518518518],[-0.018020833333333285,0.5222222222222223],[-0.018020833333333285,0.5222222222222223],[-0.04114583333333333,0.48703703703703705],[-0.04114583333333333,0.48703703703703705],[-0.05239583333333329,0.4348148148148147],[-0.05239583333333329,0.4348148148148147],[-0.05375000000000003,0.38685185185185184],[-0.05375000000000003,0.38685185185185184],[-0.06697916666666662,0.3824074074074074],[-0.06697916666666662,0.3824074074074074],[-0.08718750000000004,0.39148148148148143],[-0.08718750000000004,0.39148148148148143],[-0.09989583333333331,0.36648148148148146],[-0.09989583333333331,0.36648148148148146],[-0.08218749999999998,0.36425925925925934],[-0.08218749999999998,0.36425925925925934],[-0.06072916666666662,0.3338888888888888],[-0.06072916666666662,0.3338888888888888],[-0.04906250000000002,0.34222222222222215],[-0.04906250000000002,0.34222222222222215],[-0.04906250000000002,0.34222222222222215],[-0.04906250000000002,0.34222222222222215],[-0.06468750000000002,0.3111111111111111],[-0.06468750000000002,0.3111111111111111],[-0.042604166666666644,0.28129629629629627],[-0.042604166666666644,0.28129629629629627],[-0.059583333333333384,0.2764814814814814],[-0.059583333333333384,0.2764814814814814],[-0.017916666666666713,0.27981481481481485],[-0.017916666666666713,0.27981481481481485],[0.0068750000000000235,0.21814814814814806],[0.0068750000000000235,0.21814814814814806],[0.014895833333333285,0.21648148148148144],[0.014895833333333285,0.21648148148148144],[0.0796875,0.230925925925926],[0.0796875,0.230925925925926],[0.04604166666666672,0.24962962962962953],[0.04604166666666672,0.24962962962962953],[0.058645833333333286,0.287962962962963],[0.058645833333333286,0.287962962962963],[0.08822916666666672,0.2729629629629629],[0.08822916666666672,0.2729629629629629],[0.14270833333333333,0.25333333333333324],[0.14270833333333333,0.25333333333333324],[0.1134375000000001,0.2905555555555555],[0.1134375000000001,0.2905555555555555],[0.10645833333333338,0.252962962962963],[0.10645833333333338,0.252962962962963],[0.07072916666666676,0.23833333333333342],[0.07072916666666676,0.23833333333333342],[0.03135416666666669,0.23833333333333342],[0.03135416666666669,0.23833333333333342],[0.03270833333333331,0.1801851851851851],[0.03270833333333331,0.1801851851851851],[0.034791666666666644,0.1705555555555556],[0.034791666666666644,0.1705555555555556],[0.08489583333333334,0.102962962962963],[0.08489583333333334,0.102962962962963],[0.08781249999999995,0.04388888888888897],[0.08781249999999995,0.04388888888888897],[0.14187500000000006,0.027962962962963005],[0.14187500000000006,0.027962962962963005],[0.10989583333333333,-0.017592592592592594],[0.10989583333333333,-0.017592592592592594],[0.10989583333333333,-0.017592592592592594],[0.10989583333333333,-0.017592592592592594],[0.10989583333333333,-0.017592592592592594],[0.10989583333333333,-0.017592592592592594],[0.10989583333333333,-0.017592592592592594],[0.1486458333333334,-0.10407407407407405],[0.1486458333333334,-0.10407407407407405],[0.171875,-0.09388888888888887],[0.171875,-0.09388888888888887],[0.19489583333333324,-0.08277777777777776],[0.19489583333333324,-0.08277777777777776],[0.16010416666666671,-0.06925925925925921],[0.16010416666666671,-0.06925925925925921],[0.11697916666666662,-0.05870370370370368],[0.11697916666666662,-0.05870370370370368],[0.07072916666666676,-0.07518518518518523],[0.07072916666666676,-0.07518518518518523],[0.05656249999999995,-0.06777777777777783],[0.05656249999999995,-0.06777777777777783],[0.03708333333333336,-0.02555555555555547],[0.03708333333333336,-0.02555555555555547],[-0.03187500000000002,-0.01722222222222214],[-0.03187500000000002,-0.01722222222222214],[-0.02781250000000005,0.012777777777777735],[-0.02781250000000005,0.012777777777777735],[-0.07218749999999995,0.08925925925925934],[-0.07218749999999995,0.08925925925925934],[-0.07864583333333333,0.11611111111111119],[-0.07864583333333333,0.11611111111111119],[-0.09104166666666665,0.11425925925925934],[-0.09104166666666665,0.11425925925925934],[-0.0626041666666667,0.12537037037037047],[-0.0626041666666667,0.12537037037037047],[-0.007083333333333286,0.13407407407407404],[-0.007083333333333286,0.13407407407407404],[-0.006458333333333381,0.12833333333333324],[-0.006458333333333381,0.12833333333333324],[-0.03947916666666664,0.12888888888888894],[-0.03947916666666664,0.12888888888888894],[-0.059895833333333336,0.12240740740740745],[-0.059895833333333336,0.12240740740740745],[-0.01885416666666669,0.10277777777777777],[-0.01885416666666669,0.10277777777777777],[-0.00604166666666662,0.10777777777777786],[-0.00604166666666662,0.10777777777777786],[0.03083333333333336,0.06999999999999991],[0.03083333333333336,0.06999999999999991],[0.04041666666666662,0.02759259259259255],[0.04041666666666662,0.02759259259259255],[0.08072916666666667,0.017592592592592594],[0.08072916666666667,0.017592592592592594],[0.09927083333333328,0.004814814814814857],[0.09927083333333328,0.004814814814814857],[0.09927083333333328,0.004814814814814857],[0.09927083333333328,0.004814814814814857],[0.08927083333333338,-0.030555555555555555],[0.08927083333333338,-0.030555555555555555],[0.12791666666666662,-0.06740740740740736],[0.12791666666666662,-0.06740740740740736],[0.14968750000000006,-0.07833333333333335],[0.14968750000000006,-0.07833333333333335],[0.1837500000000001,-0.11833333333333329],[0.1837500000000001,-0.11833333333333329],[0.19760416666666672,-0.08592592592592588],[0.19760416666666672,-0.08592592592592588],[0.22385416666666677,-0.06462962962962959],[0.22385416666666677,-0.06462962962962959],[0.23250000000000004,-0.03629629629629634],[0.23250000000000004,-0.03629629629629634],[0.2568749999999999,-0.019259259259259216],[0.2568749999999999,-0.019259259259259216],[0.22645833333333343,-0.01592592592592597],[0.22645833333333343,-0.01592592592592597],[0.246875,-0.016111111111111194],[0.246875,-0.016111111111111194],[0.2615624999999999,0.009444444444444486],[0.2615624999999999,0.009444444444444486],[0.2520833333333333,0.046296296296296294],[0.2520833333333333,0.046296296296296294],[0.2640625,0.06925925925925921],[0.2640625,0.06925925925925921],[0.2698958333333332,0.10796296296296289],[0.2698958333333332,0.10796296296296289],[0.284375,0.09129629629629621],[0.284375,0.09129629629629621],[0.30739583333333326,0.08129629629629626],[0.30739583333333326,0.08129629629629626],[0.3102083333333333,0.07388888888888885],[0.3102083333333333,0.07388888888888885],[0.3256249999999999,0.10222222222222231],[0.3256249999999999,0.10222222222222231],[0.3497916666666666,0.13537037037037042],[0.3497916666666666,0.13537037037037042],[0.33135416666666656,0.1368518518518518],[0.33135416666666656,0.1368518518518518],[0.3177083333333333,0.13444444444444448],[0.3177083333333333,0.13444444444444448],[0.3115624999999999,0.14333333333333328],[0.3115624999999999,0.14333333333333328],[0.3115624999999999,0.14333333333333328],[0.3115624999999999,0.14333333333333328],[0.30666666666666675,0.11629629629629622],[0.30666666666666675,0.11629629629629622],[0.28145833333333337,0.09703703703703699],[0.28145833333333337,0.09703703703703699],[0.25,0.09240740740740737],[0.25,0.09240740740740737],[0.24500000000000005,0.11370370370370367],[0.24500000000000005,0.11370370370370367],[0.28270833333333345,0.12907407407407415],[0.28270833333333345,0.12907407407407415],[0.27104166666666674,0.10425925925925918],[0.27104166666666674,0.10425925925925918],[0.26552083333333343,0.07833333333333325],[0.26552083333333343,0.07833333333333325],[0.27541666666666675,0.06574074074074074],[0.27541666666666675,0.06574074074074074],[0.3290625000000001,0.060370370370370414],[0.3290625000000001,0.060370370370370414],[0.32874999999999993,0.052037037037037076],[0.32874999999999993,0.052037037037037076],[0.2924999999999999,0.09740740740740746],[0.2924999999999999,0.09740740740740746],[0.290625,0.1198148148148149],[0.290625,0.1198148148148149],[0.2830208333333334,0.10574074074074079],[0.2830208333333334,0.10574074074074079],[0.23489583333333333,0.12537037037037047],[0.23489583333333333,0.12537037037037047],[0.171875,0.12259259259259268],[0.171875,0.12259259259259268],[0.1118750000000001,0.13203703703703695],[0.1118750000000001,0.13203703703703695],[0.09177083333333323,0.13703703703703704],[0.09177083333333323,0.13703703703703704],[0.0984375,0.15611111111111103],[0.0984375,0.15611111111111103],[0.049270833333333285,0.18185185185185193],[0.049270833333333285,0.18185185185185193],[0.0875,0.1962962962962963],[0.0875,0.1962962962962963],[0.10197916666666676,0.19814814814814816],[0.10197916666666676,0.19814814814814816],[0.13447916666666657,0.18648148148148155],[0.13447916666666657,0.18648148148148155],[0.14510416666666662,0.22296296296296292],[0.14510416666666662,0.22296296296296292],[0.16687500000000005,0.21388888888888888],[0.16687500000000005,0.21388888888888888],[0.1959374999999999,0.2131481481481482],[0.1959374999999999,0.2131481481481482],[0.2381249999999999,0.21907407407407398],[0.2381249999999999,0.21907407407407398],[0.20708333333333329,0.21814814814814806],[0.20708333333333329,0.21814814814814806],[0.2150000000000001,0.24592592592592585]]","[[0.3848958333333333,0.29666666666666675,0.0002999999970256795],[0.3848958333333333,0.29666666666666675,0.0387000000029758],[0.3537499999999999,0.2740740740740741,0.061899999998516364],[0.3537499999999999,0.2740740740740741,0.06860000000149569],[0.35281250000000003,0.2512962962962964,0.09539999999850579],[0.35281250000000003,0.2512962962962964,0.10360000000149228],[0.35281250000000003,0.2512962962962964,0.1285000000000025],[0.2952083333333334,0.22314814814814815,0.14560000000149387],[0.2952083333333334,0.22314814814814815,0.15289999999851034],[0.23156249999999995,0.23574074074074067,0.17860000000149512],[0.23156249999999995,0.23574074074074067,0.18629999999701852],[0.22041666666666657,0.2522222222222223,0.2120000000000033],[0.22041666666666657,0.2522222222222223,0.21949999999999648],[0.1881249999999999,0.19888888888888884,0.2451000000014858],[0.1881249999999999,0.19888888888888884,0.2523999999985165],[0.12052083333333338,0.18518518518518517,0.2763999999985174],[0.12052083333333338,0.18518518518518517,0.28329999999702693],[0.08708333333333323,0.17685185185185184,0.3097000000029766],[0.08708333333333323,0.17685185185185184,0.3185000000000002],[0.05802083333333338,0.2111111111111111,0.3431000000014848],[0.05802083333333338,0.2111111111111111,0.35039999999851545],[0.05,0.21388888888888888,0.3763999999985117],[0.05,0.21388888888888888,0.3847999999970142],[0.05406249999999998,0.22851851851851848,0.40989999999851534],[0.05406249999999998,0.22851851851851848,0.4181000000014876],[0.05406249999999998,0.22851851851851848,0.42449999999999477],[0.05406249999999998,0.22851851851851848,0.4420000000000073],[0.01729166666666669,0.25500000000000006,0.476399999998506],[0.01729166666666669,0.25500000000000006,0.4846000000014925],[0.01729166666666669,0.25500000000000006,0.4911000000014951],[0.01729166666666669,0.25500000000000006,0.5101000000014864],[0.036145833333333384,0.26370370370370366,0.544700000002976],[0.036145833333333384,0.26370370370370366,0.5517999999970158],[0.0546875,0.32759259259259255,0.5752000000029796],[0.0546875,0.32759259259259255,0.582499999999996],[0.04562499999999995,0.444074074074074,0.6106000000014973],[0.04562499999999995,0.444074074074074,0.6172000000029811],[0.002499999999999976,0.4740740740740741,0.6432000000029774],[0.002499999999999976,0.4740740740740741,0.6514999999999986],[0.06593749999999995,0.5127777777777778,0.677100000001488],[0.06593749999999995,0.5127777777777778,0.683700000002986],[0.07291666666666667,0.5075925925925926,0.7086000000014963],[0.07291666666666667,0.5075925925925926,0.7152000000029801],[0.01593749999999995,0.5281481481481483,0.7431000000014905],[0.01593749999999995,0.5281481481481483,0.7596000000014982],[0.0046875,0.5748148148148148,0.7766000000014941],[0.0046875,0.5748148148148148,0.784000000000006],[0.008124999999999953,0.6588888888888889,0.8117000000029861],[0.008124999999999953,0.6588888888888889,0.8182000000029745],[-0.002812500000000047,0.693888888888889,0.8444999999999965],[-0.002812500000000047,0.693888888888889,0.8515000000000015],[-0.002812500000000047,0.693888888888889,0.8577999999970274],[-0.002812500000000047,0.693888888888889,0.8942999999970169],[0.028958333333333287,0.7418518518518519,0.9107000000029757],[0.028958333333333287,0.7418518518518519,0.9182999999970178],[0.058437500000000024,0.6814814814814815,0.9447000000029817],[0.058437500000000024,0.6814814814814815,0.9523999999985051],[0.034791666666666644,0.5577777777777778,0.9762000000029758],[0.034791666666666644,0.5577777777777778,0.9830000000000041],[0.06364583333333336,0.5696296296296297,1.0112999999970214],[0.06364583333333336,0.5696296296296297,1.0181000000014961],[0.005624999999999976,0.5435185185185185,1.042899999998511],[0.005624999999999976,0.5435185185185185,1.049899999998516],[-0.059895833333333336,0.5468518518518518,1.0785000000000053],[-0.059895833333333336,0.5468518518518518,1.0854999999999961],[-0.018020833333333285,0.5222222222222223,1.109700000002988],[-0.018020833333333285,0.5222222222222223,1.117299999997016],[-0.04114583333333333,0.48703703703703705,1.1451000000014915],[-0.04114583333333333,0.48703703703703705,1.1555000000000035],[-0.05239583333333329,0.4348148148148147,1.1766000000014856],[-0.05239583333333329,0.4348148148148147,1.1834999999999951],[-0.05375000000000003,0.38685185185185184,1.2125000000000057],[-0.05375000000000003,0.38685185185185184,1.220700000002978],[-0.06697916666666662,0.3824074074074074,1.243200000002986],[-0.06697916666666662,0.3824074074074074,1.2516000000014884],[-0.08718750000000004,0.39148148148148143,1.278700000002985],[-0.08718750000000004,0.39148148148148143,1.2860000000000014],[-0.09989583333333331,0.36648148148148146,1.310299999997028],[-0.09989583333333331,0.36648148148148146,1.3174999999999955],[-0.08218749999999998,0.36425925925925934,1.3455000000000013],[-0.08218749999999998,0.36425925925925934,1.3537999999970225],[-0.06072916666666662,0.3338888888888888,1.3766000000014884],[-0.06072916666666662,0.3338888888888888,1.3841000000014958],[-0.04906250000000002,0.34222222222222215,1.4133999999985178],[-0.04906250000000002,0.34222222222222215,1.4202000000029784],[-0.04906250000000002,0.34222222222222215,1.424299999997018],[-0.04906250000000002,0.34222222222222215,1.4427000000029864],[-0.06468750000000002,0.3111111111111111,1.4787999999970225],[-0.06468750000000002,0.3111111111111111,1.486200000002981],[-0.042604166666666644,0.28129629629629627,1.5097999999970142],[-0.042604166666666644,0.28129629629629627,1.5174999999999983],[-0.059583333333333384,0.2764814814814814,1.545500000000004],[-0.059583333333333384,0.2764814814814814,1.5532000000029882],[-0.017916666666666713,0.27981481481481485,1.5767000000029867],[-0.017916666666666713,0.27981481481481485,1.5843999999985101],[0.0068750000000000235,0.21814814814814806,1.611799999997018],[0.0068750000000000235,0.21814814814814806,1.6192000000029765],[0.014895833333333285,0.21648148148148144,1.6432000000029774],[0.014895833333333285,0.21648148148148144,1.6500000000000057],[0.0796875,0.230925925925926,1.678299999997023],[0.0796875,0.230925925925926,1.6850000000000023],[0.04604166666666672,0.24962962962962953,1.709799999997017],[0.04604166666666672,0.24962962962962953,1.716799999997022],[0.058645833333333286,0.287962962962963,1.744899999998509],[0.058645833333333286,0.287962962962963,1.7521000000014908],[0.08822916666666672,0.2729629629629629,1.7768999999985056],[0.08822916666666672,0.2729629629629629,1.7837000000029803],[0.14270833333333333,0.25333333333333324,1.8116000000014907],[0.14270833333333333,0.25333333333333324,1.8188999999985072],[0.1134375000000001,0.2905555555555555,1.8433999999985105],[0.1134375000000001,0.2905555555555555,1.8512000000029758],[0.10645833333333338,0.252962962962963,1.8790000000000049],[0.10645833333333338,0.252962962962963,1.8861000000014911],[0.07072916666666676,0.23833333333333342,1.910499999999999],[0.07072916666666676,0.23833333333333342,1.917500000000004],[0.03135416666666669,0.23833333333333342,1.9447000000029817],[0.03135416666666669,0.23833333333333342,1.951299999997019],[0.03270833333333331,0.1801851851851851,1.9765000000000015],[0.03270833333333331,0.1801851851851851,1.9832000000029808],[0.034791666666666644,0.1705555555555556,2.0117999999970237],[0.034791666666666644,0.1705555555555556,2.0180000000000007],[0.08489583333333334,0.102962962962963,2.04360000000149],[0.08489583333333334,0.102962962962963,2.0508999999985065],[0.08781249999999995,0.04388888888888897,2.0790000000000077],[0.08781249999999995,0.04388888888888897,2.0863999999985055],[0.14187500000000006,0.027962962962963005,2.1122000000029857],[0.14187500000000006,0.027962962962963005,2.119700000002979],[0.10989583333333333,-0.017592592592592594,2.145700000002975],[0.10989583333333333,-0.017592592592592594,2.1532000000029825],[0.10989583333333333,-0.017592592592592594,2.1592000000029827],[0.10989583333333333,-0.017592592592592594,2.1784999999999997],[0.10989583333333333,-0.017592592592592594,2.1972000000029794],[0.10989583333333333,-0.017592592592592594,2.210799999997022],[0.10989583333333333,-0.017592592592592594,2.22829999999702],[0.1486458333333334,-0.10407407407407405,2.2642999999970215],[0.1486458333333334,-0.10407407407407405,2.2723999999985125],[0.171875,-0.09388888888888887,2.295500000000004],[0.171875,-0.09388888888888887,2.302299999997018],[0.19489583333333324,-0.08277777777777776,2.3267999999970215],[0.19489583333333324,-0.08277777777777776,2.3342999999970147],[0.16010416666666671,-0.06925925925925921,2.362399999998516],[0.16010416666666671,-0.06925925925925921,2.3689999999999998],[0.11697916666666662,-0.05870370370370368,2.3952999999970217],[0.11697916666666662,-0.05870370370370368,2.4036000000014894],[0.07072916666666676,-0.07518518518518523,2.4288999999985066],[0.07072916666666676,-0.07518518518518523,2.4357000000029814],[0.05656249999999995,-0.06777777777777783,2.460399999998515],[0.05656249999999995,-0.06777777777777783,2.467700000002978],[0.03708333333333336,-0.02555555555555547,2.493600000001493],[0.03708333333333336,-0.02555555555555547,2.5010000000000048],[-0.03187500000000002,-0.01722222222222214,2.5267999999970243],[-0.03187500000000002,-0.01722222222222214,2.5342000000029827],[-0.02781250000000005,0.012777777777777735,2.560299999997028],[-0.02781250000000005,0.012777777777777735,2.5682999999970235],[-0.07218749999999995,0.08925925925925934,2.5937000000029826],[-0.07218749999999995,0.08925925925925934,2.602700000002983],[-0.07864583333333333,0.11611111111111119,2.630100000001491],[-0.07864583333333333,0.11611111111111119,2.6373999999985074],[-0.09104166666666665,0.11425925925925934,2.6602999999970223],[-0.09104166666666665,0.11425925925925934,2.666700000002976],[-0.0626041666666667,0.12537037037037047,2.6917999999970164],[-0.0626041666666667,0.12537037037037047,2.698899999998517],[-0.007083333333333286,0.13407407407407404,2.7249999999999943],[-0.007083333333333286,0.13407407407407404,2.7321000000014948],[-0.006458333333333381,0.12833333333333324,2.758499999999998],[-0.006458333333333381,0.12833333333333324,2.765500000000003],[-0.03947916666666664,0.12888888888888894,2.791799999997025],[-0.03947916666666664,0.12888888888888894,2.7997999999970204],[-0.059895833333333336,0.12240740740740745,2.8281000000014984],[-0.059895833333333336,0.12240740740740745,2.8352000000029847],[-0.01885416666666669,0.10277777777777777,2.860200000002976],[-0.01885416666666669,0.10277777777777777,2.8671000000014857],[-0.00604166666666662,0.10777777777777786,2.895799999997024],[-0.00604166666666662,0.10777777777777786,2.902799999997015],[0.03083333333333336,0.06999999999999991,2.926799999997016],[0.03083333333333336,0.06999999999999991,2.9345],[0.04041666666666662,0.02759259259259255,2.9628999999985126],[0.04041666666666662,0.02759259259259255,2.9698999999985034],[0.08072916666666667,0.017592592592592594,2.993600000001493],[0.08072916666666667,0.017592592592592594,3.0010000000000048],[0.09927083333333328,0.004814814814814857,3.0294999999999987],[0.09927083333333328,0.004814814814814857,3.0367000000029805],[0.09927083333333328,0.004814814814814857,3.040999999999997],[0.09927083333333328,0.004814814814814857,3.0597999999970114],[0.08927083333333338,-0.030555555555555555,3.095700000002978],[0.08927083333333338,-0.030555555555555555,3.102499999999992],[0.12791666666666662,-0.06740740740740736,3.126700000002984],[0.12791666666666662,-0.06740740740740736,3.1337999999970236],[0.14968750000000006,-0.07833333333333335,3.1626000000014898],[0.14968750000000006,-0.07833333333333335,3.1702000000029784],[0.1837500000000001,-0.11833333333333329,3.1947999999970165],[0.1837500000000001,-0.11833333333333329,3.2017000000029725],[0.19760416666666672,-0.08592592592592588,3.226700000002978],[0.19760416666666672,-0.08592592592592588,3.233200000002981],[0.22385416666666677,-0.06462962962962959,3.260200000002982],[0.22385416666666677,-0.06462962962962959,3.266999999999996],[0.23250000000000004,-0.03629629629629634,3.293200000002983],[0.23250000000000004,-0.03629629629629634,3.3022000000029834],[0.2568749999999999,-0.019259259259259216,3.3266000000014913],[0.2568749999999999,-0.019259259259259216,3.333600000001482],[0.22645833333333343,-0.01592592592592597,3.360100000001495],[0.22645833333333343,-0.01592592592592597,3.367600000001488],[0.246875,-0.016111111111111194,3.393299999997012],[0.246875,-0.016111111111111194,3.400299999997017],[0.2615624999999999,0.009444444444444486,3.427100000001488],[0.2615624999999999,0.009444444444444486,3.4336000000014906],[0.2520833333333333,0.046296296296296294,3.4603999999985007],[0.2520833333333333,0.046296296296296294,3.4669999999999987],[0.2640625,0.06925925925925921,3.4932999999970207],[0.2640625,0.06925925925925921,3.5002999999970115],[0.2698958333333332,0.10796296296296289,3.526600000001494],[0.2698958333333332,0.10796296296296289,3.5331000000014825],[0.284375,0.09129629629629621,3.5600000000000023],[0.284375,0.09129629629629621,3.566299999997014],[0.30739583333333326,0.08129629629629626,3.591799999997022],[0.30739583333333326,0.08129629629629626,3.5992000000029805],[0.3102083333333333,0.07388888888888885,3.6251000000014812],[0.3102083333333333,0.07388888888888885,3.633100000001491],[0.3256249999999999,0.10222222222222231,3.6602000000029733],[0.3256249999999999,0.10222222222222231,3.667999999999992],[0.3497916666666666,0.13537037037037042,3.6936000000014815],[0.3497916666666666,0.13537037037037042,3.7146000000014823],[0.33135416666666656,0.1368518518518518,3.7277999999970177],[0.33135416666666656,0.1368518518518518,3.7372000000029715],[0.3177083333333333,0.13444444444444448,3.759799999997014],[0.3177083333333333,0.13444444444444448,3.7664999999999935],[0.3115624999999999,0.14333333333333328,3.793200000002983],[0.3115624999999999,0.14333333333333328,3.800399999998504],[0.3115624999999999,0.14333333333333328,3.809299999997023],[0.3115624999999999,0.14333333333333328,3.826100000001489],[0.30666666666666675,0.11629629629629622,3.8617000000029833],[0.30666666666666675,0.11629629629629622,3.8692000000029765],[0.28145833333333337,0.09703703703703699,3.8932000000029774],[0.28145833333333337,0.09703703703703699,3.8998999999985102],[0.25,0.09240740740740737,3.926399999998509],[0.25,0.09240740740740737,3.9329999999999927],[0.24500000000000005,0.11370370370370367,3.959799999997017],[0.24500000000000005,0.11370370370370367,3.9664999999999964],[0.28270833333333345,0.12907407407407415,3.9917999999970135],[0.28270833333333345,0.12907407407407415,3.9989999999999952],[0.27104166666666674,0.10425925925925918,4.027799999997015],[0.27104166666666674,0.10425925925925918,4.03460000000149],[0.26552083333333343,0.07833333333333325,4.059799999997011],[0.26552083333333343,0.07833333333333325,4.066999999999993],[0.27541666666666675,0.06574074074074074,4.09320000000298],[0.27541666666666675,0.06574074074074074,4.10029999999702],[0.3290625000000001,0.060370370370370414,4.126600000001488],[0.3290625000000001,0.060370370370370414,4.133799999997024],[0.32874999999999993,0.052037037037037076,4.158399999998508],[0.32874999999999993,0.052037037037037076,4.16560000000149],[0.2924999999999999,0.09740740740740746,4.1932999999970235],[0.2924999999999999,0.09740740740740746,4.20039999999851],[0.290625,0.1198148148148149,4.226200000002976],[0.290625,0.1198148148148149,4.233799999997018],[0.2830208333333334,0.10574074074074079,4.258600000001493],[0.2830208333333334,0.10574074074074079,4.265799999997014],[0.23489583333333333,0.12537037037037047,4.293200000002983],[0.23489583333333333,0.12537037037037047,4.300100000001493],[0.171875,0.12259259259259268,4.326499999999996],[0.171875,0.12259259259259268,4.333200000002975],[0.1118750000000001,0.13203703703703695,4.359700000002974],[0.1118750000000001,0.13203703703703695,4.366399999998507],[0.09177083333333323,0.13703703703703704,4.391799999997019],[0.09177083333333323,0.13703703703703704,4.400700000002985],[0.0984375,0.15611111111111103,4.426500000000004],[0.0984375,0.15611111111111103,4.432799999997016],[0.049270833333333285,0.18185185185185193,4.460200000002985],[0.049270833333333285,0.18185185185185193,4.467899999998508],[0.0875,0.1962962962962963,4.497399999998507],[0.0875,0.1962962962962963,4.504899999998514],[0.10197916666666676,0.19814814814814816,4.528499999999994],[0.10197916666666676,0.19814814814814816,4.536500000000004],[0.13447916666666657,0.18648148148148155,4.561999999999998],[0.13447916666666657,0.18648148148148155,4.569700000002982],[0.14510416666666662,0.22296296296296292,4.595500000000001],[0.14510416666666662,0.22296296296296292,4.602899999998513],[0.16687500000000005,0.21388888888888888,4.629499999999993],[0.16687500000000005,0.21388888888888888,4.636499999999998],[0.1959374999999999,0.2131481481481482,4.663499999999999],[0.1959374999999999,0.2131481481481482,4.670299999997013],[0.2381249999999999,0.21907407407407398,4.695100000001489],[0.2381249999999999,0.21907407407407398,4.70339999999851],[0.20708333333333329,0.21814814814814806,4.728499999999997],[0.20708333333333329,0.21814814814814806,4.7357000000029785],[0.2150000000000001,0.24592592592592585,4.761899999998505]]","[0.0002999999970256795,0.0387000000029758,0.061899999998516364,0.06860000000149569,0.09539999999850579,0.10360000000149228,0.1285000000000025,0.14560000000149387,0.15289999999851034,0.17860000000149512,0.18629999999701852,0.2120000000000033,0.21949999999999648,0.2451000000014858,0.2523999999985165,0.2763999999985174,0.28329999999702693,0.3097000000029766,0.3185000000000002,0.3431000000014848,0.35039999999851545,0.3763999999985117,0.3847999999970142,0.40989999999851534,0.4181000000014876,0.42449999999999477,0.4420000000000073,0.476399999998506,0.4846000000014925,0.4911000000014951,0.5101000000014864,0.544700000002976,0.5517999999970158,0.5752000000029796,0.582499999999996,0.6106000000014973,0.6172000000029811,0.6432000000029774,0.6514999999999986,0.677100000001488,0.683700000002986,0.7086000000014963,0.7152000000029801,0.7431000000014905,0.7596000000014982,0.7766000000014941,0.784000000000006,0.8117000000029861,0.8182000000029745,0.8444999999999965,0.8515000000000015,0.8577999999970274,0.8942999999970169,0.9107000000029757,0.9182999999970178,0.9447000000029817,0.9523999999985051,0.9762000000029758,0.9830000000000041,1.0112999999970214,1.0181000000014961,1.042899999998511,1.049899999998516,1.0785000000000053,1.0854999999999961,1.109700000002988,1.117299999997016,1.1451000000014915,1.1555000000000035,1.1766000000014856,1.1834999999999951,1.2125000000000057,1.220700000002978,1.243200000002986,1.2516000000014884,1.278700000002985,1.2860000000000014,1.310299999997028,1.3174999999999955,1.3455000000000013,1.3537999999970225,1.3766000000014884,1.3841000000014958,1.4133999999985178,1.4202000000029784,1.424299999997018,1.4427000000029864,1.4787999999970225,1.486200000002981,1.5097999999970142,1.5174999999999983,1.545500000000004,1.5532000000029882,1.5767000000029867,1.5843999999985101,1.611799999997018,1.6192000000029765,1.6432000000029774,1.6500000000000057,1.678299999997023,1.6850000000000023,1.709799999997017,1.716799999997022,1.744899999998509,1.7521000000014908,1.7768999999985056,1.7837000000029803,1.8116000000014907,1.8188999999985072,1.8433999999985105,1.8512000000029758,1.8790000000000049,1.8861000000014911,1.910499999999999,1.917500000000004,1.9447000000029817,1.951299999997019,1.9765000000000015,1.9832000000029808,2.0117999999970237,2.0180000000000007,2.04360000000149,2.0508999999985065,2.0790000000000077,2.0863999999985055,2.1122000000029857,2.119700000002979,2.145700000002975,2.1532000000029825,2.1592000000029827,2.1784999999999997,2.1972000000029794,2.210799999997022,2.22829999999702,2.2642999999970215,2.2723999999985125,2.295500000000004,2.302299999997018,2.3267999999970215,2.3342999999970147,2.362399999998516,2.3689999999999998,2.3952999999970217,2.4036000000014894,2.4288999999985066,2.4357000000029814,2.460399999998515,2.467700000002978,2.493600000001493,2.5010000000000048,2.5267999999970243,2.5342000000029827,2.560299999997028,2.5682999999970235,2.5937000000029826,2.602700000002983,2.630100000001491,2.6373999999985074,2.6602999999970223,2.666700000002976,2.6917999999970164,2.698899999998517,2.7249999999999943,2.7321000000014948,2.758499999999998,2.765500000000003,2.791799999997025,2.7997999999970204,2.8281000000014984,2.8352000000029847,2.860200000002976,2.8671000000014857,2.895799999997024,2.902799999997015,2.926799999997016,2.9345,2.9628999999985126,2.9698999999985034,2.993600000001493,3.0010000000000048,3.0294999999999987,3.0367000000029805,3.040999999999997,3.0597999999970114,3.095700000002978,3.102499999999992,3.126700000002984,3.1337999999970236,3.1626000000014898,3.1702000000029784,3.1947999999970165,3.2017000000029725,3.226700000002978,3.233200000002981,3.260200000002982,3.266999999999996,3.293200000002983,3.3022000000029834,3.3266000000014913,3.333600000001482,3.360100000001495,3.367600000001488,3.393299999997012,3.400299999997017,3.427100000001488,3.4336000000014906,3.4603999999985007,3.4669999999999987,3.4932999999970207,3.5002999999970115,3.526600000001494,3.5331000000014825,3.5600000000000023,3.566299999997014,3.591799999997022,3.5992000000029805,3.6251000000014812,3.633100000001491,3.6602000000029733,3.667999999999992,3.6936000000014815,3.7146000000014823,3.7277999999970177,3.7372000000029715,3.759799999997014,3.7664999999999935,3.793200000002983,3.800399999998504,3.809299999997023,3.826100000001489,3.8617000000029833,3.8692000000029765,3.8932000000029774,3.8998999999985102,3.926399999998509,3.9329999999999927,3.959799999997017,3.9664999999999964,3.9917999999970135,3.9989999999999952,4.027799999997015,4.03460000000149,4.059799999997011,4.066999999999993,4.09320000000298,4.10029999999702,4.126600000001488,4.133799999997024,4.158399999998508,4.16560000000149,4.1932999999970235,4.20039999999851,4.226200000002976,4.233799999997018,4.258600000001493,4.265799999997014,4.293200000002983,4.300100000001493,4.326499999999996,4.333200000002975,4.359700000002974,4.366399999998507,4.391799999997019,4.400700000002985,4.426500000000004,4.432799999997016,4.460200000002985,4.467899999998508,4.497399999998507,4.504899999998514,4.528499999999994,4.536500000000004,4.561999999999998,4.569700000002982,4.595500000000001,4.602899999998513,4.629499999999993,4.636499999999998,4.663499999999999,4.670299999997013,4.695100000001489,4.70339999999851,4.728499999999997,4.7357000000029785,4.761899999998505]","[1733283449598,1733283449630,1733283449653,1733283449660,1733283449686,1733283449695,1733283449720,1733283449737,1733283449744,1733283449770,1733283449777,1733283449803,1733283449811,1733283449836,1733283449844,1733283449868,1733283449874,1733283449901,1733283449910,1733283449934,1733283449942,1733283449968,1733283449976,1733283450001,1733283450009,1733283450016,1733283450033,1733283450068,1733283450076,1733283450082,1733283450101,1733283450136,1733283450143,1733283450166,1733283450174,1733283450202,1733283450208,1733283450234,1733283450243,1733283450268,1733283450275,1733283450300,1733283450306,1733283450334,1733283450351,1733283450368,1733283450375,1733283450403,1733283450409,1733283450436,1733283450443,1733283450449,1733283450485,1733283450502,1733283450509,1733283450536,1733283450544,1733283450567,1733283450574,1733283450602,1733283450609,1733283450634,1733283450641,1733283450670,1733283450677,1733283450701,1733283450708,1733283450736,1733283450747,1733283450768,1733283450775,1733283450804,1733283450812,1733283450834,1733283450843,1733283450870,1733283450877,1733283450901,1733283450909,1733283450937,1733283450945,1733283450968,1733283450975,1733283451005,1733283451011,1733283451015,1733283451034,1733283451070,1733283451077,1733283451101,1733283451109,1733283451137,1733283451144,1733283451168,1733283451176,1733283451203,1733283451210,1733283451234,1733283451241,1733283451269,1733283451276,1733283451301,1733283451308,1733283451336,1733283451343,1733283451368,1733283451375,1733283451403,1733283451410,1733283451435,1733283451442,1733283451470,1733283451477,1733283451502,1733283451509,1733283451536,1733283451542,1733283451568,1733283451574,1733283451603,1733283451609,1733283451635,1733283451642,1733283451670,1733283451678,1733283451703,1733283451711,1733283451737,1733283451744,1733283451750,1733283451770,1733283451788,1733283451802,1733283451819,1733283451855,1733283451864,1733283451887,1733283451893,1733283451918,1733283451925,1733283451954,1733283451960,1733283451986,1733283451995,1733283452020,1733283452027,1733283452052,1733283452059,1733283452085,1733283452092,1733283452118,1733283452125,1733283452151,1733283452159,1733283452185,1733283452194,1733283452221,1733283452228,1733283452251,1733283452258,1733283452283,1733283452290,1733283452316,1733283452323,1733283452350,1733283452357,1733283452383,1733283452391,1733283452419,1733283452426,1733283452451,1733283452458,1733283452487,1733283452494,1733283452518,1733283452526,1733283452554,1733283452561,1733283452585,1733283452592,1733283452621,1733283452628,1733283452632,1733283452651,1733283452687,1733283452694,1733283452718,1733283452725,1733283452754,1733283452761,1733283452786,1733283452793,1733283452818,1733283452824,1733283452851,1733283452858,1733283452884,1733283452893,1733283452918,1733283452925,1733283452951,1733283452959,1733283452984,1733283452991,1733283453018,1733283453025,1733283453051,1733283453058,1733283453084,1733283453091,1733283453118,1733283453124,1733283453151,1733283453157,1733283453183,1733283453190,1733283453216,1733283453224,1733283453251,1733283453259,1733283453285,1733283453306,1733283453319,1733283453328,1733283453351,1733283453358,1733283453384,1733283453392,1733283453400,1733283453417,1733283453453,1733283453460,1733283453484,1733283453491,1733283453518,1733283453524,1733283453551,1733283453558,1733283453583,1733283453590,1733283453619,1733283453626,1733283453651,1733283453658,1733283453684,1733283453691,1733283453718,1733283453725,1733283453750,1733283453757,1733283453784,1733283453791,1733283453817,1733283453825,1733283453850,1733283453857,1733283453884,1733283453891,1733283453918,1733283453924,1733283453951,1733283453958,1733283453983,1733283453992,1733283454018,1733283454024,1733283454051,1733283454059,1733283454088,1733283454096,1733283454120,1733283454128,1733283454153,1733283454161,1733283454187,1733283454194,1733283454221,1733283454228,1733283454255,1733283454261,1733283454286,1733283454294,1733283454320,1733283454327,1733283454353]","[[1329.5,700.2],[1329.5,700.2],[1299.6,688],[1299.6,688],[1298.7,675.7],[1298.7,675.7],[1298.7,675.7],[1243.4,660.5],[1243.4,660.5],[1182.3,667.3],[1182.3,667.3],[1171.6,676.2],[1171.6,676.2],[1140.6,647.4],[1140.6,647.4],[1075.7,640],[1075.7,640],[1043.6,635.5],[1043.6,635.5],[1015.7,654],[1015.7,654],[1008,655.5],[1008,655.5],[1011.9,663.4],[1011.9,663.4],[1011.9,663.4],[1011.9,663.4],[976.6,677.7],[976.6,677.7],[976.6,677.7],[976.6,677.7],[994.7,682.4],[994.7,682.4],[1012.5,716.9],[1012.5,716.9],[1003.8,779.8],[1003.8,779.8],[962.4,796],[962.4,796],[1023.3,816.9],[1023.3,816.9],[1030,814.1],[1030,814.1],[975.3,825.2],[975.3,825.2],[964.5,850.4],[964.5,850.4],[967.8,895.8],[967.8,895.8],[957.3,914.7],[957.3,914.7],[957.3,914.7],[957.3,914.7],[987.8,940.6],[987.8,940.6],[1016.1,908],[1016.1,908],[993.4,841.2],[993.4,841.2],[1021.1,847.6],[1021.1,847.6],[965.4,833.5],[965.4,833.5],[902.5,835.3],[902.5,835.3],[942.7,822],[942.7,822],[920.5,803],[920.5,803],[909.7,774.8],[909.7,774.8],[908.4,748.9],[908.4,748.9],[895.7,746.5],[895.7,746.5],[876.3,751.4],[876.3,751.4],[864.1,737.9],[864.1,737.9],[881.1,736.7],[881.1,736.7],[901.7,720.3],[901.7,720.3],[912.9,724.8],[912.9,724.8],[912.9,724.8],[912.9,724.8],[897.9,708],[897.9,708],[919.1,691.9],[919.1,691.9],[902.8,689.3],[902.8,689.3],[942.8,691.1],[942.8,691.1],[966.6,657.8],[966.6,657.8],[974.3,656.9],[974.3,656.9],[1036.5,664.7],[1036.5,664.7],[1004.2,674.8],[1004.2,674.8],[1016.3,695.5],[1016.3,695.5],[1044.7,687.4],[1044.7,687.4],[1097,676.8],[1097,676.8],[1068.9,696.9],[1068.9,696.9],[1062.2,676.6],[1062.2,676.6],[1027.9,668.7],[1027.9,668.7],[990.1,668.7],[990.1,668.7],[991.4,637.3],[991.4,637.3],[993.4,632.1],[993.4,632.1],[1041.5,595.6],[1041.5,595.6],[1044.3,563.7],[1044.3,563.7],[1096.2,555.1],[1096.2,555.1],[1065.5,530.5],[1065.5,530.5],[1065.5,530.5],[1065.5,530.5],[1065.5,530.5],[1065.5,530.5],[1065.5,530.5],[1102.7,483.8],[1102.7,483.8],[1125,489.3],[1125,489.3],[1147.1,495.3],[1147.1,495.3],[1113.7,502.6],[1113.7,502.6],[1072.3,508.3],[1072.3,508.3],[1027.9,499.4],[1027.9,499.4],[1014.3,503.4],[1014.3,503.4],[995.6,526.2],[995.6,526.2],[929.4,530.7],[929.4,530.7],[933.3,546.9],[933.3,546.9],[890.7,588.2],[890.7,588.2],[884.5,602.7],[884.5,602.7],[872.6,601.7],[872.6,601.7],[899.9,607.7],[899.9,607.7],[953.2,612.4],[953.2,612.4],[953.8,609.3],[953.8,609.3],[922.1,609.6],[922.1,609.6],[902.5,606.1],[902.5,606.1],[941.9,595.5],[941.9,595.5],[954.2,598.2],[954.2,598.2],[989.6,577.8],[989.6,577.8],[998.8,554.9],[998.8,554.9],[1037.5,549.5],[1037.5,549.5],[1055.3,542.6],[1055.3,542.6],[1055.3,542.6],[1055.3,542.6],[1045.7,523.5],[1045.7,523.5],[1082.8,503.6],[1082.8,503.6],[1103.7,497.7],[1103.7,497.7],[1136.4,476.1],[1136.4,476.1],[1149.7,493.6],[1149.7,493.6],[1174.9,505.1],[1174.9,505.1],[1183.2,520.4],[1183.2,520.4],[1206.6,529.6],[1206.6,529.6],[1177.4,531.4],[1177.4,531.4],[1197,531.3],[1197,531.3],[1211.1,545.1],[1211.1,545.1],[1202,565],[1202,565],[1213.5,577.4],[1213.5,577.4],[1219.1,598.3],[1219.1,598.3],[1233,589.3],[1233,589.3],[1255.1,583.9],[1255.1,583.9],[1257.8,579.9],[1257.8,579.9],[1272.6,595.2],[1272.6,595.2],[1295.8,613.1],[1295.8,613.1],[1278.1,613.9],[1278.1,613.9],[1265,612.6],[1265,612.6],[1259.1,617.4],[1259.1,617.4],[1259.1,617.4],[1259.1,617.4],[1254.4,602.8],[1254.4,602.8],[1230.2,592.4],[1230.2,592.4],[1200,589.9],[1200,589.9],[1195.2,601.4],[1195.2,601.4],[1231.4,609.7],[1231.4,609.7],[1220.2,596.3],[1220.2,596.3],[1214.9,582.3],[1214.9,582.3],[1224.4,575.5],[1224.4,575.5],[1275.9,572.6],[1275.9,572.6],[1275.6,568.1],[1275.6,568.1],[1240.8,592.6],[1240.8,592.6],[1239,604.7],[1239,604.7],[1231.7,597.1],[1231.7,597.1],[1185.5,607.7],[1185.5,607.7],[1125,606.2],[1125,606.2],[1067.4,611.3],[1067.4,611.3],[1048.1,614],[1048.1,614],[1054.5,624.3],[1054.5,624.3],[1007.3,638.2],[1007.3,638.2],[1044,646],[1044,646],[1057.9,647],[1057.9,647],[1089.1,640.7],[1089.1,640.7],[1099.3,660.4],[1099.3,660.4],[1120.2,655.5],[1120.2,655.5],[1148.1,655.1],[1148.1,655.1],[1188.6,658.3],[1188.6,658.3],[1158.8,657.8],[1158.8,657.8],[1166.4,672.8]]","[0,0.151169218]","[0.151169218,0.151169218]","[-0.151169218,-0.151169218]","[-0.151169218,0]","[0,-0.151169218]","[0.151169218,-0.151169218]","[0,0]","[0.151169218,0]",0,0,0,0,1,4,Smartphone,11,5,13,9
,,,,,,,,,,,,,,,,,,,20,001,2024-12-04_11h36.37.682,Attention_exp_legacy,2023.1.0,Win32,60.60606061,,,,,,,,,,,[0.175],[0.1685185185185185],[1],[0],[0],[1.9632999999970195],"[""Option2_label""]",Option2_label,2,2.9641,"[[0.175,0.1685185185185185],[0.175,0.1685185185185185],[0.175,0.1685185185185185],[0.175,0.1685185185185185],[0.175,0.1685185185185185],[0.175,0.1685185185185185],[0.175,0.1685185185185185],[0.175,0.1685185185185185],[0.175,0.1685185185185185],[0.175,0.1685185185185185],[0.175,0.1685185185185185],[0.175,0.1685185185185185],[0.175,0.1685185185185185],[0.175,0.1685185185185185],[0.175,0.1685185185185185],[0.175,0.1685185185185185],[0.175,0.1685185185185185],[0.175,0.1685185185185185],[0.175,0.1685185185185185],[0.175,0.1685185185185185],[0.175,0.1685185185185185],[0.175,0.1685185185185185],[0.175,0.1685185185185185],[0.175,0.1685185185185185],[0.175,0.1685185185185185],[0.175,0.1685185185185185],[0.175,0.1685185185185185],[0.175,0.1685185185185185],[0.175,0.1685185185185185],[0.175,0.1685185185185185],[0.175,0.1685185185185185],[0.175,0.1685185185185185],[0.175,0.1685185185185185],[0.175,0.1685185185185185],[0.175,0.1685185185185185],[0.175,0.1685185185185185],[0.175,0.1685185185185185],[0.175,0.1685185185185185],[0.175,0.1685185185185185],[0.175,0.1685185185185185],[0.175,0.1685185185185185],[0.175,0.1685185185185185],[0.175,0.1685185185185185],[0.175,0.1685185185185185],[0.175,0.1685185185185185],[0.175,0.1685185185185185],[0.175,0.1685185185185185],[0.175,0.1685185185185185],[0.175,0.1685185185185185],[0.175,0.1685185185185185],[0.175,0.1685185185185185],[0.175,0.1685185185185185],[0.175,0.1685185185185185],[0.175,0.1685185185185185],[0.175,0.1685185185185185],[0.175,0.1685185185185185],[0.175,0.1685185185185185],[0.175,0.1685185185185185],[0.175,0.1685185185185185],[0.175,0.1685185185185185],[0.175,0.1685185185185185],[0.175,0.1685185185185185],[0.175,0.1685185185185185],[0.175,0.1685185185185185],[0.175,0.1685185185185185],[0.175,0.1685185185185185],[0.175,0.1685185185185185],[0.175,0.1685185185185185],[0.175,0.1685185185185185],[0.175,0.1685185185185185],[0.175,0.1685185185185185],[0.175,0.1685185185185185],[0.175,0.1685185185185185],[0.175,0.1685185185185185],[0.175,0.1685185185185185],[0.175,0.1685185185185185],[0.175,0.1685185185185185],[0.175,0.1685185185185185],[0.175,0.1685185185185185],[0.175,0.1685185185185185],[0.175,0.1685185185185185],[0.175,0.1685185185185185],[0.175,0.1685185185185185],[0.175,0.1685185185185185],[0.175,0.1685185185185185],[0.175,0.1685185185185185],[0.175,0.1685185185185185],[0.175,0.1685185185185185],[0.175,0.1685185185185185],[0.175,0.1685185185185185],[0.175,0.1685185185185185],[0.175,0.1685185185185185],[0.175,0.1685185185185185],[0.175,0.1685185185185185],[0.175,0.1685185185185185],[0.175,0.1685185185185185],[0.175,0.1685185185185185],[0.175,0.1685185185185185],[0.175,0.1685185185185185],[0.175,0.1685185185185185],[0.175,0.1685185185185185],[0.175,0.1685185185185185],[0.175,0.1685185185185185],[0.175,0.1685185185185185],[0.175,0.1685185185185185],[0.175,0.1685185185185185],[0.175,0.1685185185185185],[0.175,0.1685185185185185],[0.175,0.1685185185185185],[0.175,0.1685185185185185],[0.175,0.1685185185185185],[0.175,0.1685185185185185],[0.175,0.1685185185185185],[0.175,0.1685185185185185],[0.175,0.1685185185185185],[0.175,0.1685185185185185],[0.175,0.1685185185185185],[0.175,0.1685185185185185],[0.175,0.1685185185185185],[0.175,0.1685185185185185],[0.175,0.1685185185185185],[0.175,0.1685185185185185],[0.175,0.1685185185185185],[0.175,0.1685185185185185],[0.175,0.1685185185185185],[0.175,0.1685185185185185],[0.175,0.1685185185185185],[0.175,0.1685185185185185],[0.175,0.1685185185185185],[0.175,0.1685185185185185],[0.175,0.1685185185185185],[0.175,0.1685185185185185],[0.175,0.1685185185185185],[0.175,0.1685185185185185],[0.175,0.1685185185185185],[0.175,0.1685185185185185],[0.175,0.1685185185185185],[0.175,0.1685185185185185],[0.175,0.1685185185185185],[0.175,0.1685185185185185],[0.175,0.1685185185185185],[0.175,0.1685185185185185],[0.175,0.1685185185185185],[0.175,0.1685185185185185],[0.175,0.1685185185185185],[0.175,0.1685185185185185],[0.175,0.1685185185185185],[0.175,0.1685185185185185],[0.175,0.1685185185185185],[0.175,0.1685185185185185],[0.175,0.1685185185185185],[0.175,0.1685185185185185],[0.175,0.1685185185185185],[0.175,0.1685185185185185],[0.175,0.1685185185185185],[0.175,0.1685185185185185],[0.175,0.1685185185185185],[0.175,0.1685185185185185],[0.175,0.1685185185185185],[0.175,0.1685185185185185],[0.175,0.1685185185185185],[0.175,0.1685185185185185],[0.175,0.1685185185185185],[0.175,0.1685185185185185],[0.175,0.1685185185185185],[0.175,0.1685185185185185],[0.175,0.1685185185185185],[0.175,0.1685185185185185],[0.175,0.1685185185185185],[0.175,0.1685185185185185],[0.175,0.1685185185185185],[0.175,0.1685185185185185],[0.175,0.1685185185185185],[0.175,0.1685185185185185],[0.175,0.1685185185185185],[0.175,0.1685185185185185],[0.175,0.1685185185185185],[0.175,0.1685185185185185],[0.175,0.1685185185185185]]","[[0.19958333333333325,0.11370370370370367],[0.24031250000000004,0.11944444444444445],[0.26541666666666663,0.10907407407407403],[0.23270833333333343,0.12111111111111107],[0.23156249999999995,0.11796296296296305],[0.20791666666666658,0.11296296296296296],[0.18635416666666677,0.11055555555555564],[0.17916666666666667,0.13185185185185194],[0.19729166666666675,0.15537037037037033],[0.1837500000000001,0.1816666666666667],[0.17302083333333323,0.16351851851851842],[0.1622916666666666,0.14537037037037037],[0.1671875,0.14333333333333328],[0.1865624999999999,0.15759259259259265],[0.18708333333333324,0.15833333333333333],[0.18260416666666662,0.17166666666666675],[0.19989583333333344,0.16500000000000004],[0.2319791666666667,0.15500000000000008],[0.23875000000000005,0.1427777777777778],[0.22145833333333323,0.16370370370370366],[0.21802083333333327,0.2074074074074074],[0.22291666666666668,0.21444444444444435],[0.22781250000000006,0.22148148148148153],[0.22781250000000006,0.22148148148148153],[0.19197916666666662,0.19740740740740745],[0.1662499999999999,0.19907407407407407],[0.15822916666666675,0.16370370370370366],[0.14572916666666677,0.16666666666666666],[0.14187500000000006,0.1638888888888889],[0.1321875000000001,0.19518518518518516],[0.14135416666666673,0.18925925925925935],[0.1415625000000001,0.17444444444444454],[0.16010416666666671,0.18037037037037032],[0.17864583333333334,0.18629629629629635],[0.23135416666666658,0.22092592592592583],[0.27395833333333336,0.22981481481481486],[0.3303124999999999,0.2683333333333333],[0.34260416666666677,0.2890740740740741],[0.34739583333333335,0.2718518518518518],[0.3359375,0.25500000000000006],[0.3296875,0.24222222222222214],[0.3186458333333334,0.23462962962962972],[0.28093750000000006,0.24296296296296305],[0.23104166666666662,0.247037037037037],[0.17322916666666663,0.23722222222222225],[0.1171875,0.2705555555555556],[0.06989583333333324,0.2857407407407407],[0.025729166666666713,0.2948148148148149],[-0.024374999999999977,0.3522222222222223],[-0.06416666666666669,0.37962962962962965],[-0.07218749999999995,0.3653703703703703],[-0.07541666666666665,0.34592592592592586],[-0.06947916666666672,0.33722222222222226],[-0.05135416666666662,0.33277777777777784],[-0.05135416666666662,0.33277777777777784],[-0.04458333333333329,0.32148148148148153],[-0.04458333333333329,0.32148148148148153],[-0.06458333333333334,0.28296296296296286],[-0.06458333333333334,0.28296296296296286],[-0.06843750000000005,0.2874074074074075],[-0.06843750000000005,0.2874074074074075],[-0.050729166666666714,0.2948148148148149],[-0.050729166666666714,0.2948148148148149],[-0.028125,0.29685185185185176],[-0.028125,0.29685185185185176],[0.0265625,0.29981481481481476],[0.04822916666666662,0.3638888888888889],[0.07927083333333323,0.43574074074074065],[0.10427083333333324,0.4324074074074074],[0.11593749999999996,0.4535185185185185],[0.13947916666666677,0.5116666666666666],[0.19239583333333338,0.5414814814814815],[0.21135416666666676,0.5366666666666666],[0.2289583333333333,0.5016666666666666],[0.24166666666666667,0.472037037037037],[0.22354166666666658,0.4235185185185186],[0.18041666666666673,0.3668518518518519],[0.12791666666666662,0.30240740740740735],[0.1171875,0.32518518518518524],[0.11979166666666667,0.3235185185185186],[0.11583333333333339,0.28425925925925927],[0.0484375,0.25925925925925924],[0.01729166666666669,0.20481481481481487],[-0.0125,0.18055555555555555],[-0.04229166666666669,0.15629629629629627],[-0.04656250000000005,0.18185185185185193],[-0.024583333333333356,0.19611111111111107],[-0.007395833333333357,0.21999999999999992],[-0.007395833333333357,0.21999999999999992],[-0.035104166666666714,0.22111111111111106],[-0.029166666666666667,0.22351851851851862],[-0.03447916666666669,0.24740740740740744],[0.0067708333333333336,0.2624074074074075],[0.011979166666666667,0.2983333333333334],[0.0171875,0.33425925925925926],[-0.015312500000000047,0.36370370370370364],[-0.027083333333333334,0.37481481481481477],[-0.03885416666666662,0.3859259259259259],[-0.04583333333333333,0.3874074074074075],[-0.05135416666666662,0.3911111111111112],[-0.09052083333333331,0.39351851851851855],[-0.10072916666666672,0.4087037037037038],[-0.07010416666666662,0.4007407407407407],[-0.07635416666666663,0.3966666666666668],[-0.06906249999999996,0.40925925925925927],[-0.024062500000000025,0.42833333333333323],[0.019791666666666666,0.4198148148148149],[0.019791666666666666,0.4198148148148149],[0.06312500000000003,0.42296296296296293],[0.10145833333333343,0.4353703703703704],[0.11677083333333324,0.42185185185185176],[0.13614583333333338,0.4094444444444445],[0.16864583333333344,0.3933333333333333],[0.16072916666666662,0.3966666666666668],[0.19854166666666656,0.41444444444444434],[0.19177083333333325,0.40555555555555556],[0.18499999999999991,0.3966666666666668],[0.15510416666666677,0.40851851851851856],[0.07729166666666672,0.3675925925925926],[0.07729166666666672,0.3675925925925926],[0.06687500000000005,0.3562962962962963],[0.06177083333333329,0.3544444444444444],[0.05260416666666667,0.3514814814814814],[0.03145833333333338,0.3351851851851852],[0.01864583333333331,0.3116666666666666],[0.01864583333333331,0.3116666666666666],[0.005833333333333357,0.2881481481481482],[0.0009374999999999763,0.3001851851851852],[-0.0068750000000000235,0.30833333333333335],[0.019895833333333356,0.31074074074074065],[0.09697916666666657,0.3453703703703704],[0.09385416666666657,0.30759259259259264],[0.10697916666666671,0.28407407407407403],[0.09468750000000009,0.26500000000000007],[0.06958333333333329,0.2361111111111111],[0.07000000000000005,0.20481481481481487],[0.06749999999999995,0.2014814814814814],[0.10333333333333337,0.18925925925925935],[0.12895833333333329,0.12925925925925918],[0.12989583333333338,0.1337037037037038],[0.12895833333333329,0.147037037037037],[0.10645833333333338,0.13148148148148148],[0.06895833333333339,0.17611111111111116],[0.11135416666666677,0.17037037037037037],[0.08479166666666677,0.2192592592592592],[0.058645833333333286,0.26518518518518525],[0.022395833333333334,0.27814814814814826],[-0.013333333333333286,0.29240740740740734],[0.0296875,0.32407407407407407],[0.02177083333333331,0.28777777777777774],[0.06427083333333337,0.2551851851851851],[0.1415625000000001,0.32111111111111107],[0.1671875,0.285],[0.15187499999999995,0.3096296296296297],[0.17739583333333328,0.2759259259259259],[0.17760416666666667,0.28277777777777785],[0.19083333333333338,0.2946296296296297],[0.19083333333333338,0.2946296296296297],[0.2009375000000001,0.2800000000000001],[0.2009375000000001,0.2800000000000001],[0.11624999999999991,0.255925925925926],[0.11489583333333328,0.27388888888888885],[0.06135416666666664,0.2324074074074074],[0.0034374999999999527,0.1801851851851851],[-0.008958333333333356,0.22759259259259254],[-0.03333333333333333,0.2051851851851851],[-0.02958333333333331,0.18648148148148155],[-0.024374999999999977,0.13407407407407404],[-0.0265625,0.09129629629629621],[-0.02947916666666662,0.072037037037037],[-0.025520833333333333,0.06222222222222226],[-0.04604166666666672,0.0544444444444444],[-0.035208333333333286,0.09537037037037037],[-0.015416666666666618,0.11092592592592589],[-0.004270833333333357,0.03259259259259263],[-0.004375000000000047,0.018148148148148063],[0.002499999999999976,0.02388888888888885],[0.011041666666666691,0.04611111111111107],[0.011041666666666691,0.04611111111111107]]","[[0.19958333333333325,0.11370370370370367,0.0001000000014954594],[0.24031250000000004,0.11944444444444445,0.01660000000148898],[0.26541666666666663,0.10907407407407403,0.030700000002980232],[0.23270833333333343,0.12111111111111107,0.04910000000148784],[0.23156249999999995,0.11796296296296305,0.0653000000044699],[0.20791666666666658,0.11296296296296296,0.08380000000447296],[0.18635416666666677,0.11055555555555564,0.09870000000297807],[0.17916666666666667,0.13185185185185194,0.11589999999851841],[0.19729166666666675,0.15537037037037033,0.13080000000447],[0.1837500000000001,0.1816666666666667,0.14780000000446591],[0.17302083333333323,0.16351851851851842,0.16420000000297819],[0.1622916666666666,0.14537037037037037,0.18300000000000693],[0.1671875,0.14333333333333328,0.19739999999850966],[0.1865624999999999,0.15759259259259265,0.2141000000014941],[0.18708333333333324,0.15833333333333333,0.23070000000298307],[0.18260416666666662,0.17166666666666675,0.24750000000000227],[0.19989583333333344,0.16500000000000004,0.26410000000149125],[0.2319791666666667,0.15500000000000008,0.2845000000000084],[0.23875000000000005,0.1427777777777778,0.30049999999999955],[0.22145833333333323,0.16370370370370366,0.31520000000298865],[0.21802083333333327,0.2074074074074074,0.3312000000029798],[0.22291666666666668,0.21444444444444435,0.35020000000298523],[0.22781250000000006,0.22148148148148153,0.36599999999999966],[0.22781250000000006,0.22148148148148153,0.380899999998519],[0.19197916666666662,0.19740740740740745,0.3973999999985125],[0.1662499999999999,0.19907407407407407,0.4143999999985084],[0.15822916666666675,0.16370370370370366,0.43080000000446717],[0.14572916666666677,0.16666666666666666,0.44739999999850966],[0.14187500000000006,0.1638888888888889,0.4641000000014941],[0.1321875000000001,0.19518518518518516,0.4823000000044715],[0.14135416666666673,0.18925925925925935,0.4978999999985092],[0.1415625000000001,0.17444444444444454,0.5153999999985075],[0.16010416666666671,0.18037037037037032,0.5307000000029802],[0.17864583333333334,0.18629629629629635,0.5473999999985182],[0.23135416666666658,0.22092592592592583,0.5674999999999955],[0.27395833333333336,0.22981481481481486,0.5837000000029775],[0.3303124999999999,0.2683333333333333,0.5974999999999966],[0.34260416666666677,0.2890740740740741,0.6141000000014856],[0.34739583333333335,0.2718518518518518,0.63080000000447],[0.3359375,0.25500000000000006,0.6473999999985125],[0.3296875,0.24222222222222214,0.6640000000000015],[0.3186458333333334,0.23462962962962972,0.6821000000014976],[0.28093750000000006,0.24296296296296305,0.6973999999985097],[0.23104166666666662,0.247037037037037,0.7142000000029753],[0.17322916666666663,0.23722222222222225,0.7307000000029831],[0.1171875,0.2705555555555556,0.7473999999985068],[0.06989583333333324,0.2857407407407407,0.7639999999999958],[0.025729166666666713,0.2948148148148149,0.7836000000014991],[-0.024374999999999977,0.3522222222222223,0.7987000000029809],[-0.06416666666666669,0.37962962962962965,0.8141000000014884],[-0.07218749999999995,0.3653703703703703,0.8307000000029774],[-0.07541666666666665,0.34592592592592586,0.8473000000044664],[-0.06947916666666672,0.33722222222222226,0.8643999999985112],[-0.05135416666666662,0.33277777777777784,0.8861000000014911],[-0.05135416666666662,0.33277777777777784,0.8973000000044777],[-0.04458333333333329,0.32148148148148153,0.9141000000014969],[-0.04458333333333329,0.32148148148148153,0.9308000000044672],[-0.06458333333333334,0.28296296296296286,0.9473999999985097],[-0.06458333333333334,0.28296296296296286,0.9641000000014941],[-0.06843750000000005,0.2874074074074075,0.9808999999985133],[-0.06843750000000005,0.2874074074074075,0.9973999999985068],[-0.050729166666666714,0.2948148148148149,1.0141000000014913],[-0.050729166666666714,0.2948148148148149,1.0308000000044757],[-0.028125,0.29685185185185176,1.0474999999999994],[-0.028125,0.29685185185185176,1.0640000000000072],[0.0265625,0.29981481481481476,1.0808000000044728],[0.04822916666666662,0.3638888888888889,1.0978000000044688],[0.07927083333333323,0.43574074074074065,1.1140000000000043],[0.10427083333333324,0.4324074074074074,1.1307000000029888],[0.11593749999999996,0.4535185185185185,1.1473999999985125],[0.13947916666666677,0.5116666666666666,1.164100000001497],[0.19239583333333338,0.5414814814814815,1.184100000001493],[0.21135416666666676,0.5366666666666666,1.199600000001496],[0.2289583333333333,0.5016666666666666,1.2139999999999986],[0.24166666666666667,0.472037037037037,1.230700000002983],[0.22354166666666658,0.4235185185185186,1.2476000000014977],[0.18041666666666673,0.3668518518518519,1.2641000000014913],[0.12791666666666662,0.30240740740740735,1.2813999999985128],[0.1171875,0.32518518518518524,1.2973999999985182],[0.11979166666666667,0.3235185185185186,1.3141000000014884],[0.11583333333333339,0.28425925925925927,1.3308000000044728],[0.0484375,0.25925925925925924,1.3478000000044688],[0.01729166666666669,0.20481481481481487,1.3641000000014856],[-0.0125,0.18055555555555555,1.384200000002977],[-0.04229166666666669,0.15629629629629627,1.3992000000029776],[-0.04656250000000005,0.18185185185185193,1.4140000000000015],[-0.024583333333333356,0.19611111111111107,1.430700000002986],[-0.007395833333333357,0.21999999999999992,1.4477000000029818],[-0.007395833333333357,0.21999999999999992,1.4639999999999986],[-0.035104166666666714,0.22111111111111106,1.4808000000044785],[-0.029166666666666667,0.22351851851851862,1.4973999999985068],[-0.03447916666666669,0.24740740740740744,1.5139999999999958],[0.0067708333333333336,0.2624074074074075,1.5307000000029802],[0.011979166666666667,0.2983333333333334,1.5473999999985182],[0.0171875,0.33425925925925926,1.5641000000014884],[-0.015312500000000047,0.36370370370370364,1.5843000000044754],[-0.027083333333333334,0.37481481481481477,1.6003000000044665],[-0.03885416666666662,0.3859259259259259,1.6141000000014856],[-0.04583333333333333,0.3874074074074075,1.6307000000029888],[-0.05135416666666662,0.3911111111111112,1.6473999999985125],[-0.09052083333333331,0.39351851851851855,1.664100000001497],[-0.10072916666666672,0.4087037037037038,1.6831000000014882],[-0.07010416666666662,0.4007407407407407,1.6993000000044702],[-0.07635416666666663,0.3966666666666668,1.714100000001494],[-0.06906249999999996,0.40925925925925927,1.7308000000044785],[-0.024062500000000025,0.42833333333333323,1.7473999999985068],[0.019791666666666666,0.4198148148148149,1.7639999999999958],[0.019791666666666666,0.4198148148148149,1.7808000000044757],[0.06312500000000003,0.42296296296296293,1.7973999999985182],[0.10145833333333343,0.4353703703703704,1.8141000000014884],[0.11677083333333324,0.42185185185185176,1.8307000000029774],[0.13614583333333338,0.4094444444444445,1.8473999999985153],[0.16864583333333344,0.3933333333333333,1.8641000000014856],[0.16072916666666662,0.3966666666666668,1.8840000000000003],[0.19854166666666656,0.41444444444444434,1.8973999999985125],[0.19177083333333325,0.40555555555555556,1.914100000001497],[0.18499999999999991,0.3966666666666668,1.930700000002986],[0.15510416666666677,0.40851851851851856,1.9473999999985097],[0.07729166666666672,0.3675925925925926,1.9639999999999986],[0.07729166666666672,0.3675925925925926,1.9808999999985133],[0.06687500000000005,0.3562962962962963,1.9973999999985068],[0.06177083333333329,0.3544444444444444,2.013999999999996],[0.05260416666666667,0.3514814814814814,2.0307000000029802],[0.03145833333333338,0.3351851851851852,2.047300000004469],[0.01864583333333331,0.3116666666666666,2.06530000000447],[0.01864583333333331,0.3116666666666666,2.080800000004473],[0.005833333333333357,0.2881481481481482,2.0973999999985153],[0.0009374999999999763,0.3001851851851852,2.1145000000000067],[-0.0068750000000000235,0.30833333333333335,2.1307000000029888],[0.019895833333333356,0.31074074074074065,2.147500000000008],[0.09697916666666657,0.3453703703703704,2.1640000000000015],[0.09385416666666657,0.30759259259259264,2.182000000000002],[0.10697916666666671,0.28407407407407403,2.1973999999985097],[0.09468750000000009,0.26500000000000007,2.2139999999999986],[0.06958333333333329,0.2361111111111111,2.2308999999985133],[0.07000000000000005,0.20481481481481487,2.247399999998507],[0.06749999999999995,0.2014814814814814,2.263999999999996],[0.10333333333333337,0.18925925925925935,2.2816000000014895],[0.12895833333333329,0.12925925925925918,2.2986000000014855],[0.12989583333333338,0.1337037037037038,2.314000000000007],[0.12895833333333329,0.147037037037037,2.3307000000029774],[0.10645833333333338,0.13148148148148148,2.3473999999985153],[0.06895833333333339,0.17611111111111116,2.3640000000000043],[0.11135416666666677,0.17037037037037037,2.382000000000005],[0.08479166666666677,0.2192592592592592,2.3973999999985125],[0.058645833333333286,0.26518518518518525,2.4140000000000015],[0.022395833333333334,0.27814814814814826,2.430800000004467],[-0.013333333333333286,0.29240740740740734,2.447899999998512],[0.0296875,0.32407407407407407,2.464100000001494],[0.02177083333333331,0.28777777777777774,2.484700000002988],[0.06427083333333337,0.2551851851851851,2.4998999999985188],[0.1415625000000001,0.32111111111111107,2.513999999999996],[0.1671875,0.285,2.5307000000029802],[0.15187499999999995,0.3096296296296297,2.547399999998518],[0.17739583333333328,0.2759259259259259,2.564000000000007],[0.17760416666666667,0.28277777777777785,2.582300000004466],[0.19083333333333338,0.2946296296296297,2.600999999999999],[0.19083333333333338,0.2946296296296297,2.6203000000044767],[0.2009375000000001,0.2800000000000001,2.6373999999985074],[0.2009375000000001,0.2800000000000001,2.6473999999985125],[0.11624999999999991,0.255925925925926,2.6640000000000015],[0.11489583333333328,0.27388888888888885,2.680800000004467],[0.06135416666666664,0.2324074074074074,2.697300000004475],[0.0034374999999999527,0.1801851851851851,2.7139999999999986],[-0.008958333333333356,0.22759259259259254,2.730700000002983],[-0.03333333333333333,0.2051851851851851,2.747300000004472],[-0.02958333333333331,0.18648148148148155,2.763999999999996],[-0.024374999999999977,0.13407407407407404,2.7815000000000083],[-0.0265625,0.09129629629629621,2.797300000004469],[-0.02947916666666662,0.072037037037037,2.8141000000014884],[-0.025520833333333333,0.06222222222222226,2.830800000004473],[-0.04604166666666672,0.0544444444444444,2.8473000000044664],[-0.035208333333333286,0.09537037037037037,2.8640000000000043],[-0.015416666666666618,0.11092592592592589,2.886100000001491],[-0.004270833333333357,0.03259259259259263,2.901200000002987],[-0.004375000000000047,0.018148148148148063,2.914899999998511],[0.002499999999999976,0.02388888888888885,2.930700000002986],[0.011041666666666691,0.04611111111111107,2.9473999999985097],[0.011041666666666691,0.04611111111111107,2.964100000001494]]","[0.0001000000014954594,0.01660000000148898,0.030700000002980232,0.04910000000148784,0.0653000000044699,0.08380000000447296,0.09870000000297807,0.11589999999851841,0.13080000000447,0.14780000000446591,0.16420000000297819,0.18300000000000693,0.19739999999850966,0.2141000000014941,0.23070000000298307,0.24750000000000227,0.26410000000149125,0.2845000000000084,0.30049999999999955,0.31520000000298865,0.3312000000029798,0.35020000000298523,0.36599999999999966,0.380899999998519,0.3973999999985125,0.4143999999985084,0.43080000000446717,0.44739999999850966,0.4641000000014941,0.4823000000044715,0.4978999999985092,0.5153999999985075,0.5307000000029802,0.5473999999985182,0.5674999999999955,0.5837000000029775,0.5974999999999966,0.6141000000014856,0.63080000000447,0.6473999999985125,0.6640000000000015,0.6821000000014976,0.6973999999985097,0.7142000000029753,0.7307000000029831,0.7473999999985068,0.7639999999999958,0.7836000000014991,0.7987000000029809,0.8141000000014884,0.8307000000029774,0.8473000000044664,0.8643999999985112,0.8861000000014911,0.8973000000044777,0.9141000000014969,0.9308000000044672,0.9473999999985097,0.9641000000014941,0.9808999999985133,0.9973999999985068,1.0141000000014913,1.0308000000044757,1.0474999999999994,1.0640000000000072,1.0808000000044728,1.0978000000044688,1.1140000000000043,1.1307000000029888,1.1473999999985125,1.164100000001497,1.184100000001493,1.199600000001496,1.2139999999999986,1.230700000002983,1.2476000000014977,1.2641000000014913,1.2813999999985128,1.2973999999985182,1.3141000000014884,1.3308000000044728,1.3478000000044688,1.3641000000014856,1.384200000002977,1.3992000000029776,1.4140000000000015,1.430700000002986,1.4477000000029818,1.4639999999999986,1.4808000000044785,1.4973999999985068,1.5139999999999958,1.5307000000029802,1.5473999999985182,1.5641000000014884,1.5843000000044754,1.6003000000044665,1.6141000000014856,1.6307000000029888,1.6473999999985125,1.664100000001497,1.6831000000014882,1.6993000000044702,1.714100000001494,1.7308000000044785,1.7473999999985068,1.7639999999999958,1.7808000000044757,1.7973999999985182,1.8141000000014884,1.8307000000029774,1.8473999999985153,1.8641000000014856,1.8840000000000003,1.8973999999985125,1.914100000001497,1.930700000002986,1.9473999999985097,1.9639999999999986,1.9808999999985133,1.9973999999985068,2.013999999999996,2.0307000000029802,2.047300000004469,2.06530000000447,2.080800000004473,2.0973999999985153,2.1145000000000067,2.1307000000029888,2.147500000000008,2.1640000000000015,2.182000000000002,2.1973999999985097,2.2139999999999986,2.2308999999985133,2.247399999998507,2.263999999999996,2.2816000000014895,2.2986000000014855,2.314000000000007,2.3307000000029774,2.3473999999985153,2.3640000000000043,2.382000000000005,2.3973999999985125,2.4140000000000015,2.430800000004467,2.447899999998512,2.464100000001494,2.484700000002988,2.4998999999985188,2.513999999999996,2.5307000000029802,2.547399999998518,2.564000000000007,2.582300000004466,2.600999999999999,2.6203000000044767,2.6373999999985074,2.6473999999985125,2.6640000000000015,2.680800000004467,2.697300000004475,2.7139999999999986,2.730700000002983,2.747300000004472,2.763999999999996,2.7815000000000083,2.797300000004469,2.8141000000014884,2.830800000004473,2.8473000000044664,2.8640000000000043,2.886100000001491,2.901200000002987,2.914899999998511,2.930700000002986,2.9473999999985097,2.964100000001494]","[1733283455369,1733283455385,1733283455399,1733283455417,1733283455433,1733283455452,1733283455467,1733283455484,1733283455499,1733283455516,1733283455532,1733283455551,1733283455565,1733283455582,1733283455599,1733283455615,1733283455632,1733283455652,1733283455669,1733283455683,1733283455699,1733283455718,1733283455734,1733283455749,1733283455765,1733283455782,1733283455799,1733283455815,1733283455832,1733283455850,1733283455866,1733283455883,1733283455899,1733283455915,1733283455936,1733283455952,1733283455965,1733283455982,1733283455999,1733283456015,1733283456032,1733283456050,1733283456065,1733283456082,1733283456099,1733283456115,1733283456132,1733283456152,1733283456167,1733283456182,1733283456199,1733283456215,1733283456232,1733283456254,1733283456265,1733283456282,1733283456299,1733283456315,1733283456332,1733283456349,1733283456365,1733283456382,1733283456399,1733283456415,1733283456432,1733283456449,1733283456466,1733283456482,1733283456499,1733283456515,1733283456532,1733283456552,1733283456568,1733283456582,1733283456599,1733283456616,1733283456632,1733283456649,1733283456665,1733283456682,1733283456699,1733283456716,1733283456732,1733283456752,1733283456767,1733283456782,1733283456799,1733283456816,1733283456832,1733283456849,1733283456865,1733283456882,1733283456899,1733283456915,1733283456932,1733283456952,1733283456968,1733283456982,1733283456999,1733283457015,1733283457032,1733283457051,1733283457067,1733283457082,1733283457099,1733283457115,1733283457132,1733283457149,1733283457165,1733283457182,1733283457199,1733283457215,1733283457232,1733283457252,1733283457265,1733283457282,1733283457299,1733283457315,1733283457332,1733283457349,1733283457365,1733283457382,1733283457399,1733283457415,1733283457433,1733283457449,1733283457465,1733283457482,1733283457499,1733283457515,1733283457532,1733283457550,1733283457565,1733283457582,1733283457599,1733283457615,1733283457632,1733283457650,1733283457667,1733283457682,1733283457699,1733283457715,1733283457732,1733283457750,1733283457765,1733283457782,1733283457799,1733283457816,1733283457832,1733283457853,1733283457868,1733283457882,1733283457899,1733283457915,1733283457932,1733283457950,1733283457969,1733283457988,1733283458005,1733283458015,1733283458032,1733283458049,1733283458065,1733283458082,1733283458099,1733283458115,1733283458132,1733283458150,1733283458165,1733283458182,1733283458199,1733283458215,1733283458232,1733283458254,1733283458269,1733283458283,1733283458299,1733283458315,1733283458332]","[[1151.6,601.4],[1190.7,604.5],[1214.8,598.9],[1183.4,605.4],[1182.3,603.7],[1159.6,601],[1138.9,599.7],[1132,611.2],[1149.4,623.9],[1136.4,638.1],[1126.1,628.3],[1115.8,618.5],[1120.5,617.4],[1139.1,625.1],[1139.6,625.5],[1135.3,632.7],[1151.9,629.1],[1182.7,623.7],[1189.2,617.1],[1172.6,628.4],[1169.3,652],[1174,655.8],[1178.7,659.6],[1178.7,659.6],[1144.3,646.6],[1119.6,647.5],[1111.9,628.4],[1099.9,630],[1096.2,628.5],[1086.9,645.4],[1095.7,642.2],[1095.9,634.2],[1113.7,637.4],[1131.5,640.6],[1182.1,659.3],[1223,664.1],[1277.1,684.9],[1288.9,696.1],[1293.5,686.8],[1282.5,677.7],[1276.5,670.8],[1265.9,666.7],[1229.7,671.2],[1181.8,673.4],[1126.3,668.1],[1072.5,686.1],[1027.1,694.3],[984.7,699.2],[936.6,730.2],[898.4,745],[890.7,737.3],[887.6,726.8],[893.3,722.1],[910.7,719.7],[910.7,719.7],[917.2,713.6],[917.2,713.6],[898,692.8],[898,692.8],[894.3,695.2],[894.3,695.2],[911.3,699.2],[911.3,699.2],[933,700.3],[933,700.3],[985.5,701.9],[1006.3,736.5],[1036.1,775.3],[1060.1,773.5],[1071.3,784.9],[1093.9,816.3],[1144.7,832.4],[1162.9,829.8],[1179.8,810.9],[1192,794.9],[1174.6,768.7],[1133.2,738.1],[1082.8,703.3],[1072.5,715.6],[1075,714.7],[1071.2,693.5],[1006.5,680],[976.6,650.6],[948,637.5],[919.4,624.4],[915.3,638.2],[936.4,645.9],[952.9,658.8],[952.9,658.8],[926.3,659.4],[932,660.7],[926.9,673.6],[966.5,681.7],[971.5,701.1],[976.5,720.5],[945.3,736.4],[934,742.4],[922.7,748.4],[916,749.2],[910.7,751.2],[873.1,752.5],[863.3,760.7],[892.7,756.4],[886.7,754.2],[893.7,761],[936.9,771.3],[979,766.7],[979,766.7],[1020.6,768.4],[1057.4,775.1],[1072.1,767.8],[1090.7,761.1],[1121.9,752.4],[1114.3,754.2],[1150.6,763.8],[1144.1,759],[1137.6,754.2],[1108.9,760.6],[1034.2,738.5],[1034.2,738.5],[1024.2,732.4],[1019.3,731.4],[1010.5,729.8],[990.2,721],[977.9,708.3],[977.9,708.3],[965.6,695.6],[960.9,702.1],[953.4,706.5],[979.1,707.8],[1053.1,726.5],[1050.1,706.1],[1062.7,693.4],[1050.9,683.1],[1026.8,667.5],[1027.2,650.6],[1024.8,648.8],[1059.2,642.2],[1083.8,609.8],[1084.7,612.2],[1083.8,619.4],[1062.2,611],[1026.2,635.1],[1066.9,632],[1041.4,658.4],[1016.3,683.2],[981.5,690.2],[947.2,697.9],[988.5,715],[980.9,695.4],[1021.7,677.8],[1095.9,713.4],[1120.5,693.9],[1105.8,707.2],[1130.3,689],[1130.5,692.7],[1143.2,699.1],[1143.2,699.1],[1152.9,691.2],[1152.9,691.2],[1071.6,678.2],[1070.3,687.9],[1018.9,665.5],[963.3,637.3],[951.4,662.9],[928,650.8],[931.6,640.7],[936.6,612.4],[934.5,589.3],[931.7,578.9],[935.5,573.6],[915.8,569.4],[926.2,591.5],[945.2,599.9],[955.9,557.6],[955.8,549.8],[962.4,552.9],[970.6,564.9],[970.6,564.9]]","[0,0.151169218]","[0.151169218,0.151169218]","[-0.151169218,-0.151169218]","[-0.151169218,0]","[0,-0.151169218]","[0.151169218,-0.151169218]","[0,0]","[0.151169218,0]",0,1,1,1,1,4,Smartphone,5,1,13,7
