inst1_resp.keys,inst1_resp.rt,calibrationMouse.x,calibrationMouse.y,calibrationMouse.leftButton,calibrationMouse.midButton,calibrationMouse.rightButton,calibrationClick.x,calibrationClick.y,calibrationClick.leftButton,calibrationClick.midButton,calibrationClick.rightButton,calibrationClick.clicked_name,trialsc.thisRepN,trialsc.thisTrialN,trialsc.thisN,trialsc.thisIndex,trialsc.ran,calibration_x,calibration_y,participant,session,date,expName,psychopyVersion,OS,frameRate,ScreenRes_pixels,Camera_pixels,mouse_2.x,mouse_2.y,mouse_2.leftButton,mouse_2.midButton,mouse_2.rightButton,mouse_2.time,mouse_2.clicked_name,mouse.x,mouse.y,mouse.leftButton,mouse.midButton,mouse.rightButton,mouse.time,mouse.clicked_name,Choice,Trial,TrialDuration,MOUSE_GAZE,ET_GAZE,ET_GAZE_x_T,time,unixTime,ET_GAZE_NF,Loc_Option1_label,Loc_Option2_label,Loc_Cost_label,Loc_Qual_label,Loc_Option1_cost,Loc_Option2_cost,Loc_Option1_quality,Loc_Option2_quality,trials.thisRepN,trials.thisTrialN,trials.thisN,trials.thisIndex,trials.ran,Block,Device,cost1,qual1,cost2,qual2
space,2.0847,-0.251041667,-0.231481481,1,0,0,-0.328125,-0.001851852,1,0,0,calibration_square,0,0,0,6,1,-0.33,0,20,001,2024-12-04_11h06.17.060,Attention_exp_legacy,2023.1.0,Win32,59.88023952,,,,,,,,,,,,,,,,,,,,,,,,,,,,,,,,,,,,,,,,,,,,
,,,,,,,0.671875,-0.659259259,1,0,0,,0,1,1,20,1,0.67,-0.67,20,001,2024-12-04_11h06.17.060,Attention_exp_legacy,2023.1.0,Win32,59.88023952,,,,,,,,,,,,,,,,,,,,,,,,,,,,,,,,,,,,,,,,,,,,
,,,,,,,0.328125,-0.005555556,1,0,0,calibration_square,0,2,2,16,1,0.33,0,20,001,2024-12-04_11h06.17.060,Attention_exp_legacy,2023.1.0,Win32,59.88023952,,,,,,,,,,,,,,,,,,,,,,,,,,,,,,,,,,,,,,,,,,,,
,,,,,,,-0.661458333,0.318518519,1,0,0,,0,3,3,3,1,-0.67,0.33,20,001,2024-12-04_11h06.17.060,Attention_exp_legacy,2023.1.0,Win32,59.88023952,,,,,,,,,,,,,,,,,,,,,,,,,,,,,,,,,,,,,,,,,,,,
,,,,,,,0.002083333,-0.659259259,1,0,0,,0,4,4,9,1,0,-0.67,20,001,2024-12-04_11h06.17.060,Attention_exp_legacy,2023.1.0,Win32,59.88023952,,,,,,,,,,,,,,,,,,,,,,,,,,,,,,,,,,,,,,,,,,,,
,,,,,,,-0.005208333,-0.012962963,1,0,0,,0,5,5,11,1,0,0,20,001,2024-12-04_11h06.17.060,Attention_exp_legacy,2023.1.0,Win32,59.88023952,,,,,,,,,,,,,,,,,,,,,,,,,,,,,,,,,,,,,,,,,,,,
,,,,,,,0.326041667,0.681481481,1,0,0,,0,6,6,18,1,0.33,0.67,20,001,2024-12-04_11h06.17.060,Attention_exp_legacy,2023.1.0,Win32,59.88023952,,,,,,,,,,,,,,,,,,,,,,,,,,,,,,,,,,,,,,,,,,,,
,,,,,,,-0.671875,-0.312962963,1,0,0,,0,7,7,1,1,-0.67,-0.33,20,001,2024-12-04_11h06.17.060,Attention_exp_legacy,2023.1.0,Win32,59.88023952,,,,,,,,,,,,,,,,,,,,,,,,,,,,,,,,,,,,,,,,,,,,
,,,,,,,0.31875,-0.327777778,1,0,0,,0,8,8,15,1,0.33,-0.33,20,001,2024-12-04_11h06.17.060,Attention_exp_legacy,2023.1.0,Win32,59.88023952,,,,,,,,,,,,,,,,,,,,,,,,,,,,,,,,,,,,,,,,,,,,
,,,,,,,-0.680208333,-0.668518519,1,0,0,,0,9,9,0,1,-0.67,-0.67,20,001,2024-12-04_11h06.17.060,Attention_exp_legacy,2023.1.0,Win32,59.88023952,,,,,,,,,,,,,,,,,,,,,,,,,,,,,,,,,,,,,,,,,,,,
,,,,,,,0.670833333,0.664814815,1,0,0,calibration_square,0,10,10,19,1,0.67,0.67,20,001,2024-12-04_11h06.17.060,Attention_exp_legacy,2023.1.0,Win32,59.88023952,,,,,,,,,,,,,,,,,,,,,,,,,,,,,,,,,,,,,,,,,,,,
,,,,,,,-0.332291667,0.675925926,1,0,0,calibration_square,0,11,11,8,1,-0.33,0.67,20,001,2024-12-04_11h06.17.060,Attention_exp_legacy,2023.1.0,Win32,59.88023952,,,,,,,,,,,,,,,,,,,,,,,,,,,,,,,,,,,,,,,,,,,,
,,,,,,,-0.33125,-0.335185185,1,0,0,calibration_square,0,12,12,5,1,-0.33,-0.33,20,001,2024-12-04_11h06.17.060,Attention_exp_legacy,2023.1.0,Win32,59.88023952,,,,,,,,,,,,,,,,,,,,,,,,,,,,,,,,,,,,,,,,,,,,
,,,,,,,-0.34375,-0.662962963,1,0,0,,0,13,13,4,1,-0.33,-0.67,20,001,2024-12-04_11h06.17.060,Attention_exp_legacy,2023.1.0,Win32,59.88023952,,,,,,,,,,,,,,,,,,,,,,,,,,,,,,,,,,,,,,,,,,,,
,,,,,,,0.00625,-0.32037037,1,0,0,calibration_square,0,14,14,10,1,0,-0.33,20,001,2024-12-04_11h06.17.060,Attention_exp_legacy,2023.1.0,Win32,59.88023952,,,,,,,,,,,,,,,,,,,,,,,,,,,,,,,,,,,,,,,,,,,,
,,,,,,,-0.667708333,-0.001851852,1,0,0,calibration_square,0,15,15,2,1,-0.67,0,20,001,2024-12-04_11h06.17.060,Attention_exp_legacy,2023.1.0,Win32,59.88023952,,,,,,,,,,,,,,,,,,,,,,,,,,,,,,,,,,,,,,,,,,,,
,,,,,,,0.315625,0.340740741,1,0,0,,0,16,16,17,1,0.33,0.33,20,001,2024-12-04_11h06.17.060,Attention_exp_legacy,2023.1.0,Win32,59.88023952,,,,,,,,,,,,,,,,,,,,,,,,,,,,,,,,,,,,,,,,,,,,
,,,,,,,0.330208333,-0.664814815,1,0,0,calibration_square,0,17,17,14,1,0.33,-0.67,20,001,2024-12-04_11h06.17.060,Attention_exp_legacy,2023.1.0,Win32,59.88023952,,,,,,,,,,,,,,,,,,,,,,,,,,,,,,,,,,,,,,,,,,,,
,,,,,,,-0.330208333,0.32962963,1,0,0,calibration_square,0,18,18,7,1,-0.33,0.33,20,001,2024-12-04_11h06.17.060,Attention_exp_legacy,2023.1.0,Win32,59.88023952,,,,,,,,,,,,,,,,,,,,,,,,,,,,,,,,,,,,,,,,,,,,
,,,,,,,0.004166667,0.337037037,1,0,0,calibration_square,0,19,19,12,1,0,0.33,20,001,2024-12-04_11h06.17.060,Attention_exp_legacy,2023.1.0,Win32,59.88023952,,,,,,,,,,,,,,,,,,,,,,,,,,,,,,,,,,,,,,,,,,,,
,,,,,,,0.001041667,0.674074074,1,0,0,calibration_square,0,20,20,13,1,0,0.67,20,001,2024-12-04_11h06.17.060,Attention_exp_legacy,2023.1.0,Win32,59.88023952,,,,,,,,,,,,,,,,,,,,,,,,,,,,,,,,,,,,,,,,,,,,
,,,,,,,,,,,,,,,,,,,,20,001,2024-12-04_11h06.17.060,Attention_exp_legacy,2023.1.0,Win32,59.88023952,"[1920,1080]","[640,480]","[0.04791666666666667,0.046875]","[-0.5518518518518518,-0.5370370370370371]","[1,1]","[0,0]","[0,0]","[1.74419999999553,2.32989999999851]","[""StartButton""]",[0.08854166666666667],[0.3925925925925926],[1],[0],[0],[3.0174999999999983],"[""Option1_label""]",Option1_label,1,4.0245,"[[0.04375,-0.4981481481481482],[0.04375,-0.4981481481481482],[0.04375,-0.4981481481481482],[0.04375,-0.4981481481481482],[0.04375,-0.4981481481481482],[0.04375,-0.4981481481481482],[0.04375,-0.4981481481481482],[0.04375,-0.4981481481481482],[0.04375,-0.4981481481481482],[0.04375,-0.4981481481481482],[0.04375,-0.4981481481481482],[0.04375,-0.4981481481481482],[0.04375,-0.4981481481481482],[0.04375,-0.4981481481481482],[0.04375,-0.4981481481481482],[0.04375,-0.4981481481481482],[0.04375,-0.4981481481481482],[0.04375,-0.4981481481481482],[0.04375,-0.4981481481481482],[0.04375,-0.4981481481481482],[0.04375,-0.4981481481481482],[0.04375,-0.4981481481481482],[0.04375,-0.4981481481481482],[0.04375,-0.4981481481481482],[0.04375,-0.4981481481481482],[0.04375,-0.4981481481481482],[0.04375,-0.4981481481481482],[0.04375,-0.4981481481481482],[0.04375,-0.4981481481481482],[0.04375,-0.4981481481481482],[0.04375,-0.4981481481481482],[0.04375,-0.4981481481481482],[0.04375,-0.4981481481481482],[0.04375,-0.4981481481481482],[0.04375,-0.4981481481481482],[0.04375,-0.4962962962962963],[0.04375,-0.49444444444444446],[0.04375,-0.49444444444444446],[0.04375,-0.4925925925925926],[0.04375,-0.4888888888888889],[0.04375,-0.4888888888888889],[0.04375,-0.48703703703703705],[0.04375,-0.48703703703703705],[0.04375,-0.48703703703703705],[0.04375,-0.48703703703703705],[0.04375,-0.48703703703703705],[0.04375,-0.48703703703703705],[0.04375,-0.48703703703703705],[0.04375,-0.48703703703703705],[0.04375,-0.48703703703703705],[0.04375,-0.48703703703703705],[0.04375,-0.48703703703703705],[0.04375,-0.48703703703703705],[0.04375,-0.48703703703703705],[0.04375,-0.48703703703703705],[0.04375,-0.48703703703703705],[0.04375,-0.48703703703703705],[0.04375,-0.48703703703703705],[0.04375,-0.48703703703703705],[0.04375,-0.48703703703703705],[0.04375,-0.48703703703703705],[0.04375,-0.48703703703703705],[0.04375,-0.48703703703703705],[0.04375,-0.48703703703703705],[0.04375,-0.48703703703703705],[0.04375,-0.48703703703703705],[0.04375,-0.48703703703703705],[0.04375,-0.48703703703703705],[0.04375,-0.48703703703703705],[0.04375,-0.48703703703703705],[0.04375,-0.48703703703703705],[0.04375,-0.48703703703703705],[0.04375,-0.48703703703703705],[0.04375,-0.48703703703703705],[0.04375,-0.48703703703703705],[0.04375,-0.48703703703703705],[0.04375,-0.48703703703703705],[0.04375,-0.48703703703703705],[0.04375,-0.48703703703703705],[0.04375,-0.48703703703703705],[0.04375,-0.48703703703703705],[0.04375,-0.48703703703703705],[0.04375,-0.48703703703703705],[0.04375,-0.48703703703703705],[0.04375,-0.48703703703703705],[0.04375,-0.48703703703703705],[0.04375,-0.48703703703703705],[0.04375,-0.48703703703703705],[0.04375,-0.48703703703703705],[0.04375,-0.48703703703703705],[0.04375,-0.48703703703703705],[0.04375,-0.48703703703703705],[0.04375,-0.48703703703703705],[0.04375,-0.48703703703703705],[0.04375,-0.48703703703703705],[0.04375,-0.48703703703703705],[0.04375,-0.48703703703703705],[0.04375,-0.48703703703703705],[0.04375,-0.48703703703703705],[0.04375,-0.48703703703703705],[0.04375,-0.48703703703703705],[0.04375,-0.48703703703703705],[0.04375,-0.48703703703703705],[0.04375,-0.48703703703703705],[0.04375,-0.48703703703703705],[0.04375,-0.48703703703703705],[0.04375,-0.48703703703703705],[0.04375,-0.48703703703703705],[0.04375,-0.48703703703703705],[0.04375,-0.48703703703703705],[0.04375,-0.48703703703703705],[0.04375,-0.48703703703703705],[0.04375,-0.48703703703703705],[0.04375,-0.48703703703703705],[0.04375,-0.48703703703703705],[0.04375,-0.48703703703703705],[0.04375,-0.48703703703703705],[0.04375,-0.48703703703703705],[0.04375,-0.48703703703703705],[0.04375,-0.48703703703703705],[0.04375,-0.48703703703703705],[0.04375,-0.48703703703703705],[0.04375,-0.48703703703703705],[0.04375,-0.48703703703703705],[0.04375,-0.48703703703703705],[0.04375,-0.48333333333333334],[0.04375,-0.4759259259259259],[0.04375,-0.4722222222222222],[0.04375,-0.4648148148148148],[0.04375,-0.45740740740740743],[0.04479166666666667,-0.4425925925925926],[0.04583333333333333,-0.43148148148148147],[0.046875,-0.4203703703703704],[0.04895833333333333,-0.40555555555555556],[0.04895833333333333,-0.3888888888888889],[0.05,-0.37407407407407406],[0.053125,-0.3537037037037037],[0.05416666666666667,-0.3351851851851852],[0.05520833333333333,-0.31296296296296294],[0.058333333333333334,-0.29444444444444445],[0.06041666666666667,-0.27037037037037037],[0.06145833333333333,-0.24814814814814815],[0.06354166666666666,-0.20925925925925926],[0.06354166666666666,-0.1925925925925926],[0.06458333333333334,-0.16296296296296298],[0.065625,-0.13333333333333333],[0.06875,-0.08518518518518518],[0.07083333333333333,-0.05555555555555555],[0.07395833333333333,-0.020370370370370372],[0.07604166666666666,0.011111111111111112],[0.07916666666666666,0.040740740740740744],[0.08020833333333334,0.07592592592592592],[0.084375,0.1111111111111111],[0.08541666666666667,0.1388888888888889],[0.090625,0.17222222222222222],[0.09270833333333334,0.20185185185185187],[0.09270833333333334,0.23703703703703705],[0.09270833333333334,0.26851851851851855],[0.09583333333333334,0.31851851851851853],[0.096875,0.34444444444444444],[0.09791666666666667,0.36666666666666664],[0.09791666666666667,0.3851851851851852],[0.09791666666666667,0.3925925925925926],[0.09791666666666667,0.39814814814814814],[0.09791666666666667,0.4],[0.09791666666666667,0.4],[0.09791666666666667,0.4],[0.09791666666666667,0.4],[0.09791666666666667,0.4],[0.09791666666666667,0.4],[0.09791666666666667,0.4],[0.096875,0.4],[0.096875,0.39814814814814814],[0.09479166666666666,0.39814814814814814],[0.09270833333333334,0.3962962962962963],[0.090625,0.3962962962962963],[0.08958333333333333,0.39444444444444443],[0.08854166666666667,0.3925925925925926],[0.08854166666666667,0.3925925925925926],[0.08854166666666667,0.3925925925925926],[0.08854166666666667,0.3925925925925926],[0.08854166666666667,0.3925925925925926],[0.08854166666666667,0.3925925925925926],[0.08854166666666667,0.3925925925925926],[0.08854166666666667,0.3925925925925926],[0.08854166666666667,0.3925925925925926],[0.08854166666666667,0.3925925925925926],[0.08854166666666667,0.3925925925925926],[0.08854166666666667,0.3925925925925926],[0.08854166666666667,0.3925925925925926],[0.08854166666666667,0.3925925925925926],[0.08854166666666667,0.3925925925925926],[0.08854166666666667,0.3925925925925926],[0.08854166666666667,0.3925925925925926],[0.08854166666666667,0.3925925925925926],[0.08854166666666667,0.3925925925925926],[0.08854166666666667,0.3925925925925926],[0.08854166666666667,0.3925925925925926],[0.08854166666666667,0.3925925925925926],[0.08854166666666667,0.3925925925925926],[0.08854166666666667,0.3925925925925926],[0.08854166666666667,0.3925925925925926],[0.08854166666666667,0.3925925925925926],[0.08854166666666667,0.3925925925925926],[0.08854166666666667,0.3925925925925926],[0.08854166666666667,0.3925925925925926],[0.08854166666666667,0.3925925925925926],[0.08854166666666667,0.3925925925925926],[0.08854166666666667,0.3925925925925926],[0.08854166666666667,0.3925925925925926],[0.08854166666666667,0.3925925925925926],[0.08854166666666667,0.3925925925925926],[0.08854166666666667,0.3925925925925926],[0.08854166666666667,0.3925925925925926],[0.08854166666666667,0.3925925925925926],[0.08854166666666667,0.3925925925925926],[0.08854166666666667,0.3925925925925926],[0.08854166666666667,0.3925925925925926],[0.08854166666666667,0.3925925925925926],[0.0875,0.3907407407407407],[0.0875,0.3907407407407407],[0.0875,0.3907407407407407],[0.0875,0.3907407407407407],[0.0875,0.3907407407407407],[0.0875,0.3907407407407407],[0.0875,0.3907407407407407],[0.0875,0.3907407407407407],[0.0875,0.3907407407407407],[0.0875,0.3907407407407407],[0.0875,0.3907407407407407],[0.0875,0.3907407407407407],[0.0875,0.3907407407407407],[0.0875,0.3907407407407407],[0.0875,0.3907407407407407],[0.0875,0.3907407407407407],[0.0875,0.3907407407407407],[0.0875,0.3907407407407407],[0.0875,0.3907407407407407],[0.0875,0.3907407407407407],[0.0875,0.3907407407407407],[0.0875,0.3907407407407407],[0.0875,0.3907407407407407]]","[[0.20114583333333325,0.2774074074074073],[0.20114583333333325,0.2774074074074073],[0.18895833333333342,0.27981481481481485],[0.1662499999999999,0.2935185185185185],[0.14343750000000005,0.2927777777777778],[0.14343750000000005,0.2927777777777778],[0.13354166666666673,0.2881481481481482],[0.11635416666666672,0.24462962962962967],[0.13479166666666675,0.252962962962963],[0.15677083333333333,0.2007407407407407],[0.17927083333333324,0.20851851851851855],[0.20645833333333338,0.23925925925925934],[0.23635416666666675,0.2264814814814814],[0.28489583333333335,0.2007407407407407],[0.3023958333333333,0.13851851851851843],[0.3023958333333333,0.13851851851851843],[0.3568749999999999,0.08574074074074066],[0.3807291666666667,0.03351851851851856],[0.3807291666666667,0.03351851851851856],[0.3976041666666667,0.02907407407407416],[0.3976041666666667,0.02907407407407416],[0.4122916666666666,0.012962962962962963],[0.4180208333333333,0.03740740740740749],[0.4180208333333333,0.03740740740740749],[0.4013541666666666,-0.002777777777777778],[0.4013541666666666,-0.002777777777777778],[0.38468749999999996,-0.04296296296296305],[0.38468749999999996,-0.04296296296296305],[0.37447916666666664,-0.07981481481481485],[0.35395833333333326,-0.11777777777777781],[0.3580208333333334,-0.11851851851851852],[0.3489583333333333,-0.1257407407407407],[0.35177083333333337,-0.10851851851851856],[0.3489583333333333,-0.12037037037037036],[0.3494791666666667,-0.16648148148148145],[0.3546875,-0.20462962962962963],[0.35,-0.1809259259259259],[0.3453125,-0.15722222222222218],[0.3272916666666667,-0.09888888888888885],[0.2977083333333333,-0.05259259259259255],[0.26624999999999993,-0.0020370370370370794],[0.23479166666666676,0.0485185185185186],[0.22270833333333329,0.0911111111111112],[0.21062500000000003,0.1337037037037038],[0.17864583333333334,0.20870370370370378],[0.13489583333333333,0.24611111111111106],[0.11822916666666666,0.21851851851851853],[0.1015625,0.19092592592592597],[0.11104166666666657,0.18111111111111103],[0.12052083333333338,0.1712962962962963],[0.13833333333333328,0.15648148148148147],[0.18114583333333342,0.15481481481481485],[0.2009375000000001,0.11351851851851844],[0.22072916666666675,0.07222222222222222],[0.24552083333333338,0.036666666666666584],[0.2853125000000001,0.044444444444444446],[0.3241666666666667,0.05648148148148148],[0.36781249999999993,0.07537037037037045],[0.3849999999999999,0.07518518518518523],[0.4021874999999999,0.075],[0.40479166666666655,0.06888888888888897],[0.39249999999999996,0.05907407407407403],[0.41510416666666666,0.05925925925925926],[0.43770833333333337,0.05944444444444449],[0.43770833333333337,0.05944444444444449],[0.4695833333333333,0.08314814814814811],[0.4892708333333334,0.08074074074074078],[0.5040625000000001,0.10537037037037032],[0.5061458333333334,0.08574074074074066],[0.5185416666666666,0.07537037037037045],[0.533125,0.09722222222222222],[0.5672916666666665,0.11185185185185181],[0.5767708333333333,0.1242592592592593],[0.5720833333333334,0.1418518518518519],[0.5493750000000001,0.16111111111111112],[0.5261458333333332,0.19499999999999992],[0.5215625,0.2300000000000001],[0.5319791666666667,0.2492592592592593],[0.5078125,0.33555555555555566],[0.4828125,0.3551851851851851],[0.4448958333333332,0.3787037037037037],[0.4019791666666668,0.4153703703703703],[0.38739583333333344,0.4703703703703704],[0.3580208333333334,0.5425925925925926],[0.33791666666666675,0.6038888888888889],[0.3150000000000001,0.609074074074074],[0.2873958333333334,0.6307407407407408],[0.24145833333333327,0.6544444444444444],[0.2118750000000001,0.6248148148148148],[0.18312499999999995,0.6618518518518518],[0.1568749999999999,0.6801851851851851],[0.1306250000000001,0.6985185185185186],[0.09229166666666658,0.7242592592592593],[0.057500000000000044,0.744074074074074],[0.041770833333333354,0.7177777777777778],[0.026041666666666668,0.6914814814814815],[-0.011770833333333286,0.644814814814815],[-0.057500000000000044,0.5698148148148149],[-0.06916666666666664,0.5468518518518518],[-0.07364583333333338,0.532037037037037],[-0.08031250000000002,0.5157407407407407],[-0.08333333333333333,0.46648148148148144],[-0.08510416666666672,0.377962962962963],[-0.08687499999999998,0.28944444444444434],[-0.10572916666666667,0.23499999999999996],[-0.12458333333333335,0.18055555555555555],[-0.11677083333333335,0.17481481481481478],[-0.10104166666666667,0.19740740740740745],[-0.11322916666666671,0.16666666666666666],[-0.1326041666666666,0.12777777777777777],[-0.1430208333333333,0.11314814814814819],[-0.13875000000000004,0.10685185185185193],[-0.14750000000000002,0.13333333333333333],[-0.15625,0.15981481481481474],[-0.1686458333333333,0.18222222222222217],[-0.18104166666666663,0.20462962962962963],[-0.1983333333333333,0.20796296296296288],[-0.21625000000000003,0.2064814814814815],[-0.19114583333333332,0.23148148148148148],[-0.19114583333333332,0.23148148148148148],[-0.14979166666666663,0.26666666666666666],[-0.1280208333333333,0.22888888888888892],[-0.10354166666666664,0.2485185185185186],[-0.06395833333333331,0.22037037037037038],[-0.03229166666666667,0.19129629629629621],[0.0018749999999999527,0.16111111111111112],[0.03770833333333338,0.16666666666666666],[0.07322916666666662,0.1668518518518519],[0.12572916666666673,0.19277777777777783],[0.15520833333333334,0.21722222222222215],[0.15010416666666657,0.23648148148148157],[0.165625,0.27870370370370373],[0.1453125,0.28111111111111103],[0.12781250000000005,0.3109259259259259],[0.12781250000000005,0.3109259259259259],[0.13479166666666675,0.3522222222222223],[0.13479166666666675,0.3522222222222223],[0.1259375000000001,0.4448148148148149],[0.12020833333333343,0.47851851851851845],[0.10843749999999991,0.505925925925926],[0.05697916666666671,0.5005555555555554],[0.00614583333333331,0.4911111111111112],[-0.006979166666666714,0.4727777777777777],[-0.006979166666666714,0.4727777777777777],[-0.03343750000000002,0.46055555555555566],[-0.03999999999999997,0.4542592592592592],[-0.05947916666666669,0.43574074074074065],[-0.08197916666666671,0.40481481481481485],[-0.07229166666666664,0.3672222222222221],[-0.06739583333333338,0.3527777777777778],[-0.05447916666666662,0.3072222222222222],[-0.005312500000000024,0.2824074074074074],[0.021562500000000047,0.27444444444444455],[0.029791666666666692,0.27018518518518514],[0.058645833333333286,0.26444444444444437],[0.07937500000000004,0.23648148148148157],[0.10625,0.21907407407407398],[0.10625,0.21907407407407398],[0.11687500000000005,0.17388888888888884],[0.11687500000000005,0.17388888888888884],[0.12114583333333329,0.12777777777777777],[0.13864583333333325,0.06148148148148157],[0.15760416666666663,0.009999999999999959],[0.16364583333333324,-0.050370370370370454],[0.18354166666666671,-0.09092592592592597],[0.18624999999999994,-0.1609259259259259],[0.1953125,-0.15981481481481483],[0.20739583333333325,-0.13537037037037042],[0.22625000000000003,-0.18407407407407403],[0.23093750000000005,-0.19166666666666668],[0.2504166666666668,-0.227962962962963],[0.23489583333333333,-0.21500000000000005],[0.21395833333333342,-0.2190740740740741],[0.21239583333333342,-0.17851851851851847],[0.21239583333333342,-0.17851851851851847],[0.23083333333333325,-0.22814814814814813],[0.23083333333333325,-0.22814814814814813],[0.2349999999999999,-0.19018518518518515],[0.2349999999999999,-0.19018518518518515],[0.2515625,-0.23055555555555557],[0.2515625,-0.23055555555555557],[0.24083333333333337,-0.2596296296296296],[0.2530208333333334,-0.25555555555555554],[0.2530208333333334,-0.25555555555555554],[0.2759375000000001,-0.2692592592592592],[0.2759375000000001,-0.2692592592592592],[0.2775000000000001,-0.21666666666666667],[0.3077083333333334,-0.22777777777777777],[0.3084374999999999,-0.23018518518518521],[0.2994791666666667,-0.28055555555555556],[0.2671875,-0.2625925925925926],[0.2696875000000001,-0.2916666666666667],[0.26833333333333326,-0.27629629629629626],[0.2942708333333333,-0.2722222222222222],[0.2894791666666668,-0.2375925925925926],[0.2678124999999999,-0.24074074074074073],[0.28791666666666677,-0.26240740740740737],[0.3011458333333332,-0.2494444444444444],[0.30520833333333336,-0.22166666666666665],[0.29677083333333343,-0.17981481481481484],[0.32864583333333336,-0.15796296296296297],[0.3446875000000001,-0.1527777777777778],[0.27531249999999996,-0.19444444444444445],[0.20583333333333323,-0.2388888888888889],[0.1866666666666667,-0.2633333333333333],[0.19052083333333342,-0.24370370370370376],[0.1638541666666666,-0.23444444444444448],[0.12864583333333332,-0.21388888888888888],[0.13072916666666667,-0.18944444444444447],[0.13895833333333343,-0.18425925925925926],[0.11958333333333329,-0.2037037037037037],[0.10854166666666672,-0.20259259259259255],[0.171875,-0.19740740740740745],[0.23333333333333334,-0.18462962962962962],[0.24427083333333333,-0.19962962962962966],[0.25833333333333336,-0.19037037037037038],[0.2599999999999999,-0.2035185185185185],[0.27020833333333344,-0.22962962962962963],[0.29541666666666655,-0.19462962962962968],[0.3172916666666666,-0.15111111111111114],[0.30052083333333335,-0.1425925925925926],[0.2865624999999999,-0.14740740740740746],[0.26510416666666664,-0.15259259259259256],[0.2598958333333333,-0.15314814814814812],[0.228125,-0.15611111111111114],[0.19322916666666667,-0.18333333333333332],[0.1984375,-0.20777777777777776],[0.18937499999999996,-0.2270370370370371],[0.17635416666666662,-0.2948148148148148],[0.1727083333333333,-0.3587037037037037],[0.18677083333333327,-0.33555555555555555],[0.20145833333333343,-0.3138888888888889],[0.20791666666666658,-0.28592592592592586],[0.20791666666666658,-0.28592592592592586],[0.19239583333333338,-0.3001851851851852],[0.2283333333333334,-0.29000000000000004],[0.2539583333333333,-0.2833333333333333],[0.2335416666666667,-0.29685185185185187],[0.24812500000000004,-0.3148148148148148],[0.24718749999999995,-0.3303703703703703],[0.23687500000000009,-0.34981481481481475],[0.2459374999999999,-0.38740740740740737]]","[[0.20114583333333325,0.2774074074074073,0.00010000000148835397],[0.20114583333333325,0.2774074074074073,0.03789999999850835],[0.18895833333333342,0.27981481481481485,0.04349999999999454],[0.1662499999999999,0.2935185185185185,0.057799999997016016],[0.14343750000000005,0.2927777777777778,0.07739999999850511],[0.14343750000000005,0.2927777777777778,0.09129999999701965],[0.13354166666666673,0.2881481481481482,0.10779999999702028],[0.11635416666666672,0.24462962962962967,0.12479999999701619],[0.13479166666666675,0.252962962962963,0.14349999999999596],[0.15677083333333333,0.2007407407407407,0.15779999999701744],[0.17927083333333324,0.20851851851851855,0.17460000000149023],[0.20645833333333338,0.23925925925925934,0.19139999999850943],[0.23635416666666675,0.2264814814814814,0.20789999999851005],[0.28489583333333335,0.2007407407407407,0.22510000000148978],[0.3023958333333333,0.13851851851851843,0.24389999999851142],[0.3023958333333333,0.13851851851851843,0.25779999999701886],[0.3568749999999999,0.08574074074074066,0.2746999999955264],[0.3807291666666667,0.03351851851851856,0.2912999999970154],[0.3807291666666667,0.03351851851851856,0.30789999999850437],[0.3976041666666667,0.02907407407407416,0.324399999998505],[0.3976041666666667,0.02907407407407416,0.34110000000148943],[0.4122916666666666,0.012962962962962963,0.3577999999970203],[0.4180208333333333,0.03740740740740749,0.3801000000014909],[0.4180208333333333,0.03740740740740749,0.3911000000014866],[0.4013541666666666,-0.002777777777777778,0.40779999999701744],[0.4013541666666666,-0.002777777777777778,0.42449999999999477],[0.38468749999999996,-0.04296296296296305,0.44110000000149086],[0.38468749999999996,-0.04296296296296305,0.45789999999851005],[0.37447916666666664,-0.07981481481481485,0.47449999999999903],[0.35395833333333326,-0.11777777777777781,0.49619999999552533],[0.3580208333333334,-0.11851851851851852,0.5109999999999957],[0.3489583333333333,-0.1257407407407407,0.5257999999970195],[0.35177083333333337,-0.10851851851851856,0.541199999995527],[0.3489583333333333,-0.12037037037037036,0.557799999997016],[0.3494791666666667,-0.16648148148148145,0.5769999999999982],[0.3546875,-0.20462962962962963,0.593699999995529],[0.35,-0.1809259259259259,0.607999999999997],[0.3453125,-0.15722222222222218,0.6248999999985045],[0.3272916666666667,-0.09888888888888885,0.6415000000000006],[0.2977083333333333,-0.05259259259259255,0.6603999999985106],[0.26624999999999993,-0.0020370370370370794,0.6753999999985112],[0.23479166666666676,0.0485185185185186,0.6913999999985094],[0.22270833333333329,0.0911111111111112,0.7077999999970146],[0.21062500000000003,0.1337037037037038,0.7243999999985107],[0.17864583333333334,0.20870370370370378,0.7413999999985066],[0.13489583333333333,0.24611111111111106,0.7576999999955305],[0.11822916666666666,0.21851851851851853,0.7749999999999986],[0.1015625,0.19092592592592597,0.7909999999999968],[0.11104166666666657,0.18111111111111103,0.807799999997016],[0.12052083333333338,0.1712962962962963,0.824399999998505],[0.13833333333333328,0.15648148148148147,0.8411000000014894],[0.18114583333333342,0.15481481481481485,0.8576999999955248],[0.2009375000000001,0.11351851851851844,0.8751000000014884],[0.22072916666666675,0.07222222222222222,0.8912999999970168],[0.24552083333333338,0.036666666666666584,0.9076999999955291],[0.2853125000000001,0.044444444444444446,0.9242999999970181],[0.3241666666666667,0.05648148148148148,0.9414999999999978],[0.36781249999999993,0.07537037037037045,0.9577999999970146],[0.3849999999999999,0.07518518518518523,0.9789999999999992],[0.4021874999999999,0.075,0.9946000000014905],[0.40479166666666655,0.06888888888888897,1.0101999999955282],[0.39249999999999996,0.05907407407407403,1.0244999999999962],[0.41510416666666666,0.05925925925925926,1.041199999995527],[0.43770833333333337,0.05944444444444449,1.057799999997016],[0.43770833333333337,0.05944444444444449,1.0746999999955307],[0.4695833333333333,0.08314814814814811,1.0911000000014894],[0.4892708333333334,0.08074074074074078,1.1078999999985086],[0.5040625000000001,0.10537037037037032,1.1243999999985093],[0.5061458333333334,0.08574074074074066,1.1411000000014866],[0.5185416666666666,0.07537037037037045,1.157699999995529],[0.533125,0.09722222222222222,1.1749999999999972],[0.5672916666666665,0.11185185185185181,1.1911999999955256],[0.5767708333333333,0.1242592592592593,1.20789999999851],[0.5720833333333334,0.1418518518518519,1.224499999999999],[0.5493750000000001,0.16111111111111112,1.241100000001488],[0.5261458333333332,0.19499999999999992,1.2577999999970189],[0.5215625,0.2300000000000001,1.275899999998508],[0.5319791666666667,0.2492592592592593,1.2924999999999969],[0.5078125,0.33555555555555566,1.307799999997016],[0.4828125,0.3551851851851851,1.3242999999970166],[0.4448958333333332,0.3787037037037037,1.3411999999955242],[0.4019791666666668,0.4153703703703703,1.3576999999955248],[0.38739583333333344,0.4703703703703704,1.3752999999970186],[0.3580208333333334,0.5425925925925926,1.3909999999999982],[0.33791666666666675,0.6038888888888889,1.4078999999985058],[0.3150000000000001,0.609074074074074,1.4243999999985064],[0.2873958333333334,0.6307407407407408,1.4411999999955256],[0.24145833333333327,0.6544444444444444,1.4576999999955262],[0.2118750000000001,0.6248148148148148,1.4746999999955293],[0.18312499999999995,0.6618518518518518,1.491499999999995],[0.1568749999999999,0.6801851851851851,1.5102999999970166],[0.1306250000000001,0.6985185185185186,1.5243999999985078],[0.09229166666666658,0.7242592592592593,1.541199999995527],[0.057500000000000044,0.744074074074074,1.5576999999955277],[0.041770833333333354,0.7177777777777778,1.5748999999985074],[0.026041666666666668,0.6914814814814815,1.591000000000001],[-0.011770833333333286,0.644814814814815,1.6077999999970203],[-0.057500000000000044,0.5698148148148149,1.6243999999985093],[-0.06916666666666664,0.5468518518518518,1.6409999999999982],[-0.07364583333333338,0.532037037037037,1.6577999999970174],[-0.08031250000000002,0.5157407407407407,1.6774999999999949],[-0.08333333333333333,0.46648148148148144,1.6931000000014862],[-0.08510416666666672,0.377962962962963,1.7076999999955262],[-0.08687499999999998,0.28944444444444434,1.7243999999985107],[-0.10572916666666667,0.23499999999999996,1.7411999999955299],[-0.12458333333333335,0.18055555555555555,1.7576999999955305],[-0.11677083333333335,0.17481481481481478,1.7759999999999962],[-0.10104166666666667,0.19740740740740745,1.7911000000014852],[-0.11322916666666671,0.16666666666666666,1.8091000000014859],[-0.1326041666666666,0.12777777777777777,1.824399999998505],[-0.1430208333333333,0.11314814814814819,1.8434999999999988],[-0.13875000000000004,0.10685185185185193,1.8576999999955248],[-0.14750000000000002,0.13333333333333333,1.8746999999955278],[-0.15625,0.15981481481481474,1.8911000000014866],[-0.1686458333333333,0.18222222222222217,1.9101999999955268],[-0.18104166666666663,0.20462962962962963,1.924699999995525],[-0.1983333333333333,0.20796296296296288,1.9414999999999978],[-0.21625000000000003,0.2064814814814815,1.9577999999970146],[-0.19114583333333332,0.23148148148148148,1.9804999999999993],[-0.19114583333333332,0.23148148148148148,1.991100000001488],[-0.14979166666666663,0.26666666666666666,2.007799999997019],[-0.1280208333333333,0.22888888888888892,2.0246000000014917],[-0.10354166666666664,0.2485185185185186,2.041100000001485],[-0.06395833333333331,0.22037037037037038,2.0578999999985044],[-0.03229166666666667,0.19129629629629621,2.075899999998505],[0.0018749999999999527,0.16111111111111112,2.094999999999999],[0.03770833333333338,0.16666666666666666,2.1092999999970203],[0.07322916666666662,0.1668518518518519,2.124600000001486],[0.12572916666666673,0.19277777777777783,2.141399999998505],[0.15520833333333334,0.21722222222222215,2.160699999995529],[0.15010416666666657,0.23648148148148157,2.1777999999970206],[0.165625,0.27870370370370373,2.1941999999955257],[0.1453125,0.28111111111111103,2.2128999999985055],[0.12781250000000005,0.3109259259259259,2.2298999999985085],[0.12781250000000005,0.3109259259259259,2.2476000000014906],[0.13479166666666675,0.3522222222222223,2.264199999995526],[0.13479166666666675,0.3522222222222223,2.2746999999955264],[0.1259375000000001,0.4448148148148149,2.291199999995527],[0.12020833333333343,0.47851851851851845,2.308100000001488],[0.10843749999999991,0.505925925925926,2.3271000000014865],[0.05697916666666671,0.5005555555555554,2.3446999999955267],[0.00614583333333331,0.4911111111111112,2.3608999999985087],[-0.006979166666666714,0.4727777777777777,2.3811999999955304],[-0.006979166666666714,0.4727777777777777,2.3911999999955285],[-0.03343750000000002,0.46055555555555566,2.4080000000000013],[-0.03999999999999997,0.4542592592592592,2.4244999999999948],[-0.05947916666666669,0.43574074074074065,2.4443999999985095],[-0.08197916666666671,0.40481481481481485,2.4579999999999984],[-0.07229166666666664,0.3672222222222221,2.4746999999955293],[-0.06739583333333338,0.3527777777777778,2.494100000001488],[-0.05447916666666662,0.3072222222222222,2.5101999999955282],[-0.005312500000000024,0.2824074074074074,2.525199999995529],[0.021562500000000047,0.27444444444444455,2.541499999999999],[0.029791666666666692,0.27018518518518514,2.560299999997021],[0.058645833333333286,0.26444444444444437,2.5752999999970143],[0.07937500000000004,0.23648148148148157,2.5926999999955243],[0.10625,0.21907407407407398,2.6111999999955273],[0.10625,0.21907407407407398,2.624799999997016],[0.11687500000000005,0.17388888888888884,2.6415000000000006],[0.11687500000000005,0.17388888888888884,2.6577999999970174],[0.12114583333333329,0.12777777777777777,2.6783999999985113],[0.13864583333333325,0.06148148148148157,2.6935000000000002],[0.15760416666666663,0.009999999999999959,2.7081000000014868],[0.16364583333333324,-0.050370370370370454,2.7246999999955293],[0.18354166666666671,-0.09092592592592597,2.7443999999985067],[0.18624999999999994,-0.1609259259259259,2.7576999999955305],[0.1953125,-0.15981481481481483,2.7749999999999986],[0.20739583333333325,-0.13537037037037042,2.7938999999985086],[0.22625000000000003,-0.18407407407407403,2.807799999997016],[0.23093750000000005,-0.19166666666666668,2.824399999998505],[0.2504166666666668,-0.227962962962963,2.84579999999702],[0.23489583333333333,-0.21500000000000005,2.8618999999985064],[0.21395833333333342,-0.2190740740740741,2.877699999995528],[0.21239583333333342,-0.17851851851851847,2.896000000000001],[0.21239583333333342,-0.17851851851851847,2.9077999999970174],[0.23083333333333325,-0.22814814814814813,2.9281999999955275],[0.23083333333333325,-0.22814814814814813,2.9413999999985094],[0.2349999999999999,-0.19018518518518515,2.95789999999851],[0.2349999999999999,-0.19018518518518515,2.9746000000014874],[0.2515625,-0.23055555555555557,2.991100000001488],[0.2515625,-0.23055555555555557,3.007799999997019],[0.24083333333333337,-0.2596296296296296,3.024399999998508],[0.2530208333333334,-0.25555555555555554,3.0463999999985063],[0.2530208333333334,-0.25555555555555554,3.0576999999955277],[0.2759375000000001,-0.2692592592592592,3.074600000001489],[0.2759375000000001,-0.2692592592592592,3.0911000000014894],[0.2775000000000001,-0.21666666666666667,3.1078999999985086],[0.3077083333333334,-0.22777777777777777,3.1243999999985093],[0.3084374999999999,-0.23018518518518521,3.141299999997017],[0.2994791666666667,-0.28055555555555556,3.1577999999970174],[0.2671875,-0.2625925925925926,3.174899999998509],[0.2696875000000001,-0.2916666666666667,3.191100000001491],[0.26833333333333326,-0.27629629629629626,3.2077999999970146],[0.2942708333333333,-0.2722222222222222,3.2243999999985107],[0.2894791666666668,-0.2375925925925926,3.2434999999999974],[0.2678124999999999,-0.24074074074074073,3.257799999997019],[0.28791666666666677,-0.26240740740740737,3.274399999998508],[0.3011458333333332,-0.2494444444444444,3.291199999995527],[0.30520833333333336,-0.22166666666666665,3.3076999999955277],[0.29677083333333343,-0.17981481481481484,3.3245000000000005],[0.32864583333333336,-0.15796296296296297,3.341199999995524],[0.3446875000000001,-0.1527777777777778,3.357699999995525],[0.27531249999999996,-0.19444444444444445,3.374799999997016],[0.20583333333333323,-0.2388888888888889,3.3909999999999982],[0.1866666666666667,-0.2633333333333333,3.407699999995529],[0.19052083333333342,-0.24370370370370376,3.424299999997018],[0.1638541666666666,-0.23444444444444448,3.441100000001491],[0.12864583333333332,-0.21388888888888888,3.4576999999955262],[0.13072916666666667,-0.18944444444444447,3.4753999999985083],[0.13895833333333343,-0.18425925925925926,3.4912999999970182],[0.11958333333333329,-0.2037037037037037,3.507799999997019],[0.10854166666666672,-0.20259259259259255,3.524399999998508],[0.171875,-0.19740740740740745,3.541100000001485],[0.23333333333333334,-0.18462962962962962,3.5576999999955277],[0.24427083333333333,-0.19962962962962966,3.5745000000000005],[0.25833333333333336,-0.19037037037037038,3.5916000000014847],[0.2599999999999999,-0.2035185185185185,3.607699999995525],[0.27020833333333344,-0.22962962962962963,3.6243999999985093],[0.29541666666666655,-0.19462962962962968,3.641299999997017],[0.3172916666666666,-0.15111111111111114,3.660100000001485],[0.30052083333333335,-0.1425925925925926,3.674999999999997],[0.2865624999999999,-0.14740740740740746,3.691299999997021],[0.26510416666666664,-0.15259259259259256,3.7076999999955262],[0.2598958333333333,-0.15314814814814812,3.724299999997015],[0.228125,-0.15611111111111114,3.741100000001488],[0.19322916666666667,-0.18333333333333332,3.7576999999955305],[0.1984375,-0.20777777777777776,3.7747999999970148],[0.18937499999999996,-0.2270370370370371,3.790999999999997],[0.17635416666666662,-0.2948148148148148,3.8078999999985044],[0.1727083333333333,-0.3587037037037037,3.824399999998505],[0.18677083333333327,-0.33555555555555555,3.841199999995524],[0.20145833333333343,-0.3138888888888889,3.857699999995525],[0.20791666666666658,-0.28592592592592586,3.8752999999970186],[0.20791666666666658,-0.28592592592592586,3.8909999999999982],[0.19239583333333338,-0.3001851851851852,3.9077999999970174],[0.2283333333333334,-0.29000000000000004,3.9246000000014902],[0.2539583333333333,-0.2833333333333333,3.941299999997021],[0.2335416666666667,-0.29685185185185187,3.9576999999955262],[0.24812500000000004,-0.3148148148148148,3.97979999999702],[0.24718749999999995,-0.3303703703703703,3.9949999999999974],[0.23687500000000009,-0.34981481481481475,4.008199999995526],[0.2459374999999999,-0.38740740740740737,4.024499999999996]]","[0.00010000000148835397,0.03789999999850835,0.04349999999999454,0.057799999997016016,0.07739999999850511,0.09129999999701965,0.10779999999702028,0.12479999999701619,0.14349999999999596,0.15779999999701744,0.17460000000149023,0.19139999999850943,0.20789999999851005,0.22510000000148978,0.24389999999851142,0.25779999999701886,0.2746999999955264,0.2912999999970154,0.30789999999850437,0.324399999998505,0.34110000000148943,0.3577999999970203,0.3801000000014909,0.3911000000014866,0.40779999999701744,0.42449999999999477,0.44110000000149086,0.45789999999851005,0.47449999999999903,0.49619999999552533,0.5109999999999957,0.5257999999970195,0.541199999995527,0.557799999997016,0.5769999999999982,0.593699999995529,0.607999999999997,0.6248999999985045,0.6415000000000006,0.6603999999985106,0.6753999999985112,0.6913999999985094,0.7077999999970146,0.7243999999985107,0.7413999999985066,0.7576999999955305,0.7749999999999986,0.7909999999999968,0.807799999997016,0.824399999998505,0.8411000000014894,0.8576999999955248,0.8751000000014884,0.8912999999970168,0.9076999999955291,0.9242999999970181,0.9414999999999978,0.9577999999970146,0.9789999999999992,0.9946000000014905,1.0101999999955282,1.0244999999999962,1.041199999995527,1.057799999997016,1.0746999999955307,1.0911000000014894,1.1078999999985086,1.1243999999985093,1.1411000000014866,1.157699999995529,1.1749999999999972,1.1911999999955256,1.20789999999851,1.224499999999999,1.241100000001488,1.2577999999970189,1.275899999998508,1.2924999999999969,1.307799999997016,1.3242999999970166,1.3411999999955242,1.3576999999955248,1.3752999999970186,1.3909999999999982,1.4078999999985058,1.4243999999985064,1.4411999999955256,1.4576999999955262,1.4746999999955293,1.491499999999995,1.5102999999970166,1.5243999999985078,1.541199999995527,1.5576999999955277,1.5748999999985074,1.591000000000001,1.6077999999970203,1.6243999999985093,1.6409999999999982,1.6577999999970174,1.6774999999999949,1.6931000000014862,1.7076999999955262,1.7243999999985107,1.7411999999955299,1.7576999999955305,1.7759999999999962,1.7911000000014852,1.8091000000014859,1.824399999998505,1.8434999999999988,1.8576999999955248,1.8746999999955278,1.8911000000014866,1.9101999999955268,1.924699999995525,1.9414999999999978,1.9577999999970146,1.9804999999999993,1.991100000001488,2.007799999997019,2.0246000000014917,2.041100000001485,2.0578999999985044,2.075899999998505,2.094999999999999,2.1092999999970203,2.124600000001486,2.141399999998505,2.160699999995529,2.1777999999970206,2.1941999999955257,2.2128999999985055,2.2298999999985085,2.2476000000014906,2.264199999995526,2.2746999999955264,2.291199999995527,2.308100000001488,2.3271000000014865,2.3446999999955267,2.3608999999985087,2.3811999999955304,2.3911999999955285,2.4080000000000013,2.4244999999999948,2.4443999999985095,2.4579999999999984,2.4746999999955293,2.494100000001488,2.5101999999955282,2.525199999995529,2.541499999999999,2.560299999997021,2.5752999999970143,2.5926999999955243,2.6111999999955273,2.624799999997016,2.6415000000000006,2.6577999999970174,2.6783999999985113,2.6935000000000002,2.7081000000014868,2.7246999999955293,2.7443999999985067,2.7576999999955305,2.7749999999999986,2.7938999999985086,2.807799999997016,2.824399999998505,2.84579999999702,2.8618999999985064,2.877699999995528,2.896000000000001,2.9077999999970174,2.9281999999955275,2.9413999999985094,2.95789999999851,2.9746000000014874,2.991100000001488,3.007799999997019,3.024399999998508,3.0463999999985063,3.0576999999955277,3.074600000001489,3.0911000000014894,3.1078999999985086,3.1243999999985093,3.141299999997017,3.1577999999970174,3.174899999998509,3.191100000001491,3.2077999999970146,3.2243999999985107,3.2434999999999974,3.257799999997019,3.274399999998508,3.291199999995527,3.3076999999955277,3.3245000000000005,3.341199999995524,3.357699999995525,3.374799999997016,3.3909999999999982,3.407699999995529,3.424299999997018,3.441100000001491,3.4576999999955262,3.4753999999985083,3.4912999999970182,3.507799999997019,3.524399999998508,3.541100000001485,3.5576999999955277,3.5745000000000005,3.5916000000014847,3.607699999995525,3.6243999999985093,3.641299999997017,3.660100000001485,3.674999999999997,3.691299999997021,3.7076999999955262,3.724299999997015,3.741100000001488,3.7576999999955305,3.7747999999970148,3.790999999999997,3.8078999999985044,3.824399999998505,3.841199999995524,3.857699999995525,3.8752999999970186,3.8909999999999982,3.9077999999970174,3.9246000000014902,3.941299999997021,3.9576999999955262,3.97979999999702,3.9949999999999974,4.008199999995526,4.024499999999996]","[1733281621724,1733281621754,1733281621760,1733281621774,1733281621794,1733281621808,1733281621824,1733281621841,1733281621860,1733281621874,1733281621891,1733281621908,1733281621924,1733281621942,1733281621960,1733281621974,1733281621991,1733281622008,1733281622024,1733281622041,1733281622058,1733281622074,1733281622097,1733281622108,1733281622124,1733281622141,1733281622158,1733281622174,1733281622191,1733281622213,1733281622228,1733281622242,1733281622258,1733281622274,1733281622294,1733281622310,1733281622325,1733281622341,1733281622358,1733281622377,1733281622392,1733281622408,1733281622424,1733281622441,1733281622458,1733281622474,1733281622492,1733281622508,1733281622524,1733281622541,1733281622558,1733281622574,1733281622592,1733281622608,1733281622624,1733281622641,1733281622658,1733281622674,1733281622696,1733281622711,1733281622727,1733281622741,1733281622758,1733281622774,1733281622791,1733281622808,1733281622824,1733281622841,1733281622858,1733281622874,1733281622892,1733281622908,1733281622924,1733281622941,1733281622958,1733281622974,1733281622992,1733281623009,1733281623024,1733281623041,1733281623058,1733281623074,1733281623092,1733281623108,1733281623124,1733281623141,1733281623158,1733281623174,1733281623191,1733281623208,1733281623227,1733281623241,1733281623258,1733281623274,1733281623291,1733281623308,1733281623324,1733281623341,1733281623358,1733281623374,1733281623394,1733281623410,1733281623424,1733281623441,1733281623458,1733281623474,1733281623493,1733281623508,1733281623526,1733281623541,1733281623560,1733281623574,1733281623591,1733281623608,1733281623627,1733281623641,1733281623658,1733281623674,1733281623697,1733281623708,1733281623724,1733281623741,1733281623758,1733281623774,1733281623793,1733281623811,1733281623826,1733281623841,1733281623858,1733281623877,1733281623894,1733281623911,1733281623929,1733281623946,1733281623964,1733281623981,1733281623991,1733281624008,1733281624025,1733281624044,1733281624061,1733281624077,1733281624098,1733281624108,1733281624125,1733281624141,1733281624161,1733281624174,1733281624191,1733281624211,1733281624227,1733281624242,1733281624258,1733281624277,1733281624292,1733281624309,1733281624328,1733281624341,1733281624358,1733281624374,1733281624395,1733281624410,1733281624425,1733281624441,1733281624461,1733281624474,1733281624492,1733281624510,1733281624524,1733281624541,1733281624562,1733281624578,1733281624594,1733281624613,1733281624624,1733281624645,1733281624658,1733281624675,1733281624691,1733281624708,1733281624724,1733281624741,1733281624763,1733281624774,1733281624791,1733281624808,1733281624824,1733281624841,1733281624858,1733281624874,1733281624891,1733281624908,1733281624924,1733281624941,1733281624960,1733281624974,1733281624991,1733281625008,1733281625024,1733281625041,1733281625058,1733281625074,1733281625091,1733281625108,1733281625124,1733281625141,1733281625158,1733281625174,1733281625192,1733281625208,1733281625224,1733281625241,1733281625258,1733281625274,1733281625291,1733281625308,1733281625324,1733281625341,1733281625358,1733281625377,1733281625392,1733281625408,1733281625424,1733281625441,1733281625458,1733281625474,1733281625491,1733281625508,1733281625524,1733281625541,1733281625558,1733281625574,1733281625592,1733281625608,1733281625624,1733281625641,1733281625658,1733281625674,1733281625696,1733281625712,1733281625725,1733281625741]","[[1153.1,689.8],[1153.1,689.8],[1141.4,691.1],[1119.6,698.5],[1097.7,698.1],[1097.7,698.1],[1088.2,695.6],[1071.7,672.1],[1089.4,676.6],[1110.5,648.4],[1132.1,652.6],[1158.2,669.2],[1186.9,662.3],[1233.5,648.4],[1250.3,614.8],[1250.3,614.8],[1302.6,586.3],[1325.5,558.1],[1325.5,558.1],[1341.7,555.7],[1341.7,555.7],[1355.8,547],[1361.3,560.2],[1361.3,560.2],[1345.3,538.5],[1345.3,538.5],[1329.3,516.8],[1329.3,516.8],[1319.5,496.9],[1299.8,476.4],[1303.7,476],[1295,472.1],[1297.7,481.4],[1295,475],[1295.5,450.1],[1300.5,429.5],[1296,442.3],[1291.5,455.1],[1274.2,486.6],[1245.8,511.6],[1215.6,538.9],[1185.4,566.2],[1173.8,589.2],[1162.2,612.2],[1131.5,652.7],[1089.5,672.9],[1073.5,658],[1057.5,643.1],[1066.6,637.8],[1075.7,632.5],[1092.8,624.5],[1133.9,623.6],[1152.9,601.3],[1171.9,579],[1195.7,559.8],[1233.9,564],[1271.2,570.5],[1313.1,580.7],[1329.6,580.6],[1346.1,580.5],[1348.6,577.2],[1336.8,571.9],[1358.5,572],[1380.2,572.1],[1380.2,572.1],[1410.8,584.9],[1429.7,583.6],[1443.9,596.9],[1445.9,586.3],[1457.8,580.7],[1471.8,592.5],[1504.6,600.4],[1513.7,607.1],[1509.2,616.6],[1487.4,627],[1465.1,645.3],[1460.7,664.2],[1470.7,674.6],[1447.5,721.2],[1423.5,731.8],[1387.1,744.5],[1345.9,764.3],[1331.9,794],[1303.7,833],[1284.4,866.1],[1262.4,868.9],[1235.9,880.6],[1191.8,893.4],[1163.4,877.4],[1135.8,897.4],[1110.6,907.3],[1085.4,917.2],[1048.6,931.1],[1015.2,941.8],[1000.1,927.6],[985,913.4],[948.7,888.2],[904.8,847.7],[893.6,835.3],[889.3,827.3],[882.9,818.5],[880,791.9],[878.3,744.1],[876.6,696.3],[858.5,666.9],[840.4,637.5],[847.9,634.4],[863,646.6],[851.3,630],[832.7,609],[822.7,601.1],[826.8,597.7],[818.4,612],[810,626.3],[798.1,638.4],[786.2,650.5],[769.6,652.3],[752.4,651.5],[776.5,665],[776.5,665],[816.2,684],[837.1,663.6],[860.6,674.2],[898.6,659],[929,643.3],[961.8,627],[996.2,630],[1030.3,630.1],[1080.7,644.1],[1109,657.3],[1104.1,667.7],[1119,690.5],[1099.5,691.8],[1082.7,707.9],[1082.7,707.9],[1089.4,730.2],[1089.4,730.2],[1080.9,780.2],[1075.4,798.4],[1064.1,813.2],[1014.7,810.3],[965.9,805.2],[953.3,795.3],[953.3,795.3],[927.9,788.7],[921.6,785.3],[902.9,775.3],[881.3,758.6],[890.6,738.3],[895.3,730.5],[907.7,705.9],[954.9,692.5],[980.7,688.2],[988.6,685.9],[1016.3,682.8],[1036.2,667.7],[1062,658.3],[1062,658.3],[1072.2,633.9],[1072.2,633.9],[1076.3,609],[1093.1,573.2],[1111.3,545.4],[1117.1,512.8],[1136.2,490.9],[1138.8,453.1],[1147.5,453.7],[1159.1,466.9],[1177.2,440.6],[1181.7,436.5],[1200.4,416.9],[1185.5,423.9],[1165.4,421.7],[1163.9,443.6],[1163.9,443.6],[1181.6,416.8],[1181.6,416.8],[1185.6,437.3],[1185.6,437.3],[1201.5,415.5],[1201.5,415.5],[1191.2,399.8],[1202.9,402],[1202.9,402],[1224.9,394.6],[1224.9,394.6],[1226.4,423],[1255.4,417],[1256.1,415.7],[1247.5,388.5],[1216.5,398.2],[1218.9,382.5],[1217.6,390.8],[1242.5,393],[1237.9,411.7],[1217.1,410],[1236.4,398.3],[1249.1,405.3],[1253,420.3],[1244.9,442.9],[1275.5,454.7],[1290.9,457.5],[1224.3,435],[1157.6,411],[1139.2,397.8],[1142.9,408.4],[1117.3,413.4],[1083.5,424.5],[1085.5,437.7],[1093.4,440.5],[1074.8,430],[1064.2,430.6],[1125,433.4],[1184,440.3],[1194.5,432.2],[1208,437.2],[1209.6,430.1],[1219.4,416],[1243.6,434.9],[1264.6,458.4],[1248.5,463],[1235.1,460.4],[1214.5,457.6],[1209.5,457.3],[1179,455.7],[1145.5,441],[1150.5,427.8],[1141.8,417.4],[1129.3,380.8],[1125.8,346.3],[1139.3,358.8],[1153.4,370.5],[1159.6,385.6],[1159.6,385.6],[1144.7,377.9],[1179.2,383.4],[1203.8,387],[1184.2,379.7],[1198.2,370],[1197.3,361.6],[1187.4,351.1],[1196.1,330.8]]","[0,0.37864299999999995]","[0.37864299999999995,0.37864299999999995]","[-0.37864299999999995,-0.37864299999999995]","[-0.37864299999999995,0]","[0,-0.37864299999999995]","[0.37864299999999995,-0.37864299999999995]","[0,0]","[0.37864299999999995,0]",0,0,0,0,1,3,Laptop,11,9,9,1
,,,,,,,,,,,,,,,,,,,,20,001,2024-12-04_11h06.17.060,Attention_exp_legacy,2023.1.0,Win32,59.88023952,,,,,,,,,,[0.07083333333333333],[0.362962962962963],[1],[0],[0],[3.835199999995531],"[""Option1_label""]",Option1_label,2,4.8478,"[[0.07083333333333333,0.36666666666666664],[0.07083333333333333,0.36666666666666664],[0.07083333333333333,0.36666666666666664],[0.07083333333333333,0.36666666666666664],[0.07083333333333333,0.36666666666666664],[0.07083333333333333,0.36666666666666664],[0.07083333333333333,0.36666666666666664],[0.07083333333333333,0.3648148148148148],[0.07083333333333333,0.3648148148148148],[0.07083333333333333,0.3648148148148148],[0.07083333333333333,0.3648148148148148],[0.07083333333333333,0.3648148148148148],[0.07083333333333333,0.3648148148148148],[0.07083333333333333,0.3648148148148148],[0.07083333333333333,0.3648148148148148],[0.07083333333333333,0.3648148148148148],[0.07083333333333333,0.3648148148148148],[0.07083333333333333,0.3648148148148148],[0.07083333333333333,0.3648148148148148],[0.07083333333333333,0.3648148148148148],[0.07083333333333333,0.3648148148148148],[0.07083333333333333,0.3648148148148148],[0.07083333333333333,0.3648148148148148],[0.07083333333333333,0.3648148148148148],[0.07083333333333333,0.3648148148148148],[0.07083333333333333,0.3648148148148148],[0.07083333333333333,0.3648148148148148],[0.07083333333333333,0.3648148148148148],[0.07083333333333333,0.3648148148148148],[0.07083333333333333,0.3648148148148148],[0.07083333333333333,0.3648148148148148],[0.07083333333333333,0.3648148148148148],[0.07083333333333333,0.3648148148148148],[0.07083333333333333,0.3648148148148148],[0.07083333333333333,0.3648148148148148],[0.07083333333333333,0.3648148148148148],[0.07083333333333333,0.3648148148148148],[0.07083333333333333,0.3648148148148148],[0.07083333333333333,0.3648148148148148],[0.07083333333333333,0.3648148148148148],[0.07083333333333333,0.3648148148148148],[0.07083333333333333,0.3648148148148148],[0.07083333333333333,0.362962962962963],[0.07083333333333333,0.362962962962963],[0.07083333333333333,0.362962962962963],[0.07083333333333333,0.362962962962963],[0.07083333333333333,0.362962962962963],[0.07083333333333333,0.362962962962963],[0.07083333333333333,0.362962962962963],[0.07083333333333333,0.362962962962963],[0.07083333333333333,0.362962962962963],[0.07083333333333333,0.362962962962963],[0.07083333333333333,0.362962962962963],[0.07083333333333333,0.362962962962963],[0.07083333333333333,0.362962962962963],[0.07083333333333333,0.362962962962963],[0.07083333333333333,0.362962962962963],[0.07083333333333333,0.362962962962963],[0.07083333333333333,0.362962962962963],[0.07083333333333333,0.362962962962963],[0.07083333333333333,0.362962962962963],[0.07083333333333333,0.362962962962963],[0.07083333333333333,0.362962962962963],[0.07083333333333333,0.362962962962963],[0.07083333333333333,0.362962962962963],[0.07083333333333333,0.362962962962963],[0.07083333333333333,0.362962962962963],[0.07083333333333333,0.362962962962963],[0.07083333333333333,0.362962962962963],[0.07083333333333333,0.362962962962963],[0.07083333333333333,0.362962962962963],[0.07083333333333333,0.362962962962963],[0.07083333333333333,0.362962962962963],[0.07083333333333333,0.362962962962963],[0.07083333333333333,0.362962962962963],[0.07083333333333333,0.362962962962963],[0.07083333333333333,0.362962962962963],[0.07083333333333333,0.362962962962963],[0.07083333333333333,0.362962962962963],[0.07083333333333333,0.362962962962963],[0.07083333333333333,0.362962962962963],[0.07083333333333333,0.362962962962963],[0.07083333333333333,0.362962962962963],[0.07083333333333333,0.362962962962963],[0.07083333333333333,0.362962962962963],[0.07083333333333333,0.362962962962963],[0.07083333333333333,0.362962962962963],[0.07083333333333333,0.362962962962963],[0.07083333333333333,0.362962962962963],[0.07083333333333333,0.362962962962963],[0.07083333333333333,0.362962962962963],[0.07083333333333333,0.362962962962963],[0.07083333333333333,0.362962962962963],[0.07083333333333333,0.362962962962963],[0.07083333333333333,0.362962962962963],[0.07083333333333333,0.362962962962963],[0.07083333333333333,0.362962962962963],[0.07083333333333333,0.362962962962963],[0.07083333333333333,0.362962962962963],[0.07083333333333333,0.362962962962963],[0.07083333333333333,0.362962962962963],[0.07083333333333333,0.362962962962963],[0.07083333333333333,0.362962962962963],[0.07083333333333333,0.362962962962963],[0.07083333333333333,0.362962962962963],[0.07083333333333333,0.362962962962963],[0.07083333333333333,0.362962962962963],[0.07083333333333333,0.362962962962963],[0.07083333333333333,0.362962962962963],[0.07083333333333333,0.362962962962963],[0.07083333333333333,0.362962962962963],[0.07083333333333333,0.362962962962963],[0.07083333333333333,0.362962962962963],[0.07083333333333333,0.362962962962963],[0.07083333333333333,0.362962962962963],[0.07083333333333333,0.362962962962963],[0.07083333333333333,0.362962962962963],[0.07083333333333333,0.362962962962963],[0.07083333333333333,0.362962962962963],[0.07083333333333333,0.362962962962963],[0.07083333333333333,0.362962962962963],[0.07083333333333333,0.362962962962963],[0.07083333333333333,0.362962962962963],[0.07083333333333333,0.362962962962963],[0.07083333333333333,0.362962962962963],[0.07083333333333333,0.362962962962963],[0.07083333333333333,0.362962962962963],[0.07083333333333333,0.362962962962963],[0.07083333333333333,0.362962962962963],[0.07083333333333333,0.362962962962963],[0.07083333333333333,0.362962962962963],[0.07083333333333333,0.362962962962963],[0.07083333333333333,0.362962962962963],[0.07083333333333333,0.362962962962963],[0.07083333333333333,0.362962962962963],[0.07083333333333333,0.362962962962963],[0.07083333333333333,0.362962962962963],[0.07083333333333333,0.362962962962963],[0.07083333333333333,0.362962962962963],[0.07083333333333333,0.362962962962963],[0.07083333333333333,0.362962962962963],[0.07083333333333333,0.362962962962963],[0.07083333333333333,0.362962962962963],[0.07083333333333333,0.362962962962963],[0.07083333333333333,0.362962962962963],[0.07083333333333333,0.362962962962963],[0.07083333333333333,0.362962962962963],[0.07083333333333333,0.362962962962963],[0.07083333333333333,0.362962962962963],[0.07083333333333333,0.362962962962963],[0.07083333333333333,0.362962962962963],[0.07083333333333333,0.362962962962963],[0.07083333333333333,0.362962962962963],[0.07083333333333333,0.362962962962963],[0.07083333333333333,0.362962962962963],[0.07083333333333333,0.362962962962963],[0.07083333333333333,0.362962962962963],[0.07083333333333333,0.362962962962963],[0.07083333333333333,0.362962962962963],[0.07083333333333333,0.362962962962963],[0.07083333333333333,0.362962962962963],[0.07083333333333333,0.362962962962963],[0.07083333333333333,0.362962962962963],[0.07083333333333333,0.362962962962963],[0.07083333333333333,0.362962962962963],[0.07083333333333333,0.362962962962963],[0.07083333333333333,0.362962962962963],[0.07083333333333333,0.362962962962963],[0.07083333333333333,0.362962962962963],[0.07083333333333333,0.362962962962963],[0.07083333333333333,0.362962962962963],[0.07083333333333333,0.362962962962963],[0.07083333333333333,0.362962962962963],[0.07083333333333333,0.362962962962963],[0.07083333333333333,0.362962962962963],[0.07083333333333333,0.362962962962963],[0.07083333333333333,0.362962962962963],[0.07083333333333333,0.362962962962963],[0.07083333333333333,0.362962962962963],[0.07083333333333333,0.362962962962963],[0.07083333333333333,0.362962962962963],[0.07083333333333333,0.362962962962963],[0.07083333333333333,0.362962962962963],[0.07083333333333333,0.362962962962963],[0.07083333333333333,0.362962962962963],[0.07083333333333333,0.362962962962963],[0.07083333333333333,0.362962962962963],[0.07083333333333333,0.362962962962963],[0.07083333333333333,0.362962962962963],[0.07083333333333333,0.362962962962963],[0.07083333333333333,0.362962962962963],[0.07083333333333333,0.362962962962963],[0.07083333333333333,0.362962962962963],[0.07083333333333333,0.362962962962963],[0.07083333333333333,0.362962962962963],[0.07083333333333333,0.362962962962963],[0.07083333333333333,0.362962962962963],[0.07083333333333333,0.362962962962963],[0.07083333333333333,0.362962962962963],[0.07083333333333333,0.362962962962963],[0.07083333333333333,0.362962962962963],[0.07083333333333333,0.362962962962963],[0.07083333333333333,0.362962962962963],[0.07083333333333333,0.362962962962963],[0.07083333333333333,0.362962962962963],[0.07083333333333333,0.362962962962963],[0.07083333333333333,0.362962962962963],[0.07083333333333333,0.362962962962963],[0.07083333333333333,0.362962962962963],[0.07083333333333333,0.362962962962963],[0.07083333333333333,0.362962962962963],[0.07083333333333333,0.362962962962963],[0.07083333333333333,0.362962962962963],[0.07083333333333333,0.362962962962963],[0.07083333333333333,0.362962962962963],[0.07083333333333333,0.362962962962963],[0.07083333333333333,0.362962962962963],[0.07083333333333333,0.362962962962963],[0.07083333333333333,0.362962962962963],[0.07083333333333333,0.362962962962963],[0.07083333333333333,0.362962962962963],[0.07083333333333333,0.362962962962963],[0.07083333333333333,0.362962962962963],[0.07083333333333333,0.362962962962963],[0.07083333333333333,0.362962962962963],[0.07083333333333333,0.362962962962963],[0.07083333333333333,0.362962962962963],[0.07083333333333333,0.362962962962963],[0.07083333333333333,0.362962962962963],[0.07083333333333333,0.362962962962963],[0.07083333333333333,0.362962962962963],[0.07083333333333333,0.362962962962963],[0.07083333333333333,0.362962962962963],[0.07083333333333333,0.362962962962963],[0.07083333333333333,0.362962962962963],[0.07083333333333333,0.362962962962963],[0.07083333333333333,0.362962962962963],[0.07083333333333333,0.362962962962963],[0.07083333333333333,0.362962962962963],[0.07083333333333333,0.362962962962963],[0.07083333333333333,0.362962962962963],[0.07083333333333333,0.362962962962963],[0.07083333333333333,0.362962962962963],[0.07083333333333333,0.362962962962963],[0.07083333333333333,0.362962962962963],[0.07083333333333333,0.362962962962963],[0.07083333333333333,0.362962962962963],[0.07083333333333333,0.362962962962963],[0.07083333333333333,0.362962962962963],[0.07083333333333333,0.362962962962963],[0.07083333333333333,0.362962962962963],[0.07083333333333333,0.362962962962963],[0.07083333333333333,0.362962962962963],[0.07083333333333333,0.362962962962963],[0.07083333333333333,0.362962962962963],[0.07083333333333333,0.362962962962963],[0.07083333333333333,0.362962962962963],[0.07083333333333333,0.362962962962963],[0.07083333333333333,0.362962962962963],[0.07083333333333333,0.362962962962963],[0.07083333333333333,0.362962962962963],[0.07083333333333333,0.362962962962963],[0.07083333333333333,0.362962962962963],[0.07083333333333333,0.362962962962963],[0.07083333333333333,0.362962962962963],[0.07083333333333333,0.362962962962963],[0.07083333333333333,0.362962962962963],[0.07083333333333333,0.362962962962963],[0.07083333333333333,0.362962962962963],[0.07083333333333333,0.362962962962963],[0.07083333333333333,0.362962962962963],[0.07083333333333333,0.362962962962963],[0.07083333333333333,0.362962962962963],[0.07083333333333333,0.362962962962963],[0.07083333333333333,0.362962962962963],[0.07083333333333333,0.362962962962963],[0.07083333333333333,0.362962962962963],[0.07083333333333333,0.362962962962963],[0.07083333333333333,0.362962962962963],[0.07083333333333333,0.362962962962963],[0.07083333333333333,0.362962962962963],[0.07083333333333333,0.362962962962963],[0.07083333333333333,0.362962962962963],[0.07083333333333333,0.362962962962963],[0.07083333333333333,0.362962962962963],[0.07083333333333333,0.362962962962963],[0.07083333333333333,0.362962962962963],[0.07083333333333333,0.362962962962963],[0.07083333333333333,0.362962962962963],[0.07083333333333333,0.362962962962963],[0.07083333333333333,0.362962962962963],[0.07083333333333333,0.362962962962963]]","[[0.07906250000000009,-0.32629629629629625],[0.07906250000000009,-0.32629629629629625],[0.078125,-0.40703703703703703],[0.10864583333333329,-0.4118518518518518],[0.11385416666666662,-0.4475925925925926],[0.1256249999999999,-0.44666666666666666],[0.14427083333333332,-0.4305555555555556],[0.13677083333333329,-0.4366666666666667],[0.14093749999999997,-0.4348148148148148],[0.12531249999999997,-0.4438888888888889],[0.13666666666666671,-0.4468518518518519],[0.12302083333333323,-0.41203703703703703],[0.12083333333333333,-0.3816666666666667],[0.12000000000000005,-0.37296296296296294],[0.12854166666666675,-0.3731481481481482],[0.1337500000000001,-0.3816666666666667],[0.13864583333333325,-0.37481481481481477],[0.1334374999999999,-0.3622222222222223],[0.109375,-0.3955555555555556],[0.1053124999999999,-0.4064814814814815],[0.10072916666666672,-0.43129629629629623],[0.10583333333333324,-0.4618518518518518],[0.09416666666666676,-0.4740740740740741],[0.0821875000000001,-0.48111111111111116],[0.051770833333333384,-0.47555555555555556],[0.024687500000000046,-0.46166666666666667],[0.025833333333333285,-0.46148148148148144],[0.03708333333333336,-0.46703703703703703],[0.05489583333333338,-0.47555555555555556],[0.075,-0.4716666666666666],[0.08624999999999995,-0.45444444444444443],[0.10135416666666662,-0.4275925925925925],[0.10708333333333328,-0.42611111111111116],[0.11552083333333343,-0.43],[0.14291666666666672,-0.4155555555555555],[0.17156250000000003,-0.3979629629629629],[0.16020833333333329,-0.3768518518518518],[0.13697916666666668,-0.32333333333333336],[0.14447916666666671,-0.2566666666666667],[0.13677083333333329,-0.21777777777777782],[0.12697916666666675,-0.20425925925925928],[0.12072916666666676,-0.21703703703703703],[0.11354166666666667,-0.18203703703703705],[0.10947916666666657,-0.1698148148148148],[0.09052083333333343,-0.16648148148148145],[0.0734375,-0.11148148148148146],[0.08895833333333343,-0.06314814814814819],[0.08895833333333343,-0.06314814814814819],[0.10895833333333324,-0.0477777777777777],[0.10895833333333324,-0.0477777777777777],[0.09270833333333334,-0.05925925925925926],[0.08937499999999995,-0.05537037037037033],[0.08937499999999995,-0.05537037037037033],[0.08104166666666662,-0.039629629629629584],[0.08104166666666662,-0.039629629629629584],[0.0546875,0.0031481481481482323],[0.0546875,0.0031481481481482323],[0.07052083333333338,0.024074074074074074],[0.07052083333333338,0.024074074074074074],[0.09020833333333324,0.08407407407407404],[0.09020833333333324,0.08407407407407404],[0.12833333333333338,0.16425925925925935],[0.12833333333333338,0.16425925925925935],[0.13770833333333338,0.13240740740740742],[0.14989583333333342,0.16666666666666666],[0.15989583333333332,0.18481481481481474],[0.18947916666666675,0.20925925925925926],[0.21906249999999997,0.23370370370370377],[0.25197916666666675,0.2785185185185185],[0.2955208333333334,0.31296296296296294],[0.33052083333333326,0.29981481481481476],[0.346875,0.2388888888888889],[0.3467708333333334,0.16074074074074066],[0.37229166666666674,0.1398148148148148],[0.3763541666666666,0.06722222222222214],[0.39718749999999997,0.009444444444444486],[0.3927083333333333,-0.06277777777777774],[0.41083333333333344,-0.11185185185185181],[0.41260416666666655,-0.14629629629629629],[0.4367708333333333,-0.1492592592592593],[0.40499999999999997,-0.18611111111111112],[0.38260416666666663,-0.17444444444444443],[0.39791666666666664,-0.1714814814814815],[0.39333333333333326,-0.14666666666666664],[0.4099999999999999,-0.14944444444444444],[0.3967708333333334,-0.1542592592592593],[0.3943749999999999,-0.1427777777777778],[0.38427083333333345,-0.1368518518518518],[0.39833333333333343,-0.1255555555555556],[0.39510416666666665,-0.13092592592592592],[0.409375,-0.0794444444444444],[0.42177083333333343,-0.06111111111111111],[0.37437500000000007,-0.0294444444444444],[0.346875,-0.01962962962962967],[0.28364583333333326,0.018148148148148063],[0.2462500000000001,0.04814814814814815],[0.20656249999999995,0.0794444444444444],[0.15197916666666675,0.09314814814814806],[0.15197916666666675,0.09314814814814806],[0.096875,0.08870370370370366],[0.017916666666666713,0.041111111111111195],[-0.02010416666666662,0.030000000000000086],[-0.06833333333333336,0.061666666666666585],[-0.08999999999999998,0.07537037037037045],[-0.11895833333333337,0.07277777777777769],[-0.13208333333333327,0.06407407407407412],[-0.14874999999999997,0.06888888888888897],[-0.1622916666666666,0.07685185185185185],[-0.17583333333333329,0.08481481481481473],[-0.18322916666666664,0.09703703703703699],[-0.17062499999999994,0.14574074074074084],[-0.17854166666666665,0.16814814814814807],[-0.184375,0.15981481481481474],[-0.19041666666666662,0.1507407407407407],[-0.18781249999999997,0.17185185185185176],[-0.16822916666666668,0.20629629629629626],[-0.1554166666666667,0.22925925925925916],[-0.14260416666666664,0.2522222222222223],[-0.12625000000000006,0.2588888888888888],[-0.11947916666666672,0.27259259259259266],[-0.08822916666666672,0.2933333333333333],[-0.05697916666666671,0.3140740740740741],[0.003333333333333381,0.33833333333333343],[0.06364583333333336,0.3625925925925925],[0.13385416666666666,0.38055555555555554],[0.18708333333333324,0.3851851851851852],[0.22989583333333338,0.41166666666666657],[0.2727083333333333,0.4381481481481482],[0.2727083333333333,0.4381481481481482],[0.2989583333333333,0.4233333333333334],[0.33145833333333335,0.39018518518518525],[0.3382291666666667,0.3418518518518519],[0.34500000000000003,0.2935185185185185],[0.3296875,0.287962962962963],[0.3306250000000001,0.27814814814814826],[0.3288541666666667,0.28777777777777774],[0.3006249999999999,0.2755555555555555],[0.3086458333333333,0.2518518518518518],[0.30666666666666675,0.23185185185185195],[0.3177083333333333,0.26944444444444443],[0.31791666666666674,0.31203703703703706],[0.3181250000000001,0.35462962962962963],[0.2943749999999999,0.39018518518518525],[0.27322916666666663,0.3888888888888889],[0.2540625000000001,0.36796296296296305],[0.2263541666666666,0.3199999999999999],[0.22458333333333325,0.2822222222222222],[0.20114583333333325,0.23944444444444435],[0.20791666666666658,0.22148148148148153],[0.20833333333333334,0.19462962962962968],[0.2009375000000001,0.17611111111111116],[0.1935416666666666,0.15759259259259265],[0.20979166666666677,0.1],[0.23687500000000009,0.06648148148148143],[0.24791666666666667,0.04000000000000004],[0.26052083333333326,0.01518518518518527],[0.27364583333333337,0.0020370370370370794],[0.3087500000000001,0.014074074074074116],[0.30458333333333343,0.0014814814814813973],[0.3067708333333333,-0.0022222222222223064],[0.32750000000000007,-0.03925925925925934],[0.34822916666666665,-0.07629629629629628],[0.37218749999999995,-0.04870370370370362],[0.3853125000000001,-0.04518518518518514],[0.3955208333333334,-0.03685185185185181],[0.3962500000000001,-0.02962962962962963],[0.42041666666666655,-0.0012962962962963806],[0.42302083333333323,-0.0025925925925925505],[0.4287499999999999,-0.015555555555555513],[0.44520833333333343,-0.011296296296296339],[0.4412499999999999,0.021481481481481525],[0.43729166666666663,0.054259259259259174],[0.43760416666666657,0.08185185185185194],[0.4379166666666668,0.10944444444444448],[0.4144791666666668,0.1587037037037038],[0.39895833333333336,0.2074074074074074],[0.39895833333333336,0.2074074074074074],[0.3692708333333333,0.22907407407407415],[0.3463541666666667,0.25703703703703695],[0.3393749999999999,0.2927777777777778],[0.3216666666666666,0.31129629629629635],[0.32541666666666674,0.33851851851851844],[0.3455208333333334,0.34981481481481475],[0.3459374999999999,0.3477777777777777],[0.31916666666666677,0.3472222222222222],[0.33229166666666665,0.3388888888888889],[0.34395833333333337,0.32814814814814824],[0.35104166666666664,0.3207407407407408],[0.35260416666666666,0.32148148148148153],[0.3541666666666667,0.32222222222222224],[0.36593749999999997,0.31925925925925924],[0.3701041666666666,0.3037037037037037],[0.35145833333333343,0.31129629629629635],[0.3352083333333333,0.30648148148148147],[0.35489583333333335,0.29611111111111105],[0.35958333333333337,0.28277777777777785],[0.36770833333333336,0.2675925925925926],[0.3711458333333333,0.25500000000000006],[0.371875,0.22333333333333338],[0.38270833333333343,0.19981481481481478],[0.38270833333333343,0.175],[0.4015625,0.14537037037037037],[0.41458333333333336,0.11055555555555564],[0.43770833333333337,0.08814814814814818],[0.44802083333333326,0.061666666666666585],[0.453125,0.0418518518518519],[0.453125,0.0418518518518519],[0.46843750000000006,0.028888888888888933],[0.4809375000000001,0.0235185185185186],[0.4974999999999999,0.03148148148148148],[0.4974999999999999,0.03148148148148148],[0.5048958333333334,0.0837037037037038],[0.5236458333333334,0.13722222222222227],[0.5080208333333334,0.15425925925925918],[0.5202083333333334,0.1574074074074074],[0.5287499999999999,0.18425925925925926],[0.5317708333333333,0.23722222222222225],[0.5241666666666667,0.23537037037037042],[0.4860416666666666,0.2198148148148149],[0.45072916666666674,0.19666666666666674],[0.4405208333333334,0.1853703703703704],[0.42937500000000006,0.12166666666666676],[0.39427083333333335,0.0668518518518519],[0.38343749999999993,0.07166666666666675],[0.3393749999999999,0.019444444444444445],[0.3072916666666667,-0.0448148148148149],[0.2703125,-0.1257407407407407],[0.26437499999999997,-0.15407407407407406],[0.26114583333333335,-0.17462962962962966],[0.2842708333333334,-0.17296296296296293],[0.2693749999999999,-0.1542592592592593],[0.27062499999999995,-0.13111111111111112],[0.2804166666666667,-0.11592592592592597],[0.2865624999999999,-0.12037037037037036],[0.3258333333333333,-0.04092592592592597],[0.3567708333333333,0.026851851851851852],[0.39385416666666656,0.08333333333333333],[0.39385416666666656,0.08333333333333333],[0.3727083333333333,0.07796296296296301],[0.3759375000000001,0.10222222222222231],[0.3676041666666668,0.14462962962962966],[0.37218749999999995,0.1581481481481481],[0.3515625,0.11277777777777774],[0.33562500000000006,0.07018518518518514],[0.33562500000000006,0.07018518518518514],[0.2986458333333334,0.01796296296296305],[0.2397916666666667,-0.01314814814814819],[0.2397916666666667,-0.01314814814814819],[0.18489583333333334,-0.06574074074074074],[0.18489583333333334,-0.06574074074074074],[0.14166666666666666,-0.09962962962962965],[0.14166666666666666,-0.09962962962962965],[0.13958333333333334,-0.07833333333333335],[0.1068749999999999,-0.1051851851851852],[0.1068749999999999,-0.1051851851851852],[0.08083333333333324,-0.12611111111111115],[0.04906250000000002,-0.15759259259259265],[0.02635416666666662,-0.1346296296296296],[0.0016666666666666904,-0.14296296296296293],[-0.01593749999999995,-0.14462962962962966],[-0.007187499999999976,-0.15111111111111114],[-0.002395833333333286,-0.1361111111111111],[-0.003125,-0.13703703703703704],[-0.002395833333333286,-0.1346296296296296],[0.03812500000000003,-0.12999999999999998],[0.03791666666666664,-0.19666666666666666],[0.04624999999999998,-0.22833333333333336],[0.05458333333333331,-0.25999999999999995],[0.04354166666666662,-0.26851851851851855],[0.04135416666666671,-0.2727777777777778],[0.04083333333333338,-0.32703703703703707],[0.04031250000000005,-0.38129629629629624],[0.041458333333333285,-0.40129629629629626],[0.042604166666666644,-0.4212962962962963],[0.024791666666666618,-0.43333333333333335],[0.026250000000000048,-0.4203703703703704],[0.024895833333333308,-0.4318518518518518],[0.04239583333333338,-0.40666666666666673],[0.06708333333333343,-0.38796296296296295],[0.10166666666666657,-0.3440740740740741],[0.11135416666666677,-0.31611111111111106],[0.12104166666666671,-0.2881481481481482],[0.13145833333333337,-0.2559259259259259],[0.14187500000000006,-0.22370370370370374],[0.1662499999999999,-0.19888888888888884],[0.190625,-0.17407407407407408],[0.21354166666666666,-0.1544444444444444],[0.20708333333333329,-0.19092592592592597],[0.21520833333333325,-0.22185185185185188],[0.21343750000000009,-0.277962962962963],[0.21218750000000006,-0.3055555555555556],[0.22583333333333327,-0.32018518518518513]]","[[0.07906250000000009,-0.32629629629629625,0.00019999999553022008],[0.07906250000000009,-0.32629629629629625,0.014699999995528401],[0.078125,-0.40703703703703703,0.03159999999404306],[0.10864583333333329,-0.4118518518518518,0.050699999995529765],[0.11385416666666662,-0.4475925925925926,0.06479999999702102],[0.1256249999999999,-0.44666666666666666,0.08159999999404022],[0.14427083333333332,-0.4305555555555556,0.10150000000000148],[0.13677083333333329,-0.4366666666666667,0.1186999999955276],[0.14093749999999997,-0.4348148148148148,0.1355000000000004],[0.12531249999999997,-0.4438888888888889,0.15219999999553124],[0.13666666666666671,-0.4468518518518519,0.16709999999404346],[0.12302083333333323,-0.41203703703703703,0.18129999999702306],[0.12083333333333333,-0.3816666666666667,0.1980000000000004],[0.12000000000000005,-0.37296296296296294,0.21469999999553124],[0.12854166666666675,-0.3731481481481482,0.23289999999850863],[0.1337500000000001,-0.3816666666666667,0.2506999999955326],[0.13864583333333325,-0.37481481481481477,0.2672999999970216],[0.1334374999999999,-0.3622222222222223,0.2840999999940408],[0.109375,-0.3955555555555556,0.3003999999985112],[0.1053124999999999,-0.4064814814814815,0.31450000000000244],[0.10072916666666672,-0.43129629629629623,0.33379999999701937],[0.10583333333333324,-0.4618518518518518,0.34879999999701994],[0.09416666666666676,-0.4740740740740741,0.36809999999403686],[0.0821875000000001,-0.48111111111111116,0.3817999999970212],[0.051770833333333384,-0.47555555555555556,0.40169999999552886],[0.024687500000000046,-0.46166666666666667,0.4167999999970178],[0.025833333333333285,-0.46148148148148144,0.43509999999403703],[0.03708333333333336,-0.46703703703703703,0.45159999999403766],[0.05489583333333338,-0.47555555555555556,0.4682999999970221],[0.075,-0.4716666666666666,0.48429999999702034],[0.08624999999999995,-0.45444444444444443,0.5001999999955302],[0.10135416666666662,-0.4275925925925925,0.5167999999970192],[0.10708333333333328,-0.42611111111111116,0.5339999999999989],[0.11552083333333343,-0.43,0.5505999999940414],[0.14291666666666672,-0.4155555555555555,0.5668999999985118],[0.17156250000000003,-0.3979629629629629,0.5811999999955333],[0.16020833333333329,-0.3768518518518518,0.6006999999955269],[0.13697916666666668,-0.32333333333333336,0.6153999999985089],[0.14447916666666671,-0.2566666666666667,0.6342999999970189],[0.13677083333333329,-0.21777777777777782,0.6503999999985126],[0.12697916666666675,-0.20425925925925928,0.6675999999940387],[0.12072916666666676,-0.21703703703703703,0.6839999999999975],[0.11354166666666667,-0.18203703703703705,0.7017999999970215],[0.10947916666666657,-0.1698148148148148,0.7173999999985128],[0.09052083333333343,-0.16648148148148145,0.7335999999940412],[0.0734375,-0.11148148148148146,0.7486999999955302],[0.08895833333333343,-0.06314814814814819,0.7681999999955309],[0.08895833333333343,-0.06314814814814819,0.7898999999985108],[0.10895833333333324,-0.0477777777777777,0.8073999999985091],[0.10895833333333324,-0.0477777777777777,0.8146999999955327],[0.09270833333333334,-0.05925925925925926,0.8312999999970216],[0.08937499999999995,-0.05537037037037033,0.8478999999985106],[0.08937499999999995,-0.05537037037037033,0.8646999999955298],[0.08104166666666662,-0.039629629629629584,0.8812999999970188],[0.08104166666666662,-0.039629629629629584,0.898099999994038],[0.0546875,0.0031481481481482323,0.9145999999940386],[0.0546875,0.0031481481481482323,0.9313999999985114],[0.07052083333333338,0.024074074074074074,0.9480000000000004],[0.07052083333333338,0.024074074074074074,0.9645999999940429],[0.09020833333333324,0.08407407407407404,0.9811999999955319],[0.09020833333333324,0.08407407407407404,0.9978999999985092],[0.12833333333333338,0.16425925925925935,1.01459999999404],[0.12833333333333338,0.16425925925925935,1.0312999999970174],[0.13770833333333338,0.13240740740740742,1.0480999999940366],[0.14989583333333342,0.16666666666666666,1.0648999999985094],[0.15989583333333332,0.18481481481481474,1.0812999999970216],[0.18947916666666675,0.20925925925925926,1.0996999999955293],[0.21906249999999997,0.23370370370370377,1.1145999999940415],[0.25197916666666675,0.2785185185185185,1.1315999999940374],[0.2955208333333334,0.31296296296296294,1.1480000000000032],[0.33052083333333326,0.29981481481481476,1.1649999999999991],[0.346875,0.2388888888888889,1.181299999997023],[0.3467708333333334,0.16074074074074066,1.1980000000000004],[0.37229166666666674,0.1398148148148148,1.214599999994043],[0.3763541666666666,0.06722222222222214,1.231500000000004],[0.39718749999999997,0.009444444444444486,1.2479999999999976],[0.3927083333333333,-0.06277777777777774,1.2646999999955284],[0.41083333333333344,-0.11185185185185181,1.281199999995529],[0.41260416666666655,-0.14629629629629629,1.2980000000000018],[0.4367708333333333,-0.1492592592592593,1.3145000000000024],[0.40499999999999997,-0.18611111111111112,1.331799999997017],[0.38260416666666663,-0.17444444444444443,1.3478999999985106],[0.39791666666666664,-0.1714814814814815,1.3651999999955322],[0.39333333333333326,-0.14666666666666664,1.3830000000000027],[0.4099999999999999,-0.14944444444444444,1.398099999994038],[0.3967708333333334,-0.1542592592592593,1.414699999995527],[0.3943749999999999,-0.1427777777777778,1.4314999999999998],[0.38427083333333345,-0.1368518518518518,1.4480999999940423],[0.39833333333333343,-0.1255555555555556,1.4669999999999987],[0.39510416666666665,-0.13092592592592592,1.4810999999940435],[0.409375,-0.0794444444444444,1.4980999999940394],[0.42177083333333343,-0.06111111111111111,1.51459999999404],[0.37437500000000007,-0.0294444444444444,1.5317999999970198],[0.346875,-0.01962962962962967,1.5478999999985135],[0.28364583333333326,0.018148148148148063,1.5663999999985094],[0.2462500000000001,0.04814814814814815,1.5812999999970216],[0.20656249999999995,0.0794444444444444,1.5980999999940408],[0.15197916666666675,0.09314814814814806,1.6144999999999996],[0.15197916666666675,0.09314814814814806,1.6315000000000026],[0.096875,0.08870370370370366,1.6478999999985078],[0.017916666666666713,0.041111111111111195,1.665099999994041],[-0.02010416666666662,0.030000000000000086,1.681299999997023],[-0.06833333333333336,0.061666666666666585,1.6980000000000004],[-0.08999999999999998,0.07537037037037045,1.714500000000001],[-0.11895833333333337,0.07277777777777769,1.731500000000004],[-0.13208333333333327,0.06407407407407412,1.7478999999985092],[-0.14874999999999997,0.06888888888888897,1.7650999999940424],[-0.1622916666666666,0.07685185185185185,1.781199999995529],[-0.17583333333333329,0.08481481481481473,1.7978999999985135],[-0.18322916666666664,0.09703703703703699,1.8146999999955327],[-0.17062499999999994,0.14574074074074084,1.8341999999955334],[-0.17854166666666665,0.16814814814814807,1.8485000000000014],[-0.184375,0.15981481481481474,1.8644999999999996],[-0.19041666666666662,0.1507407407407407,1.884699999995533],[-0.18781249999999997,0.17185185185185176,1.8984999999999985],[-0.16822916666666668,0.20629629629629626,1.9145999999940386],[-0.1554166666666667,0.22925925925925916,1.9353999999985092],[-0.14260416666666664,0.2522222222222223,1.9507999999970238],[-0.12625000000000006,0.2588888888888888,1.966799999997022],[-0.11947916666666672,0.27259259259259266,1.9810999999940435],[-0.08822916666666672,0.2933333333333333,1.9979999999999976],[-0.05697916666666671,0.3140740740740741,2.014499999999998],[0.003333333333333381,0.33833333333333343,2.031899999998508],[0.06364583333333336,0.3625925925925925,2.048199999995532],[0.13385416666666666,0.38055555555555554,2.0646999999955327],[0.18708333333333324,0.3851851851851852,2.0811999999955333],[0.22989583333333338,0.41166666666666657,2.097999999999999],[0.2727083333333333,0.4381481481481482,2.1144999999999996],[0.2727083333333333,0.4381481481481482,2.1315000000000026],[0.2989583333333333,0.4233333333333334,2.147899999998508],[0.33145833333333335,0.39018518518518525,2.164699999995527],[0.3382291666666667,0.3418518518518519,2.1811999999955276],[0.34500000000000003,0.2935185185185185,2.197899999998512],[0.3296875,0.287962962962963,2.2146999999955312],[0.3306250000000001,0.27814814814814826,2.2317999999970226],[0.3288541666666667,0.28777777777777774,2.2479999999999976],[0.3006249999999999,0.2755555555555555,2.264499999999998],[0.3086458333333333,0.2518518518518518,2.281199999995529],[0.30666666666666675,0.23185185185185195,2.298000000000002],[0.3177083333333333,0.26944444444444443,2.3146999999955327],[0.31791666666666674,0.31203703703703706,2.33289999999851],[0.3181250000000001,0.35462962962962963,2.3477999999970223],[0.2943749999999999,0.39018518518518525,2.36469999999553],[0.27322916666666663,0.3888888888888889,2.3811999999955304],[0.2540625000000001,0.36796296296296305,2.3980000000000032],[0.2263541666666666,0.3199999999999999,2.414500000000004],[0.22458333333333325,0.2822222222222222,2.4317999999970183],[0.20114583333333325,0.23944444444444435,2.447899999998512],[0.20791666666666658,0.22148148148148153,2.464599999994043],[0.20833333333333334,0.19462962962962968,2.481199999995532],[0.2009375000000001,0.17611111111111116,2.4980999999940394],[0.1935416666666666,0.15759259259259265,2.514499999999998],[0.20979166666666677,0.1,2.5320999999940383],[0.23687500000000009,0.06648148148148143,2.5478999999985135],[0.24791666666666667,0.04000000000000004,2.564599999994037],[0.26052083333333326,0.01518518518518527,2.5811999999955333],[0.27364583333333337,0.0020370370370370794,2.5978999999985106],[0.3087500000000001,0.014074074074074116,2.6145999999940415],[0.30458333333333343,0.0014814814814813973,2.632899999998507],[0.3067708333333333,-0.0022222222222223064,2.6480000000000032],[0.32750000000000007,-0.03925925925925934,2.6645999999940386],[0.34822916666666665,-0.07629629629629628,2.6811999999955276],[0.37218749999999995,-0.04870370370370362,2.700199999995533],[0.3853125000000001,-0.04518518518518514,2.714500000000001],[0.3955208333333334,-0.03685185185185181,2.732699999995532],[0.3962500000000001,-0.02962962962962963,2.747899999998509],[0.42041666666666655,-0.0012962962962963806,2.7647999999970168],[0.42302083333333323,-0.0025925925925925505,2.7812999999970174],[0.4287499999999999,-0.015555555555555513,2.799899999998509],[0.44520833333333343,-0.011296296296296339,2.814599999994037],[0.4412499999999999,0.021481481481481525,2.83159999999404],[0.43729166666666663,0.054259259259259174,2.8478999999985106],[0.43760416666666657,0.08185185185185194,2.8669999999999973],[0.4379166666666668,0.10944444444444448,2.8833999999985096],[0.4144791666666668,0.1587037037037038,2.9026999999955336],[0.39895833333333336,0.2074074074074074,2.9188999999985086],[0.39895833333333336,0.2074074074074074,2.93169999999553],[0.3692708333333333,0.22907407407407415,2.947899999998512],[0.3463541666666667,0.25703703703703695,2.9662999999970197],[0.3393749999999999,0.2927777777777778,2.981199999995532],[0.3216666666666666,0.31129629629629635,2.997899999998509],[0.32541666666666674,0.33851851851851844,3.0147999999970168],[0.3455208333333334,0.34981481481481475,3.035599999994041],[0.3459374999999999,0.3477777777777777,3.0506999999955298],[0.31916666666666677,0.3472222222222222,3.0671999999955304],[0.33229166666666665,0.3388888888888889,3.0812999999970216],[0.34395833333333337,0.32814814814814824,3.097999999999999],[0.35104166666666664,0.3207407407407408,3.1145999999940415],[0.35260416666666666,0.32148148148148153,3.133499999999998],[0.3541666666666667,0.32222222222222224,3.1481999999955335],[0.36593749999999997,0.31925925925925924,3.167699999995527],[0.3701041666666666,0.3037037037037037,3.183799999997021],[0.35145833333333343,0.31129629629629635,3.2002999999970214],[0.3352083333333333,0.30648148148148147,3.214500000000001],[0.35489583333333335,0.29611111111111105,3.2334999999999994],[0.35958333333333337,0.28277777777777785,3.247899999998509],[0.36770833333333336,0.2675925925925926,3.266299999997017],[0.3711458333333333,0.25500000000000006,3.281199999995529],[0.371875,0.22333333333333338,3.300099999994039],[0.38270833333333343,0.19981481481481478,3.314599999994037],[0.38270833333333343,0.175,3.333500000000001],[0.4015625,0.14537037037037037,3.3478999999985106],[0.41458333333333336,0.11055555555555564,3.3645999999940415],[0.43770833333333337,0.08814814814814818,3.381299999997019],[0.44802083333333326,0.061666666666666585,3.4015999999940405],[0.453125,0.0418518518518519,3.416799999997018],[0.453125,0.0418518518518519,3.431299999997023],[0.46843750000000006,0.028888888888888933,3.4480999999940423],[0.4809375000000001,0.0235185185185186,3.4672999999970173],[0.4974999999999999,0.03148148148148148,3.4838999999985134],[0.4974999999999999,0.03148148148148148,3.4979999999999976],[0.5048958333333334,0.0837037037037038,3.51459999999404],[0.5236458333333334,0.13722222222222227,3.534099999994041],[0.5080208333333334,0.15425925925925918,3.5482999999970204],[0.5202083333333334,0.1574074074074074,3.564599999994037],[0.5287499999999999,0.18425925925925926,3.5811999999955333],[0.5317708333333333,0.23722222222222225,3.6003999999985083],[0.5241666666666667,0.23537037037037042,3.6144999999999996],[0.4860416666666666,0.2198148148148149,3.63359999999404],[0.45072916666666674,0.19666666666666674,3.650500000000001],[0.4405208333333334,0.1853703703703704,3.6666999999955294],[0.42937500000000006,0.12166666666666676,3.6811999999955276],[0.39427083333333335,0.0668518518518519,3.700199999995533],[0.38343749999999993,0.07166666666666675,3.714599999994043],[0.3393749999999999,0.019444444444444445,3.7328999999985086],[0.3072916666666667,-0.0448148148148149,3.747799999997021],[0.2703125,-0.1257407407407407,3.765199999995531],[0.26437499999999997,-0.15407407407407406,3.781199999995529],[0.26114583333333335,-0.17462962962962966,3.7978999999985135],[0.2842708333333334,-0.17296296296296293,3.814599999994037],[0.2693749999999999,-0.1542592592592593,3.836500000000001],[0.27062499999999995,-0.13111111111111112,3.8516999999955317],[0.2804166666666667,-0.11592592592592597,3.8681999999955323],[0.2865624999999999,-0.12037037037037036,3.883499999999998],[0.3258333333333333,-0.04092592592592597,3.9003999999985126],[0.3567708333333333,0.026851851851851852,3.914500000000004],[0.39385416666666656,0.08333333333333333,3.9381999999955326],[0.39385416666666656,0.08333333333333333,3.9480000000000004],[0.3727083333333333,0.07796296296296301,3.9646999999955312],[0.3759375000000001,0.10222222222222231,3.981199999995532],[0.3676041666666668,0.14462962962962966,4.00019999999553],[0.37218749999999995,0.1581481481481481,4.016699999995531],[0.3515625,0.11277777777777774,4.0342999999970175],[0.33562500000000006,0.07018518518518514,4.053299999997023],[0.33562500000000006,0.07018518518518514,4.064699999995533],[0.2986458333333334,0.01796296296296305,4.081199999995533],[0.2397916666666667,-0.01314814814814819,4.1045999999940435],[0.2397916666666667,-0.01314814814814819,4.1145],[0.18489583333333334,-0.06574074074074074,4.131399999998507],[0.18489583333333334,-0.06574074074074074,4.147899999998508],[0.14166666666666666,-0.09962962962962965,4.164699999995527],[0.14166666666666666,-0.09962962962962965,4.181199999995528],[0.13958333333333334,-0.07833333333333335,4.197899999998512],[0.1068749999999999,-0.1051851851851852,4.220099999994041],[0.1068749999999999,-0.1051851851851852,4.231199999995532],[0.08083333333333324,-0.12611111111111115,4.248199999995528],[0.04906250000000002,-0.15759259259259265,4.264899999998512],[0.02635416666666662,-0.1346296296296296,4.281099999994041],[0.0016666666666666904,-0.14296296296296293,4.2978999999985135],[-0.01593749999999995,-0.14462962962962966,4.3145000000000024],[-0.007187499999999976,-0.15111111111111114,4.332699999995533],[-0.002395833333333286,-0.1361111111111111,4.347899999998511],[-0.003125,-0.13703703703703704,4.36469999999553],[-0.002395833333333286,-0.1346296296296296,4.3811999999955304],[0.03812500000000003,-0.12999999999999998,4.397899999998508],[0.03791666666666664,-0.19666666666666666,4.414599999994039],[0.04624999999999998,-0.22833333333333336,4.435699999995528],[0.05458333333333331,-0.25999999999999995,4.451599999994038],[0.04354166666666662,-0.26851851851851855,4.4665000000000035],[0.04135416666666671,-0.2727777777777778,4.481199999995532],[0.04083333333333338,-0.32703703703703707,4.497899999998509],[0.04031250000000005,-0.38129629629629624,4.514499999999998],[0.041458333333333285,-0.40129629629629626,4.532799999997017],[0.042604166666666644,-0.4212962962962963,4.547799999997018],[0.024791666666666618,-0.43333333333333335,4.564599999994037],[0.026250000000000048,-0.4203703703703704,4.581199999995533],[0.024895833333333308,-0.4318518518518518,4.597899999998511],[0.04239583333333338,-0.40666666666666673,4.6145999999940415],[0.06708333333333343,-0.38796296296296295,4.631500000000003],[0.10166666666666657,-0.3440740740740741,4.648000000000003],[0.11135416666666677,-0.31611111111111106,4.667599999994039],[0.12104166666666671,-0.2881481481481482,4.681899999998514],[0.13145833333333337,-0.2559259259259259,4.697899999998512],[0.14187500000000006,-0.22370370370370374,4.714500000000001],[0.1662499999999999,-0.19888888888888884,4.732699999995532],[0.190625,-0.17407407407407408,4.747799999997021],[0.21354166666666666,-0.1544444444444444,4.766500000000001],[0.20708333333333329,-0.19092592592592597,4.781199999995529],[0.21520833333333325,-0.22185185185185188,4.7978999999985135],[0.21343750000000009,-0.277962962962963,4.814399999998507],[0.21218750000000006,-0.3055555555555556,4.832599999994038],[0.22583333333333327,-0.32018518518518513,4.847799999997022]]","[0.00019999999553022008,0.014699999995528401,0.03159999999404306,0.050699999995529765,0.06479999999702102,0.08159999999404022,0.10150000000000148,0.1186999999955276,0.1355000000000004,0.15219999999553124,0.16709999999404346,0.18129999999702306,0.1980000000000004,0.21469999999553124,0.23289999999850863,0.2506999999955326,0.2672999999970216,0.2840999999940408,0.3003999999985112,0.31450000000000244,0.33379999999701937,0.34879999999701994,0.36809999999403686,0.3817999999970212,0.40169999999552886,0.4167999999970178,0.43509999999403703,0.45159999999403766,0.4682999999970221,0.48429999999702034,0.5001999999955302,0.5167999999970192,0.5339999999999989,0.5505999999940414,0.5668999999985118,0.5811999999955333,0.6006999999955269,0.6153999999985089,0.6342999999970189,0.6503999999985126,0.6675999999940387,0.6839999999999975,0.7017999999970215,0.7173999999985128,0.7335999999940412,0.7486999999955302,0.7681999999955309,0.7898999999985108,0.8073999999985091,0.8146999999955327,0.8312999999970216,0.8478999999985106,0.8646999999955298,0.8812999999970188,0.898099999994038,0.9145999999940386,0.9313999999985114,0.9480000000000004,0.9645999999940429,0.9811999999955319,0.9978999999985092,1.01459999999404,1.0312999999970174,1.0480999999940366,1.0648999999985094,1.0812999999970216,1.0996999999955293,1.1145999999940415,1.1315999999940374,1.1480000000000032,1.1649999999999991,1.181299999997023,1.1980000000000004,1.214599999994043,1.231500000000004,1.2479999999999976,1.2646999999955284,1.281199999995529,1.2980000000000018,1.3145000000000024,1.331799999997017,1.3478999999985106,1.3651999999955322,1.3830000000000027,1.398099999994038,1.414699999995527,1.4314999999999998,1.4480999999940423,1.4669999999999987,1.4810999999940435,1.4980999999940394,1.51459999999404,1.5317999999970198,1.5478999999985135,1.5663999999985094,1.5812999999970216,1.5980999999940408,1.6144999999999996,1.6315000000000026,1.6478999999985078,1.665099999994041,1.681299999997023,1.6980000000000004,1.714500000000001,1.731500000000004,1.7478999999985092,1.7650999999940424,1.781199999995529,1.7978999999985135,1.8146999999955327,1.8341999999955334,1.8485000000000014,1.8644999999999996,1.884699999995533,1.8984999999999985,1.9145999999940386,1.9353999999985092,1.9507999999970238,1.966799999997022,1.9810999999940435,1.9979999999999976,2.014499999999998,2.031899999998508,2.048199999995532,2.0646999999955327,2.0811999999955333,2.097999999999999,2.1144999999999996,2.1315000000000026,2.147899999998508,2.164699999995527,2.1811999999955276,2.197899999998512,2.2146999999955312,2.2317999999970226,2.2479999999999976,2.264499999999998,2.281199999995529,2.298000000000002,2.3146999999955327,2.33289999999851,2.3477999999970223,2.36469999999553,2.3811999999955304,2.3980000000000032,2.414500000000004,2.4317999999970183,2.447899999998512,2.464599999994043,2.481199999995532,2.4980999999940394,2.514499999999998,2.5320999999940383,2.5478999999985135,2.564599999994037,2.5811999999955333,2.5978999999985106,2.6145999999940415,2.632899999998507,2.6480000000000032,2.6645999999940386,2.6811999999955276,2.700199999995533,2.714500000000001,2.732699999995532,2.747899999998509,2.7647999999970168,2.7812999999970174,2.799899999998509,2.814599999994037,2.83159999999404,2.8478999999985106,2.8669999999999973,2.8833999999985096,2.9026999999955336,2.9188999999985086,2.93169999999553,2.947899999998512,2.9662999999970197,2.981199999995532,2.997899999998509,3.0147999999970168,3.035599999994041,3.0506999999955298,3.0671999999955304,3.0812999999970216,3.097999999999999,3.1145999999940415,3.133499999999998,3.1481999999955335,3.167699999995527,3.183799999997021,3.2002999999970214,3.214500000000001,3.2334999999999994,3.247899999998509,3.266299999997017,3.281199999995529,3.300099999994039,3.314599999994037,3.333500000000001,3.3478999999985106,3.3645999999940415,3.381299999997019,3.4015999999940405,3.416799999997018,3.431299999997023,3.4480999999940423,3.4672999999970173,3.4838999999985134,3.4979999999999976,3.51459999999404,3.534099999994041,3.5482999999970204,3.564599999994037,3.5811999999955333,3.6003999999985083,3.6144999999999996,3.63359999999404,3.650500000000001,3.6666999999955294,3.6811999999955276,3.700199999995533,3.714599999994043,3.7328999999985086,3.747799999997021,3.765199999995531,3.781199999995529,3.7978999999985135,3.814599999994037,3.836500000000001,3.8516999999955317,3.8681999999955323,3.883499999999998,3.9003999999985126,3.914500000000004,3.9381999999955326,3.9480000000000004,3.9646999999955312,3.981199999995532,4.00019999999553,4.016699999995531,4.0342999999970175,4.053299999997023,4.064699999995533,4.081199999995533,4.1045999999940435,4.1145,4.131399999998507,4.147899999998508,4.164699999995527,4.181199999995528,4.197899999998512,4.220099999994041,4.231199999995532,4.248199999995528,4.264899999998512,4.281099999994041,4.2978999999985135,4.3145000000000024,4.332699999995533,4.347899999998511,4.36469999999553,4.3811999999955304,4.397899999998508,4.414599999994039,4.435699999995528,4.451599999994038,4.4665000000000035,4.481199999995532,4.497899999998509,4.514499999999998,4.532799999997017,4.547799999997018,4.564599999994037,4.581199999995533,4.597899999998511,4.6145999999940415,4.631500000000003,4.648000000000003,4.667599999994039,4.681899999998514,4.697899999998512,4.714500000000001,4.732699999995532,4.747799999997021,4.766500000000001,4.781199999995529,4.7978999999985135,4.814399999998507,4.832599999994038,4.847799999997022]","[1733281626761,1733281626774,1733281626791,1733281626810,1733281626824,1733281626841,1733281626861,1733281626878,1733281626895,1733281626912,1733281626927,1733281626941,1733281626958,1733281626974,1733281626993,1733281627010,1733281627027,1733281627044,1733281627060,1733281627074,1733281627093,1733281627108,1733281627128,1733281627141,1733281627161,1733281627176,1733281627195,1733281627211,1733281627228,1733281627244,1733281627260,1733281627276,1733281627294,1733281627310,1733281627326,1733281627341,1733281627360,1733281627375,1733281627394,1733281627410,1733281627427,1733281627444,1733281627461,1733281627477,1733281627493,1733281627508,1733281627528,1733281627550,1733281627567,1733281627574,1733281627591,1733281627608,1733281627624,1733281627641,1733281627658,1733281627674,1733281627691,1733281627708,1733281627724,1733281627741,1733281627757,1733281627774,1733281627791,1733281627808,1733281627825,1733281627841,1733281627859,1733281627874,1733281627891,1733281627908,1733281627925,1733281627941,1733281627958,1733281627974,1733281627991,1733281628008,1733281628024,1733281628041,1733281628058,1733281628074,1733281628091,1733281628108,1733281628125,1733281628143,1733281628158,1733281628174,1733281628191,1733281628208,1733281628227,1733281628241,1733281628258,1733281628274,1733281628291,1733281628308,1733281628326,1733281628341,1733281628358,1733281628374,1733281628391,1733281628408,1733281628425,1733281628441,1733281628458,1733281628474,1733281628491,1733281628508,1733281628525,1733281628541,1733281628558,1733281628574,1733281628594,1733281628608,1733281628624,1733281628644,1733281628658,1733281628674,1733281628695,1733281628710,1733281628726,1733281628741,1733281628758,1733281628774,1733281628791,1733281628808,1733281628824,1733281628841,1733281628858,1733281628874,1733281628891,1733281628908,1733281628924,1733281628941,1733281628958,1733281628974,1733281628991,1733281629008,1733281629024,1733281629041,1733281629058,1733281629074,1733281629092,1733281629107,1733281629124,1733281629141,1733281629158,1733281629174,1733281629191,1733281629208,1733281629224,1733281629241,1733281629258,1733281629274,1733281629292,1733281629307,1733281629324,1733281629341,1733281629357,1733281629374,1733281629393,1733281629408,1733281629424,1733281629441,1733281629460,1733281629474,1733281629492,1733281629508,1733281629524,1733281629541,1733281629560,1733281629574,1733281629591,1733281629608,1733281629627,1733281629643,1733281629662,1733281629679,1733281629691,1733281629708,1733281629726,1733281629741,1733281629758,1733281629774,1733281629795,1733281629810,1733281629827,1733281629841,1733281629858,1733281629874,1733281629893,1733281629908,1733281629927,1733281629943,1733281629960,1733281629974,1733281629993,1733281630008,1733281630026,1733281630041,1733281630060,1733281630074,1733281630093,1733281630107,1733281630124,1733281630141,1733281630161,1733281630176,1733281630191,1733281630208,1733281630227,1733281630243,1733281630258,1733281630274,1733281630294,1733281630308,1733281630324,1733281630341,1733281630360,1733281630374,1733281630393,1733281630410,1733281630426,1733281630441,1733281630460,1733281630474,1733281630493,1733281630507,1733281630525,1733281630541,1733281630557,1733281630574,1733281630596,1733281630611,1733281630628,1733281630643,1733281630660,1733281630674,1733281630698,1733281630708,1733281630724,1733281630741,1733281630760,1733281