inst1_resp.keys,inst1_resp.rt,calibrationMouse.x,calibrationMouse.y,calibrationMouse.leftButton,calibrationMouse.midButton,calibrationMouse.rightButton,calibrationClick.x,calibrationClick.y,calibrationClick.leftButton,calibrationClick.midButton,calibrationClick.rightButton,calibrationClick.clicked_name,trialsc.thisRepN,trialsc.thisTrialN,trialsc.thisN,trialsc.thisIndex,trialsc.ran,calibration_x,calibration_y,participant,session,date,expName,psychopyVersion,OS,frameRate,ScreenRes_pixels,mouse_2.x,mouse_2.y,mouse_2.leftButton,mouse_2.midButton,mouse_2.rightButton,mouse_2.time,mouse_2.clicked_name,Camera_pixels,mouse.x,mouse.y,mouse.leftButton,mouse.midButton,mouse.rightButton,mouse.time,mouse.clicked_name,Choice,Trial,TrialDuration,MOUSE_GAZE,ET_GAZE,ET_GAZE_x_T,time,unixTime,ET_GAZE_NF,Loc_Option1_label,Loc_Option2_label,Loc_Cost_label,Loc_Qual_label,Loc_Option1_cost,Loc_Option2_cost,Loc_Option1_quality,Loc_Option2_quality,trials.thisRepN,trials.thisTrialN,trials.thisN,trials.thisIndex,trials.ran,Block,Device,cost1,qual1,cost2,qual2
space,1.4979,-0.040625,0.398148148,1,0,0,-0.004166667,0.337037037,1,0,0,calibration_square,0,0,0,12,1,0,0.33,11,001,2024-12-04_12h06.23.139,Attention_exp_legacy,2023.1.0,Win32,60.24096386,,,,,,,,,,,,,,,,,,,,,,,,,,,,,,,,,,,,,,,,,,,,
,,,,,,,0.007291667,0.674074074,1,0,0,calibration_square,0,1,1,13,1,0,0.67,11,001,2024-12-04_12h06.23.139,Attention_exp_legacy,2023.1.0,Win32,60.24096386,,,,,,,,,,,,,,,,,,,,,,,,,,,,,,,,,,,,,,,,,,,,
,,,,,,,-0.328125,-0.022222222,1,0,0,,0,2,2,6,1,-0.33,0,11,001,2024-12-04_12h06.23.139,Attention_exp_legacy,2023.1.0,Win32,60.24096386,,,,,,,,,,,,,,,,,,,,,,,,,,,,,,,,,,,,,,,,,,,,
,,,,,,,-0.320833333,0.655555556,1,0,0,,0,3,3,8,1,-0.33,0.67,11,001,2024-12-04_12h06.23.139,Attention_exp_legacy,2023.1.0,Win32,60.24096386,,,,,,,,,,,,,,,,,,,,,,,,,,,,,,,,,,,,,,,,,,,,
,,,,,,,-0.667708333,-0.340740741,1,0,0,,0,4,4,1,1,-0.67,-0.33,11,001,2024-12-04_12h06.23.139,Attention_exp_legacy,2023.1.0,Win32,60.24096386,,,,,,,,,,,,,,,,,,,,,,,,,,,,,,,,,,,,,,,,,,,,
,,,,,,,-0.334375,0.325925926,1,0,0,calibration_square,0,5,5,7,1,-0.33,0.33,11,001,2024-12-04_12h06.23.139,Attention_exp_legacy,2023.1.0,Win32,60.24096386,,,,,,,,,,,,,,,,,,,,,,,,,,,,,,,,,,,,,,,,,,,,
,,,,,,,0.001041667,-0.324074074,1,0,0,calibration_square,0,6,6,10,1,0,-0.33,11,001,2024-12-04_12h06.23.139,Attention_exp_legacy,2023.1.0,Win32,60.24096386,,,,,,,,,,,,,,,,,,,,,,,,,,,,,,,,,,,,,,,,,,,,
,,,,,,,0.671875,0.662962963,1,0,0,calibration_square,0,7,7,19,1,0.67,0.67,11,001,2024-12-04_12h06.23.139,Attention_exp_legacy,2023.1.0,Win32,60.24096386,,,,,,,,,,,,,,,,,,,,,,,,,,,,,,,,,,,,,,,,,,,,
,,,,,,,-0.326041667,-0.318518519,1,0,0,,0,8,8,5,1,-0.33,-0.33,11,001,2024-12-04_12h06.23.139,Attention_exp_legacy,2023.1.0,Win32,60.24096386,,,,,,,,,,,,,,,,,,,,,,,,,,,,,,,,,,,,,,,,,,,,
,,,,,,,0.340625,-0.659259259,1,0,0,,0,9,9,14,1,0.33,-0.67,11,001,2024-12-04_12h06.23.139,Attention_exp_legacy,2023.1.0,Win32,60.24096386,,,,,,,,,,,,,,,,,,,,,,,,,,,,,,,,,,,,,,,,,,,,
,,,,,,,-0.0125,0,1,0,0,,0,10,10,11,1,0,0,11,001,2024-12-04_12h06.23.139,Attention_exp_legacy,2023.1.0,Win32,60.24096386,,,,,,,,,,,,,,,,,,,,,,,,,,,,,,,,,,,,,,,,,,,,
,,,,,,,0.336458333,0.331481481,1,0,0,calibration_square,0,11,11,17,1,0.33,0.33,11,001,2024-12-04_12h06.23.139,Attention_exp_legacy,2023.1.0,Win32,60.24096386,,,,,,,,,,,,,,,,,,,,,,,,,,,,,,,,,,,,,,,,,,,,
,,,,,,,-0.677083333,-0.666666667,1,0,0,calibration_square,0,12,12,0,1,-0.67,-0.67,11,001,2024-12-04_12h06.23.139,Attention_exp_legacy,2023.1.0,Win32,60.24096386,,,,,,,,,,,,,,,,,,,,,,,,,,,,,,,,,,,,,,,,,,,,
,,,,,,,-0.673958333,0.011111111,1,0,0,,0,13,13,2,1,-0.67,0,11,001,2024-12-04_12h06.23.139,Attention_exp_legacy,2023.1.0,Win32,60.24096386,,,,,,,,,,,,,,,,,,,,,,,,,,,,,,,,,,,,,,,,,,,,
,,,,,,,-0.011458333,-0.661111111,1,0,0,,0,14,14,9,1,0,-0.67,11,001,2024-12-04_12h06.23.139,Attention_exp_legacy,2023.1.0,Win32,60.24096386,,,,,,,,,,,,,,,,,,,,,,,,,,,,,,,,,,,,,,,,,,,,
,,,,,,,0.332291667,0.655555556,1,0,0,,0,15,15,18,1,0.33,0.67,11,001,2024-12-04_12h06.23.139,Attention_exp_legacy,2023.1.0,Win32,60.24096386,,,,,,,,,,,,,,,,,,,,,,,,,,,,,,,,,,,,,,,,,,,,
,,,,,,,0.675,-0.664814815,1,0,0,calibration_square,0,16,16,20,1,0.67,-0.67,11,001,2024-12-04_12h06.23.139,Attention_exp_legacy,2023.1.0,Win32,60.24096386,,,,,,,,,,,,,,,,,,,,,,,,,,,,,,,,,,,,,,,,,,,,
,,,,,,,0.338541667,-0.340740741,1,0,0,,0,17,17,15,1,0.33,-0.33,11,001,2024-12-04_12h06.23.139,Attention_exp_legacy,2023.1.0,Win32,60.24096386,,,,,,,,,,,,,,,,,,,,,,,,,,,,,,,,,,,,,,,,,,,,
,,,,,,,-0.661458333,0.335185185,1,0,0,calibration_square,0,18,18,3,1,-0.67,0.33,11,001,2024-12-04_12h06.23.139,Attention_exp_legacy,2023.1.0,Win32,60.24096386,,,,,,,,,,,,,,,,,,,,,,,,,,,,,,,,,,,,,,,,,,,,
,,,,,,,0.335416667,0.038888889,1,0,0,,0,19,19,16,1,0.33,0,11,001,2024-12-04_12h06.23.139,Attention_exp_legacy,2023.1.0,Win32,60.24096386,,,,,,,,,,,,,,,,,,,,,,,,,,,,,,,,,,,,,,,,,,,,
,,,,,,,-0.33125,-0.666666667,1,0,0,calibration_square,0,20,20,4,1,-0.33,-0.67,11,001,2024-12-04_12h06.23.139,Attention_exp_legacy,2023.1.0,Win32,60.24096386,,,,,,,,,,,,,,,,,,,,,,,,,,,,,,,,,,,,,,,,,,,,
,,,,,,,,,,,,,,,,,,,,11,001,2024-12-04_12h06.23.139,Attention_exp_legacy,2023.1.0,Win32,60.24096386,"[1920,1080]",[-0.03958333333333333],[-0.4777777777777778],[1],[0],[0],[0.8834000000059561],"[""StartButton""]","[640,480]","[0.004166666666666667,0.00625]","[0.014814814814814815,0.1925925925925926]","[1,1]","[0,0]","[0,0]","[2.8718999999985044,3.7079999999999984]","[""Option1_label""]",Option1_label,1,4.7287,"[[-0.014583333333333334,-0.2759259259259259],[-0.014583333333333334,-0.2759259259259259],[-0.014583333333333334,-0.2759259259259259],[-0.014583333333333334,-0.2759259259259259],[-0.014583333333333334,-0.2759259259259259],[-0.014583333333333334,-0.2759259259259259],[-0.014583333333333334,-0.2759259259259259],[-0.014583333333333334,-0.2759259259259259],[-0.014583333333333334,-0.2759259259259259],[-0.014583333333333334,-0.2759259259259259],[-0.014583333333333334,-0.2759259259259259],[-0.014583333333333334,-0.2759259259259259],[-0.014583333333333334,-0.2759259259259259],[-0.014583333333333334,-0.2759259259259259],[-0.014583333333333334,-0.2759259259259259],[-0.014583333333333334,-0.2759259259259259],[-0.014583333333333334,-0.2759259259259259],[-0.014583333333333334,-0.2759259259259259],[-0.014583333333333334,-0.2759259259259259],[-0.014583333333333334,-0.2759259259259259],[-0.014583333333333334,-0.2759259259259259],[-0.014583333333333334,-0.2759259259259259],[-0.014583333333333334,-0.2759259259259259],[-0.014583333333333334,-0.2759259259259259],[-0.014583333333333334,-0.2759259259259259],[-0.014583333333333334,-0.2759259259259259],[-0.014583333333333334,-0.2759259259259259],[-0.014583333333333334,-0.2759259259259259],[-0.014583333333333334,-0.2759259259259259],[-0.014583333333333334,-0.2759259259259259],[-0.014583333333333334,-0.2759259259259259],[-0.014583333333333334,-0.2759259259259259],[-0.014583333333333334,-0.2759259259259259],[-0.014583333333333334,-0.2759259259259259],[-0.014583333333333334,-0.2759259259259259],[-0.014583333333333334,-0.27037037037037037],[-0.0125,-0.26296296296296295],[-0.010416666666666666,-0.2537037037037037],[-0.010416666666666666,-0.24444444444444444],[-0.008333333333333333,-0.2351851851851852],[-0.007291666666666667,-0.22407407407407406],[-0.005208333333333333,-0.22037037037037038],[-0.005208333333333333,-0.21296296296296297],[-0.004166666666666667,-0.2074074074074074],[-0.003125,-0.2],[0,-0.18333333333333332],[0.0020833333333333333,-0.1685185185185185],[0.004166666666666667,-0.15185185185185185],[0.008333333333333333,-0.13333333333333333],[0.010416666666666666,-0.11666666666666667],[0.015625,-0.0962962962962963],[0.017708333333333333,-0.07407407407407407],[0.01875,-0.053703703703703705],[0.021875,-0.03333333333333333],[0.023958333333333335,0],[0.027083333333333334,0.024074074074074074],[0.029166666666666667,0.03148148148148148],[0.03229166666666667,0.05555555555555555],[0.03229166666666667,0.06666666666666667],[0.03229166666666667,0.07222222222222222],[0.03229166666666667,0.07592592592592592],[0.03229166666666667,0.07592592592592592],[0.03229166666666667,0.07962962962962963],[0.028125,0.07962962962962963],[0.014583333333333334,0.07962962962962963],[0,0.07962962962962963],[-0.015625,0.07777777777777778],[-0.026041666666666668,0.07222222222222222],[-0.034375,0.06666666666666667],[-0.0375,0.06481481481481481],[-0.03958333333333333,0.06111111111111111],[-0.041666666666666664,0.05740740740740741],[-0.042708333333333334,0.04814814814814815],[-0.04375,0.044444444444444446],[-0.04583333333333333,0.03888888888888889],[-0.046875,0.03148148148148148],[-0.04895833333333333,0.018518518518518517],[-0.05,0.014814814814814815],[-0.052083333333333336,-0.001851851851851852],[-0.05416666666666667,-0.014814814814814815],[-0.05416666666666667,-0.027777777777777776],[-0.05520833333333333,-0.037037037037037035],[-0.05520833333333333,-0.05],[-0.053125,-0.053703703703703705],[-0.051041666666666666,-0.05740740740740741],[-0.04895833333333333,-0.05740740740740741],[-0.041666666666666664,-0.05740740740740741],[-0.028125,-0.05740740740740741],[-0.0125,-0.05740740740740741],[0.004166666666666667,-0.05740740740740741],[0.01875,-0.053703703703703705],[0.027083333333333334,-0.05185185185185185],[0.028125,-0.05185185185185185],[0.030208333333333334,-0.05185185185185185],[0.034375,-0.05185185185185185],[0.041666666666666664,-0.05185185185185185],[0.051041666666666666,-0.05185185185185185],[0.06041666666666667,-0.05185185185185185],[0.06875,-0.05185185185185185],[0.07291666666666667,-0.05185185185185185],[0.075,-0.05185185185185185],[0.075,-0.05185185185185185],[0.075,-0.05185185185185185],[0.075,-0.05185185185185185],[0.075,-0.05185185185185185],[0.075,-0.05185185185185185],[0.075,-0.053703703703703705],[0.075,-0.05555555555555555],[0.075,-0.05925925925925926],[0.075,-0.05925925925925926],[0.075,-0.06111111111111111],[0.075,-0.06481481481481481],[0.075,-0.06481481481481481],[0.075,-0.06666666666666667],[0.07083333333333333,-0.06666666666666667],[0.057291666666666664,-0.06666666666666667],[0.041666666666666664,-0.06666666666666667],[0.020833333333333332,-0.06666666666666667],[0.013541666666666667,-0.06666666666666667],[0.008333333333333333,-0.05925925925925926],[0.00625,-0.053703703703703705],[0.005208333333333333,-0.04259259259259259],[0.005208333333333333,-0.03518518518518519],[0.004166666666666667,-0.024074074074074074],[0.004166666666666667,-0.018518518518518517],[0.004166666666666667,-0.009259259259259259],[0.004166666666666667,-0.007407407407407408],[0.004166666666666667,-0.005555555555555556],[0.004166666666666667,-0.003703703703703704],[0.004166666666666667,0.001851851851851852],[0.004166666666666667,0.003703703703703704],[0.004166666666666667,0.007407407407407408],[0.004166666666666667,0.011111111111111112],[0.004166666666666667,0.012962962962962963],[0.004166666666666667,0.014814814814814815],[0.004166666666666667,0.014814814814814815],[0.004166666666666667,0.014814814814814815],[0.004166666666666667,0.014814814814814815],[0.004166666666666667,0.014814814814814815],[0.004166666666666667,0.014814814814814815],[0.004166666666666667,0.014814814814814815],[0.004166666666666667,0.014814814814814815],[0.004166666666666667,0.014814814814814815],[0.004166666666666667,0.014814814814814815],[0.004166666666666667,0.014814814814814815],[0.004166666666666667,0.014814814814814815],[0.004166666666666667,0.014814814814814815],[0.004166666666666667,0.014814814814814815],[0.004166666666666667,0.014814814814814815],[0.004166666666666667,0.014814814814814815],[0.004166666666666667,0.014814814814814815],[0.004166666666666667,0.014814814814814815],[0.004166666666666667,0.014814814814814815],[0.004166666666666667,0.014814814814814815],[0.004166666666666667,0.014814814814814815],[0.004166666666666667,0.014814814814814815],[0.004166666666666667,0.014814814814814815],[0.004166666666666667,0.014814814814814815],[0.004166666666666667,0.014814814814814815],[0.004166666666666667,0.014814814814814815],[0.004166666666666667,0.014814814814814815],[0.004166666666666667,0.014814814814814815],[0.004166666666666667,0.014814814814814815],[0.004166666666666667,0.014814814814814815],[0.004166666666666667,0.014814814814814815],[0.004166666666666667,0.014814814814814815],[0.004166666666666667,0.014814814814814815],[0.004166666666666667,0.014814814814814815],[0.004166666666666667,0.014814814814814815],[0.004166666666666667,0.014814814814814815],[0.004166666666666667,0.014814814814814815],[0.004166666666666667,0.014814814814814815],[0.004166666666666667,0.014814814814814815],[0.004166666666666667,0.014814814814814815],[0.004166666666666667,0.014814814814814815],[0.004166666666666667,0.014814814814814815],[0.004166666666666667,0.014814814814814815],[0.004166666666666667,0.014814814814814815],[0.004166666666666667,0.014814814814814815],[0.004166666666666667,0.014814814814814815],[0.004166666666666667,0.014814814814814815],[0.004166666666666667,0.014814814814814815],[0.004166666666666667,0.014814814814814815],[0.004166666666666667,0.014814814814814815],[0.004166666666666667,0.014814814814814815],[0.004166666666666667,0.014814814814814815],[0.004166666666666667,0.014814814814814815],[0.004166666666666667,0.014814814814814815],[0.004166666666666667,0.014814814814814815],[0.004166666666666667,0.014814814814814815],[0.004166666666666667,0.014814814814814815],[0.004166666666666667,0.014814814814814815],[0.004166666666666667,0.014814814814814815],[0.004166666666666667,0.014814814814814815],[0.004166666666666667,0.014814814814814815],[0.004166666666666667,0.014814814814814815],[0.004166666666666667,0.014814814814814815],[0.004166666666666667,0.014814814814814815],[0.004166666666666667,0.014814814814814815],[0.004166666666666667,0.014814814814814815],[0.004166666666666667,0.014814814814814815],[0.004166666666666667,0.014814814814814815],[0.004166666666666667,0.014814814814814815],[0.004166666666666667,0.014814814814814815],[0.004166666666666667,0.014814814814814815],[0.004166666666666667,0.018518518518518517],[0.004166666666666667,0.03518518518518519],[0.005208333333333333,0.06666666666666667],[0.00625,0.0962962962962963],[0.00625,0.12777777777777777],[0.00625,0.1537037037037037],[0.00625,0.17037037037037037],[0.00625,0.17962962962962964],[0.00625,0.18703703703703703],[0.00625,0.18888888888888888],[0.00625,0.18888888888888888],[0.00625,0.1925925925925926],[0.00625,0.1925925925925926],[0.00625,0.1925925925925926],[0.00625,0.1925925925925926],[0.00625,0.1925925925925926],[0.00625,0.1925925925925926],[0.00625,0.1925925925925926],[0.00625,0.1925925925925926],[0.00625,0.1925925925925926],[0.00625,0.1925925925925926],[0.00625,0.1925925925925926],[0.00625,0.1925925925925926],[0.00625,0.1925925925925926],[0.00625,0.1925925925925926],[0.00625,0.1925925925925926],[0.00625,0.1925925925925926],[0.00625,0.1925925925925926],[0.00625,0.1925925925925926],[0.00625,0.1925925925925926],[0.00625,0.1925925925925926],[0.00625,0.1925925925925926],[0.00625,0.1925925925925926],[0.00625,0.18703703703703703],[0.00625,0.17777777777777778],[0.00625,0.17037037037037037],[0.00625,0.16666666666666666],[0.00625,0.1648148148148148],[0.00625,0.16111111111111112],[0.00625,0.15925925925925927],[0.00625,0.15925925925925927],[0.00625,0.15925925925925927],[0.00625,0.15925925925925927],[0.00625,0.15925925925925927],[0.00625,0.15925925925925927],[0.00625,0.15925925925925927],[0.00625,0.15925925925925927],[0.00625,0.15925925925925927],[0.00625,0.15925925925925927],[0.00625,0.15925925925925927],[0.00625,0.15925925925925927],[0.00625,0.15925925925925927],[0.00625,0.15925925925925927],[0.00625,0.15925925925925927],[0.00625,0.15925925925925927],[0.00625,0.15925925925925927],[0.00625,0.15925925925925927],[0.00625,0.15925925925925927],[0.00625,0.15925925925925927],[0.00625,0.15925925925925927],[0.00625,0.15925925925925927],[0.00625,0.15925925925925927],[0.00625,0.15925925925925927],[0.00625,0.15925925925925927],[0.00625,0.15925925925925927],[0.00625,0.15925925925925927],[0.00625,0.15925925925925927],[0.00625,0.15925925925925927],[0.00625,0.15925925925925927],[0.00625,0.15925925925925927],[0.00625,0.15925925925925927],[0.00625,0.15925925925925927],[0.00625,0.15925925925925927],[0.00625,0.15925925925925927],[0.00625,0.15925925925925927],[0.00625,0.15925925925925927],[0.00625,0.15925925925925927],[0.00625,0.15925925925925927],[0.00625,0.15925925925925927]]","[[0.2007291666666667,0.07537037037037045],[0.2007291666666667,0.07537037037037045],[0.20437500000000006,0.027037037037037078],[0.21875,0.010740740740740657],[0.2055208333333333,-0.02370370370370362],[0.203125,-0.02759259259259255],[0.16104166666666658,-0.07370370370370373],[0.11520833333333323,-0.13259259259259262],[0.11885416666666657,-0.15018518518518523],[0.15343749999999995,-0.13333333333333333],[0.15750000000000006,-0.15314814814814812],[0.15260416666666668,-0.14425925925925923],[0.1423958333333334,-0.11833333333333329],[0.13125,-0.1022222222222222],[0.1243750000000001,-0.1],[0.14729166666666677,-0.06629629629629631],[0.18624999999999994,-0.044999999999999915],[0.22864583333333333,-0.017592592592592594],[0.22156250000000005,-0.03148148148148148],[0.1759375000000001,-0.032407407407407406],[0.1564583333333334,-0.01777777777777782],[0.14010416666666667,-0.021851851851851768],[0.12177083333333343,-0.04407407407407399],[0.13739583333333344,-0.030555555555555555],[0.17979166666666657,-0.011111111111111112],[0.15968749999999995,-0.0448148148148149],[0.13895833333333343,-0.07018518518518514],[0.11479166666666671,-0.10166666666666663],[0.08687500000000009,-0.1301851851851852],[0.09458333333333328,-0.17851851851851847],[0.13531250000000009,-0.18740740740740738],[0.16291666666666677,-0.2116666666666667],[0.17020833333333343,-0.22962962962962963],[0.12781250000000005,-0.2777777777777778],[0.11614583333333334,-0.30481481481481487],[0.13177083333333334,-0.30111111111111116],[0.11666666666666667,-0.29203703703703704],[0.11666666666666667,-0.29203703703703704],[0.10864583333333329,-0.23851851851851855],[0.11979166666666667,-0.24981481481481477],[0.11218750000000005,-0.225],[0.11218750000000005,-0.225],[0.08499999999999991,-0.17907407407407405],[0.08499999999999991,-0.17907407407407405],[0.07916666666666666,-0.15],[0.08229166666666667,-0.09666666666666665],[0.09822916666666662,-0.03759259259259251],[0.07000000000000005,-0.042407407407407366],[0.041770833333333354,-0.04722222222222222],[0.03343750000000002,-0.040740740740740744],[0.030624999999999975,-0.052037037037037076],[0.012395833333333309,-0.0014814814814813973],[-0.002291666666666714,0.008888888888888804],[-0.026041666666666668,-0.020185185185185143],[-0.04354166666666662,0.012777777777777735],[-0.03770833333333338,-0.04259259259259259],[-0.05802083333333338,-0.07185185185185188],[-0.05802083333333338,-0.07185185185185188],[-0.07593749999999998,-0.06851851851851852],[-0.07489583333333331,-0.040740740740740744],[-0.07489583333333331,-0.040740740740740744],[-0.09864583333333338,-0.035740740740740656],[-0.09864583333333338,-0.035740740740740656],[-0.11010416666666671,-0.04000000000000004],[-0.11010416666666671,-0.04000000000000004],[-0.10333333333333337,-0.08925925925925923],[-0.09135416666666671,-0.12981481481481486],[-0.0702083333333333,-0.172037037037037],[-0.06229166666666662,-0.17592592592592593],[-0.06229166666666662,-0.17592592592592593],[-0.06229166666666662,-0.16203703703703703],[-0.06229166666666662,-0.16203703703703703],[-0.05791666666666669,-0.15481481481481485],[-0.04666666666666662,-0.1425925925925926],[-0.04666666666666662,-0.1425925925925926],[-0.04552083333333338,-0.15166666666666662],[-0.018229166666666668,-0.14611111111111108],[-0.018229166666666668,-0.14611111111111108],[-0.015104166666666667,-0.15407407407407406],[-0.015104166666666667,-0.15407407407407406],[-0.024895833333333308,-0.1205555555555556],[-0.024895833333333308,-0.1205555555555556],[-0.021979166666666692,-0.09277777777777782],[-0.027291666666666714,-0.0507407407407407],[-0.07291666666666667,-0.04314814814814806],[-0.10854166666666672,-0.005185185185185101],[-0.10229166666666671,-0.0003703703703704546],[-0.08145833333333338,0.011481481481481566],[-0.06947916666666672,0.020185185185185143],[-0.08166666666666664,0.030740740740740784],[-0.09458333333333328,0.03740740740740749],[-0.10791666666666669,0.04000000000000004],[-0.12104166666666671,0.05055555555555547],[-0.12104166666666671,0.05055555555555547],[-0.12770833333333337,0.034074074074074034],[-0.0938541666666667,0.017407407407407365],[-0.07427083333333329,0.0001851851851852273],[-0.075,0.008148148148148106],[-0.0765625,0.009259259259259259],[-0.078125,0.010370370370370412],[-0.04697916666666669,0.010740740740740657],[-0.019166666666666644,0.009999999999999959],[0.009062500000000048,0.015000000000000043],[0.03729166666666662,-0.0020370370370370794],[0.03968750000000002,0.011296296296296339],[0.0375,0.009814814814814731],[0.03791666666666664,0.004259259259259175],[0.0625,-0.0294444444444444],[0.06885416666666658,-0.059999999999999956],[0.06020833333333329,-0.05555555555555555],[0.04666666666666662,-0.052222222222222205],[0.04666666666666662,-0.052222222222222205],[0.059895833333333336,-0.05481481481481486],[0.06208333333333336,-0.05018518518518523],[0.06208333333333336,-0.05018518518518523],[0.060104166666666715,-0.026666666666666623],[0.07625000000000005,0.007592592592592635],[0.10916666666666662,0.02759259259259255],[0.11427083333333338,0.034999999999999955],[0.0640625,0.08277777777777787],[0.022500000000000023,0.13240740740740742],[-0.03458333333333338,0.19814814814814816],[-0.03145833333333338,0.19277777777777783],[-0.051770833333333384,0.19444444444444445],[-0.09166666666666666,0.23166666666666672],[-0.09166666666666666,0.23166666666666672],[-0.10218750000000003,0.22870370370370371],[-0.08614583333333338,0.21592592592592597],[-0.09343750000000005,0.1896296296296296],[-0.10093749999999997,0.19240740740740736],[-0.05239583333333329,0.16296296296296298],[0.005312500000000024,0.12851851851851848],[0.06687500000000005,0.08259259259259263],[0.06822916666666666,0.10777777777777786],[0.052187500000000026,0.11462962962962958],[0.06583333333333338,0.07092592592592584],[0.03968750000000002,0.07518518518518523],[0.025833333333333285,0.08037037037037033],[0.005208333333333333,0.10351851851851848],[0.051770833333333384,0.11518518518518527],[0.07364583333333338,0.13537037037037042],[0.05645833333333338,0.1625925925925925],[0.1146874999999999,0.11833333333333329],[0.14208333333333342,0.06425925925925935],[0.18489583333333334,0.0514814814814814],[0.20197916666666677,0.056296296296296254],[0.23666666666666672,0.061666666666666585],[0.22979166666666656,0.04407407407407399],[0.27791666666666665,-0.005555555555555556],[0.2842708333333334,-0.05611111111111113],[0.2484375,-0.050370370370370454],[0.24249999999999997,-0.04666666666666675],[0.17395833333333333,-0.052962962962963],[0.13989583333333327,-0.019444444444444445],[0.13208333333333327,-0.01907407407407399],[0.14072916666666657,-0.01703703703703712],[0.14520833333333344,-0.012407407407407492],[0.15270833333333325,-0.0025925925925925505],[0.11937499999999991,0.05259259259259255],[0.0734375,0.08796296296296297],[0.0696875000000001,0.06703703703703712],[0.05302083333333331,0.06462962962962959],[0.05020833333333338,0.10407407407407415],[0.06052083333333336,0.06777777777777783],[0.04593750000000003,0.10314814814814824],[0.019479166666666714,0.08574074074074066],[-0.005833333333333357,0.06055555555555564],[-0.010208333333333286,0.03296296296296288],[-0.015416666666666618,0.001851851851851852],[-0.029166666666666667,-0.0022222222222223064],[-0.049687500000000044,-0.009074074074074031],[-0.049687500000000044,-0.009074074074074031],[-0.06020833333333329,-0.03481481481481473],[-0.06770833333333333,-0.03981481481481482],[-0.08364583333333328,-0.003703703703703704],[-0.10093749999999997,-0.02962962962962963],[-0.10552083333333329,-0.020740740740740823],[-0.09645833333333335,-0.011296296296296339],[-0.11979166666666667,0.011666666666666582],[-0.12927083333333336,0.023333333333333376],[-0.11291666666666664,0.03851851851851843],[-0.11083333333333331,0.051666666666666625],[-0.09708333333333338,0.05592592592592601],[-0.08635416666666665,0.03944444444444436],[-0.07052083333333338,-0.0020370370370370794],[-0.060104166666666715,-0.022777777777777692],[-0.04812500000000005,-0.030555555555555555],[-0.05447916666666662,-0.052962962962963],[-0.043229166666666666,-0.09444444444444444],[-0.043229166666666666,-0.09444444444444444],[-0.035312499999999976,-0.102962962962963],[-0.044270833333333336,-0.09851851851851849],[-0.03125,-0.08759259259259261],[-0.03812500000000003,-0.062407407407407384],[-0.04500000000000005,-0.03722222222222227],[-0.06854166666666663,0.01648148148148144],[-0.05510416666666664,0.06851851851851852],[-0.03916666666666669,0.11592592592592597],[-0.041875000000000044,0.15777777777777785],[-0.050729166666666714,0.20759259259259263],[-0.07989583333333337,0.24611111111111106],[-0.10833333333333334,0.23425925925925925],[-0.10479166666666669,0.24648148148148152],[-0.09010416666666667,0.2537037037037037],[-0.06375000000000004,0.23259259259259263],[-0.034166666666666616,0.2125925925925925],[-0.05364583333333333,0.17333333333333337],[-0.0907291666666667,0.10796296296296289],[-0.0875,0.07407407407407407],[-0.0875,0.07407407407407407],[-0.08343750000000003,0.05129629629629638],[-0.07166666666666661,0.03129629629629625],[-0.04520833333333331,0.027222222222222307],[-0.05020833333333338,0.03259259259259263],[-0.05520833333333333,0.03796296296296296],[-0.10302083333333331,0.0020370370370370794],[-0.14677083333333332,-0.034074074074074034],[-0.1610416666666667,-0.06981481481481479],[-0.15354166666666663,-0.0712962962962963],[-0.16302083333333334,-0.08462962962962961],[-0.1492708333333333,-0.08314814814814811],[-0.13343750000000001,-0.0948148148148148],[-0.1486458333333334,-0.12833333333333335],[-0.16531250000000006,-0.19703703703703698],[-0.15072916666666672,-0.2512962962962963],[-0.12093750000000002,-0.2524074074074074],[-0.1123958333333333,-0.22407407407407406],[-0.11385416666666662,-0.19537037037037036],[-0.12666666666666668,-0.21351851851851855],[-0.15822916666666664,-0.1727777777777778],[-0.16927083333333334,-0.18351851851851855],[-0.1866666666666667,-0.19944444444444442],[-0.1672916666666667,-0.18944444444444447],[-0.12864583333333332,-0.19185185185185188],[-0.1234375,-0.2088888888888889],[-0.11281249999999995,-0.2094444444444445],[-0.08500000000000002,-0.23925925925925923],[-0.08500000000000002,-0.23925925925925923],[-0.0640625,-0.2518518518518518],[-0.0640625,-0.2518518518518518],[-0.03760416666666669,-0.22611111111111115],[0.01885416666666669,-0.28407407407407403],[0.01885416666666669,-0.28407407407407403],[0.024687500000000046,-0.2887037037037037],[0.024687500000000046,-0.2887037037037037],[0.02041666666666669,-0.3005555555555556],[0.02041666666666669,-0.3005555555555556],[-0.016875000000000046,-0.3081481481481481],[-0.016875000000000046,-0.3081481481481481],[-0.044375000000000026,-0.27388888888888885],[-0.09093749999999995,-0.20388888888888893],[-0.12395833333333334,-0.1418518518518519],[-0.17927083333333335,-0.06129629629629634],[-0.2140625,-0.018333333333333292],[-0.2664583333333333,0.08351851851851856],[-0.2703125,0.14092592592592595],[-0.268125,0.1625925925925925],[-0.28552083333333333,0.1905555555555555],[-0.2794791666666666,0.21574074074074073],[-0.29750000000000004,0.21666666666666667],[-0.2942708333333333,0.18203703703703694],[-0.2942708333333333,0.18203703703703694],[-0.2908333333333334,0.1088888888888888],[-0.2625,0.03462962962962971],[-0.24354166666666663,0.009999999999999959],[-0.20083333333333328,-0.09814814814814815],[-0.22541666666666665,-0.12166666666666665],[-0.25,-0.13722222222222227],[-0.234375,-0.127962962962963],[-0.21583333333333338,-0.12629629629629627],[-0.2,-0.15925925925925927],[-0.18416666666666662,-0.19222222222222224],[-0.1788541666666667,-0.15759259259259265],[-0.1788541666666667,-0.15759259259259265],[-0.1703125,-0.12962962962962962],[-0.16635416666666672,-0.12685185185185185],[-0.1586458333333333,-0.08296296296296299],[-0.14343750000000005,-0.0544444444444444],[-0.1516666666666667,-0.038703703703703664],[-0.12781250000000005,0.008333333333333333],[-0.10625,0.06814814814814807],[-0.15635416666666668,0.19166666666666668],[-0.20958333333333337,0.3077777777777779],[-0.2482291666666666,0.4094444444444445]]","[[0.2007291666666667,0.07537037037037045,0.00010000000148835397],[0.2007291666666667,0.07537037037037045,0.03510000000149205],[0.20437500000000006,0.027037037037037078,0.04520000000297841],[0.21875,0.010740740740740657,0.06180000000446739],[0.2055208333333333,-0.02370370370370362,0.07839999999850988],[0.203125,-0.02759259259259255,0.09510000000148722],[0.16104166666666658,-0.07370370370370373,0.11189999999850642],[0.11520833333333323,-0.13259259259259262,0.12839999999850704],[0.11885416666666657,-0.15018518518518523,0.14510000000149148],[0.15343749999999995,-0.13333333333333333,0.16330000000446887],[0.15750000000000006,-0.15314814814814812,0.1783999999985113],[0.15260416666666668,-0.14425925925925923,0.19510000000148864],[0.1423958333333334,-0.11833333333333329,0.21170000000297762],[0.13125,-0.1022222222222222,0.22839999999850846],[0.1243750000000001,-0.1,0.24499999999999744],[0.14729166666666677,-0.06629629629629631,0.2652000000029773],[0.18624999999999994,-0.044999999999999915,0.2809999999999988],[0.22864583333333333,-0.017592592592592594,0.29510000000149006],[0.22156250000000005,-0.03148148148148148,0.3118000000044674],[0.1759375000000001,-0.032407407407407406,0.3283999999985099],[0.1564583333333334,-0.01777777777777782,0.3451000000014872],[0.14010416666666667,-0.021851851851851768,0.3643000000044694],[0.12177083333333343,-0.04407407407407399,0.37839999999850704],[0.13739583333333344,-0.030555555555555555,0.3967000000029799],[0.17979166666666657,-0.011111111111111112,0.4118000000044688],[0.15968749999999995,-0.0448148148148149,0.43130000000446955],[0.13895833333333343,-0.07018518518518514,0.447499999999998],[0.11479166666666671,-0.10166666666666663,0.46720000000298256],[0.08687500000000009,-0.1301851851851852,0.48189999999851096],[0.09458333333333328,-0.17851851851851847,0.4953999999985115],[0.13531250000000009,-0.18740740740740738,0.5117000000029819],[0.16291666666666677,-0.2116666666666667,0.5283999999985127],[0.17020833333333343,-0.22962962962962963,0.5451000000014901],[0.12781250000000005,-0.2777777777777778,0.5660000000000025],[0.11614583333333334,-0.30481481481481487,0.5823000000044729],[0.13177083333333334,-0.30111111111111116,0.5993999999985107],[0.11666666666666667,-0.29203703703703704,0.6163000000044718],[0.11666666666666667,-0.29203703703703704,0.6287000000029792],[0.10864583333333329,-0.23851851851851855,0.6454999999999984],[0.11979166666666667,-0.24981481481481477,0.6673999999985085],[0.11218750000000005,-0.225,0.6835000000000022],[0.11218750000000005,-0.225,0.6953000000044725],[0.08499999999999991,-0.17907407407407405,0.7121000000014917],[0.08499999999999991,-0.17907407407407405,0.7313000000044667],[0.07916666666666666,-0.15,0.7453000000044696],[0.08229166666666667,-0.09666666666666665,0.7650000000000006],[0.09822916666666662,-0.03759259259259251,0.7834999999999965],[0.07000000000000005,-0.042407407407407366,0.7984999999999971],[0.041770833333333354,-0.04722222222222222,0.8143000000044722],[0.03343750000000002,-0.040740740740740744,0.8344999999999985],[0.030624999999999975,-0.052037037037037076,0.8496000000014874],[0.012395833333333309,-0.0014814814814813973,0.8652000000029787],[-0.002291666666666714,0.008888888888888804,0.8791000000014861],[-0.026041666666666668,-0.020185185185185143,0.89820000000298],[-0.04354166666666662,0.012777777777777735,0.9143000000044665],[-0.03770833333333338,-0.04259259259259259,0.9302000000029764],[-0.05802083333333338,-0.07185185185185188,0.9497000000029772],[-0.05802083333333338,-0.07185185185185188,0.9618999999985078],[-0.07593749999999998,-0.06851851851851852,0.9788999999985109],[-0.07489583333333331,-0.040740740740740744,1.0015],[-0.07489583333333331,-0.040740740740740744,1.0165000000000006],[-0.09864583333333338,-0.035740740740740656,1.0283999999985127],[-0.09864583333333338,-0.035740740740740656,1.0458000000044692],[-0.11010416666666671,-0.04000000000000004,1.0656000000014885],[-0.11010416666666671,-0.04000000000000004,1.0784999999999982],[-0.10333333333333337,-0.08925925925925923,1.095300000004471],[-0.09135416666666671,-0.12981481481481486,1.1143999999985112],[-0.0702083333333333,-0.172037037037037,1.1288999999985094],[-0.06229166666666662,-0.17592592592592593,1.1468999999985101],[-0.06229166666666662,-0.17592592592592593,1.1618999999985107],[-0.06229166666666662,-0.16203703703703703,1.1822000000029789],[-0.06229166666666662,-0.16203703703703703,1.1953000000044725],[-0.05791666666666669,-0.15481481481481485,1.2119999999999962],[-0.04666666666666662,-0.1425925925925926,1.2353999999985064],[-0.04666666666666662,-0.1425925925925926,1.2453000000044696],[-0.04552083333333338,-0.15166666666666662,1.2620000000000005],[-0.018229166666666668,-0.14611111111111108,1.282100000001492],[-0.018229166666666668,-0.14611111111111108,1.301000000000002],[-0.015104166666666667,-0.15407407407407406,1.3118999999985093],[-0.015104166666666667,-0.15407407407407406,1.3284999999999982],[-0.024895833333333308,-0.1205555555555556,1.349899999998506],[-0.024895833333333308,-0.1205555555555556,1.3620000000000019],[-0.021979166666666692,-0.09277777777777782,1.3786000000014909],[-0.027291666666666714,-0.0507407407407407,1.3987000000029823],[-0.07291666666666667,-0.04314814814814806,1.4136000000014874],[-0.10854166666666672,-0.005185185185185101,1.428600000001488],[-0.10229166666666671,-0.0003703703703704546,1.4481000000014888],[-0.08145833333333338,0.011481481481481566,1.4657000000029825],[-0.06947916666666672,0.020185185185185143,1.4789999999999992],[-0.08166666666666664,0.030740740740740784,1.4952000000029813],[-0.09458333333333328,0.03740740740740749,1.5157000000029797],[-0.10791666666666669,0.04000000000000004,1.530399999998508],[-0.12104166666666671,0.05055555555555547,1.5453000000044668],[-0.12104166666666671,0.05055555555555547,1.5619999999999976],[-0.12770833333333337,0.034074074074074034,1.581000000000003],[-0.0938541666666667,0.017407407407407365,1.595300000004471],[-0.07427083333333329,0.0001851851851852273,1.6118000000044717],[-0.075,0.008148148148148106,1.6318999999985095],[-0.0765625,0.009259259259259259,1.6454999999999984],[-0.078125,0.010370370370370412,1.6618999999985107],[-0.04697916666666669,0.010740740740740657,1.6813999999985114],[-0.019166666666666644,0.009999999999999959,1.6951000000014886],[0.009062500000000048,0.015000000000000043,1.711800000004473],[0.03729166666666662,-0.0020370370370370794,1.7283999999985085],[0.03968750000000002,0.011296296296296339,1.747300000004472],[0.0375,0.009814814814814731,1.7656000000014913],[0.03791666666666664,0.004259259259259175,1.7827000000029827],[0.0625,-0.0294444444444444,1.7995000000000019],[0.06885416666666658,-0.059999999999999956,1.8162000000029792],[0.06020833333333329,-0.05555555555555555,1.8318000000044705],[0.04666666666666662,-0.052222222222222205,1.8511000000014874],[0.04666666666666662,-0.052222222222222205,1.8618999999985064],[0.059895833333333336,-0.05481481481481486,1.8785000000000025],[0.06208333333333336,-0.05018518518518523,1.8972000000029823],[0.06208333333333336,-0.05018518518518523,1.9157000000029782],[0.060104166666666715,-0.026666666666666623,1.928600000001488],[0.07625000000000005,0.007592592592592635,1.945200000002977],[0.10916666666666662,0.02759259259259255,1.9657000000029825],[0.11427083333333338,0.034999999999999955,1.9793000000044714],[0.0640625,0.08277777777777787,1.9969999999999999],[0.022500000000000023,0.13240740740740742,2.011899999998512],[-0.03458333333333338,0.19814814814814816,2.032100000001492],[-0.03145833333333338,0.19277777777777783,2.048499999999997],[-0.051770833333333384,0.19444444444444445,2.0648000000044675],[-0.09166666666666666,0.23166666666666672,2.083600000001489],[-0.09166666666666666,0.23166666666666672,2.0952000000029827],[-0.10218750000000003,0.22870370370370371,2.1118999999985064],[-0.08614583333333338,0.21592592592592597,2.128999999999998],[-0.09343750000000005,0.1896296296296296,2.1484999999999985],[-0.10093749999999997,0.19240740740740736,2.164800000004469],[-0.05239583333333329,0.16296296296296298,2.179300000004467],[0.005312500000000024,0.12851851851851848,2.19780000000447],[0.06687500000000005,0.08259259259259263,2.211899999998508],[0.06822916666666666,0.10777777777777786,2.2286000000014923],[0.052187500000000026,0.11462962962962958,2.2452000000029813],[0.06583333333333338,0.07092592592592584,2.2652000000029773],[0.03968750000000002,0.07518518518518523,2.2788000000044732],[0.025833333333333285,0.08037037037037033,2.2953000000044668],[0.005208333333333333,0.10351851851851848,2.3119999999999976],[0.051770833333333384,0.11518518518518527,2.3299999999999983],[0.07364583333333338,0.13537037037037042,2.3456000000014896],[0.05645833333333338,0.1625925925925925,2.3643999999985112],[0.1146874999999999,0.11833333333333329,2.3785000000000025],[0.14208333333333342,0.06425925925925935,2.39839999999851],[0.18489583333333334,0.0514814814814814,2.4140000000000015],[0.20197916666666677,0.056296296296296254,2.4306000000014905],[0.23666666666666672,0.061666666666666585,2.446700000002977],[0.22979166666666656,0.04407407407407399,2.4653000000044685],[0.27791666666666665,-0.005555555555555556,2.478999999999999],[0.2842708333333334,-0.05611111111111113,2.495100000001493],[0.2484375,-0.050370370370370454,2.5118000000044702],[0.24249999999999997,-0.04666666666666675,2.5283999999985127],[0.17395833333333333,-0.052962962962963,2.54510000000149],[0.13989583333333327,-0.019444444444444445,2.5652000000029815],[0.13208333333333327,-0.01907407407407399,2.581000000000003],[0.14072916666666657,-0.01703703703703712,2.5956000000014896],[0.14520833333333344,-0.012407407407407492,2.6117000000029833],[0.15270833333333325,-0.0025925925925925505,2.628399999998507],[0.11937499999999991,0.05259259259259255,2.6451000000014915],[0.0734375,0.08796296296296297,2.66560000000149],[0.0696875000000001,0.06703703703703712,2.678800000004472],[0.05302083333333331,0.06462962962962959,2.6950000000000003],[0.05020833333333338,0.10407407407407415,2.711800000004473],[0.06052083333333336,0.06777777777777783,2.728800000004469],[0.04593750000000003,0.10314814814814824,2.745100000001493],[0.019479166666666714,0.08574074074074066,2.764300000004468],[-0.005833333333333357,0.06055555555555564,2.7783999999985127],[-0.010208333333333286,0.03296296296296288,2.795499999999997],[-0.015416666666666618,0.001851851851851852,2.811700000002979],[-0.029166666666666667,-0.0022222222222223064,2.82839999999851],[-0.049687500000000044,-0.009074074074074031,2.8452000000029827],[-0.049687500000000044,-0.009074074074074031,2.8666000000014904],[-0.06020833333333329,-0.03481481481481473,2.8783000000044723],[-0.06770833333333333,-0.03981481481481482,2.894999999999996],[-0.08364583333333328,-0.003703703703703704,2.911800000004469],[-0.10093749999999997,-0.02962962962962963,2.9298000000044695],[-0.10552083333333329,-0.020740740740740823,2.9450000000000003],[-0.09645833333333335,-0.011296296296296339,2.9653999999985103],[-0.11979166666666667,0.011666666666666582,2.98110000000149],[-0.12927083333333336,0.023333333333333376,2.9949999999999974],[-0.11291666666666664,0.03851851851851843,3.0120000000000005],[-0.11083333333333331,0.051666666666666625,3.028300000004471],[-0.09708333333333338,0.05592592592592601,3.04510000000149],[-0.08635416666666665,0.03944444444444436,3.061700000002979],[-0.07052083333333338,-0.0020370370370370794,3.07839999999851],[-0.060104166666666715,-0.022777777777777692,3.094999999999999],[-0.04812500000000005,-0.030555555555555555,3.1118000000044717],[-0.05447916666666662,-0.052962962962963,3.128600000001491],[-0.043229166666666666,-0.09444444444444444,3.1451000000014915],[-0.043229166666666666,-0.09444444444444444,3.1617000000029805],[-0.035312499999999976,-0.102962962962963,3.1783999999985113],[-0.044270833333333336,-0.09851851851851849,3.195200000002977],[-0.03125,-0.08759259259259261,3.2117000000029776],[-0.03812500000000003,-0.062407407407407384,3.230899999998506],[-0.04500000000000005,-0.03722222222222227,3.245100000001493],[-0.06854166666666663,0.01648148148148144,3.2623999999985074],[-0.05510416666666664,0.06851851851851852,3.2783999999985127],[-0.03916666666666669,0.11592592592592597,3.29510000000149],[-0.041875000000000044,0.15777777777777785,3.3118000000044674],[-0.050729166666666714,0.20759259259259263,3.3286000000014866],[-0.07989583333333337,0.24611111111111106,3.3467000000029827],[-0.10833333333333334,0.23425925925925925,3.364600000001488],[-0.10479166666666669,0.24648148148148152,3.378399999998507],[-0.09010416666666667,0.2537037037037037,3.397999999999996],[-0.06375000000000004,0.23259259259259263,3.4117000000029805],[-0.034166666666666616,0.2125925925925925,3.4309999999999974],[-0.05364583333333333,0.17333333333333337,3.445200000002977],[-0.0907291666666667,0.10796296296296289,3.4647000000029777],[-0.0875,0.07407407407407407,3.4827000000029784],[-0.0875,0.07407407407407407,3.4952000000029813],[-0.08343750000000003,0.05129629629629638,3.511899999998512],[-0.07166666666666661,0.03129629629629625,3.531100000001487],[-0.04520833333333331,0.027222222222222307,3.5452000000029784],[-0.05020833333333338,0.03259259259259263,3.5643000000044722],[-0.05520833333333333,0.03796296296296296,3.582800000004468],[-0.10302083333333331,0.0020370370370370794,3.5985000000000014],[-0.14677083333333332,-0.034074074074074034,3.612499999999997],[-0.1610416666666667,-0.06981481481481479,3.628399999998507],[-0.15354166666666663,-0.0712962962962963,3.644999999999996],[-0.16302083333333334,-0.08462962962962961,3.664600000001492],[-0.1492708333333333,-0.08314814814814811,3.680899999998509],[-0.13343750000000001,-0.0948148148148148,3.6950000000000003],[-0.1486458333333334,-0.12833333333333335,3.714500000000001],[-0.16531250000000006,-0.19703703703703698,3.728800000004469],[-0.15072916666666672,-0.2512962962962963,3.747300000004472],[-0.12093750000000002,-0.2524074074074074,3.7653999999985075],[-0.1123958333333333,-0.22407407407407406,3.7786000000014894],[-0.11385416666666662,-0.19537037037037036,3.7950000000000017],[-0.12666666666666668,-0.21351851851851855,3.8118000000044674],[-0.15822916666666664,-0.1727777777777778,3.8308999999985076],[-0.16927083333333334,-0.18351851851851855,3.845300000004471],[-0.1866666666666667,-0.19944444444444442,3.866100000001488],[-0.1672916666666667,-0.18944444444444447,3.882899999998507],[-0.12864583333333332,-0.19185185185185188,3.8988000000044707],[-0.1234375,-0.2088888888888889,3.914800000004469],[-0.11281249999999995,-0.2094444444444445,3.9288999999985066],[-0.08500000000000002,-0.23925925925925923,3.9473999999985097],[-0.08500000000000002,-0.23925925925925923,3.961800000004473],[-0.0640625,-0.2518518518518518,3.9825000000000017],[-0.0640625,-0.2518518518518518,3.9952000000029813],[-0.03760416666666669,-0.22611111111111115,4.0120000000000005],[0.01885416666666669,-0.28407407407407403,4.037100000001487],[0.01885416666666669,-0.28407407407407403,4.045200000002978],[0.024687500000000046,-0.2887037037037037,4.061899999998509],[0.024687500000000046,-0.2887037037037037,4.078600000001487],[0.02041666666666669,-0.3005555555555556,4.095100000001487],[0.02041666666666669,-0.3005555555555556,4.111700000002983],[-0.016875000000000046,-0.3081481481481481,4.128300000004472],[-0.016875000000000046,-0.3081481481481481,4.1451000000014915],[-0.044375000000000026,-0.27388888888888885,4.161800000004469],[-0.09093749999999995,-0.20388888888888893,4.1806000000014905],[-0.12395833333333334,-0.1418518518518519,4.195],[-0.17927083333333335,-0.06129629629629634,4.212100000001492],[-0.2140625,-0.018333333333333292,4.228600000001492],[-0.2664583333333333,0.08351851851851856,4.244999999999997],[-0.2703125,0.14092592592592595,4.264000000000003],[-0.268125,0.1625925925925925,4.278500000000001],[-0.28552083333333333,0.1905555555555555,4.295000000000002],[-0.2794791666666666,0.21574074074074073,4.311899999998509],[-0.29750000000000004,0.21666666666666667,4.329200000002977],[-0.2942708333333333,0.18203703703703694,4.345200000002983],[-0.2942708333333333,0.18203703703703694,4.361800000004472],[-0.2908333333333334,0.1088888888888888,4.378399999998507],[-0.2625,0.03462962962962971,4.398100000001492],[-0.24354166666666663,0.009999999999999959,4.412399999998506],[-0.20083333333333328,-0.09814814814814815,4.4285],[-0.22541666666666665,-0.12166666666666665,4.445],[-0.25,-0.13722222222222227,4.464300000004471],[-0.234375,-0.127962962962963,4.4783999999985085],[-0.21583333333333338,-0.12629629629629627,4.495100000001493],[-0.2,-0.15925925925925927,4.511700000002982],[-0.18416666666666662,-0.19222222222222224,4.528600000001489],[-0.1788541666666667,-0.15759259259259265,4.548300000004467],[-0.1788541666666667,-0.15759259259259265,4.564100000001488],[-0.1703125,-0.12962962962962962,4.578499999999998],[-0.16635416666666672,-0.12685185185185185,4.595300000004471],[-0.1586458333333333,-0.08296296296296299,4.611700000002983],[-0.14343750000000005,-0.0544444444444444,4.628399999998507],[-0.1516666666666667,-0.038703703703703664,4.649300000004473],[-0.12781250000000005,0.008333333333333333,4.665200000002983],[-0.10625,0.06814814814814807,4.678399999998511],[-0.15635416666666668,0.19166666666666668,4.6953000000044725],[-0.20958333333333337,0.3077777777777779,4.711700000002978],[-0.2482291666666666,0.4094444444444445,4.728700000002981]]","[0.00010000000148835397,0.03510000000149205,0.04520000000297841,0.06180000000446739,0.07839999999850988,0.09510000000148722,0.11189999999850642,0.12839999999850704,0.14510000000149148,0.16330000000446887,0.1783999999985113,0.19510000000148864,0.21170000000297762,0.22839999999850846,0.24499999999999744,0.2652000000029773,0.2809999999999988,0.29510000000149006,0.3118000000044674,0.3283999999985099,0.3451000000014872,0.3643000000044694,0.37839999999850704,0.3967000000029799,0.4118000000044688,0.43130000000446955,0.447499999999998,0.46720000000298256,0.48189999999851096,0.4953999999985115,0.5117000000029819,0.5283999999985127,0.5451000000014901,0.5660000000000025,0.5823000000044729,0.5993999999985107,0.6163000000044718,0.6287000000029792,0.6454999999999984,0.6673999999985085,0.6835000000000022,0.6953000000044725,0.7121000000014917,0.7313000000044667,0.7453000000044696,0.7650000000000006,0.7834999999999965,0.7984999999999971,0.8143000000044722,0.8344999999999985,0.8496000000014874,0.8652000000029787,0.8791000000014861,0.89820000000298,0.9143000000044665,0.9302000000029764,0.9497000000029772,0.9618999999985078,0.9788999999985109,1.0015,1.0165000000000006,1.0283999999985127,1.0458000000044692,1.0656000000014885,1.0784999999999982,1.095300000004471,1.1143999999985112,1.1288999999985094,1.1468999999985101,1.1618999999985107,1.1822000000029789,1.1953000000044725,1.2119999999999962,1.2353999999985064,1.2453000000044696,1.2620000000000005,1.282100000001492,1.301000000000002,1.3118999999985093,1.3284999999999982,1.349899999998506,1.3620000000000019,1.3786000000014909,1.3987000000029823,1.4136000000014874,1.428600000001488,1.4481000000014888,1.4657000000029825,1.4789999999999992,1.4952000000029813,1.5157000000029797,1.530399999998508,1.5453000000044668,1.5619999999999976,1.581000000000003,1.595300000004471,1.6118000000044717,1.6318999999985095,1.6454999999999984,1.6618999999985107,1.6813999999985114,1.6951000000014886,1.711800000004473,1.7283999999985085,1.747300000004472,1.7656000000014913,1.7827000000029827,1.7995000000000019,1.8162000000029792,1.8318000000044705,1.8511000000014874,1.8618999999985064,1.8785000000000025,1.8972000000029823,1.9157000000029782,1.928600000001488,1.945200000002977,1.9657000000029825,1.9793000000044714,1.9969999999999999,2.011899999998512,2.032100000001492,2.048499999999997,2.0648000000044675,2.083600000001489,2.0952000000029827,2.1118999999985064,2.128999999999998,2.1484999999999985,2.164800000004469,2.179300000004467,2.19780000000447,2.211899999998508,2.2286000000014923,2.2452000000029813,2.2652000000029773,2.2788000000044732,2.2953000000044668,2.3119999999999976,2.3299999999999983,2.3456000000014896,2.3643999999985112,2.3785000000000025,2.39839999999851,2.4140000000000015,2.4306000000014905,2.446700000002977,2.4653000000044685,2.478999999999999,2.495100000001493,2.5118000000044702,2.5283999999985127,2.54510000000149,2.5652000000029815,2.581000000000003,2.5956000000014896,2.6117000000029833,2.628399999998507,2.6451000000014915,2.66560000000149,2.678800000004472,2.6950000000000003,2.711800000004473,2.728800000004469,2.745100000001493,2.764300000004468,2.7783999999985127,2.795499999999997,2.811700000002979,2.82839999999851,2.8452000000029827,2.8666000000014904,2.8783000000044723,2.894999999999996,2.911800000004469,2.9298000000044695,2.9450000000000003,2.9653999999985103,2.98110000000149,2.9949999999999974,3.0120000000000005,3.028300000004471,3.04510000000149,3.061700000002979,3.07839999999851,3.094999999999999,3.1118000000044717,3.128600000001491,3.1451000000014915,3.1617000000029805,3.1783999999985113,3.195200000002977,3.2117000000029776,3.230899999998506,3.245100000001493,3.2623999999985074,3.2783999999985127,3.29510000000149,3.3118000000044674,3.3286000000014866,3.3467000000029827,3.364600000001488,3.378399999998507,3.397999999999996,3.4117000000029805,3.4309999999999974,3.445200000002977,3.4647000000029777,3.4827000000029784,3.4952000000029813,3.511899999998512,3.531100000001487,3.5452000000029784,3.5643000000044722,3.582800000004468,3.5985000000000014,3.612499999999997,3.628399999998507,3.644999999999996,3.664600000001492,3.680899999998509,3.6950000000000003,3.714500000000001,3.728800000004469,3.747300000004472,3.7653999999985075,3.7786000000014894,3.7950000000000017,3.8118000000044674,3.8308999999985076,3.845300000004471,3.866100000001488,3.882899999998507,3.8988000000044707,3.914800000004469,3.9288999999985066,3.9473999999985097,3.961800000004473,3.9825000000000017,3.9952000000029813,4.0120000000000005,4.037100000001487,4.045200000002978,4.061899999998509,4.078600000001487,4.095100000001487,4.111700000002983,4.128300000004472,4.1451000000014915,4.161800000004469,4.1806000000014905,4.195,4.212100000001492,4.228600000001492,4.244999999999997,4.264000000000003,4.278500000000001,4.295000000000002,4.311899999998509,4.329200000002977,4.345200000002983,4.361800000004472,4.378399999998507,4.398100000001492,4.412399999998506,4.4285,4.445,4.464300000004471,4.4783999999985085,4.495100000001493,4.511700000002982,4.528600000001489,4.548300000004467,4.564100000001488,4.578499999999998,4.595300000004471,4.611700000002983,4.628399999998507,4.649300000004473,4.665200000002983,4.678399999998511,4.6953000000044725,4.711700000002978,4.728700000002981]","[1733285224931,1733285224960,1733285224970,1733285224987,1733285225003,1733285225020,1733285225037,1733285225053,1733285225070,1733285225088,1733285225103,1733285225120,1733285225137,1733285225153,1733285225170,1733285225190,1733285225206,1733285225220,1733285225237,1733285225253,1733285225270,1733285225289,1733285225303,1733285225322,1733285225337,1733285225356,1733285225372,1733285225392,1733285225407,1733285225420,1733285225437,1733285225453,1733285225470,1733285225491,1733285225507,1733285225524,1733285225541,1733285225553,1733285225570,1733285225592,1733285225608,1733285225621,1733285225638,1733285225657,1733285225671,1733285225690,1733285225709,1733285225724,1733285225740,1733285225760,1733285225775,1733285225791,1733285225805,1733285225824,1733285225840,1733285225856,1733285225875,1733285225887,1733285225904,1733285225927,1733285225942,1733285225954,1733285225971,1733285225991,1733285226004,1733285226021,1733285226040,1733285226054,1733285226072,1733285226087,1733285226108,1733285226121,1733285226138,1733285226161,1733285226171,1733285226188,1733285226208,1733285226227,1733285226237,1733285226254,1733285226275,1733285226287,1733285226304,1733285226324,1733285226339,1733285226354,1733285226374,1733285226391,1733285226405,1733285226421,1733285226441,1733285226456,1733285226471,1733285226488,1733285226507,1733285226521,1733285226537,1733285226557,1733285226571,1733285226587,1733285226607,1733285226621,1733285226637,1733285226654,1733285226673,1733285226691,1733285226708,1733285226725,1733285226742,1733285226757,1733285226777,1733285226787,1733285226804,1733285226823,1733285226841,1733285226854,1733285226871,1733285226891,1733285226905,1733285226922,1733285226937,1733285226958,1733285226974,1733285226990,1733285227009,1733285227021,1733285227037,1733285227055,1733285227074,1733285227090,1733285227105,1733285227123,1733285227137,1733285227154,1733285227171,1733285227191,1733285227204,1733285227221,1733285227238,1733285227256,1733285227271,1733285227290,1733285227304,1733285227324,1733285227340,1733285227356,1733285227372,1733285227391,1733285227405,1733285227421,1733285227437,1733285227454,1733285227471,1733285227491,1733285227507,1733285227521,1733285227537,1733285227554,1733285227571,1733285227591,1733285227604,1733285227621,1733285227637,1733285227654,1733285227671,1733285227690,1733285227704,1733285227721,1733285227737,1733285227754,1733285227771,1733285227792,1733285227804,1733285227821,1733285227837,1733285227855,1733285227871,1733285227891,1733285227907,1733285227921,1733285227938,1733285227954,1733285227971,1733285227987,1733285228004,1733285228021,1733285228037,1733285228054,1733285228071,1733285228087,1733285228104,1733285228121,1733285228137,1733285228156,1733285228171,1733285228188,1733285228204,1733285228221,1733285228237,1733285228254,1733285228272,1733285228290,1733285228304,1733285228324,1733285228337,1733285228357,1733285228371,1733285228390,1733285228408,1733285228421,1733285228437,1733285228457,1733285228471,1733285228490,1733285228508,1733285228524,1733285228538,1733285228554,1733285228571,1733285228590,1733285228606,1733285228621,1733285228640,1733285228654,1733285228673,1733285228691,1733285228704,1733285228721,1733285228737,1733285228756,1733285228771,1733285228792,1733285228808,1733285228824,1733285228840,1733285228854,1733285228873,1733285228887,1733285228908,1733285228921,1733285228938,1733285228963,1733285228971,1733285228988,1733285229004,1733285229021,1733285229037,1733285229054,1733285229071,1733285229087,1733285229106,1733285229121,1733285229138,1733285229154,1733285229171,1733285229190,1733285229204,1733285229221,1733285229237,1733285229255,1733285229271,1733285229287,1733285229304,1733285229324,1733285229338,1733285229354,1733285229371,1733285229390,1733285229404,1733285229421,1733285229437,1733285229454,1733285229474,1733285229490,1733285229504,1733285229521,1733285229537,1733285229554,1733285229575,1733285229591,1733285229604,1733285229621,1733285229637,1733285229654]","[[1152.7,580.7],[1152.7,580.7],[1156.2,554.6],[1170,545.8],[1157.3,527.2],[1155,525.1],[1114.6,500.2],[1070.6,468.4],[1074.1,458.9],[1107.3,468],[1111.2,457.3],[1106.5,462.1],[1096.7,476.1],[1086,484.8],[1079.4,486],[1101.4,504.2],[1138.8,515.7],[1179.5,530.5],[1172.7,523],[1128.9,522.5],[1110.2,530.4],[1094.5,528.2],[1076.9,516.2],[1091.9,523.5],[1132.6,534],[1113.3,515.8],[1093.4,502.1],[1070.2,485.1],[1043.4,469.7],[1050.8,443.6],[1089.9,438.8],[1116.4,425.7],[1123.4,416],[1082.7,390],[1071.5,375.4],[1086.5,377.4],[1072,382.3],[1072,382.3],[1064.3,411.2],[1075,405.1],[1067.7,418.5],[1067.7,418.5],[1041.6,443.3],[1041.6,443.3],[1036,459],[1039,487.8],[1054.3,519.7],[1027.2,517.1],[1000.1,514.5],[992.1,518],[989.4,511.9],[971.9,539.2],[957.8,544.8],[935,529.1],[918.2,546.9],[923.8,517],[904.3,501.2],[904.3,501.2],[887.1,503],[888.1,518],[888.1,518],[865.3,520.7],[865.3,520.7],[854.3,518.4],[854.3,518.4],[860.8,491.8],[872.3,469.9],[892.6,447.1],[900.2,445],[900.2,445],[900.2,452.5],[900.2,452.5],[904.4,456.4],[915.2,463],[915.2,463],[916.3,458.1],[942.5,461.1],[942.5,461.1],[945.5,456.8],[945.5,456.8],[936.1,474.9],[936.1,474.9],[938.9,489.9],[933.8,512.6],[890,516.7],[855.8,537.2],[861.8,539.8],[881.8,546.2],[893.3,550.9],[881.6,556.6],[869.2,560.2],[856.4,561.6],[843.8,567.3],[843.8,567.3],[837.4,558.4],[869.9,549.4],[888.7,540.1],[888,544.4],[886.5,545],[885,545.6],[914.9,545.8],[941.6,545.4],[968.7,548.1],[995.8,538.9],[998.1,546.1],[996,545.3],[996.4,542.3],[1020,524.1],[1026.1,507.6],[1017.8,510],[1004.8,511.8],[1004.8,511.8],[1017.5,510.4],[1019.6,512.9],[1019.6,512.9],[1017.7,525.6],[1033.2,544.1],[1064.8,554.9],[1069.7,558.9],[1021.5,584.7],[981.6,611.5],[926.8,647],[929.8,644.1],[910.3,645],[872,665.1],[872,665.1],[861.9,663.5],[877.3,656.6],[870.3,642.4],[863.1,643.9],[909.7,628],[965.1,609.4],[1024.2,584.6],[1025.5,598.2],[1010.1,601.9],[1023.2,578.3],[998.1,580.6],[984.8,583.4],[965,595.9],[1009.7,602.2],[1030.7,613.1],[1014.2,627.8],[1070.1,603.9],[1096.4,574.7],[1137.5,567.8],[1153.9,570.4],[1187.2,573.3],[1180.6,563.8],[1226.8,537],[1232.9,509.7],[1198.5,512.8],[1192.8,514.8],[1127,511.4],[1094.3,529.5],[1086.8,529.7],[1095.1,530.8],[1099.4,533.3],[1106.6,538.6],[1074.6,568.4],[1030.5,587.5],[1026.9,576.2],[1010.9,574.9],[1008.2,596.2],[1018.1,576.6],[1004.1,595.7],[978.7,586.3],[954.4,572.7],[950.2,557.8],[945.2,541],[932,538.8],[912.3,535.1],[912.3,535.1],[902.2,521.2],[895,518.5],[879.7,538],[863.1,524],[858.7,528.8],[867.4,533.9],[845,546.3],[835.9,552.6],[851.6,560.8],[853.6,567.9],[866.8,570.2],[877.1,561.3],[892.3,538.9],[902.3,527.7],[913.8,523.5],[907.7,511.4],[918.5,489],[918.5,489],[926.1,484.4],[917.5,486.8],[930,492.7],[923.4,506.3],[916.8,519.9],[894.2,548.9],[907.1,577],[922.4,602.6],[919.8,625.2],[911.3,652.1],[883.3,672.9],[856,666.5],[859.4,673.1],[873.5,677],[898.8,665.6],[927.2,654.8],[908.5,633.6],[872.9,598.3],[876,580],[876,580],[879.9,567.7],[891.2,556.9],[916.6,554.7],[911.8,557.6],[907,560.5],[861.1,541.1],[819.1,521.6],[805.4,502.3],[812.6,501.5],[803.5,494.3],[816.7,495.1],[831.9,488.8],[817.3,470.7],[801.3,433.6],[815.3,404.3],[843.9,403.7],[852.1,419],[850.7,434.5],[838.4,424.7],[808.1,446.7],[797.5,440.9],[780.8,432.3],[799.4,437.7],[836.5,436.4],[841.5,427.2],[851.7,426.9],[878.4,410.8],[878.4,410.8],[898.5,404],[898.5,404],[923.9,417.9],[978.1,386.6],[978.1,386.6],[983.7,384.1],[983.7,384.1],[979.6,377.7],[979.6,377.7],[943.8,373.6],[943.8,373.6],[917.4,392.1],[872.7,429.9],[841,463.4],[787.9,506.9],[754.5,530.1],[704.2,585.1],[700.5,616.1],[702.6,627.8],[685.9,642.9],[691.7,656.5],[674.4,657],[677.5,638.3],[677.5,638.3],[680.8,598.8],[708,558.7],[726.2,545.4],[767.2,487],[743.6,474.3],[720,465.9],[735,470.9],[752.8,471.8],[768,454],[783.2,436.2],[788.3,454.9],[788.3,454.9],[796.5,470],[800.3,471.5],[807.7,495.2],[822.3,510.6],[814.4,519.1],[837.3,544.5],[858,576.8],[809.9,643.5],[758.8,706.2],[721.7,761.1]]","[0,0.151169218]","[0.151169218,0.151169218]","[-0.151169218,-0.151169218]","[-0.151169218,0]","[0,-0.151169218]","[0.151169218,-0.151169218]","[0,0]","[0.151169218,0]",0,0,0,0,1,3,Smartphone,11,9,9,1
