inst1_resp.keys,inst1_resp.rt,calibrationMouse.x,calibrationMouse.y,calibrationMouse.leftButton,calibrationMouse.midButton,calibrationMouse.rightButton,calibrationClick.x,calibrationClick.y,calibrationClick.leftButton,calibrationClick.midButton,calibrationClick.rightButton,trialsc.thisRepN,trialsc.thisTrialN,trialsc.thisN,trialsc.thisIndex,trialsc.ran,calibration_x,calibration_y,participant,session,date,expName,psychopyVersion,OS,frameRate,calibrationClick.clicked_name,ScreenRes_pixels,Camera_pixels,mouse_2.x,mouse_2.y,mouse_2.leftButton,mouse_2.midButton,mouse_2.rightButton,mouse_2.time,mouse_2.clicked_name,mouse.x,mouse.y,mouse.leftButton,mouse.midButton,mouse.rightButton,mouse.time,mouse.clicked_name,Choice,Trial,TrialDuration,MOUSE_GAZE,ET_GAZE,ET_GAZE_x_T,time,unixTime,ET_GAZE_NF,Loc_Option1_label,Loc_Option2_label,Loc_Cost_label,Loc_Qual_label,Loc_Option1_cost,Loc_Option2_cost,Loc_Option1_quality,Loc_Option2_quality,trials.thisRepN,trials.thisTrialN,trials.thisN,trials.thisIndex,trials.ran,Block,Device,cost1,qual1,cost2,qual2
space,2.2192,-0.947916667,-0.909259259,1,0,0,0.328125,0.668518519,0,0,0,0,0,0,18,1,0.33,0.67,32,001,2024-12-04_10h47.21.977,Attention_exp_legacy,2023.1.0,Win32,59.88023952,,,,,,,,,,,,,,,,,,,,,,,,,,,,,,,,,,,,,,,,,,,,,
,,,,,,,-0.003125,0.662962963,1,0,0,0,1,1,13,1,0,0.67,32,001,2024-12-04_10h47.21.977,Attention_exp_legacy,2023.1.0,Win32,59.88023952,calibration_square,,,,,,,,,,,,,,,,,,,,,,,,,,,,,,,,,,,,,,,,,,,,
,,,,,,,-0.680208333,-0.346296296,1,0,0,0,2,2,1,1,-0.67,-0.33,32,001,2024-12-04_10h47.21.977,Attention_exp_legacy,2023.1.0,Win32,59.88023952,,,,,,,,,,,,,,,,,,,,,,,,,,,,,,,,,,,,,,,,,,,,,
,,,,,,,0.345833333,0.001851852,1,0,0,0,3,3,16,1,0.33,0,32,001,2024-12-04_10h47.21.977,Attention_exp_legacy,2023.1.0,Win32,59.88023952,,,,,,,,,,,,,,,,,,,,,,,,,,,,,,,,,,,,,,,,,,,,,
,,,,,,,-0.689583333,-0.683333333,1,0,0,0,4,4,0,1,-0.67,-0.67,32,001,2024-12-04_10h47.21.977,Attention_exp_legacy,2023.1.0,Win32,59.88023952,,,,,,,,,,,,,,,,,,,,,,,,,,,,,,,,,,,,,,,,,,,,,
,,,,,,,-0.661458333,-0.001851852,1,0,0,0,5,5,2,1,-0.67,0,32,001,2024-12-04_10h47.21.977,Attention_exp_legacy,2023.1.0,Win32,59.88023952,calibration_square,,,,,,,,,,,,,,,,,,,,,,,,,,,,,,,,,,,,,,,,,,,,
,,,,,,,-0.316666667,0.344444444,1,0,0,0,6,6,7,1,-0.33,0.33,32,001,2024-12-04_10h47.21.977,Attention_exp_legacy,2023.1.0,Win32,59.88023952,,,,,,,,,,,,,,,,,,,,,,,,,,,,,,,,,,,,,,,,,,,,,
,,,,,,,-0.342708333,-0.672222222,1,0,0,0,7,7,4,1,-0.33,-0.67,32,001,2024-12-04_10h47.21.977,Attention_exp_legacy,2023.1.0,Win32,59.88023952,,,,,,,,,,,,,,,,,,,,,,,,,,,,,,,,,,,,,,,,,,,,,
,,,,,,,0.678125,-0.672222222,1,0,0,0,8,8,20,1,0.67,-0.67,32,001,2024-12-04_10h47.21.977,Attention_exp_legacy,2023.1.0,Win32,59.88023952,calibration_square,,,,,,,,,,,,,,,,,,,,,,,,,,,,,,,,,,,,,,,,,,,,
,,,,,,,0.344791667,-0.681481481,1,0,0,0,9,9,14,1,0.33,-0.67,32,001,2024-12-04_10h47.21.977,Attention_exp_legacy,2023.1.0,Win32,59.88023952,,,,,,,,,,,,,,,,,,,,,,,,,,,,,,,,,,,,,,,,,,,,,
,,,,,,,0.00625,0.316666667,1,0,0,0,10,10,12,1,0,0.33,32,001,2024-12-04_10h47.21.977,Attention_exp_legacy,2023.1.0,Win32,59.88023952,,,,,,,,,,,,,,,,,,,,,,,,,,,,,,,,,,,,,,,,,,,,,
,,,,,,,0.013541667,-0.335185185,1,0,0,0,11,11,10,1,0,-0.33,32,001,2024-12-04_10h47.21.977,Attention_exp_legacy,2023.1.0,Win32,59.88023952,,,,,,,,,,,,,,,,,,,,,,,,,,,,,,,,,,,,,,,,,,,,,
,,,,,,,0.007291667,-0.675925926,1,0,0,0,12,12,9,1,0,-0.67,32,001,2024-12-04_10h47.21.977,Attention_exp_legacy,2023.1.0,Win32,59.88023952,calibration_square,,,,,,,,,,,,,,,,,,,,,,,,,,,,,,,,,,,,,,,,,,,,
,,,,,,,-0.340625,0.018518519,1,0,0,0,13,13,6,1,-0.33,0,32,001,2024-12-04_10h47.21.977,Attention_exp_legacy,2023.1.0,Win32,59.88023952,,,,,,,,,,,,,,,,,,,,,,,,,,,,,,,,,,,,,,,,,,,,,
,,,,,,,0,-0.014814815,1,0,0,0,14,14,11,1,0,0,32,001,2024-12-04_10h47.21.977,Attention_exp_legacy,2023.1.0,Win32,59.88023952,,,,,,,,,,,,,,,,,,,,,,,,,,,,,,,,,,,,,,,,,,,,,
,,,,,,,-0.332291667,-0.331481481,1,0,0,0,15,15,5,1,-0.33,-0.33,32,001,2024-12-04_10h47.21.977,Attention_exp_legacy,2023.1.0,Win32,59.88023952,calibration_square,,,,,,,,,,,,,,,,,,,,,,,,,,,,,,,,,,,,,,,,,,,,
,,,,,,,-0.334375,0.653703704,1,0,0,0,16,16,8,1,-0.33,0.67,32,001,2024-12-04_10h47.21.977,Attention_exp_legacy,2023.1.0,Win32,59.88023952,,,,,,,,,,,,,,,,,,,,,,,,,,,,,,,,,,,,,,,,,,,,,
,,,,,,,0.677083333,0.685185185,1,0,0,0,17,17,19,1,0.67,0.67,32,001,2024-12-04_10h47.21.977,Attention_exp_legacy,2023.1.0,Win32,59.88023952,,,,,,,,,,,,,,,,,,,,,,,,,,,,,,,,,,,,,,,,,,,,,
,,,,,,,0.340625,0.316666667,1,0,0,0,18,18,17,1,0.33,0.33,32,001,2024-12-04_10h47.21.977,Attention_exp_legacy,2023.1.0,Win32,59.88023952,,,,,,,,,,,,,,,,,,,,,,,,,,,,,,,,,,,,,,,,,,,,,
,,,,,,,-0.664583333,0.322222222,1,0,0,0,19,19,3,1,-0.67,0.33,32,001,2024-12-04_10h47.21.977,Attention_exp_legacy,2023.1.0,Win32,59.88023952,calibration_square,,,,,,,,,,,,,,,,,,,,,,,,,,,,,,,,,,,,,,,,,,,,
,,,,,,,0.340625,-0.335185185,1,0,0,0,20,20,15,1,0.33,-0.33,32,001,2024-12-04_10h47.21.977,Attention_exp_legacy,2023.1.0,Win32,59.88023952,,,,,,,,,,,,,,,,,,,,,,,,,,,,,,,,,,,,,,,,,,,,,
,,,,,,,,,,,,,,,,,,,32,001,2024-12-04_10h47.21.977,Attention_exp_legacy,2023.1.0,Win32,59.88023952,,"[1920,1080]","[640,480]",[0.009375],[-0.5],[1],[0],[0],[1.6967000000029842],"[""StartButton""]",[0.030208333333333334],[0.39814814814814814],[1],[0],[0],[4.455200000002975],"[""Option1_label""]",Option1_label,1,5.4784,"[[0.009375,-0.5],[0.009375,-0.5],[0.009375,-0.5],[0.009375,-0.5],[0.009375,-0.5],[0.009375,-0.5],[0.009375,-0.5],[0.009375,-0.5],[0.009375,-0.5],[0.009375,-0.5],[0.009375,-0.5],[0.009375,-0.5],[0.009375,-0.5],[0.009375,-0.5],[0.009375,-0.5],[0.009375,-0.5],[0.009375,-0.5],[0.009375,-0.5],[0.009375,-0.5],[0.009375,-0.5],[0.009375,-0.5],[0.009375,-0.5],[0.009375,-0.5],[0.009375,-0.5],[0.009375,-0.5],[0.009375,-0.5],[0.009375,-0.5],[0.009375,-0.5],[0.009375,-0.5],[0.009375,-0.5],[0.009375,-0.5],[0.009375,-0.5],[0.009375,-0.5],[0.009375,-0.5],[0.009375,-0.5],[0.009375,-0.5],[0.009375,-0.5],[0.009375,-0.5],[0.009375,-0.5],[0.009375,-0.5],[0.009375,-0.5],[0.009375,-0.5],[0.009375,-0.5],[0.009375,-0.5],[0.009375,-0.5],[0.009375,-0.5],[0.009375,-0.5],[0.009375,-0.5],[0.009375,-0.5],[0.009375,-0.5],[0.009375,-0.5],[0.009375,-0.5],[0.009375,-0.5],[0.009375,-0.5],[0.009375,-0.5],[0.009375,-0.5],[0.009375,-0.5],[0.009375,-0.5],[0.009375,-0.5],[0.009375,-0.5],[0.009375,-0.5],[0.009375,-0.5],[0.009375,-0.5],[0.009375,-0.5],[0.009375,-0.5],[0.009375,-0.5],[0.009375,-0.5],[0.009375,-0.5],[0.009375,-0.5],[0.009375,-0.5],[0.009375,-0.5],[0.009375,-0.5],[0.009375,-0.5],[0.009375,-0.5],[0.009375,-0.5],[0.009375,-0.5],[0.009375,-0.5],[0.009375,-0.5],[0.009375,-0.5],[0.009375,-0.5],[0.009375,-0.5],[0.009375,-0.5],[0.009375,-0.5],[0.009375,-0.5],[0.009375,-0.5],[0.009375,-0.5],[0.009375,-0.5],[0.009375,-0.5],[0.009375,-0.5],[0.009375,-0.5],[0.009375,-0.5],[0.009375,-0.5],[0.009375,-0.5],[0.009375,-0.5],[0.009375,-0.5],[0.009375,-0.5],[0.009375,-0.5],[0.009375,-0.5],[0.009375,-0.5],[0.009375,-0.5],[0.009375,-0.5],[0.009375,-0.5],[0.009375,-0.5],[0.009375,-0.5],[0.009375,-0.5],[0.009375,-0.5],[0.009375,-0.5],[0.009375,-0.5],[0.009375,-0.5],[0.009375,-0.5],[0.009375,-0.5],[0.009375,-0.5],[0.009375,-0.5],[0.009375,-0.5],[0.009375,-0.5],[0.009375,-0.5],[0.009375,-0.5],[0.009375,-0.5],[0.009375,-0.5],[0.009375,-0.5],[0.009375,-0.5],[0.009375,-0.5],[0.009375,-0.5],[0.009375,-0.5],[0.009375,-0.5],[0.009375,-0.5],[0.009375,-0.5],[0.009375,-0.5],[0.009375,-0.5],[0.009375,-0.5],[0.009375,-0.5],[0.009375,-0.5],[0.009375,-0.5],[0.009375,-0.5],[0.009375,-0.5],[0.009375,-0.5],[0.009375,-0.5],[0.009375,-0.5],[0.009375,-0.5],[0.009375,-0.5],[0.009375,-0.5],[0.009375,-0.5],[0.009375,-0.5],[0.009375,-0.5],[0.009375,-0.5],[0.009375,-0.5],[0.009375,-0.5],[0.009375,-0.5],[0.009375,-0.5],[0.009375,-0.5],[0.009375,-0.5],[0.009375,-0.5],[0.009375,-0.5],[0.009375,-0.5],[0.009375,-0.5],[0.009375,-0.5],[0.009375,-0.5],[0.009375,-0.5],[0.009375,-0.5],[0.009375,-0.5],[0.009375,-0.5],[0.009375,-0.5],[0.009375,-0.5],[0.009375,-0.5],[0.009375,-0.5],[0.009375,-0.5],[0.009375,-0.5],[0.009375,-0.5],[0.009375,-0.5],[0.009375,-0.5],[0.009375,-0.5],[0.009375,-0.5],[0.009375,-0.5],[0.009375,-0.5],[0.009375,-0.5],[0.009375,-0.5],[0.009375,-0.5],[0.009375,-0.5],[0.009375,-0.5],[0.009375,-0.5],[0.009375,-0.5],[0.009375,-0.5],[0.009375,-0.5],[0.009375,-0.5],[0.009375,-0.5],[0.009375,-0.5],[0.009375,-0.5],[0.009375,-0.5],[0.009375,-0.5],[0.009375,-0.5],[0.009375,-0.5],[0.009375,-0.5],[0.009375,-0.5],[0.009375,-0.5],[0.009375,-0.5],[0.009375,-0.5],[0.009375,-0.49444444444444446],[0.009375,-0.4685185185185185],[0.009375,-0.4388888888888889],[0.009375,-0.40185185185185185],[0.009375,-0.362962962962963],[0.009375,-0.3314814814814815],[0.009375,-0.30185185185185187],[0.007291666666666667,-0.2796296296296296],[0.005208333333333333,-0.26296296296296295],[0.005208333333333333,-0.2518518518518518],[0.004166666666666667,-0.24444444444444444],[0.004166666666666667,-0.2388888888888889],[0.003125,-0.23703703703703705],[0.003125,-0.23148148148148148],[0.003125,-0.22777777777777777],[0.003125,-0.2222222222222222],[0.003125,-0.22037037037037038],[0.003125,-0.22037037037037038],[0.003125,-0.22037037037037038],[0.003125,-0.22037037037037038],[0.003125,-0.22037037037037038],[0.003125,-0.22037037037037038],[0.003125,-0.21851851851851853],[0.003125,-0.21851851851851853],[0.003125,-0.21851851851851853],[0.003125,-0.21851851851851853],[0.003125,-0.21851851851851853],[0.003125,-0.21851851851851853],[0.003125,-0.21851851851851853],[0.003125,-0.21851851851851853],[0.003125,-0.21851851851851853],[0.003125,-0.21851851851851853],[0.003125,-0.21851851851851853],[0.003125,-0.21851851851851853],[0.003125,-0.21851851851851853],[0.003125,-0.21851851851851853],[0.003125,-0.21851851851851853],[0.003125,-0.21851851851851853],[0.008333333333333333,-0.21666666666666667],[0.027083333333333334,-0.20555555555555555],[0.03958333333333333,-0.2],[0.04375,-0.19814814814814816],[0.04375,-0.19814814814814816],[0.04375,-0.19814814814814816],[0.04375,-0.19814814814814816],[0.04375,-0.19814814814814816],[0.04375,-0.1962962962962963],[0.053125,-0.18888888888888888],[0.06354166666666666,-0.17777777777777778],[0.06770833333333333,-0.1685185185185185],[0.07083333333333333,-0.14074074074074075],[0.07083333333333333,-0.0962962962962963],[0.07083333333333333,-0.037037037037037035],[0.06770833333333333,0.04814814814814815],[0.059375,0.12962962962962962],[0.05625,0.1962962962962963],[0.05,0.2574074074074074],[0.046875,0.2851851851851852],[0.04479166666666667,0.3074074074074074],[0.041666666666666664,0.32592592592592595],[0.03854166666666667,0.3425925925925926],[0.036458333333333336,0.35555555555555557],[0.034375,0.37037037037037035],[0.03229166666666667,0.38333333333333336],[0.03125,0.39444444444444443],[0.030208333333333334,0.39814814814814814],[0.030208333333333334,0.39814814814814814],[0.030208333333333334,0.39814814814814814],[0.030208333333333334,0.39814814814814814],[0.030208333333333334,0.39814814814814814],[0.030208333333333334,0.39814814814814814],[0.030208333333333334,0.39814814814814814],[0.030208333333333334,0.39814814814814814],[0.030208333333333334,0.39814814814814814],[0.030208333333333334,0.39814814814814814],[0.030208333333333334,0.39814814814814814],[0.030208333333333334,0.39814814814814814],[0.030208333333333334,0.39814814814814814],[0.030208333333333334,0.39814814814814814],[0.030208333333333334,0.39814814814814814],[0.030208333333333334,0.39814814814814814],[0.030208333333333334,0.39814814814814814],[0.030208333333333334,0.39814814814814814],[0.030208333333333334,0.39814814814814814],[0.030208333333333334,0.39814814814814814],[0.030208333333333334,0.39814814814814814],[0.030208333333333334,0.39814814814814814],[0.030208333333333334,0.39814814814814814],[0.030208333333333334,0.39814814814814814],[0.030208333333333334,0.39814814814814814],[0.030208333333333334,0.39814814814814814],[0.030208333333333334,0.39814814814814814],[0.030208333333333334,0.39814814814814814],[0.030208333333333334,0.39814814814814814],[0.030208333333333334,0.39814814814814814],[0.030208333333333334,0.39814814814814814],[0.030208333333333334,0.39814814814814814],[0.030208333333333334,0.39814814814814814],[0.030208333333333334,0.39814814814814814],[0.030208333333333334,0.39814814814814814],[0.030208333333333334,0.39814814814814814],[0.030208333333333334,0.39814814814814814],[0.030208333333333334,0.39814814814814814],[0.030208333333333334,0.39814814814814814],[0.030208333333333334,0.39814814814814814],[0.030208333333333334,0.39814814814814814],[0.030208333333333334,0.39814814814814814],[0.030208333333333334,0.39814814814814814],[0.030208333333333334,0.39814814814814814],[0.030208333333333334,0.39814814814814814],[0.030208333333333334,0.39814814814814814],[0.030208333333333334,0.39814814814814814],[0.030208333333333334,0.39814814814814814],[0.030208333333333334,0.39814814814814814],[0.030208333333333334,0.39814814814814814],[0.030208333333333334,0.39814814814814814],[0.030208333333333334,0.39814814814814814],[0.030208333333333334,0.39814814814814814],[0.030208333333333334,0.39814814814814814],[0.030208333333333334,0.39814814814814814],[0.030208333333333334,0.39814814814814814],[0.030208333333333334,0.39814814814814814],[0.030208333333333334,0.39814814814814814],[0.030208333333333334,0.39814814814814814],[0.030208333333333334,0.39814814814814814],[0.030208333333333334,0.39814814814814814],[0.030208333333333334,0.39814814814814814],[0.030208333333333334,0.39814814814814814],[0.030208333333333334,0.39814814814814814],[0.030208333333333334,0.39814814814814814],[0.030208333333333334,0.39814814814814814],[0.030208333333333334,0.39814814814814814],[0.030208333333333334,0.39814814814814814]]","[[-0.027187500000000024,0.5681481481481481],[-0.027187500000000024,0.5681481481481481],[-0.027187500000000024,0.5681481481481481],[-0.04083333333333338,0.5957407407407408],[-0.04083333333333338,0.5957407407407408],[-0.07322916666666662,0.5807407407407408],[-0.0953125,0.5392592592592593],[-0.10697916666666671,0.527962962962963],[-0.103125,0.5055555555555555],[-0.11499999999999998,0.4468518518518518],[-0.12437499999999997,0.38722222222222225],[-0.14979166666666663,0.4107407407407407],[-0.1554166666666667,0.3772222222222223],[-0.16031249999999997,0.36444444444444435],[-0.16031249999999997,0.36444444444444435],[-0.14677083333333332,0.38259259259259265],[-0.10885416666666667,0.35555555555555557],[-0.078125,0.3509259259259259],[-0.04885416666666664,0.3624074074074075],[-0.024374999999999977,0.3731481481481482],[-0.009583333333333381,0.4016666666666666],[0.029375000000000047,0.4192592592592592],[0.058749999999999976,0.4050000000000001],[0.06458333333333334,0.4014814814814814],[0.09656250000000005,0.3670370370370371],[0.06791666666666671,0.27018518518518514],[0.029791666666666692,0.24296296296296305],[-0.00947916666666669,0.21370370370370367],[-0.05770833333333331,0.1381481481481482],[-0.09708333333333338,0.08888888888888889],[-0.12927083333333336,0.022037037037036994],[-0.18010416666666665,-0.014629629629629588],[-0.2295833333333333,-0.05851851851851856],[-0.27531249999999996,-0.05611111111111113],[-0.3195833333333333,-0.0794444444444444],[-0.315,-0.08388888888888892],[-0.3242708333333333,-0.027962962962963005],[-0.33239583333333333,0.030000000000000086],[-0.33239583333333333,0.030000000000000086],[-0.35125000000000006,0.08222222222222218],[-0.35125000000000006,0.08222222222222218],[-0.37520833333333337,0.1235185185185186],[-0.40375,0.11370370370370367],[-0.40375,0.11370370370370367],[-0.43937499999999996,0.07388888888888885],[-0.43937499999999996,0.07388888888888885],[-0.46,0.11296296296296296],[-0.4827083333333333,0.0824074074074074],[-0.4827083333333333,0.0824074074074074],[-0.4595833333333334,0.0911111111111112],[-0.43645833333333334,0.09981481481481477],[-0.3935416666666666,0.055000000000000084],[-0.3454166666666667,0.01185185185185181],[-0.2865625,-0.02555555555555547],[-0.25375000000000003,-0.09740740740740746],[-0.2033333333333334,-0.09240740740740737],[-0.14187500000000006,-0.06018518518518518],[-0.0967708333333333,-0.09962962962962965],[-0.057083333333333285,-0.06333333333333331],[-0.06468750000000002,-0.04055555555555551],[-0.05281250000000005,-0.011111111111111112],[-0.046875,0.011481481481481566],[-0.03833333333333329,0.09185185185185189],[-0.029791666666666692,0.17222222222222222],[0.007083333333333286,0.25277777777777777],[0.043958333333333384,0.3333333333333333],[0.07208333333333337,0.37462962962962953],[0.10020833333333339,0.415925925925926],[0.1319791666666667,0.4744444444444445],[0.14895833333333333,0.5244444444444445],[0.14645833333333325,0.5677777777777778],[0.12458333333333324,0.6411111111111112],[0.09489583333333323,0.6550000000000001],[0.06427083333333337,0.6305555555555555],[0.036354166666666646,0.6462962962962963],[0.010312499999999976,0.6714814814814816],[-0.03229166666666667,0.6874074074074075],[-0.07489583333333331,0.7033333333333333],[-0.12010416666666662,0.6851851851851852],[-0.15052083333333333,0.6755555555555555],[-0.17875000000000002,0.6857407407407407],[-0.18312499999999995,0.6603703703703704],[-0.20927083333333332,0.656111111111111],[-0.23447916666666668,0.6901851851851852],[-0.26229166666666665,0.7046296296296296],[-0.2919791666666666,0.7096296296296297],[-0.3095833333333334,0.7246296296296295],[-0.3271875,0.7396296296296296],[-0.31572916666666667,0.7581481481481481],[-0.3042708333333334,0.7766666666666666],[-0.32125,0.7646296296296295],[-0.32125,0.7646296296296295],[-0.34270833333333334,0.7581481481481481],[-0.32708333333333334,0.7325925925925927],[-0.31145833333333334,0.7070370370370369],[-0.3102083333333333,0.6790740740740742],[-0.30895833333333333,0.6511111111111112],[-0.3,0.6322222222222221],[-0.28708333333333336,0.6111111111111112],[-0.30802083333333335,0.6077777777777779],[-0.3303125,0.5987037037037036],[-0.32687499999999997,0.6205555555555556],[-0.325625,0.6390740740740741],[-0.3407291666666667,0.653888888888889],[-0.3459375,0.6892592592592593],[-0.3429166666666667,0.7253703703703704],[-0.34135416666666674,0.7451851851851852],[-0.3453125,0.7672222222222221],[-0.34177083333333336,0.7644444444444444],[-0.3407291666666667,0.7800000000000001],[-0.3296875,0.7707407407407408],[-0.318125,0.7412962962962962],[-0.29312499999999997,0.7064814814814815],[-0.2670833333333333,0.6733333333333333],[-0.24468749999999997,0.6157407407407407],[-0.22791666666666663,0.5755555555555555],[-0.20249999999999999,0.5285185185185185],[-0.17708333333333334,0.48148148148148145],[-0.16312500000000002,0.46148148148148155],[-0.1452083333333333,0.4685185185185185],[-0.13770833333333338,0.4816666666666667],[-0.12322916666666663,0.487962962962963],[-0.12000000000000005,0.5029629629629631],[-0.12010416666666662,0.5192592592592592],[-0.10114583333333335,0.5640740740740741],[-0.0765625,0.5914814814814814],[-0.04770833333333328,0.615],[-0.01885416666666669,0.6385185185185185],[-0.011354166666666643,0.6644444444444444],[0.005937500000000048,0.6344444444444445],[0.035104166666666714,0.6422222222222221],[0.057291666666666664,0.6568518518518519],[0.057291666666666664,0.6568518518518519],[0.08322916666666676,0.634074074074074],[0.1125,0.6422222222222221],[0.11645833333333329,0.6257407407407407],[0.12281250000000009,0.5992592592592593],[0.11770833333333333,0.5998148148148148],[0.12083333333333333,0.5733333333333334],[0.14343750000000005,0.5218518518518518],[0.19114583333333332,0.5025925925925926],[0.2287499999999999,0.4699999999999999],[0.2663541666666667,0.43740740740740747],[0.2834374999999999,0.4564814814814815],[0.2915625000000001,0.4185185185185185],[0.2671875,0.37185185185185177],[0.2404166666666666,0.3351851851851852],[0.20833333333333334,0.3066666666666667],[0.16572916666666657,0.31240740740740747],[0.125,0.34074074074074073],[0.03145833333333338,0.322037037037037],[-0.06208333333333336,0.30333333333333323],[-0.15562499999999999,0.31870370370370377],[-0.23812500000000003,0.3001851851851852],[-0.30843750000000003,0.30574074074074076],[-0.34625,0.3199999999999999],[-0.35958333333333337,0.375],[-0.3676041666666666,0.42185185185185176],[-0.3676041666666666,0.42185185185185176],[-0.3936458333333333,0.4103703703703704],[-0.4288541666666667,0.40962962962962973],[-0.4288541666666667,0.40962962962962973],[-0.45677083333333335,0.39462962962962966],[-0.45677083333333335,0.39462962962962966],[-0.46031249999999996,0.4331481481481481],[-0.46031249999999996,0.4331481481481481],[-0.46031249999999996,0.41148148148148156],[-0.46031249999999996,0.41148148148148156],[-0.45427083333333335,0.3624074074074075],[-0.45427083333333335,0.3624074074074075],[-0.4292708333333334,0.3866666666666666],[-0.3789583333333333,0.44944444444444454],[-0.33083333333333337,0.4192592592592592],[-0.2982291666666666,0.40981481481481474],[-0.225,0.45259259259259255],[-0.14770833333333327,0.4842592592592593],[-0.14770833333333327,0.4842592592592593],[-0.05135416666666662,0.5259259259259259],[0.018333333333333358,0.5177777777777778],[0.10197916666666676,0.5544444444444444],[0.16291666666666677,0.5964814814814815],[0.21489583333333329,0.575925925925926],[0.23052083333333329,0.5612962962962963],[0.23302083333333337,0.5975925925925927],[0.23937499999999995,0.6125925925925925],[0.22541666666666677,0.6264814814814814],[0.20145833333333343,0.6166666666666667],[0.1788541666666667,0.6259259259259259],[0.15916666666666662,0.6388888888888888],[0.1306250000000001,0.6638888888888889],[0.1306250000000001,0.6638888888888889],[0.11583333333333339,0.6998148148148148],[0.08489583333333334,0.7240740740740741],[0.058749999999999976,0.7231481481481481],[0.058749999999999976,0.7231481481481481],[0.014583333333333334,0.7248148148148148],[-0.016770833333333356,0.7051851851851851],[-0.03125,0.6738888888888889],[-0.010000000000000024,0.6733333333333333],[0.011249999999999953,0.6727777777777777],[0.04354166666666662,0.6420370370370371],[0.0671875,0.5805555555555556],[0.08604166666666657,0.547037037037037],[0.0890625,0.5148148148148148],[0.11885416666666657,0.49796296296296294],[0.16989583333333325,0.47925925925925916],[0.22208333333333338,0.4714814814814815],[0.2573958333333332,0.47537037037037044],[0.2616666666666667,0.44240740740740736],[0.24052083333333343,0.40981481481481474],[0.22458333333333325,0.4505555555555555],[0.20864583333333328,0.49129629629629623],[0.20864583333333328,0.49129629629629623],[0.23395833333333324,0.4703703703703704],[0.27802083333333344,0.4498148148148148],[0.29718749999999994,0.4418518518518519],[0.3039583333333333,0.43444444444444447],[0.3026041666666667,0.4235185185185186],[0.3012500000000001,0.4125925925925925],[0.2959374999999999,0.3948148148148149],[0.32177083333333345,0.38333333333333336],[0.3307291666666667,0.3212962962962963],[0.33562500000000006,0.23740740740740748],[0.31270833333333337,0.21796296296296305],[0.2526041666666667,0.16407407407407412],[0.18260416666666662,0.09222222222222214],[0.11947916666666672,0.04611111111111107],[0.06218750000000005,0.01444444444444436],[0.02177083333333331,-0.04425925925925922],[-0.004270833333333357,-0.06592592592592597],[-0.03885416666666662,-0.06444444444444447],[-0.0734375,-0.06296296296296296],[-0.1453125,-0.05018518518518523],[-0.2171875,-0.03740740740740749],[-0.2171875,-0.03740740740740749],[-0.21312500000000004,0.046296296296296294],[-0.2001041666666667,0.0985185185185186],[-0.19395833333333337,0.125],[-0.1671875,0.13407407407407404],[-0.13812500000000003,0.17851851851851847],[-0.10906250000000005,0.22296296296296292],[-0.0938541666666667,0.21888888888888897],[-0.1171875,0.20277777777777778],[-0.09572916666666664,0.21944444444444444],[-0.042708333333333334,0.22240740740740744],[-0.028437499999999952,0.18888888888888888],[-0.019270833333333334,0.18425925925925926],[-0.0003124999999999526,0.19185185185185188],[0.0015625,0.22777777777777777],[-0.014895833333333285,0.20333333333333325],[-0.030208333333333334,0.1992592592592593],[-0.028854166666666715,0.21388888888888888],[-0.003333333333333381,0.21351851851851844],[0.01875,0.19092592592592597],[0.011249999999999953,0.1449999999999999],[0.012395833333333309,0.1081481481481481],[0.012395833333333309,0.1081481481481481],[0.017812500000000023,0.07888888888888893],[-0.0032291666666666905,-0.007962962962962878],[-0.00604166666666662,-0.10092592592592593],[-0.007500000000000047,-0.12370370370370372],[-0.010104166666666714,-0.1668518518518519],[-0.01270833333333338,-0.20999999999999996],[-0.01885416666666669,-0.24000000000000005],[-0.025,-0.27],[-0.04812500000000005,-0.2801851851851852],[-0.07989583333333337,-0.2994444444444444],[-0.059062500000000046,-0.2831481481481481],[-0.030729166666666665,-0.25851851851851854],[-0.024166666666666715,-0.23870370370370367],[-0.011354166666666643,-0.23074074074074077],[-0.011354166666666643,-0.23074074074074077],[0.0014583333333333095,-0.2227777777777778],[0.011249999999999953,-0.22685185185185186],[0.0002083333333333807,-0.2601851851851852],[0.01552083333333331,-0.26722222222222225],[0.041562499999999974,-0.24814814814814815],[0.06760416666666676,-0.22907407407407404],[0.06760416666666676,-0.22907407407407404],[0.0375,-0.22444444444444442],[0.01572916666666669,-0.22037037037037038],[0.003958333333333286,-0.2064814814814815],[0.003958333333333286,-0.2064814814814815],[-0.01854166666666662,-0.23351851851851857],[-0.01854166666666662,-0.23351851851851857],[-0.03958333333333333,-0.24092592592592596],[-0.057604166666666616,-0.23629629629629634],[-0.057604166666666616,-0.23629629629629634],[-0.01906249999999995,-0.15481481481481485],[-0.01906249999999995,-0.15481481481481485],[-0.036458333333333336,-0.12333333333333338],[-0.036458333333333336,-0.12333333333333338],[-0.03687499999999998,-0.08851851851851854],[-0.05135416666666662,-0.05555555555555555],[-0.06895833333333339,-0.09129629629629632],[-0.08624999999999995,-0.08944444444444447],[-0.07791666666666662,-0.08537037037037042],[-0.0672916666666667,-0.04666666666666675],[-0.06124999999999995,-0.037037037037037035],[-0.05520833333333333,-0.027407407407407325],[-0.05677083333333333,-0.08037037037037033],[-0.028750000000000022,-0.1096296296296296],[-0.028854166666666715,-0.12481481481481477],[-0.012187500000000047,-0.13259259259259262],[-0.003333333333333381,-0.16314814814814818],[0.016354166666666715,-0.1661111111111111],[-0.02312500000000005,-0.19907407407407407],[-0.0626041666666667,-0.23203703703703707],[-0.06749999999999995,-0.24685185185185188],[-0.0702083333333333,-0.26481481481481484],[-0.08312499999999995,-0.25388888888888894],[-0.10552083333333329,-0.22740740740740742],[-0.11197916666666667,-0.24092592592592596],[-0.10552083333333329,-0.24277777777777781],[-0.07218749999999995,-0.23703703703703705],[-0.05572916666666667,-0.25018518518518523],[-0.014583333333333334,-0.2192592592592592],[0.0265625,-0.18833333333333332],[0.04104166666666664,-0.16407407407407412],[0.05364583333333333,-0.1374074074074074],[0.05593750000000005,-0.12462962962962965],[0.07020833333333343,-0.12999999999999998],[0.09281249999999991,-0.0977777777777778],[0.09979166666666663,-0.08277777777777776],[0.08208333333333329,-0.056296296296296254],[0.07520833333333338,-0.019999999999999917],[0.08145833333333338,0],[0.08770833333333337,0.019999999999999917],[0.06739583333333338,-0.001851851851851852]]","[[-0.027187500000000024,0.5681481481481481,0.00019999999553022008],[-0.027187500000000024,0.5681481481481481,0.04019999999552937],[-0.027187500000000024,0.5681481481481481,0.045000000000001705],[-0.04083333333333338,0.5957407407407408,0.06169999999553255],[-0.04083333333333338,0.5957407407407408,0.07829999999702153],[-0.07322916666666662,0.5807407407407408,0.09510000000148722],[-0.0953125,0.5392592592592593,0.11179999999701806],[-0.10697916666666671,0.527962962962963,0.12839999999850704],[-0.103125,0.5055555555555555,0.14510000000149148],[-0.11499999999999998,0.4468518518518518,0.1616000000014921],[-0.12437499999999997,0.38722222222222225,0.17849999999999966],[-0.14979166666666663,0.4107407407407407,0.19489999999851193],[-0.1554166666666667,0.3772222222222223,0.2120000000000033],[-0.16031249999999997,0.36444444444444435,0.22849999999999682],[-0.16031249999999997,0.36444444444444435,0.24519999999552766],[-0.14677083333333332,0.38259259259259265,0.2616999999955283],[-0.10885416666666667,0.35555555555555557,0.2783999999985127],[-0.078125,0.3509259259259259,0.2950000000000017],[-0.04885416666666664,0.3624074074074075,0.3117999999970209],[-0.024374999999999977,0.3731481481481482,0.32829999999702153],[-0.009583333333333381,0.4016666666666666,0.3451999999955291],[0.029375000000000047,0.4192592592592592,0.36160000000148784],[0.058749999999999976,0.4050000000000001,0.3782999999970187],[0.06458333333333334,0.4014814814814814,0.3951000000014915],[0.09656250000000005,0.3670370370370371,0.41169999999552687],[0.06791666666666671,0.27018518518518514,0.42849999999999966],[0.029791666666666692,0.24296296296296305,0.44510000000148864],[-0.00947916666666669,0.21370370370370367,0.46169999999553113],[-0.05770833333333331,0.1381481481481482,0.4782999999970201],[-0.09708333333333338,0.08888888888888889,0.4951000000014929],[-0.12927083333333336,0.022037037037036994,0.5116000000014935],[-0.18010416666666665,-0.014629629629629588,0.5306999999955266],[-0.2295833333333333,-0.05851851851851856,0.5476999999955297],[-0.27531249999999996,-0.05611111111111113,0.5616999999955326],[-0.3195833333333333,-0.0794444444444444,0.5782999999970215],[-0.315,-0.08388888888888892,0.5949999999999989],[-0.3242708333333333,-0.027962962962963005,0.6116999999955297],[-0.33239583333333333,0.030000000000000086,0.628399999998507],[-0.33239583333333333,0.030000000000000086,0.6451999999955333],[-0.35125000000000006,0.08222222222222218,0.6616000000014921],[-0.35125000000000006,0.08222222222222218,0.6784999999999997],[-0.37520833333333337,0.1235185185185186,0.6948999999985119],[-0.40375,0.11370370370370367,0.716799999997022],[-0.40375,0.11370370370370367,0.7283999999985085],[-0.43937499999999996,0.07388888888888885,0.7451999999955277],[-0.43937499999999996,0.07388888888888885,0.7616999999955283],[-0.46,0.11296296296296296,0.7783999999985127],[-0.4827083333333333,0.0824074074074074,0.8011000000014903],[-0.4827083333333333,0.0824074074074074,0.8116999999955326],[-0.4595833333333334,0.0911111111111112,0.8284999999999982],[-0.43645833333333334,0.09981481481481477,0.8448999999985105],[-0.3935416666666666,0.055000000000000084,0.8616999999955297],[-0.3454166666666667,0.01185185185185181,0.8781999999955303],[-0.2865625,-0.02555555555555547,0.8951999999955333],[-0.25375000000000003,-0.09740740740740746,0.9118999999985107],[-0.2033333333333334,-0.09240740740740737,0.9286999999955299],[-0.14187500000000006,-0.06018518518518518,0.9481000000014888],[-0.0967708333333333,-0.09962962962962965,0.9621000000014917],[-0.057083333333333285,-0.06333333333333331,0.9783999999985085],[-0.06468750000000002,-0.04055555555555551,0.9948999999985091],[-0.05281250000000005,-0.011111111111111112,1.0116999999955283],[-0.046875,0.011481481481481566,1.0282999999970173],[-0.03833333333333329,0.09185185185185189,1.0450000000000017],[-0.029791666666666692,0.17222222222222222,1.0616999999955326],[0.007083333333333286,0.25277777777777777,1.0782999999970215],[0.043958333333333384,0.3333333333333333,1.0949999999999989],[0.07208333333333337,0.37462962962962953,1.1118999999985135],[0.10020833333333339,0.415925925925926,1.128399999998507],[0.1319791666666667,0.4744444444444445,1.1451000000014915],[0.14895833333333333,0.5244444444444445,1.1616999999955269],[0.14645833333333325,0.5677777777777778,1.1781999999955275],[0.12458333333333324,0.6411111111111112,1.1950000000000003],[0.09489583333333323,0.6550000000000001,1.2116000000014893],[0.06427083333333337,0.6305555555555555,1.2284999999999968],[0.036354166666666646,0.6462962962962963,1.244899999998509],[0.010312499999999976,0.6714814814814816,1.2616999999955283],[-0.03229166666666667,0.6874074074074075,1.278199999995529],[-0.07489583333333331,0.7033333333333333,1.29510000000149],[-0.12010416666666662,0.6851851851851852,1.3116000000014907],[-0.15052083333333333,0.6755555555555555,1.3284999999999982],[-0.17875000000000002,0.6857407407407407,1.3451000000014872],[-0.18312499999999995,0.6603703703703704,1.3616000000014878],[-0.20927083333333332,0.656111111111111,1.378399999998507],[-0.23447916666666668,0.6901851851851852,1.3948999999985077],[-0.26229166666666665,0.7046296296296296,1.4116999999955269],[-0.2919791666666666,0.7096296296296297,1.428600000001488],[-0.3095833333333334,0.7246296296296295,1.4450000000000003],[-0.3271875,0.7396296296296296,1.4616000000014893],[-0.31572916666666667,0.7581481481481481,1.4783999999985085],[-0.3042708333333334,0.7766666666666666,1.4949999999999974],[-0.32125,0.7646296296296295,1.5116999999955283],[-0.32125,0.7646296296296295,1.5283999999985127],[-0.34270833333333334,0.7581481481481481,1.5452999999970203],[-0.32708333333333334,0.7325925925925927,1.5616999999955326],[-0.31145833333333334,0.7070370370370369,1.5782999999970215],[-0.3102083333333333,0.6790740740740742,1.5951000000014872],[-0.30895833333333333,0.6511111111111112,1.6116999999955297],[-0.3,0.6322222222222221,1.6285000000000025],[-0.28708333333333336,0.6111111111111112,1.6448999999985077],[-0.30802083333333335,0.6077777777777779,1.6616999999955269],[-0.3303125,0.5987037037037036,1.678299999997023],[-0.32687499999999997,0.6205555555555556,1.6951999999955305],[-0.325625,0.6390740740740741,1.7116999999955311],[-0.3407291666666667,0.653888888888889,1.7293999999985132],[-0.3459375,0.6892592592592593,1.7454999999999998],[-0.3429166666666667,0.7253703703703704,1.7616000000014935],[-0.34135416666666674,0.7451851851851852,1.7783999999985127],[-0.3453125,0.7672222222222221,1.7948999999985134],[-0.34177083333333336,0.7644444444444444,1.8116999999955326],[-0.3407291666666667,0.7800000000000001,1.8312999999970216],[-0.3296875,0.7707407407407408,1.8452999999970174],[-0.318125,0.7412962962962962,1.8616999999955297],[-0.29312499999999997,0.7064814814814815,1.878399999998507],[-0.2670833333333333,0.6733333333333333,1.8948999999985077],[-0.24468749999999997,0.6157407407407407,1.9116999999955269],[-0.22791666666666663,0.5755555555555555,1.928600000001488],[-0.20249999999999999,0.5285185185185185,1.9451000000014886],[-0.17708333333333334,0.48148148148148145,1.9616999999955311],[-0.16312500000000002,0.46148148148148155,1.97829999999702],[-0.1452083333333333,0.4685185185185185,1.995100000001493],[-0.13770833333333338,0.4816666666666667,2.0116000000014935],[-0.12322916666666663,0.487962962962963,2.0287999999970197],[-0.12000000000000005,0.5029629629629631,2.0450000000000017],[-0.12010416666666662,0.5192592592592592,2.061799999997021],[-0.10114583333333335,0.5640740740740741,2.0786999999955285],[-0.0765625,0.5914814814814814,2.095100000001487],[-0.04770833333333328,0.615,2.111600000001488],[-0.01885416666666669,0.6385185185185185,2.1282999999970187],[-0.011354166666666643,0.6644444444444444,2.1462999999970194],[0.005937500000000048,0.6344444444444445,2.161600000001492],[0.035104166666666714,0.6422222222222221,2.1783999999985113],[0.057291666666666664,0.6568518518518519,2.1950000000000003],[0.057291666666666664,0.6568518518518519,2.2117999999970195],[0.08322916666666676,0.634074074074074,2.22829999999702],[0.1125,0.6422222222222221,2.245100000001493],[0.11645833333333329,0.6257407407407407,2.2616999999955283],[0.12281250000000009,0.5992592592592593,2.2783999999985127],[0.11770833333333333,0.5998148148148148,2.2948999999985134],[0.12083333333333333,0.5733333333333334,2.311799999997021],[0.14343750000000005,0.5218518518518518,2.3282999999970215],[0.19114583333333332,0.5025925925925926,2.3473999999985082],[0.2287499999999999,0.4699999999999999,2.361600000001488],[0.2663541666666667,0.43740740740740747,2.378399999998507],[0.2834374999999999,0.4564814814814815,2.395000000000003],[0.2915625000000001,0.4185185185185185,2.4118999999985107],[0.2671875,0.37185185185185177,2.4284999999999997],[0.2404166666666666,0.3351851851851852,2.444899999998512],[0.20833333333333334,0.3066666666666667,2.461899999998508],[0.16572916666666657,0.31240740740740747,2.47829999999702],[0.125,0.34074074074074073,2.495100000001493],[0.03145833333333338,0.322037037037037,2.5116000000014935],[-0.06208333333333336,0.30333333333333323,2.5316999999955314],[-0.15562499999999999,0.31870370370370377,2.548499999999997],[-0.23812500000000003,0.3001851851851852,2.562100000001493],[-0.30843750000000003,0.30574074074074076,2.5784999999999982],[-0.34625,0.3199999999999999,2.5948999999985105],[-0.35958333333333337,0.375,2.6116999999955297],[-0.3676041666666666,0.42185185185185176,2.6322999999970236],[-0.3676041666666666,0.42185185185185176,2.6451000000014915],[-0.3936458333333333,0.4103703703703704,2.661699999995527],[-0.4288541666666667,0.40962962962962973,2.6821000000014905],[-0.4288541666666667,0.40962962962962973,2.694899999998512],[-0.45677083333333335,0.39462962962962966,2.7117999999970195],[-0.45677083333333335,0.39462962962962966,2.7283999999985085],[-0.46031249999999996,0.4331481481481481,2.7451999999955277],[-0.46031249999999996,0.4331481481481481,2.7616999999955283],[-0.46031249999999996,0.41148148148148156,2.7782999999970173],[-0.46031249999999996,0.41148148148148156,2.795199999995532],[-0.45427083333333335,0.3624074074074075,2.8116999999955326],[-0.45427083333333335,0.3624074074074075,2.82839999999851],[-0.4292708333333334,0.3866666666666666,2.844999999999999],[-0.3789583333333333,0.44944444444444454,2.8616999999955297],[-0.33083333333333337,0.4192592592592592,2.8782999999970187],[-0.2982291666666666,0.40981481481481474,2.8951999999955333],[-0.225,0.45259259259259255,2.911999999999999],[-0.14770833333333327,0.4842592592592593,2.9281999999955275],[-0.14770833333333327,0.4842592592592593,2.9450000000000003],[-0.05135416666666662,0.5259259259259259,2.9616000000014893],[0.018333333333333358,0.5177777777777778,2.97829999999702],[0.10197916666666676,0.5544444444444444,2.994899999998509],[0.16291666666666677,0.5964814814814815,3.0116999999955283],[0.21489583333333329,0.575925925925926,3.0282999999970173],[0.23052083333333329,0.5612962962962963,3.046999999999997],[0.23302083333333337,0.5975925925925927,3.0616000000014907],[0.23937499999999995,0.6125925925925925,3.078799999997017],[0.22541666666666677,0.6264814814814814,3.0948999999985105],[0.20145833333333343,0.6166666666666667,3.1116999999955297],[0.1788541666666667,0.6259259259259259,3.1288999999985094],[0.15916666666666662,0.6388888888888888,3.1481999999955335],[0.1306250000000001,0.6638888888888889,3.1617999999970223],[0.1306250000000001,0.6638888888888889,3.1803999999985066],[0.11583333333333339,0.6998148148148148,3.1958999999985096],[0.08489583333333334,0.7240740740740741,3.2161000000014894],[0.058749999999999976,0.7231481481481481,3.231699999995527],[0.058749999999999976,0.7231481481481481,3.2449999999999974],[0.014583333333333334,0.7248148148148148,3.2616999999955283],[-0.016770833333333356,0.7051851851851851,3.280600000001492],[-0.03125,0.6738888888888889,3.2953999999985086],[-0.010000000000000024,0.6733333333333333,3.311799999997021],[0.011249999999999953,0.6727777777777777,3.3323999999985077],[0.04354166666666662,0.6420370370370371,3.3467999999970175],[0.0671875,0.5805555555555556,3.361799999997018],[0.08604166666666657,0.547037037037037,3.380699999995528],[0.0890625,0.5148148148148148,3.3951999999955333],[0.11885416666666657,0.49796296296296294,3.412399999998513],[0.16989583333333325,0.47925925925925916,3.4321999999955324],[0.22208333333333338,0.4714814814814815,3.447199999995533],[0.2573958333333332,0.47537037037037044,3.4617999999970195],[0.2616666666666667,0.44240740740740736,3.4802999999970226],[0.24052083333333343,0.40981481481481474,3.495299999997023],[0.22458333333333325,0.4505555555555555,3.511899999998512],[0.20864583333333328,0.49129629629629623,3.5341000000014873],[0.20864583333333328,0.49129629629629623,3.5452999999970203],[0.23395833333333324,0.4703703703703704,3.561799999997021],[0.27802083333333344,0.4498148148148148,3.578199999995533],[0.29718749999999994,0.4418518518518519,3.594999999999999],[0.3039583333333333,0.43444444444444447,3.6141000000014927],[0.3026041666666667,0.4235185185185186,3.6285000000000025],[0.3012500000000001,0.4125925925925925,3.647500000000001],[0.2959374999999999,0.3948148148148149,3.661699999995527],[0.32177083333333345,0.38333333333333336,3.678299999997023],[0.3307291666666667,0.3212962962962963,3.6951999999955305],[0.33562500000000006,0.23740740740740748,3.7139999999999986],[0.31270833333333337,0.21796296296296305,3.728699999995527],[0.2526041666666667,0.16407407407407412,3.747],[0.18260416666666662,0.09222222222222214,3.7616000000014935],[0.11947916666666672,0.04611111111111107,3.7782999999970173],[0.06218750000000005,0.01444444444444436,3.7948999999985134],[0.02177083333333331,-0.04425925925925922,3.8116999999955326],[-0.004270833333333357,-0.06592592592592597,3.8282999999970215],[-0.03885416666666662,-0.06444444444444447,3.845100000001487],[-0.0734375,-0.06296296296296296,3.861600000001488],[-0.1453125,-0.05018518518518523,3.878399999998507],[-0.2171875,-0.03740740740740749,3.8948999999985077],[-0.2171875,-0.03740740740740749,3.913899999998513],[-0.21312500000000004,0.046296296296296294,3.9284999999999997],[-0.2001041666666667,0.0985185185185186,3.9451999999955305],[-0.19395833333333337,0.125,3.9647999999970196],[-0.1671875,0.13407407407407404,3.9808999999985133],[-0.13812500000000003,0.17851851851851847,3.995100000001493],[-0.10906250000000005,0.22296296296296292,4.0116000000014935],[-0.0938541666666667,0.21888888888888897,4.0305000000000035],[-0.1171875,0.20277777777777778,4.047199999995527],[-0.09572916666666664,0.21944444444444444,4.061799999997021],[-0.042708333333333334,0.22240740740740744,4.081199999995533],[-0.028437499999999952,0.18888888888888888,4.098399999998513],[-0.019270833333333334,0.18425925925925926,4.113500000000002],[-0.0003124999999999526,0.19185185185185188,4.128999999999998],[0.0015625,0.22777777777777777,4.14689999999851],[-0.014895833333333285,0.20333333333333325,4.161799999997022],[-0.030208333333333334,0.1992592592592593,4.179000000000002],[-0.028854166666666715,0.21388888888888888,4.198299999997019],[-0.003333333333333381,0.21351851851851844,4.21389999999851],[0.01875,0.19092592592592597,4.228499999999997],[0.011249999999999953,0.1449999999999999,4.2468999999985115],[0.012395833333333309,0.1081481481481481,4.261799999997017],[0.012395833333333309,0.1081481481481481,4.278500000000001],[0.017812500000000023,0.07888888888888893,4.29510000000149],[-0.0032291666666666905,-0.007962962962962878,4.313600000001493],[-0.00604166666666662,-0.10092592592592593,4.328799999997017],[-0.007500000000000047,-0.12370370370370372,4.345199999995529],[-0.010104166666666714,-0.1668518518518519,4.361799999997018],[-0.01270833333333338,-0.20999999999999996,4.378299999997019],[-0.01885416666666669,-0.24000000000000005,4.395000000000003],[-0.025,-0.27,4.411600000001492],[-0.04812500000000005,-0.2801851851851852,4.42910000000149],[-0.07989583333333337,-0.2994444444444444,4.4476000000014935],[-0.059062500000000046,-0.2831481481481481,4.461699999995531],[-0.030729166666666665,-0.25851851851851854,4.478199999995532],[-0.024166666666666715,-0.23870370370370367,4.495100000001493],[-0.011354166666666643,-0.23074074074074077,4.5116000000014935],[-0.011354166666666643,-0.23074074074074077,4.528199999995529],[0.0014583333333333095,-0.2227777777777778,4.545199999995532],[0.011249999999999953,-0.22685185185185186,4.561500000000002],[0.0002083333333333807,-0.2601851851851852,4.5782999999970215],[0.01552083333333331,-0.26722222222222225,4.5948999999985105],[0.041562499999999974,-0.24814814814814815,4.613999999999997],[0.06760416666666676,-0.22907407407407404,4.632299999997024],[0.06760416666666676,-0.22907407407407404,4.645199999995533],[0.0375,-0.22444444444444442,4.661600000001492],[0.01572916666666669,-0.22037037037037038,4.683600000001491],[0.003958333333333286,-0.2064814814814815,4.701600000001491],[0.003958333333333286,-0.2064814814814815,4.7117999999970195],[-0.01854166666666662,-0.23351851851851857,4.72829999999702],[-0.01854166666666662,-0.23351851851851857,4.744999999999997],[-0.03958333333333333,-0.24092592592592596,4.761799999997017],[-0.057604166666666616,-0.23629629629629634,4.784100000001487],[-0.057604166666666616,-0.23629629629629634,4.79510000000149],[-0.01906249999999995,-0.15481481481481485,4.811600000001491],[-0.01906249999999995,-0.15481481481481485,4.82839999999851],[-0.036458333333333336,-0.12333333333333338,4.844999999999999],[-0.036458333333333336,-0.12333333333333338,4.86169999999553],[-0.03687499999999998,-0.08851851851851854,4.878299999997019],[-0.05135416666666662,-0.05555555555555555,4.8951000000014915],[-0.06895833333333339,-0.09129629629629632,4.911600000001492],[-0.08624999999999995,-0.08944444444444447,4.928299999997023],[-0.07791666666666662,-0.08537037037037042,4.945],[-0.0672916666666667,-0.04666666666666675,4.961600000001489],[-0.06124999999999995,-0.037037037037037035,4.9783999999985085],[-0.05520833333333333,-0.027407407407407325,4.994899999998509],[-0.05677083333333333,-0.08037037037037033,5.011699999995528],[-0.028750000000000022,-0.1096296296296296,5.028299999997017],[-0.028854166666666715,-0.12481481481481477,5.046299999997018],[-0.012187500000000047,-0.13259259259259262,5.061600000001491],[-0.003333333333333381,-0.16314814814814818,5.07989999999851],[0.016354166666666715,-0.1661111111111111,5.0948999999985105],[-0.02312500000000005,-0.19907407407407407,5.11169999999553],[-0.0626041666666667,-0.23203703703703707,5.128399999998507],[-0.06749999999999995,-0.24685185185185188,5.1451000000014915],[-0.0702083333333333,-0.26481481481481484,5.161600000001492],[-0.08312499999999995,-0.25388888888888894,5.1781999999955275],[-0.10552083333333329,-0.22740740740740742,5.195100000001489],[-0.11197916666666667,-0.24092592592592596,5.211600000001489],[-0.10552083333333329,-0.24277777777777781,5.2306999999955295],[-0.07218749999999995,-0.23703703703703705,5.2472999999970185],[-0.05572916666666667,-0.25018518518518523,5.261699999995528],[-0.014583333333333334,-0.2192592592592592,5.280199999995531],[0.0265625,-0.18833333333333332,5.29510000000149],[0.04104166666666664,-0.16407407407407412,5.311600000001491],[0.05364583333333333,-0.1374074074074074,5.328899999998512],[0.05593750000000005,-0.12462962962962965,5.346899999998513],[0.07020833333333343,-0.12999999999999998,5.361600000001488],[0.09281249999999991,-0.0977777777777778,5.3796000000014885],[0.09979166666666663,-0.08277777777777776,5.394899999998508],[0.08208333333333329,-0.056296296296296254,5.411600000001492],[0.07520833333333338,-0.019999999999999917,5.4281999999955275],[0.08145833333333338,0,5.445],[0.08770833333333337,0.019999999999999917,5.461500000000001],[0.06739583333333338,-0.001851851851851852,5.4783999999985085]]","[0.00019999999553022008,0.04019999999552937,0.045000000000001705,0.06169999999553255,0.07829999999702153,0.09510000000148722,0.11179999999701806,0.12839999999850704,0.14510000000149148,0.1616000000014921,0.17849999999999966,0.19489999999851193,0.2120000000000033,0.22849999999999682,0.24519999999552766,0.2616999999955283,0.2783999999985127,0.2950000000000017,0.3117999999970209,0.32829999999702153,0.3451999999955291,0.36160000000148784,0.3782999999970187,0.3951000000014915,0.41169999999552687,0.42849999999999966,0.44510000000148864,0.46169999999553113,0.4782999999970201,0.4951000000014929,0.5116000000014935,0.5306999999955266,0.5476999999955297,0.5616999999955326,0.5782999999970215,0.5949999999999989,0.6116999999955297,0.628399999998507,0.6451999999955333,0.6616000000014921,0.6784999999999997,0.6948999999985119,0.716799999997022,0.7283999999985085,0.7451999999955277,0.7616999999955283,0.7783999999985127,0.8011000000014903,0.8116999999955326,0.8284999999999982,0.8448999999985105,0.8616999999955297,0.8781999999955303,0.8951999999955333,0.9118999999985107,0.9286999999955299,0.9481000000014888,0.9621000000014917,0.9783999999985085,0.9948999999985091,1.0116999999955283,1.0282999999970173,1.0450000000000017,1.0616999999955326,1.0782999999970215,1.0949999999999989,1.1118999999985135,1.128399999998507,1.1451000000014915,1.1616999999955269,1.1781999999955275,1.1950000000000003,1.2116000000014893,1.2284999999999968,1.244899999998509,1.2616999999955283,1.278199999995529,1.29510000000149,1.3116000000014907,1.3284999999999982,1.3451000000014872,1.3616000000014878,1.378399999998507,1.3948999999985077,1.4116999999955269,1.428600000001488,1.4450000000000003,1.4616000000014893,1.4783999999985085,1.4949999999999974,1.5116999999955283,1.5283999999985127,1.5452999999970203,1.5616999999955326,1.5782999999970215,1.5951000000014872,1.6116999999955297,1.6285000000000025,1.6448999999985077,1.6616999999955269,1.678299999997023,1.6951999999955305,1.7116999999955311,1.7293999999985132,1.7454999999999998,1.7616000000014935,1.7783999999985127,1.7948999999985134,1.8116999999955326,1.8312999999970216,1.8452999999970174,1.8616999999955297,1.878399999998507,1.8948999999985077,1.9116999999955269,1.928600000001488,1.9451000000014886,1.9616999999955311,1.97829999999702,1.995100000001493,2.0116000000014935,2.0287999999970197,2.0450000000000017,2.061799999997021,2.0786999999955285,2.095100000001487,2.111600000001488,2.1282999999970187,2.1462999999970194,2.161600000001492,2.1783999999985113,2.1950000000000003,2.2117999999970195,2.22829999999702,2.245100000001493,2.2616999999955283,2.2783999999985127,2.2948999999985134,2.311799999997021,2.3282999999970215,2.3473999999985082,2.361600000001488,2.378399999998507,2.395000000000003,2.4118999999985107,2.4284999999999997,2.444899999998512,2.461899999998508,2.47829999999702,2.495100000001493,2.5116000000014935,2.5316999999955314,2.548499999999997,2.562100000001493,2.5784999999999982,2.5948999999985105,2.6116999999955297,2.6322999999970236,2.6451000000014915,2.661699999995527,2.6821000000014905,2.694899999998512,2.7117999999970195,2.7283999999985085,2.7451999999955277,2.7616999999955283,2.7782999999970173,2.795199999995532,2.8116999999955326,2.82839999999851,2.844999999999999,2.8616999999955297,2.8782999999970187,2.8951999999955333,2.911999999999999,2.9281999999955275,2.9450000000000003,2.9616000000014893,2.97829999999702,2.994899999998509,3.0116999999955283,3.0282999999970173,3.046999999999997,3.0616000000014907,3.078799999997017,3.0948999999985105,3.1116999999955297,3.1288999999985094,3.1481999999955335,3.1617999999970223,3.1803999999985066,3.1958999999985096,3.2161000000014894,3.231699999995527,3.2449999999999974,3.2616999999955283,3.280600000001492,3.2953999999985086,3.311799999997021,3.3323999999985077,3.3467999999970175,3.361799999997018,3.380699999995528,3.3951999999955333,3.412399999998513,3.4321999999955324,3.447199999995533,3.4617999999970195,3.4802999999970226,3.495299999997023,3.511899999998512,3.5341000000014873,3.5452999999970203,3.561799999997021,3.578199999995533,3.594999999999999,3.6141000000014927,3.6285000000000025,3.647500000000001,3.661699999995527,3.678299999997023,3.6951999999955305,3.7139999999999986,3.728699999995527,3.747,3.7616000000014935,3.7782999999970173,3.7948999999985134,3.8116999999955326,3.8282999999970215,3.845100000001487,3.861600000001488,3.878399999998507,3.8948999999985077,3.913899999998513,3.9284999999999997,3.9451999999955305,3.9647999999970196,3.9808999999985133,3.995100000001493,4.0116000000014935,4.0305000000000035,4.047199999995527,4.061799999997021,4.081199999995533,4.098399999998513,4.113500000000002,4.128999999999998,4.14689999999851,4.161799999997022,4.179000000000002,4.198299999997019,4.21389999999851,4.228499999999997,4.2468999999985115,4.261799999997017,4.278500000000001,4.29510000000149,4.313600000001493,4.328799999997017,4.345199999995529,4.361799999997018,4.378299999997019,4.395000000000003,4.411600000001492,4.42910000000149,4.4476000000014935,4.461699999995531,4.478199999995532,4.495100000001493,4.5116000000014935,4.528199999995529,4.545199999995532,4.561500000000002,4.5782999999970215,4.5948999999985105,4.613999999999997,4.632299999997024,4.645199999995533,4.661600000001492,4.683600000001491,4.701600000001491,4.7117999999970195,4.72829999999702,4.744999999999997,4.761799999997017,4.784100000001487,4.79510000000149,4.811600000001491,4.82839999999851,4.844999999999999,4.86169999999553,4.878299999997019,4.8951000000014915,4.911600000001492,4.928299999997023,4.945,4.961600000001489,4.9783999999985085,4.994899999998509,5.011699999995528,5.028299999997017,5.046299999997018,5.061600000001491,5.07989999999851,5.0948999999985105,5.11169999999553,5.128399999998507,5.1451000000014915,5.161600000001492,5.1781999999955275,5.195100000001489,5.211600000001489,5.2306999999955295,5.2472999999970185,5.261699999995528,5.280199999995531,5.29510000000149,5.311600000001491,5.328899999998512,5.346899999998513,5.361600000001488,5.3796000000014885,5.394899999998508,5.411600000001492,5.4281999999955275,5.445,5.461500000000001,5.4783999999985085]","[1733280485156,1733280485188,1733280485193,1733280485210,1733280485227,1733280485243,1733280485260,1733280485277,1733280485293,1733280485310,1733280485327,1733280485343,1733280485360,1733280485377,1733280485393,1733280485410,1733280485427,1733280485443,1733280485460,1733280485477,1733280485493,1733280485510,1733280485526,1733280485543,1733280485560,1733280485577,1733280485593,1733280485610,1733280485626,1733280485643,1733280485660,1733280485679,1733280485696,1733280485710,1733280485727,1733280485743,1733280485760,1733280485777,1733280485793,1733280485810,1733280485827,1733280485843,1733280485865,1733280485877,1733280485893,1733280485910,1733280485927,1733280485949,1733280485960,1733280485977,1733280485993,1733280486010,1733280486026,1733280486043,1733280486060,1733280486077,1733280486096,1733280486110,1733280486127,1733280486143,1733280486160,1733280486177,1733280486193,1733280486210,1733280486227,1733280486243,1733280486260,1733280486277,1733280486293,1733280486310,1733280486326,1733280486343,1733280486360,1733280486377,1733280486393,1733280486410,1733280486426,1733280486443,1733280486460,1733280486477,1733280486493,1733280486510,1733280486527,1733280486543,1733280486560,1733280486577,1733280486593,1733280486610,1733280486627,1733280486643,1733280486660,1733280486677,1733280486693,1733280486710,1733280486726,1733280486743,1733280486760,1733280486777,1733280486793,1733280486810,1733280486826,1733280486843,1733280486860,1733280486878,1733280486894,1733280486910,1733280486927,1733280486943,1733280486960,1733280486979,1733280486994,1733280487010,1733280487027,1733280487043,1733280487060,1733280487077,1733280487093,1733280487110,1733280487126,1733280487143,1733280487160,1733280487177,1733280487193,1733280487210,1733280487227,1733280487243,1733280487260,1733280487277,1733280487295,1733280487310,1733280487327,1733280487343,1733280487360,1733280487377,1733280487393,1733280487410,1733280487427,1733280487443,1733280487460,1733280487477,1733280487496,1733280487510,1733280487527,1733280487543,1733280487560,1733280487577,1733280487593,1733280487610,1733280487626,1733280487643,1733280487660,1733280487680,1733280487697,1733280487710,1733280487727,1733280487743,1733280487760,1733280487780,1733280487793,1733280487810,1733280487830,1733280487843,1733280487860,1733280487877,1733280487893,1733280487910,1733280487927,1733280487943,1733280487960,1733280487977,1733280487993,1733280488010,1733280488026,1733280488043,1733280488060,1733280488076,1733280488093,1733280488110,1733280488127,1733280488143,1733280488160,1733280488177,1733280488195,1733280488210,1733280488227,1733280488243,1733280488260,1733280488277,1733280488296,1733280488310,1733280488329,1733280488344,1733280488364,1733280488380,1733280488393,1733280488410,1733280488429,1733280488444,1733280488460,1733280488481,1733280488495,1733280488510,1733280488529,1733280488543,1733280488561,1733280488580,1733280488595,1733280488610,1733280488629,1733280488644,1733280488660,1733280488682,1733280488694,1733280488710,1733280488726,1733280488743,1733280488762,1733280488777,1733280488796,1733280488810,1733280488826,1733280488843,1733280488862,1733280488877,1733280488895,1733280488910,1733280488927,1733280488943,1733280488960,1733280488977,1733280488993,1733280489010,1733280489027,1733280489043,1733280489062,1733280489077,1733280489093,1733280489113,1733280489129,1733280489143,1733280489160,1733280489179,1733280489195,1733280489210,1733280489229,1733280489247,1733280489262,1733280489277,1733280489295,1733280489310,1733280489327,1733280489347,1733280489362,1733280489377,1733280489395,1733280489410,1733280489427,1733280489443,1733280489462,1733280489477,1733280489493,1733280489510,1733280489526,1733280489543,1733280489560,1733280489577,1733280489596,1733280489611,1733280489626,1733280489643,1733280489660,1733280489676,1733280489693,1733280489710,1733280489727,1733280489743,1733280489762,1733280489780,1733280489793,1733280489810,1733280489832,1733280489850,1733280489860,1733280489877,1733280489893,1733280489910,1733280489932,1733280489943,1733280489960,1733280489977,1733280489993,1733280490010,1733280490027,1733280490043,1733280490060,1733280490077,1733280490093,1733280490110,1733280490127,1733280490143,1733280490160,1733280490177,1733280490194,1733280490210,1733280490228,1733280490243,1733280490260,1733280490277,1733280490293,1733280490310,1733280490326,1733280490343,1733280490360,1733280490379,1733280490395,1733280490410,1733280490428,1733280490443,1733280490460,1733280490477,1733280490495,1733280490510,1733280490528,1733280490543,1733280490560,1733280490576,1733280490593,1733280490610,1733280490627]","[[933.9,846.8],[933.9,846.8],[933.9,846.8],[920.8,861.7],[920.8,861.7],[889.7,853.6],[868.5,831.2],[857.3,825.1],[861,813],[849.6,781.3],[840.6,749.1],[816.2,761.8],[810.8,743.7],[806.1,736.8],[806.1,736.8],[819.1,746.6],[855.5,732],[885,729.5],[913.1,735.7],[936.6,741.5],[950.8,756.9],[988.2,766.4],[1016.4,758.7],[1022,756.8],[1052.7,738.2],[1025.2,685.9],[988.6,671.2],[950.9,655.4],[904.6,614.6],[866.8,588],[835.9,551.9],[787.1,532.1],[739.6,508.4],[695.7,509.7],[653.2,497.1],[657.6,494.7],[648.7,524.9],[640.9,556.2],[640.9,556.2],[622.8,584.4],[622.8,584.4],[599.8,606.7],[572.4,601.4],[572.4,601.4],[538.2,579.9],[538.2,579.9],[518.4,601],[496.6,584.5],[496.6,584.5],[518.8,589.2],[541,593.9],[582.2,569.7],[628.4,546.4],[684.9,526.2],[716.4,487.4],[764.8,490.1],[823.8,507.5],[867.1,486.2],[905.2,505.8],[897.9,518.1],[909.3,534],[915,546.2],[923.2,589.6],[931.4,633],[966.8,676.5],[1002.2,720],[1029.2,742.3],[1056.2,764.6],[1086.7,796.2],[1103,823.2],[1100.6,846.6],[1079.6,886.2],[1051.1,893.7],[1021.7,880.5],[994.9,889],[969.9,902.6],[929,911.2],[888.1,919.8],[844.7,910],[815.5,904.8],[788.4,910.3],[784.2,896.6],[759.1,894.3],[734.9,912.7],[708.2,920.5],[679.7,923.2],[662.8,931.3],[645.9,939.4],[656.9,949.4],[667.9,959.4],[651.6,952.9],[651.6,952.9],[631,949.4],[646,935.6],[661,921.8],[662.2,906.7],[663.4,891.6],[672,881.4],[684.4,870],[664.3,868.2],[642.9,863.3],[646.2,875.1],[647.4,885.1],[632.9,893.1],[627.9,912.2],[630.8,931.7],[632.3,942.4],[628.5,954.3],[631.9,952.8],[632.9,961.2],[643.5,956.2],[654.6,940.3],[678.6,921.5],[703.6,903.6],[725.1,872.5],[741.2,850.8],[765.6,825.4],[790,800],[803.4,789.2],[820.6,793],[827.8,800.1],[841.7,803.5],[844.8,811.6],[844.7,820.4],[862.9,844.6],[886.5,859.4],[914.2,872.1],[941.9,884.8],[949.1,898.8],[965.7,882.6],[993.7,886.8],[1015,894.7],[1015,894.7],[1039.9,882.4],[1068,886.8],[1071.8,877.9],[1077.9,863.6],[1073,863.9],[1076,849.6],[1097.7,821.8],[1143.5,811.4],[1179.6,793.8],[1215.7,776.2],[1232.1,786.5],[1239.9,766],[1216.5,740.8],[1190.8,721],[1160,705.6],[1119.1,708.7],[1080,724],[990.2,713.9],[900.4,703.8],[810.6,712.1],[731.4,702.1],[663.9,705.1],[627.6,712.8],[614.8,742.5],[607.1,767.8],[607.1,767.8],[582.1,761.6],[548.3,761.2],[548.3,761.2],[521.5,753.1],[521.5,753.1],[518.1,773.9],[518.1,773.9],[518.1,762.2],[518.1,762.2],[523.9,735.7],[523.9,735.7],[547.9,748.8],[596.2,782.7],[642.4,766.4],[673.7,761.3],[744,784.4],[818.2,801.5],[818.2,801.5],[910.7,824],[977.6,819.6],[1057.9,839.4],[1116.4,862.1],[1166.3,851],[1181.3,843.1],[1183.7,862.7],[1189.8,870.8],[1176.4,878.3],[1153.4,873],[1131.7,878],[1112.8,885],[1085.4,898.5],[1085.4,898.5],[1071.2,917.9],[1041.5,931],[1016.4,930.5],[1016.4,930.5],[974,931.4],[943.9,920.8],[930,903.9],[950.4,903.6],[970.8,903.3],[1001.8,886.7],[1024.5,853.5],[1042.6,835.4],[1045.5,818],[1074.1,808.9],[1123.1,798.8],[1173.2,794.6],[1207.1,796.7],[1211.2,778.9],[1190.9,761.3],[1175.6,783.3],[1160.3,805.3],[1160.3,805.3],[1184.6,794],[1226.9,782.9],[1245.3,778.6],[1251.8,774.6],[1250.5,768.7],[1249.2,762.8],[1244.1,753.2],[1268.9,747],[1277.5,713.5],[1282.2,668.2],[1260.2,657.7],[1202.5,628.6],[1135.3,589.8],[1074.7,564.9],[1019.7,547.8],[980.9,516.1],[955.9,504.4],[922.7,505.2],[889.5,506],[820.5,512.9],[751.5,519.8],[751.5,519.8],[755.4,565],[767.9,593.2],[773.8,607.5],[799.5,612.4],[827.4,636.4],[855.3,660.4],[869.9,658.2],[847.5,649.5],[868.1,658.5],[919,660.1],[932.7,642],[941.5,639.5],[959.7,643.6],[961.5,663],[945.7,649.8],[931,647.6],[932.3,655.5],[956.8,655.3],[978,643.1],[970.8,618.3],[971.9,598.4],[971.9,598.4],[977.1,582.6],[956.9,535.7],[954.2,485.5],[952.8,473.2],[950.3,449.9],[947.8,426.6],[941.9,410.4],[936,394.2],[913.8,388.7],[883.3,378.3],[903.3,387.1],[930.5,400.4],[936.8,411.1],[949.1,415.4],[949.1,415.4],[961.4,419.7],[970.8,417.5],[960.2,399.5],[974.9,395.7],[999.9,406],[1024.9,416.3],[1024.9,416.3],[996,418.8],[975.1,421],[963.8,428.5],[963.8,428.5],[942.2,413.9],[942.2,413.9],[922,409.9],[904.7,412.4],[904.7,412.4],[941.7,456.4],[941.7,456.4],[925,473.4],[925,473.4],[924.6,492.2],[910.7,510],[893.8,490.7],[877.2,491.7],[885.2,493.9],[895.4,514.8],[901.2,520],[907,525.2],[905.5,496.6],[932.4,480.8],[932.3,472.6],[948.3,468.4],[956.8,451.9],[975.7,450.3],[937.8,432.5],[899.9,414.7],[895.2,406.7],[892.6,397],[880.2,402.9],[858.7,417.2],[852.5,409.9],[858.7,408.9],[890.7,412],[906.5,404.9],[946,421.6],[985.5,438.3],[999.4,451.4],[1011.5,465.8],[1013.7,472.7],[1027.4,469.8],[1049.1,487.2],[1055.8,495.3],[1038.8,509.6],[1032.2,529.2],[1038.2,540],[1044.2,550.8],[1024.7,539]]","[0,0.3527331528]","[0.3527331528,0.3527331528]","[-0.3527331528,-0.3527331528]","[-0.3527331528,0]","[0,-0.3527331528]","[0.3527331528,-0.3527331528]","[0,0]","[0.3527331528,0]",0,0,0,0,1,1,Tablet,7,7,15,9
