inst1_resp.keys,inst1_resp.rt,calibrationMouse.x,calibrationMouse.y,calibrationMouse.leftButton,calibrationMouse.midButton,calibrationMouse.rightButton,calibrationClick.x,calibrationClick.y,calibrationClick.leftButton,calibrationClick.midButton,calibrationClick.rightButton,calibrationClick.clicked_name,trialsc.thisRepN,trialsc.thisTrialN,trialsc.thisN,trialsc.thisIndex,trialsc.ran,calibration_x,calibration_y,participant,session,date,expName,psychopyVersion,OS,frameRate,ScreenRes_pixels,Camera_pixels,mouse_2.x,mouse_2.y,mouse_2.leftButton,mouse_2.midButton,mouse_2.rightButton,mouse_2.time,mouse_2.clicked_name,mouse.x,mouse.y,mouse.leftButton,mouse.midButton,mouse.rightButton,mouse.time,mouse.clicked_name,Choice,Trial,TrialDuration,MOUSE_GAZE,ET_GAZE,ET_GAZE_x_T,time,unixTime,ET_GAZE_NF,Loc_Option1_label,Loc_Option2_label,Loc_Cost_label,Loc_Qual_label,Loc_Option1_cost,Loc_Option2_cost,Loc_Option1_quality,Loc_Option2_quality,trials.thisRepN,trials.thisTrialN,trials.thisN,trials.thisIndex,trials.ran,Block,Device,cost1,qual1,cost2,qual2
space,1.5313,0.061458333,-0.012962963,1,0,0,-0.671875,-0.677777778,1,0,0,calibration_square,0,0,0,0,1,-0.67,-0.67,29,001,2024-12-04_14h46.11.644,Attention_exp_legacy,2023.1.0,Win32,59.88023952,,,,,,,,,,,,,,,,,,,,,,,,,,,,,,,,,,,,,,,,,,,,
,,,,,,,-0.670833333,-0.324074074,1,0,0,calibration_square,0,1,1,1,1,-0.67,-0.33,29,001,2024-12-04_14h46.11.644,Attention_exp_legacy,2023.1.0,Win32,59.88023952,,,,,,,,,,,,,,,,,,,,,,,,,,,,,,,,,,,,,,,,,,,,
,,,,,,,-0.009375,-0.012962963,1,0,0,,0,2,2,11,1,0,0,29,001,2024-12-04_14h46.11.644,Attention_exp_legacy,2023.1.0,Win32,59.88023952,,,,,,,,,,,,,,,,,,,,,,,,,,,,,,,,,,,,,,,,,,,,
,,,,,,,0.335416667,0.009259259,1,0,0,calibration_square,0,3,3,16,1,0.33,0,29,001,2024-12-04_14h46.11.644,Attention_exp_legacy,2023.1.0,Win32,59.88023952,,,,,,,,,,,,,,,,,,,,,,,,,,,,,,,,,,,,,,,,,,,,
,,,,,,,-0.334375,0.666666667,1,0,0,calibration_square,0,4,4,8,1,-0.33,0.67,29,001,2024-12-04_14h46.11.644,Attention_exp_legacy,2023.1.0,Win32,59.88023952,,,,,,,,,,,,,,,,,,,,,,,,,,,,,,,,,,,,,,,,,,,,
,,,,,,,0.332291667,0.325925926,1,0,0,calibration_square,0,5,5,17,1,0.33,0.33,29,001,2024-12-04_14h46.11.644,Attention_exp_legacy,2023.1.0,Win32,59.88023952,,,,,,,,,,,,,,,,,,,,,,,,,,,,,,,,,,,,,,,,,,,,
,,,,,,,-0.332291667,0.007407407,1,0,0,calibration_square,0,6,6,6,1,-0.33,0,29,001,2024-12-04_14h46.11.644,Attention_exp_legacy,2023.1.0,Win32,59.88023952,,,,,,,,,,,,,,,,,,,,,,,,,,,,,,,,,,,,,,,,,,,,
,,,,,,,0.6875,0.67037037,1,0,0,,0,7,7,19,1,0.67,0.67,29,001,2024-12-04_14h46.11.644,Attention_exp_legacy,2023.1.0,Win32,59.88023952,,,,,,,,,,,,,,,,,,,,,,,,,,,,,,,,,,,,,,,,,,,,
,,,,,,,0.667708333,-0.661111111,1,0,0,calibration_square,0,8,8,20,1,0.67,-0.67,29,001,2024-12-04_14h46.11.644,Attention_exp_legacy,2023.1.0,Win32,59.88023952,,,,,,,,,,,,,,,,,,,,,,,,,,,,,,,,,,,,,,,,,,,,
,,,,,,,0.316666667,-0.674074074,1,0,0,,0,9,9,14,1,0.33,-0.67,29,001,2024-12-04_14h46.11.644,Attention_exp_legacy,2023.1.0,Win32,59.88023952,,,,,,,,,,,,,,,,,,,,,,,,,,,,,,,,,,,,,,,,,,,,
,,,,,,,-0.672916667,-0.009259259,1,0,0,calibration_square,0,10,10,2,1,-0.67,0,29,001,2024-12-04_14h46.11.644,Attention_exp_legacy,2023.1.0,Win32,59.88023952,,,,,,,,,,,,,,,,,,,,,,,,,,,,,,,,,,,,,,,,,,,,
,,,,,,,-0.340625,0.337037037,1,0,0,,0,11,11,7,1,-0.33,0.33,29,001,2024-12-04_14h46.11.644,Attention_exp_legacy,2023.1.0,Win32,59.88023952,,,,,,,,,,,,,,,,,,,,,,,,,,,,,,,,,,,,,,,,,,,,
,,,,,,,-0.33125,-0.674074074,1,0,0,calibration_square,0,12,12,4,1,-0.33,-0.67,29,001,2024-12-04_14h46.11.644,Attention_exp_legacy,2023.1.0,Win32,59.88023952,,,,,,,,,,,,,,,,,,,,,,,,,,,,,,,,,,,,,,,,,,,,
,,,,,,,0,-0.316666667,1,0,0,,0,13,13,10,1,0,-0.33,29,001,2024-12-04_14h46.11.644,Attention_exp_legacy,2023.1.0,Win32,59.88023952,,,,,,,,,,,,,,,,,,,,,,,,,,,,,,,,,,,,,,,,,,,,
,,,,,,,0.328125,0.662962963,1,0,0,calibration_square,0,14,14,18,1,0.33,0.67,29,001,2024-12-04_14h46.11.644,Attention_exp_legacy,2023.1.0,Win32,59.88023952,,,,,,,,,,,,,,,,,,,,,,,,,,,,,,,,,,,,,,,,,,,,
,,,,,,,-0.664583333,0.338888889,1,0,0,calibration_square,0,15,15,3,1,-0.67,0.33,29,001,2024-12-04_14h46.11.644,Attention_exp_legacy,2023.1.0,Win32,59.88023952,,,,,,,,,,,,,,,,,,,,,,,,,,,,,,,,,,,,,,,,,,,,
,,,,,,,-0.002083333,0.67037037,1,0,0,calibration_square,0,16,16,13,1,0,0.67,29,001,2024-12-04_14h46.11.644,Attention_exp_legacy,2023.1.0,Win32,59.88023952,,,,,,,,,,,,,,,,,,,,,,,,,,,,,,,,,,,,,,,,,,,,
,,,,,,,0.328125,-0.316666667,1,0,0,,0,17,17,15,1,0.33,-0.33,29,001,2024-12-04_14h46.11.644,Attention_exp_legacy,2023.1.0,Win32,59.88023952,,,,,,,,,,,,,,,,,,,,,,,,,,,,,,,,,,,,,,,,,,,,
,,,,,,,0,0.338888889,1,0,0,calibration_square,0,18,18,12,1,0,0.33,29,001,2024-12-04_14h46.11.644,Attention_exp_legacy,2023.1.0,Win32,59.88023952,,,,,,,,,,,,,,,,,,,,,,,,,,,,,,,,,,,,,,,,,,,,
,,,,,,,-0.323958333,-0.331481481,1,0,0,calibration_square,0,19,19,5,1,-0.33,-0.33,29,001,2024-12-04_14h46.11.644,Attention_exp_legacy,2023.1.0,Win32,59.88023952,,,,,,,,,,,,,,,,,,,,,,,,,,,,,,,,,,,,,,,,,,,,
,,,,,,,0.005208333,-0.666666667,1,0,0,calibration_square,0,20,20,9,1,0,-0.67,29,001,2024-12-04_14h46.11.644,Attention_exp_legacy,2023.1.0,Win32,59.88023952,,,,,,,,,,,,,,,,,,,,,,,,,,,,,,,,,,,,,,,,,,,,
,,,,,,,,,,,,,,,,,,,,29,001,2024-12-04_14h46.11.644,Attention_exp_legacy,2023.1.0,Win32,59.88023952,"[1920,1080]","[640,480]",[0.015625],[-0.4759259259259259],[1],[0],[0],[1.563699999995535],"[""StartButton""]",[0.07291666666666667],[0.4888888888888889],[1],[0],[0],[4.054499999999997],"[""Option1_label""]",Option1_label,1,5.0783,"[[0.18854166666666666,-0.5185185185185185],[0.18854166666666666,-0.5185185185185185],[0.18854166666666666,-0.5185185185185185],[0.18854166666666666,-0.5185185185185185],[0.18854166666666666,-0.5185185185185185],[0.18958333333333333,-0.5203703703703704],[0.18958333333333333,-0.5222222222222223],[0.18958333333333333,-0.5222222222222223],[0.18854166666666666,-0.5222222222222223],[0.18854166666666666,-0.5222222222222223],[0.18854166666666666,-0.5222222222222223],[0.18854166666666666,-0.5222222222222223],[0.18854166666666666,-0.5222222222222223],[0.18854166666666666,-0.5222222222222223],[0.18854166666666666,-0.5222222222222223],[0.18854166666666666,-0.5222222222222223],[0.18854166666666666,-0.5222222222222223],[0.18854166666666666,-0.5222222222222223],[0.18854166666666666,-0.5222222222222223],[0.18854166666666666,-0.5222222222222223],[0.18854166666666666,-0.5222222222222223],[0.18854166666666666,-0.5222222222222223],[0.18854166666666666,-0.5222222222222223],[0.18854166666666666,-0.5222222222222223],[0.18854166666666666,-0.5222222222222223],[0.18854166666666666,-0.5222222222222223],[0.18854166666666666,-0.5222222222222223],[0.18854166666666666,-0.5222222222222223],[0.18854166666666666,-0.5222222222222223],[0.18854166666666666,-0.5222222222222223],[0.18854166666666666,-0.5222222222222223],[0.18854166666666666,-0.5222222222222223],[0.18854166666666666,-0.5222222222222223],[0.18854166666666666,-0.5222222222222223],[0.18854166666666666,-0.5222222222222223],[0.18854166666666666,-0.5222222222222223],[0.18854166666666666,-0.5222222222222223],[0.18854166666666666,-0.5222222222222223],[0.18854166666666666,-0.5222222222222223],[0.18854166666666666,-0.5222222222222223],[0.18854166666666666,-0.5222222222222223],[0.18854166666666666,-0.5222222222222223],[0.18854166666666666,-0.5222222222222223],[0.18854166666666666,-0.5222222222222223],[0.18854166666666666,-0.5222222222222223],[0.18854166666666666,-0.5222222222222223],[0.18854166666666666,-0.5222222222222223],[0.18854166666666666,-0.5222222222222223],[0.18854166666666666,-0.5222222222222223],[0.18854166666666666,-0.5222222222222223],[0.18854166666666666,-0.5222222222222223],[0.18854166666666666,-0.5222222222222223],[0.18854166666666666,-0.5222222222222223],[0.18854166666666666,-0.5222222222222223],[0.18854166666666666,-0.5222222222222223],[0.18854166666666666,-0.5222222222222223],[0.18854166666666666,-0.5222222222222223],[0.18854166666666666,-0.5222222222222223],[0.18854166666666666,-0.5222222222222223],[0.18854166666666666,-0.5222222222222223],[0.18854166666666666,-0.5222222222222223],[0.18854166666666666,-0.5222222222222223],[0.18854166666666666,-0.5222222222222223],[0.18854166666666666,-0.5222222222222223],[0.18854166666666666,-0.5222222222222223],[0.18854166666666666,-0.5222222222222223],[0.18854166666666666,-0.5222222222222223],[0.18854166666666666,-0.5222222222222223],[0.18854166666666666,-0.5222222222222223],[0.18854166666666666,-0.5222222222222223],[0.18854166666666666,-0.5222222222222223],[0.18854166666666666,-0.5222222222222223],[0.18854166666666666,-0.5222222222222223],[0.1875,-0.5222222222222223],[0.18541666666666667,-0.5222222222222223],[0.18125,-0.5111111111111111],[0.17291666666666666,-0.48703703703703705],[0.171875,-0.4777777777777778],[0.171875,-0.4648148148148148],[0.171875,-0.4462962962962963],[0.17083333333333334,-0.43148148148148147],[0.16875,-0.412962962962963],[0.16770833333333332,-0.38333333333333336],[0.16666666666666666,-0.3537037037037037],[0.165625,-0.31666666666666665],[0.165625,-0.2796296296296296],[0.165625,-0.2351851851851852],[0.171875,-0.16111111111111112],[0.18333333333333332,-0.09074074074074075],[0.19583333333333333,-0.018518518518518517],[0.20729166666666668,0.014814814814814815],[0.22291666666666668,0.037037037037037035],[0.24791666666666667,0.05740740740740741],[0.2947916666666667,0.07407407407407407],[0.3645833333333333,0.08518518518518518],[0.46041666666666664,0.10740740740740741],[0.640625,0.13148148148148148],[0.6697916666666667,0.1425925925925926],[0.6697916666666667,0.1425925925925926],[0.6770833333333334,0.14444444444444443],[0.6770833333333334,0.14629629629629629],[0.6770833333333334,0.14629629629629629],[0.6770833333333334,0.14629629629629629],[0.6770833333333334,0.14629629629629629],[0.6770833333333334,0.14629629629629629],[0.6770833333333334,0.14629629629629629],[0.6770833333333334,0.14629629629629629],[0.6770833333333334,0.14629629629629629],[0.6770833333333334,0.14629629629629629],[0.6770833333333334,0.14629629629629629],[0.6770833333333334,0.14629629629629629],[0.6770833333333334,0.14629629629629629],[0.6770833333333334,0.14629629629629629],[0.6770833333333334,0.14629629629629629],[0.6770833333333334,0.14629629629629629],[0.6770833333333334,0.14629629629629629],[0.6770833333333334,0.14629629629629629],[0.6770833333333334,0.14629629629629629],[0.6770833333333334,0.14629629629629629],[0.6770833333333334,0.14629629629629629],[0.6770833333333334,0.14629629629629629],[0.6770833333333334,0.14629629629629629],[0.6770833333333334,0.14629629629629629],[0.6770833333333334,0.14629629629629629],[0.6770833333333334,0.14629629629629629],[0.6770833333333334,0.14629629629629629],[0.6770833333333334,0.14629629629629629],[0.6770833333333334,0.14629629629629629],[0.6770833333333334,0.14629629629629629],[0.6770833333333334,0.14629629629629629],[0.6770833333333334,0.14629629629629629],[0.6770833333333334,0.14629629629629629],[0.6770833333333334,0.14629629629629629],[0.6770833333333334,0.14629629629629629],[0.6770833333333334,0.14629629629629629],[0.6770833333333334,0.14629629629629629],[0.6770833333333334,0.14629629629629629],[0.6770833333333334,0.14629629629629629],[0.6770833333333334,0.14629629629629629],[0.6770833333333334,0.14629629629629629],[0.6770833333333334,0.14629629629629629],[0.6770833333333334,0.14629629629629629],[0.6770833333333334,0.14629629629629629],[0.6770833333333334,0.14629629629629629],[0.6770833333333334,0.14629629629629629],[0.6770833333333334,0.14629629629629629],[0.6770833333333334,0.14629629629629629],[0.6770833333333334,0.14629629629629629],[0.6770833333333334,0.14629629629629629],[0.6770833333333334,0.14629629629629629],[0.6770833333333334,0.14629629629629629],[0.6770833333333334,0.14629629629629629],[0.6770833333333334,0.14629629629629629],[0.6770833333333334,0.14629629629629629],[0.6770833333333334,0.14629629629629629],[0.6770833333333334,0.14629629629629629],[0.6770833333333334,0.14629629629629629],[0.6770833333333334,0.14629629629629629],[0.6770833333333334,0.14629629629629629],[0.6770833333333334,0.14629629629629629],[0.6770833333333334,0.14629629629629629],[0.6770833333333334,0.14629629629629629],[0.6770833333333334,0.14629629629629629],[0.6770833333333334,0.14629629629629629],[0.6770833333333334,0.14629629629629629],[0.6770833333333334,0.14629629629629629],[0.6770833333333334,0.14629629629629629],[0.6770833333333334,0.14629629629629629],[0.6770833333333334,0.14629629629629629],[0.6770833333333334,0.14629629629629629],[0.6770833333333334,0.14629629629629629],[0.6770833333333334,0.14629629629629629],[0.6770833333333334,0.14629629629629629],[0.6770833333333334,0.14629629629629629],[0.6770833333333334,0.14629629629629629],[0.6770833333333334,0.14629629629629629],[0.6770833333333334,0.14629629629629629],[0.6770833333333334,0.14629629629629629],[0.6770833333333334,0.14629629629629629],[0.6770833333333334,0.14629629629629629],[0.6770833333333334,0.14629629629629629],[0.6770833333333334,0.14629629629629629],[0.6770833333333334,0.14629629629629629],[0.6770833333333334,0.14629629629629629],[0.6770833333333334,0.14629629629629629],[0.6770833333333334,0.14629629629629629],[0.6770833333333334,0.14629629629629629],[0.6770833333333334,0.14629629629629629],[0.6770833333333334,0.14629629629629629],[0.6770833333333334,0.14629629629629629],[0.6770833333333334,0.14629629629629629],[0.6770833333333334,0.14629629629629629],[0.6770833333333334,0.14629629629629629],[0.6770833333333334,0.14629629629629629],[0.6770833333333334,0.14629629629629629],[0.6770833333333334,0.14629629629629629],[0.6770833333333334,0.14629629629629629],[0.6770833333333334,0.14629629629629629],[0.6770833333333334,0.14629629629629629],[0.6770833333333334,0.14629629629629629],[0.6770833333333334,0.14629629629629629],[0.6770833333333334,0.14629629629629629],[0.6770833333333334,0.14629629629629629],[0.6770833333333334,0.14629629629629629],[0.6770833333333334,0.14629629629629629],[0.6770833333333334,0.14629629629629629],[0.6770833333333334,0.14629629629629629],[0.6770833333333334,0.14629629629629629],[0.6770833333333334,0.14629629629629629],[0.66875,0.14629629629629629],[0.63125,0.14629629629629629],[0.59375,0.14629629629629629],[0.4666666666666667,0.1685185185185185],[0.39479166666666665,0.19074074074074074],[0.3302083333333333,0.2222222222222222],[0.2916666666666667,0.24814814814814815],[0.2708333333333333,0.27037037037037037],[0.26145833333333335,0.2833333333333333],[0.25833333333333336,0.29259259259259257],[0.2552083333333333,0.3],[0.25104166666666666,0.30925925925925923],[0.2375,0.3333333333333333],[0.21979166666666666,0.35555555555555557],[0.19583333333333333,0.3851851851851852],[0.17604166666666668,0.40370370370370373],[0.16875,0.412962962962963],[0.16458333333333333,0.4185185185185185],[0.16145833333333334,0.42407407407407405],[0.15520833333333334,0.4351851851851852],[0.14270833333333333,0.45740740740740743],[0.13125,0.4759259259259259],[0.125,0.48518518518518516],[0.121875,0.4888888888888889],[0.11666666666666667,0.4888888888888889],[0.11041666666666666,0.4888888888888889],[0.09479166666666666,0.4888888888888889],[0.07916666666666666,0.4888888888888889],[0.075,0.4888888888888889],[0.07395833333333333,0.4888888888888889],[0.07395833333333333,0.4888888888888889],[0.07395833333333333,0.4888888888888889],[0.07395833333333333,0.4888888888888889],[0.07395833333333333,0.4888888888888889],[0.07291666666666667,0.4888888888888889],[0.07291666666666667,0.4888888888888889],[0.07291666666666667,0.4888888888888889],[0.07291666666666667,0.4888888888888889],[0.07291666666666667,0.4888888888888889],[0.07291666666666667,0.4888888888888889],[0.07291666666666667,0.4888888888888889],[0.07291666666666667,0.4888888888888889],[0.07291666666666667,0.4888888888888889],[0.07291666666666667,0.4888888888888889],[0.07291666666666667,0.4888888888888889],[0.07291666666666667,0.4888888888888889],[0.07291666666666667,0.4888888888888889],[0.07291666666666667,0.4888888888888889],[0.07291666666666667,0.4888888888888889],[0.07291666666666667,0.4888888888888889],[0.07291666666666667,0.4888888888888889],[0.07291666666666667,0.4888888888888889],[0.07291666666666667,0.4888888888888889],[0.07291666666666667,0.4888888888888889],[0.07291666666666667,0.4888888888888889],[0.07291666666666667,0.4888888888888889],[0.07291666666666667,0.4888888888888889],[0.07291666666666667,0.4888888888888889],[0.07291666666666667,0.4888888888888889],[0.07291666666666667,0.4888888888888889],[0.07291666666666667,0.4888888888888889],[0.07291666666666667,0.4888888888888889],[0.07291666666666667,0.4888888888888889],[0.07291666666666667,0.4888888888888889],[0.07291666666666667,0.4888888888888889],[0.07291666666666667,0.4888888888888889],[0.07291666666666667,0.4888888888888889],[0.07291666666666667,0.4888888888888889],[0.07291666666666667,0.4888888888888889],[0.07291666666666667,0.4888888888888889],[0.07291666666666667,0.4888888888888889],[0.07291666666666667,0.4888888888888889],[0.07291666666666667,0.4888888888888889],[0.07291666666666667,0.4888888888888889],[0.07291666666666667,0.4888888888888889],[0.07291666666666667,0.4888888888888889],[0.07291666666666667,0.4888888888888889],[0.07291666666666667,0.4888888888888889],[0.07291666666666667,0.4888888888888889],[0.07291666666666667,0.4888888888888889],[0.07291666666666667,0.4888888888888889],[0.07291666666666667,0.4888888888888889],[0.07291666666666667,0.4888888888888889],[0.07291666666666667,0.4888888888888889],[0.07291666666666667,0.4888888888888889],[0.07291666666666667,0.4888888888888889],[0.07291666666666667,0.4888888888888889],[0.07291666666666667,0.4888888888888889],[0.07291666666666667,0.4888888888888889],[0.07291666666666667,0.4888888888888889],[0.07291666666666667,0.4888888888888889],[0.07291666666666667,0.4888888888888889],[0.07291666666666667,0.4888888888888889],[0.07291666666666667,0.4888888888888889],[0.07291666666666667,0.4888888888888889],[0.07291666666666667,0.4888888888888889]]","[[0.05510416666666664,0.42888888888888893],[0.05510416666666664,0.42888888888888893],[0.034895833333333334,0.39240740740740737],[0.030208333333333334,0.337037037037037],[0.030208333333333334,0.337037037037037],[0.02520833333333338,0.2796296296296296],[0.02510416666666669,0.2800000000000001],[0.0234375,0.29370370370370374],[0.017604166666666643,0.31296296296296294],[0.02687499999999995,0.32018518518518513],[0.034687499999999954,0.31074074074074065],[0.05802083333333338,0.3172222222222221],[0.08447916666666658,0.35240740740740734],[0.1146874999999999,0.3985185185185186],[0.1400000000000001,0.4300000000000001],[0.1646874999999999,0.4642592592592593],[0.1803124999999999,0.45018518518518524],[0.19979166666666662,0.425],[0.21218750000000006,0.4148148148148148],[0.2107291666666666,0.41277777777777774],[0.21052083333333324,0.43074074074074076],[0.20833333333333334,0.4503703703703705],[0.18739583333333343,0.431111111111111],[0.18395833333333325,0.42981481481481487],[0.17458333333333323,0.4457407407407408],[0.1662499999999999,0.4353703703703704],[0.1631249999999999,0.4351851851851852],[0.1701041666666666,0.41518518518518527],[0.17333333333333342,0.3907407407407407],[0.18229166666666666,0.36074074074074064],[0.20177083333333337,0.3242592592592593],[0.21843750000000003,0.26370370370370366],[0.24677083333333344,0.2368518518518518],[0.25447916666666665,0.19666666666666674],[0.2640625,0.16148148148148156],[0.27354166666666657,0.15185185185185185],[0.28270833333333345,0.11925925925925922],[0.28177083333333336,0.10648148148148148],[0.2997916666666666,0.10259259259259255],[0.3089583333333332,0.0992592592592593],[0.31843750000000004,0.1331481481481481],[0.32312500000000005,0.17537037037037045],[0.3259375000000001,0.1992592592592593],[0.2621875000000001,0.24018518518518528],[0.19656250000000006,0.27611111111111114],[0.09802083333333324,0.2953703703703704],[-0.0002083333333333807,0.3375925925925925],[-0.08343750000000003,0.39148148148148143],[-0.17479166666666662,0.42592592592592593],[-0.2520833333333333,0.487962962962963],[-0.3608333333333333,0.49129629629629623],[-0.444375,0.49740740740740746],[-0.5279166666666667,0.5035185185185185],[-0.5490625,0.459074074074074],[-0.5490625,0.459074074074074],[-0.5702083333333333,0.41462962962962957],[-0.5504166666666667,0.4161111111111112],[-0.530625,0.41759259259259257],[-0.5346875,0.39277777777777784],[-0.5387500000000001,0.36796296296296305],[-0.5479166666666667,0.30685185185185193],[-0.5364583333333334,0.2737037037037036],[-0.5538541666666668,0.2514814814814814],[-0.5712499999999999,0.22925925925925916],[-0.5594791666666666,0.2657407407407407],[-0.5591666666666666,0.30833333333333335],[-0.5679166666666667,0.3172222222222221],[-0.5919791666666666,0.2992592592592593],[-0.5902083333333333,0.3088888888888888],[-0.6061458333333333,0.3427777777777778],[-0.635,0.37111111111111106],[-0.6482291666666666,0.3998148148148148],[-0.6404166666666666,0.42481481481481476],[-0.6415624999999999,0.4468518518518518],[-0.5755208333333334,0.4505555555555555],[-0.4828125,0.4353703703703704],[-0.3793750000000001,0.4346296296296297],[-0.3793750000000001,0.4346296296296297],[-0.27625000000000005,0.4411111111111112],[-0.18958333333333333,0.47074074074074085],[-0.18958333333333333,0.47074074074074085],[-0.07447916666666667,0.45555555555555555],[0.013333333333333286,0.4272222222222223],[0.013333333333333286,0.4272222222222223],[0.06218750000000005,0.3055555555555556],[0.06218750000000005,0.3055555555555556],[0.10187499999999995,0.20037037037037045],[0.10187499999999995,0.20037037037037045],[0.19677083333333342,0.19574074074074083],[0.2118750000000001,0.10222222222222231],[0.19760416666666672,0.06462962962962959],[0.19760416666666672,0.06462962962962959],[0.14718749999999994,0.05018518518518523],[0.1712500000000001,0.031111111111111027],[0.18395833333333325,-0.04537037037037037],[0.16520833333333323,-0.06759259259259259],[0.18760416666666657,-0.08925925925925923],[0.18760416666666657,-0.08925925925925923],[0.18760416666666657,-0.08925925925925923],[0.23947916666666677,0.011111111111111112],[0.30656249999999996,0.14518518518518514],[0.30656249999999996,0.14518518518518514],[0.3051041666666668,0.15425925925925918],[0.3077083333333334,0.21481481481481482],[0.32447916666666665,0.2322222222222222],[0.36770833333333336,0.21648148148148144],[0.38385416666666666,0.23333333333333334],[0.4202083333333334,0.26500000000000007],[0.4508333333333333,0.2777777777777778],[0.47666666666666657,0.3172222222222221],[0.49666666666666665,0.3714814814814815],[0.5068749999999999,0.3574074074074074],[0.5162499999999999,0.32944444444444443],[0.5236458333333334,0.3594444444444445],[0.5310416666666666,0.38944444444444437],[0.5599999999999999,0.3653703703703703],[0.5611458333333333,0.34222222222222215],[0.5303124999999999,0.35537037037037034],[0.5339583333333332,0.3596296296296297],[0.5313541666666666,0.33833333333333343],[0.5284375,0.27314814814814814],[0.4951041666666666,0.2774074074074073],[0.4865624999999999,0.33425925925925926],[0.44552083333333337,0.36500000000000005],[0.40750000000000003,0.40666666666666673],[0.35281250000000003,0.4661111111111112],[0.29416666666666674,0.5162962962962963],[0.24541666666666656,0.5505555555555555],[0.22062499999999996,0.5605555555555556],[0.16156249999999991,0.6261111111111112],[0.1046875,0.6862962962962963],[0.07416666666666671,0.6992592592592592],[0.06791666666666671,0.6988888888888889],[0.08781249999999995,0.6914814814814815],[0.10520833333333333,0.6057407407407408],[0.11770833333333333,0.5562962962962963],[0.10333333333333337,0.5812962962962962],[0.11156249999999991,0.5790740740740742],[0.084375,0.606851851851852],[0.08312499999999995,0.6175925925925926],[0.08614583333333338,0.6101851851851852],[0.09427083333333333,0.6118518518518518],[0.08229166666666667,0.6025925925925926],[0.08072916666666667,0.5979629629629629],[0.07864583333333333,0.6614814814814816],[0.029999999999999954,0.7331481481481481],[0.03697916666666667,0.697037037037037],[-0.05416666666666667,0.6812962962962963],[-0.12374999999999996,0.687037037037037],[-0.18979166666666672,0.6905555555555555],[-0.2738541666666666,0.7037037037037037],[-0.3233333333333333,0.696111111111111],[-0.37864583333333335,0.7014814814814814],[-0.4453125,0.6777777777777778],[-0.5328125,0.6911111111111112],[-0.57375,0.6962962962962963],[-0.6433333333333333,0.7300000000000001],[-0.6246875000000001,0.7566666666666667],[-0.6279166666666666,0.715925925925926],[-0.6252083333333334,0.6646296296296296],[-0.6190625,0.64],[-0.6503125,0.5955555555555556],[-0.6815625,0.5511111111111111],[-0.7098958333333333,0.5383333333333334],[-0.7173958333333333,0.48777777777777775],[-0.7296875,0.4385185185185184],[-0.7420833333333333,0.39407407407407397],[-0.7432291666666667,0.33499999999999996],[-0.740625,0.3101851851851852],[-0.7467708333333333,0.2762962962962964],[-0.7447916666666666,0.22962962962962963],[-0.7356250000000001,0.24055555555555552],[-0.7264583333333333,0.2514814814814814],[-0.7264583333333333,0.2514814814814814],[-0.7298958333333334,0.2551851851851851],[-0.7274999999999999,0.24666666666666676],[-0.7296875,0.2627777777777777],[-0.7308333333333333,0.2511111111111112],[-0.74625,0.24296296296296305],[-0.7586458333333332,0.24592592592592585],[-0.7639583333333333,0.2740740740740741],[-0.7692708333333333,0.3022222222222223],[-0.7896875,0.3557407407407408],[-0.8076041666666666,0.38851851851851843],[-0.8120833333333334,0.42314814814814816],[-0.79375,0.4631481481481482],[-0.7660416666666666,0.4772222222222223],[-0.7566666666666666,0.534074074074074],[-0.7442708333333333,0.602037037037037],[-0.7094791666666667,0.674074074074074],[-0.6715625000000001,0.7266666666666666],[-0.5452083333333333,0.7587037037037038],[-0.41677083333333337,0.7477777777777777],[-0.30572916666666666,0.7603703703703704],[-0.19750000000000004,0.7711111111111111],[-0.10666666666666665,0.7866666666666666],[-0.01583333333333338,0.8022222222222223],[-0.01583333333333338,0.8022222222222223],[0.07916666666666666,0.8046296296296296],[0.07916666666666666,0.8046296296296296],[0.16822916666666668,0.7968518518518518],[0.16822916666666668,0.7968518518518518],[0.22843749999999996,0.7661111111111112],[0.22843749999999996,0.7661111111111112],[0.28718750000000004,0.7387037037037036],[0.28718750000000004,0.7387037037037036],[0.24270833333333333,0.6627777777777777],[0.24270833333333333,0.6627777777777777],[0.1798958333333334,0.5027777777777778],[0.14406249999999995,0.3816666666666667],[0.18447916666666658,0.28648148148148156],[0.19406249999999994,0.15481481481481485],[0.20145833333333343,0.03518518518518519],[0.23093750000000005,-0.10555555555555556],[0.22687499999999997,-0.17537037037037034],[0.2421875,-0.16222222222222227],[0.24333333333333323,-0.15],[0.24333333333333323,-0.15],[0.2652083333333332,-0.14092592592592595],[0.303125,-0.020740740740740823],[0.3289583333333333,0.057777777777777865],[0.27760416666666665,0.06962962962962967],[0.24583333333333332,0.11999999999999991],[0.22802083333333342,0.11962962962962967],[0.19364583333333343,0.14148148148148143],[0.19541666666666657,0.09129629629629621],[0.18125,-0.034074074074074034],[0.18125,-0.15851851851851856],[0.16260416666666658,-0.1557407407407408],[0.14979166666666663,-0.18851851851851853],[0.1466666666666666,-0.2309259259259259],[0.14458333333333329,-0.23407407407407405],[0.1580208333333334,-0.23703703703703705],[0.12447916666666667,-0.18462962962962962],[0.09854166666666657,-0.13518518518518519],[0.08291666666666657,-0.09722222222222222],[0.06729166666666657,-0.05925925925925926],[0.058958333333333356,-0.026481481481481398],[0.06333333333333328,-0.04870370370370362],[0.06489583333333329,-0.09425925925925922],[0.05677083333333333,-0.1301851851851852],[0.041562499999999974,-0.1381481481481482],[0.01083333333333331,-0.14629629629629629],[0.02687499999999995,-0.15851851851851856],[0.02687499999999995,-0.15851851851851856],[0.042916666666666714,-0.17074074074074072],[0.042916666666666714,-0.17074074074074072],[0.04208333333333331,-0.19148148148148145],[0.033854166666666664,-0.2403703703703704],[0.03208333333333328,-0.2462962962962963],[0.030312500000000023,-0.2522222222222222],[0.03135416666666669,-0.23481481481481484],[0.04375,-0.25092592592592594],[0.06312500000000003,-0.2935185185185185],[0.08041666666666672,-0.31592592592592594],[0.08614583333333338,-0.3509259259259259],[0.07708333333333334,-0.3744444444444444],[0.08072916666666667,-0.3725925925925926],[0.09177083333333323,-0.3425925925925926],[0.08083333333333324,-0.3398148148148148],[0.06989583333333324,-0.337037037037037],[0.0709374999999999,-0.33611111111111114],[0.06062500000000005,-0.30166666666666664],[0.06187499999999998,-0.2581481481481481],[0.06520833333333335,-0.23481481481481484],[0.06708333333333343,-0.24574074074074073],[0.08375000000000009,-0.2681481481481482],[0.08552083333333324,-0.28129629629629627],[0.08729166666666661,-0.29444444444444445],[0.09760416666666671,-0.32592592592592595],[0.1171875,-0.36500000000000005],[0.1256249999999999,-0.3962962962962963],[0.13406250000000006,-0.4275925925925925],[0.12541666666666676,-0.4479629629629629],[0.11552083333333343,-0.4742592592592593],[0.10708333333333328,-0.4662962962962963],[0.10708333333333328,-0.4662962962962963],[0.10270833333333323,-0.4601851851851852],[0.12208333333333338,-0.4505555555555556],[0.1414583333333333,-0.44092592592592594],[0.1476041666666667,-0.4148148148148148],[0.13583333333333342,-0.39277777777777784],[0.12322916666666663,-0.37666666666666665],[0.1134375000000001,-0.3705555555555556],[0.10968749999999995,-0.38333333333333336],[0.10385416666666672,-0.35],[0.09802083333333324,-0.31666666666666665],[0.08489583333333334,-0.27999999999999997],[0.058333333333333334,-0.25],[0.04031250000000005,-0.15999999999999995],[0.011562500000000024,-0.08314814814814811],[-0.0017708333333333807,0.013333333333333417],[-0.009895833333333333,0.11296296296296296],[-0.027291666666666714,0.19870370370370363],[-0.041458333333333285,0.29555555555555557],[-0.042916666666666714,0.2838888888888888],[-0.05531250000000002,0.25092592592592594],[-0.05510416666666664,0.227962962962963],[-0.053125,0.20481481481481487],[-0.06031249999999998,0.11833333333333329],[-0.05583333333333336,0.0242592592592593],[-0.05947916666666669,-0.07259259259259257],[-0.06708333333333331,-0.1425925925925926],[-0.06822916666666666,-0.18870370370370365],[-0.04781249999999997,-0.29388888888888887]]","[[0.05510416666666664,0.42888888888888893,0.00019999999553022008],[0.05510416666666664,0.42888888888888893,0.03810000000149216],[0.034895833333333334,0.39240740740740737,0.04489999999851335],[0.030208333333333334,0.337037037037037,0.06169999999553255],[0.030208333333333334,0.337037037037037,0.0786000000014937],[0.02520833333333338,0.2796296296296296,0.0975000000000037],[0.02510416666666669,0.2800000000000001,0.11419999999553454],[0.0234375,0.29370370370370374,0.13039999999850949],[0.017604166666666643,0.31296296296296294,0.1476000000014892],[0.02687499999999995,0.32018518518518513,0.16169999999553397],[0.034687499999999954,0.31074074074074065,0.17829999999702295],[0.05802083333333338,0.3172222222222221,0.19500000000000028],[0.08447916666666658,0.35240740740740734,0.21160000000148926],[0.1146874999999999,0.3985185185185186,0.2282999999970201],[0.1400000000000001,0.4300000000000001,0.2448999999985091],[0.1646874999999999,0.4642592592592593,0.2616999999955283],[0.1803124999999999,0.45018518518518524,0.27829999999702437],[0.19979166666666662,0.425,0.29489999999851335],[0.21218750000000006,0.4148148148148148,0.31169999999553255],[0.2107291666666666,0.41277777777777774,0.3316000000014938],[0.21052083333333324,0.43074074074074076,0.3453999999985129],[0.20833333333333334,0.4503703703703705,0.3616999999955297],[0.18739583333333343,0.431111111111111,0.3782999999970187],[0.18395833333333325,0.42981481481481487,0.39679999999702176],[0.17458333333333323,0.4457407407407408,0.41169999999553397],[0.1662499999999999,0.4353703703703704,0.4283999999985113],[0.1631249999999999,0.4351851851851852,0.4461000000014934],[0.1701041666666666,0.41518518518518527,0.4617999999970195],[0.17333333333333342,0.3907407407407407,0.4782999999970201],[0.18229166666666666,0.36074074074074064,0.49619999999553244],[0.20177083333333337,0.3242592592592593,0.5116999999955283],[0.21843750000000003,0.26370370370370366,0.5282999999970244],[0.24677083333333344,0.2368518518518518,0.5450000000000017],[0.25447916666666665,0.19666666666666674,0.5616999999955326],[0.2640625,0.16148148148148156,0.5782999999970215],[0.27354166666666657,0.15185185185185185,0.5981999999955292],[0.28270833333333345,0.11925925925925922,0.6127999999970228],[0.28177083333333336,0.10648148148148148,0.6283999999985141],[0.2997916666666666,0.10259259259259255,0.6450000000000031],[0.3089583333333332,0.0992592592592593,0.6616000000014921],[0.31843750000000004,0.1331481481481481,0.678299999997023],[0.32312500000000005,0.17537037037037045,0.6983999999985144],[0.3259375000000001,0.1992592592592593,0.7124999999999986],[0.2621875000000001,0.24018518518518528,0.7286000000014923],[0.19656250000000006,0.27611111111111114,0.7450000000000045],[0.09802083333333324,0.2953703703703704,0.7616000000014935],[-0.0002083333333333807,0.3375925925925925,0.7782999999970244],[-0.08343750000000003,0.39148148148148143,0.7971999999955344],[-0.17479166666666662,0.42592592592592593,0.8116999999955326],[-0.2520833333333333,0.487962962962963,0.8283999999985099],[-0.3608333333333333,0.49129629629629623,0.8449999999999989],[-0.444375,0.49740740740740746,0.8616999999955297],[-0.5279166666666667,0.5035185185185185,0.8782999999970187],[-0.5490625,0.459074074074074,0.8951000000014915],[-0.5490625,0.459074074074074,0.911699999995534],[-0.5702083333333333,0.41462962962962957,0.928299999997023],[-0.5504166666666667,0.4161111111111112,0.9450000000000003],[-0.530625,0.41759259259259257,0.9616999999955311],[-0.5346875,0.39277777777777784,0.9782999999970201],[-0.5387500000000001,0.36796296296296305,0.9948999999985091],[-0.5479166666666667,0.30685185185185193,1.0116999999955283],[-0.5364583333333334,0.2737037037037036,1.0283999999985127],[-0.5538541666666668,0.2514814814814814,1.0448999999985134],[-0.5712499999999999,0.22925925925925916,1.0618999999985093],[-0.5594791666666666,0.2657407407407407,1.0782999999970215],[-0.5591666666666666,0.30833333333333335,1.0972999999970199],[-0.5679166666666667,0.3172222222222221,1.1116999999955297],[-0.5919791666666666,0.2992592592592593,1.1282999999970187],[-0.5902083333333333,0.3088888888888888,1.1451000000014915],[-0.6061458333333333,0.3427777777777778,1.161699999995534],[-0.635,0.37111111111111106,1.178299999997023],[-0.6482291666666666,0.3998148148148148,1.1950000000000003],[-0.6404166666666666,0.42481481481481476,1.2116000000014893],[-0.6415624999999999,0.4468518518518518,1.2306999999955295],[-0.5755208333333334,0.4505555555555555,1.245100000001493],[-0.4828125,0.4353703703703704,1.2617999999970237],[-0.3793750000000001,0.4346296296296297,1.2888999999985131],[-0.3793750000000001,0.4346296296296297,1.2957999999970227],[-0.27625000000000005,0.4411111111111112,1.312100000001493],[-0.18958333333333333,0.47074074074074085,1.3308999999985147],[-0.18958333333333333,0.47074074074074085,1.3497999999970247],[-0.07447916666666667,0.45555555555555555,1.361799999997018],[0.013333333333333286,0.4272222222222223,1.3840000000000003],[0.013333333333333286,0.4272222222222223,1.4011000000014917],[0.06218750000000005,0.3055555555555556,1.4117999999970223],[0.06218750000000005,0.3055555555555556,1.4286999999955299],[0.10187499999999995,0.20037037037037045,1.4502999999970214],[0.10187499999999995,0.20037037037037045,1.4616999999955311],[0.19677083333333342,0.19574074074074083,1.478500000000004],[0.2118750000000001,0.10222222222222231,1.4995000000000047],[0.19760416666666672,0.06462962962962959,1.5141999999955331],[0.19760416666666672,0.06462962962962959,1.5283999999985127],[0.14718749999999994,0.05018518518518523,1.54510000000149],[0.1712500000000001,0.031111111111111027,1.5641000000014884],[0.18395833333333325,-0.04537037037037037,1.5808999999985147],[0.16520833333333323,-0.06759259259259259,1.597699999995534],[0.18760416666666657,-0.08925925925925923,1.6315000000000026],[0.18760416666666657,-0.08925925925925923,1.6416999999955308],[0.18760416666666657,-0.08925925925925923,1.6451999999955333],[0.23947916666666677,0.011111111111111112,1.6617999999970223],[0.30656249999999996,0.14518518518518514,1.6843999999985115],[0.30656249999999996,0.14518518518518514,1.6950000000000003],[0.3051041666666668,0.15425925925925918,1.7116999999955311],[0.3077083333333334,0.21481481481481482,1.7281999999955318],[0.32447916666666665,0.2322222222222222,1.7450000000000045],[0.36770833333333336,0.21648148148148144,1.7616000000014935],[0.38385416666666666,0.23333333333333334,1.7782999999970244],[0.4202083333333334,0.26500000000000007,1.7961999999955296],[0.4508333333333333,0.2777777777777778,1.8116999999955326],[0.47666666666666657,0.3172222222222221,1.8282999999970215],[0.49666666666666665,0.3714814814814815,1.8448999999985105],[0.5068749999999999,0.3574074074074074,1.861600000001495],[0.5162499999999999,0.32944444444444443,1.8782999999970187],[0.5236458333333334,0.3594444444444445,1.8962999999970194],[0.5310416666666666,0.38944444444444437,1.911600000001492],[0.5599999999999999,0.3653703703703703,1.928299999997023],[0.5611458333333333,0.34222222222222215,1.9450000000000003],[0.5303124999999999,0.35537037037037034,1.9616000000014893],[0.5339583333333332,0.3596296296296297,1.9781999999955318],[0.5313541666666666,0.33833333333333343,1.99719999999553],[0.5284375,0.27314814814814814,2.0117999999970237],[0.4951041666666666,0.2774074074074073,2.0282999999970244],[0.4865624999999999,0.33425925925925926,2.0450000000000017],[0.44552083333333337,0.36500000000000005,2.0616000000014907],[0.40750000000000003,0.40666666666666673,2.0782999999970215],[0.35281250000000003,0.4661111111111112,2.0948999999985105],[0.29416666666666674,0.5162962962962963,2.111600000001495],[0.24541666666666656,0.5505555555555555,2.1282999999970187],[0.22062499999999996,0.5605555555555556,2.1448999999985148],[0.16156249999999991,0.6261111111111112,2.161699999995534],[0.1046875,0.6862962962962963,2.178299999997023],[0.07416666666666671,0.6992592592592592,2.198299999997019],[0.06791666666666671,0.6988888888888889,2.211699999995531],[0.08781249999999995,0.6914814814814815,2.22829999999702],[0.10520833333333333,0.6057407407407408,2.244899999998509],[0.11770833333333333,0.5562962962962963,2.2616000000014935],[0.10333333333333337,0.5812962962962962,2.2782999999970244],[0.11156249999999991,0.5790740740740742,2.2972999999970227],[0.084375,0.606851851851852,2.3116999999955326],[0.08312499999999995,0.6175925925925926,2.328199999995533],[0.08614583333333338,0.6101851851851852,2.3448999999985105],[0.09427083333333333,0.6118518518518518,2.361600000001495],[0.08229166666666667,0.6025925925925926,2.3782999999970187],[0.08072916666666667,0.5979629629629629,2.3948999999985148],[0.07864583333333333,0.6614814814814816,2.411600000001492],[0.029999999999999954,0.7331481481481481,2.428299999997023],[0.03697916666666667,0.697037037037037,2.444899999998512],[-0.05416666666666667,0.6812962962962963,2.4616000000014893],[-0.12374999999999996,0.687037037037037,2.47829999999702],[-0.18979166666666672,0.6905555555555555,2.496000000000002],[-0.2738541666666666,0.7037037037037037,2.5116999999955283],[-0.3233333333333333,0.696111111111111,2.5282999999970244],[-0.37864583333333335,0.7014814814814814,2.5448999999985134],[-0.4453125,0.6777777777777778,2.5616000000014907],[-0.5328125,0.6911111111111112,2.5782999999970215],[-0.57375,0.6962962962962963,2.594999999999999],[-0.6433333333333333,0.7300000000000001,2.6116999999955297],[-0.6246875000000001,0.7566666666666667,2.6281999999955303],[-0.6279166666666666,0.715925925925926,2.645000000000003],[-0.6252083333333334,0.6646296296296296,2.661600000001492],[-0.6190625,0.64,2.679399999998509],[-0.6503125,0.5955555555555556,2.6980000000000004],[-0.6815625,0.5511111111111111,2.7116000000014893],[-0.7098958333333333,0.5383333333333334,2.72829999999702],[-0.7173958333333333,0.48777777777777775,2.7450000000000045],[-0.7296875,0.4385185185185184,2.7616000000014935],[-0.7420833333333333,0.39407407407407397,2.7782999999970244],[-0.7432291666666667,0.33499999999999996,2.7948999999985134],[-0.740625,0.3101851851851852,2.8116999999955326],[-0.7467708333333333,0.2762962962962964,2.8282999999970215],[-0.7447916666666666,0.22962962962962963,2.8448999999985105],[-0.7356250000000001,0.24055555555555552,2.861600000001495],[-0.7264583333333333,0.2514814814814814,2.881299999997019],[-0.7264583333333333,0.2514814814814814,2.895000000000003],[-0.7298958333333334,0.2551851851851851,2.911699999995534],[-0.7274999999999999,0.24666666666666676,2.9284999999999997],[-0.7296875,0.2627777777777777,2.9450000000000003],[-0.7308333333333333,0.2511111111111112,2.9616000000014893],[-0.74625,0.24296296296296305,2.97829999999702],[-0.7586458333333332,0.24592592592592585,2.9950000000000045],[-0.7639583333333333,0.2740740740740741,3.0116000000014935],[-0.7692708333333333,0.3022222222222223,3.028199999995529],[-0.7896875,0.3557407407407408,3.0448999999985134],[-0.8076041666666666,0.38851851851851843,3.0615000000000023],[-0.8120833333333334,0.42314814814814816,3.07839999999851],[-0.79375,0.4631481481481482,3.09729999999702],[-0.7660416666666666,0.4772222222222223,3.1116999999955297],[-0.7566666666666666,0.534074074074074,3.1282999999970187],[-0.7442708333333333,0.602037037037037,3.1451999999955333],[-0.7094791666666667,0.674074074074074,3.161600000001492],[-0.6715625000000001,0.7266666666666666,3.178299999997023],[-0.5452083333333333,0.7587037037037038,3.1961000000014934],[-0.41677083333333337,0.7477777777777777,3.211699999995531],[-0.30572916666666666,0.7603703703703704,3.22829999999702],[-0.19750000000000004,0.7711111111111111,3.2450000000000045],[-0.10666666666666665,0.7866666666666666,3.2616000000014935],[-0.01583333333333338,0.8022222222222223,3.283799999997022],[-0.01583333333333338,0.8022222222222223,3.2950000000000017],[0.07916666666666666,0.8046296296296296,3.3116000000014907],[0.07916666666666666,0.8046296296296296,3.328199999995533],[0.16822916666666668,0.7968518518518518,3.344999999999999],[0.16822916666666668,0.7968518518518518,3.361600000001495],[0.22843749999999996,0.7661111111111112,3.3782999999970187],[0.22843749999999996,0.7661111111111112,3.395000000000003],[0.28718750000000004,0.7387037037037036,3.411699999995534],[0.28718750000000004,0.7387037037037036,3.428299999997023],[0.24270833333333333,0.6627777777777777,3.4451000000014886],[0.24270833333333333,0.6627777777777777,3.461699999995531],[0.1798958333333334,0.5027777777777778,3.47829999999702],[0.14406249999999995,0.3816666666666667,3.5006000000014907],[0.18447916666666658,0.28648148148148156,3.5146999999955284],[0.19406249999999994,0.15481481481481485,3.5286000000014894],[0.20145833333333343,0.03518518518518519,3.545899999998511],[0.23093750000000005,-0.10555555555555556,3.565000000000005],[0.22687499999999997,-0.17537037037037034,3.5796999999955332],[0.2421875,-0.16222222222222227,3.596299999997022],[0.24333333333333323,-0.15,3.616500000000002],[0.24333333333333323,-0.15,3.628399999998514],[0.2652083333333332,-0.14092592592592595,3.6451999999955333],[0.303125,-0.020740740740740823,3.6617999999970223],[0.3289583333333333,0.057777777777777865,3.6813999999985114],[0.27760416666666665,0.06962962962962967,3.6983999999985144],[0.24583333333333332,0.11999999999999991,3.7139999999999986],[0.22802083333333342,0.11962962962962967,3.7325000000000017],[0.19364583333333343,0.14148148148148143,3.747799999997021],[0.19541666666666657,0.09129629629629621,3.7623999999985145],[0.18125,-0.034074074074074034,3.778500000000001],[0.18125,-0.15851851851851856,3.798199999995532],[0.16260416666666658,-0.1557407407407408,3.8133999999985093],[0.14979166666666663,-0.18851851851851853,3.82839999999851],[0.1466666666666666,-0.2309259259259259,3.8451000000014943],[0.14458333333333329,-0.23407407407407405,3.865799999997023],[0.1580208333333334,-0.23703703703703705,3.880699999995528],[0.12447916666666667,-0.18462962962962962,3.8973999999985125],[0.09854166666666657,-0.13518518518518519,3.914500000000004],[0.08291666666666657,-0.09722222222222222,3.92869999999553],[0.06729166666666657,-0.05925925925925926,3.9451000000014886],[0.058958333333333356,-0.026481481481481398,3.961699999995531],[0.06333333333333328,-0.04870370370370362,3.9827999999970203],[0.06489583333333329,-0.09425925925925922,3.997799999997021],[0.05677083333333333,-0.1301851851851852,4.011799999997024],[0.041562499999999974,-0.1381481481481482,4.028199999995529],[0.01083333333333331,-0.14629629629629629,4.044899999998513],[0.02687499999999995,-0.15851851851851856,4.0616999999955326],[0.02687499999999995,-0.15851851851851856,4.07839999999851],[0.042916666666666714,-0.17074074074074072,4.0948999999985105],[0.042916666666666714,-0.17074074074074072,4.111600000001495],[0.04208333333333331,-0.19148148148148145,4.128299999997019],[0.033854166666666664,-0.2403703703703704,4.14989999999851],[0.03208333333333328,-0.2462962962962963,4.164999999999999],[0.030312500000000023,-0.2522222222222222,4.179500000000004],[0.03135416666666669,-0.23481481481481484,4.196799999997019],[0.04375,-0.25092592592592594,4.211600000001489],[0.06312500000000003,-0.2935185185185185,4.228199999995532],[0.08041666666666672,-0.31592592592592594,4.244899999998509],[0.08614583333333338,-0.3509259259259259,4.2616000000014935],[0.07708333333333334,-0.3744444444444444,4.278199999995529],[0.08072916666666667,-0.3725925925925926,4.29829999999702],[0.09177083333333323,-0.3425925925925926,4.312000000000005],[0.08083333333333324,-0.3398148148148148,4.330100000001494],[0.06989583333333324,-0.337037037037037,4.344999999999999],[0.0709374999999999,-0.33611111111111114,4.361600000001495],[0.06062500000000005,-0.30166666666666664,4.378299999997019],[0.06187499999999998,-0.2581481481481481,4.3969999999999985],[0.06520833333333335,-0.23481481481481484,4.411600000001492],[0.06708333333333343,-0.24574074074074073,4.428299999997023],[0.08375000000000009,-0.2681481481481482,4.444899999998512],[0.08552083333333324,-0.28129629629629627,4.461500000000001],[0.08729166666666661,-0.29444444444444445,4.47829999999702],[0.09760416666666671,-0.32592592592592595,4.497399999998514],[0.1171875,-0.36500000000000005,4.511699999995528],[0.1256249999999999,-0.3962962962962963,4.528299999997024],[0.13406250000000006,-0.4275925925925925,4.544899999998513],[0.12541666666666676,-0.4479629629629629,4.561500000000002],[0.11552083333333343,-0.4742592592592593,4.5782999999970215],[0.10708333333333328,-0.4662962962962963,4.5948999999985105],[0.10708333333333328,-0.4662962962962963,4.611600000001495],[0.10270833333333323,-0.4601851851851852,4.628299999997019],[0.12208333333333338,-0.4505555555555556,4.6451000000014915],[0.1414583333333333,-0.44092592592592594,4.661600000001492],[0.1476041666666667,-0.4148148148148148,4.678399999998511],[0.13583333333333342,-0.39277777777777784,4.69739999999851],[0.12322916666666663,-0.37666666666666665,4.7121999999955335],[0.1134375000000001,-0.3705555555555556,4.72829999999702],[0.10968749999999995,-0.38333333333333336,4.7472999999970185],[0.10385416666666672,-0.35,4.7616000000014935],[0.09802083333333324,-0.31666666666666665,4.778199999995529],[0.08489583333333334,-0.27999999999999997,4.794899999998513],[0.058333333333333334,-0.25,4.811600000001491],[0.04031250000000005,-0.15999999999999995,4.828199999995533],[0.011562500000000024,-0.08314814814814811,4.844999999999999],[-0.0017708333333333807,0.013333333333333417,4.861600000001495],[-0.009895833333333333,0.11296296296296296,4.87819999999553],[-0.027291666666666714,0.19870370370370363,4.895000000000003],[-0.041458333333333285,0.29555555555555557,4.91279999999702],[-0.042916666666666714,0.2838888888888888,4.928199999995535],[-0.05531250000000002,0.25092592592592594,4.9451999999955305],[-0.05510416666666664,0.227962962962963,4.961600000001489],[-0.053125,0.20481481481481487,4.97829999999702],[-0.06031249999999998,0.11833333333333329,4.996000000000002],[-0.05583333333333336,0.0242592592592593,5.0116000000014935],[-0.05947916666666669,-0.07259259259259257,5.028299999997024],[-0.06708333333333331,-0.1425925925925926,5.044899999998513],[-0.06822916666666666,-0.18870370370370365,5.061500000000002],[-0.04781249999999997,-0.29388888888888887,5.0782999999970215]]","[0.00019999999553022008,0.03810000000149216,0.04489999999851335,0.06169999999553255,0.0786000000014937,0.0975000000000037,0.11419999999553454,0.13039999999850949,0.1476000000014892,0.16169999999553397,0.17829999999702295,0.19500000000000028,0.21160000000148926,0.2282999999970201,0.2448999999985091,0.2616999999955283,0.27829999999702437,0.29489999999851335,0.31169999999553255,0.3316000000014938,0.3453999999985129,0.3616999999955297,0.3782999999970187,0.39679999999702176,0.41169999999553397,0.4283999999985113,0.4461000000014934,0.4617999999970195,0.4782999999970201,0.49619999999553244,0.5116999999955283,0.5282999999970244,0.5450000000000017,0.5616999999955326,0.5782999999970215,0.5981999999955292,0.6127999999970228,0.6283999999985141,0.6450000000000031,0.6616000000014921,0.678299999997023,0.6983999999985144,0.7124999999999986,0.7286000000014923,0.7450000000000045,0.7616000000014935,0.7782999999970244,0.7971999999955344,0.8116999999955326,0.8283999999985099,0.8449999999999989,0.8616999999955297,0.8782999999970187,0.8951000000014915,0.911699999995534,0.928299999997023,0.9450000000000003,0.9616999999955311,0.9782999999970201,0.9948999999985091,1.0116999999955283,1.0283999999985127,1.0448999999985134,1.0618999999985093,1.0782999999970215,1.0972999999970199,1.1116999999955297,1.1282999999970187,1.1451000000014915,1.161699999995534,1.178299999997023,1.1950000000000003,1.2116000000014893,1.2306999999955295,1.245100000001493,1.2617999999970237,1.2888999999985131,1.2957999999970227,1.312100000001493,1.3308999999985147,1.3497999999970247,1.361799999997018,1.3840000000000003,1.4011000000014917,1.4117999999970223,1.4286999999955299,1.4502999999970214,1.4616999999955311,1.478500000000004,1.4995000000000047,1.5141999999955331,1.5283999999985127,1.54510000000149,1.5641000000014884,1.5808999999985147,1.597699999995534,1.6315000000000026,1.6416999999955308,1.6451999999955333,1.6617999999970223,1.6843999999985115,1.6950000000000003,1.7116999999955311,1.7281999999955318,1.7450000000000045,1.7616000000014935,1.7782999999970244,1.7961999999955296,1.8116999999955326,1.8282999999970215,1.8448999999985105,1.861600000001495,1.8782999999970187,1.8962999999970194,1.911600000001492,1.928299999997023,1.9450000000000003,1.9616000000014893,1.9781999999955318,1.99719999999553,2.0117999999970237,2.0282999999970244,2.0450000000000017,2.0616000000014907,2.0782999999970215,2.0948999999985105,2.111600000001495,2.1282999999970187,2.1448999999985148,2.161699999995534,2.178299999997023,2.198299999997019,2.211699999995531,2.22829999999702,2.244899999998509,2.2616000000014935,2.2782999999970244,2.2972999999970227,2.3116999999955326,2.328199999995533,2.3448999999985105,2.361600000001495,2.3782999999970187,2.3948999999985148,2.411600000001492,2.428299999997023,2.444899999998512,2.4616000000014893,2.47829999999702,2.496000000000002,2.5116999999955283,2.5282999999970244,2.5448999999985134,2.5616000000014907,2.5782999999970215,2.594999999999999,2.6116999999955297,2.6281999999955303,2.645000000000003,2.661600000001492,2.679399999998509,2.6980000000000004,2.7116000000014893,2.72829999999702,2.7450000000000045,2.7616000000014935,2.7782999999970244,2.7948999999985134,2.8116999999955326,2.8282999999970215,2.8448999999985105,2.861600000001495,2.881299999997019,2.895000000000003,2.911699999995534,2.9284999999999997,2.9450000000000003,2.9616000000014893,2.97829999999702,2.9950000000000045,3.0116000000014935,3.028199999995529,3.0448999999985134,3.0615000000000023,3.07839999999851,3.09729999999702,3.1116999999955297,3.1282999999970187,3.1451999999955333,3.161600000001492,3.178299999997023,3.1961000000014934,3.211699999995531,3.22829999999702,3.2450000000000045,3.2616000000014935,3.283799999997022,3.2950000000000017,3.3116000000014907,3.328199999995533,3.344999999999999,3.361600000001495,3.3782999999970187,3.395000000000003,3.411699999995534,3.428299999997023,3.4451000000014886,3.461699999995531,3.47829999999702,3.5006000000014907,3.5146999999955284,3.5286000000014894,3.545899999998511,3.565000000000005,3.5796999999955332,3.596299999997022,3.616500000000002,3.628399999998514,3.6451999999955333,3.6617999999970223,3.6813999999985114,3.6983999999985144,3.7139999999999986,3.7325000000000017,3.747799999997021,3.7623999999985145,3.778500000000001,3.798199999995532,3.8133999999985093,3.82839999999851,3.8451000000014943,3.865799999997023,3.880699999995528,3.8973999999985125,3.914500000000004,3.92869999999553,3.9451000000014886,3.961699999995531,3.9827999999970203,3.997799999997021,4.011799999997024,4.028199999995529,4.044899999998513,4.0616999999955326,4.07839999999851,4.0948999999985105,4.111600000001495,4.128299999997019,4.14989999999851,4.164999999999999,4.179500000000004,4.196799999997019,4.211600000001489,4.228199999995532,4.244899999998509,4.2616000000014935,4.278199999995529,4.29829999999702,4.312000000000005,4.330100000001494,4.344999999999999,4.361600000001495,4.378299999997019,4.3969999999999985,4.411600000001492,4.428299999997023,4.444899999998512,4.461500000000001,4.47829999999702,4.497399999998514,4.511699999995528,4.528299999997024,4.544899999998513,4.561500000000002,4.5782999999970215,4.5948999999985105,4.611600000001495,4.628299999997019,4.6451000000014915,4.661600000001492,4.678399999998511,4.69739999999851,4.7121999999955335,4.72829999999702,4.7472999999970185,4.7616000000014935,4.778199999995529,4.794899999998513,4.811600000001491,4.828199999995533,4.844999999999999,4.861600000001495,4.87819999999553,4.895000000000003,4.91279999999702,4.928199999995535,4.9451999999955305,4.961600000001489,4.97829999999702,4.996000000000002,5.0116000000014935,5.028299999997024,5.044899999998513,5.061500000000002,5.0782999999970215]","[1733294818989,1733294819020,1733294819027,1733294819044,1733294819061,1733294819079,1733294819096,1733294819112,1733294819130,1733294819144,1733294819160,1733294819177,1733294819194,1733294819210,1733294819227,1733294819244,1733294819260,1733294819277,1733294819294,1733294819314,1733294819328,1733294819344,1733294819360,1733294819379,1733294819394,1733294819410,1733294819428,1733294819444,1733294819460,1733294819478,1733294819494,1733294819510,1733294819527,1733294819544,1733294819560,1733294819580,1733294819595,1733294819610,1733294819627,1733294819644,1733294819660,1733294819680,1733294819695,1733294819711,1733294819727,1733294819744,1733294819760,1733294819779,1733294819794,1733294819810,1733294819827,1733294819844,1733294819860,1733294819877,1733294819894,1733294819910,1733294819927,1733294819944,1733294819960,1733294819977,1733294819994,1733294820010,1733294820027,1733294820044,1733294820060,1733294820079,1733294820094,1733294820110,1733294820127,1733294820144,1733294820160,1733294820177,1733294820194,1733294820213,1733294820227,1733294820244,1733294820271,1733294820278,1733294820294,1733294820313,1733294820332,1733294820344,1733294820366,1733294820383,1733294820394,1733294820411,1733294820432,1733294820444,1733294820461,1733294820482,1733294820496,1733294820510,1733294820527,1733294820546,1733294820563,1733294820580,1733294820614,1733294820624,1733294820627,1733294820644,1733294820666,1733294820677,1733294820694,1733294820710,1733294820727,1733294820744,1733294820760,1733294820778,1733294820794,1733294820810,1733294820827,1733294820844,1733294820860,1733294820878,1733294820894,1733294820910,1733294820927,1733294820944,1733294820960,1733294820979,1733294820994,1733294821010,1733294821027,1733294821044,1733294821060,1733294821077,1733294821094,1733294821110,1733294821127,1733294821144,1733294821160,1733294821180,1733294821194,1733294821210,1733294821227,1733294821244,1733294821260,1733294821279,1733294821294,1733294821310,1733294821327,1733294821344,1733294821360,1733294821377,1733294821394,1733294821410,1733294821427,1733294821444,1733294821460,1733294821478,1733294821494,1733294821510,1733294821527,1733294821544,1733294821560,1733294821577,1733294821594,1733294821610,1733294821627,1733294821644,1733294821661,1733294821680,1733294821694,1733294821710,1733294821727,1733294821744,1733294821760,1733294821777,1733294821794,1733294821810,1733294821827,1733294821844,1733294821863,1733294821877,1733294821894,1733294821910,1733294821927,1733294821944,1733294821960,1733294821977,1733294821994,1733294822010,1733294822027,1733294822044,1733294822060,1733294822079,1733294822094,1733294822110,1733294822127,1733294822144,1733294822160,1733294822178,1733294822194,1733294822210,1733294822227,1733294822244,1733294822266,1733294822277,1733294822294,1733294822310,1733294822327,1733294822344,1733294822360,1733294822377,1733294822394,1733294822410,1733294822427,1733294822444,1733294822460,1733294822483,1733294822497,1733294822511,1733294822528,1733294822547,1733294822562,1733294822578,1733294822598,1733294822610,1733294822627,1733294822644,1733294822663,1733294822680,1733294822696,1733294822714,1733294822730,1733294822744,1733294822760,1733294822780,1733294822795,1733294822810,1733294822827,1733294822848,1733294822863,1733294822879,1733294822896,1733294822911,1733294822927,1733294822944,1733294822965,1733294822980,1733294822994,1733294823010,1733294823027,1733294823044,1733294823060,1733294823077,1733294823094,1733294823110,1733294823132,1733294823147,1733294823162,1733294823179,1733294823194,1733294823210,1733294823227,1733294823244,1733294823260,1733294823280,1733294823294,1733294823312,1733294823327,1733294823344,1733294823360,1733294823379,1733294823394,1733294823410,1733294823427,1733294823444,1733294823460,1733294823479,1733294823494,1733294823510,1733294823527,1733294823544,1733294823560,1733294823577,1733294823594,1733294823610,1733294823627,1733294823644,1733294823660,1733294823679,1733294823694,1733294823710,1733294823729,1733294823744,1733294823760,1733294823777,1733294823794,1733294823810,1733294823827,1733294823844,1733294823860,1733294823877,1733294823895,1733294823910,1733294823927,1733294823944,1733294823960,1733294823978,1733294823994,1733294824010,1733294824027,1733294824044,1733294824060]","[[1012.9,771.6],[1012.9,771.6],[993.5,751.9],[989,722],[989,722],[984.2,691],[984.1,691.2],[982.5,698.6],[976.9,709],[985.8,712.9],[993.3,707.8],[1015.7,711.3],[1041.1,730.3],[1070.1,755.2],[1094.4,772.2],[1118.1,790.7],[1133.1,783.1],[1151.8,769.5],[1163.7,764],[1162.3,762.9],[1162.1,772.6],[1160,783.2],[1139.9,772.8],[1136.6,772.1],[1127.6,780.7],[1119.6,775.1],[1116.6,775],[1123.3,764.2],[1126.4,751],[1135,734.8],[1153.7,715.1],[1169.7,682.4],[1196.9,667.9],[1204.3,646.2],[1213.5,627.2],[1222.6,622],[1231.4,604.4],[1230.5,597.5],[1247.8,595.4],[1256.6,593.6],[1265.7,611.9],[1270.2,634.7],[1272.9,647.6],[1211.7,669.7],[1148.7,689.1],[1054.1,699.5],[959.8,722.3],[879.9,751.4],[792.2,770],[718,803.5],[613.6,805.3],[533.4,808.6],[453.2,811.9],[432.9,787.9],[432.9,787.9],[412.6,763.9],[431.6,764.7],[450.6,765.5],[446.7,752.1],[442.8,738.7],[434,705.7],[445,687.8],[428.3,675.8],[411.6,663.8],[422.9,683.5],[423.2,706.5],[414.8,711.3],[391.7,701.6],[393.4,706.8],[378.1,725.1],[350.4,740.4],[337.7,755.9],[345.2,769.4],[344.1,781.3],[407.5,783.3],[496.5,775.1],[595.8,774.7],[595.8,774.7],[694.8,778.2],[778,794.2],[778,794.2],[888.5,786],[972.8,770.7],[972.8,770.7],[1019.7,705],[1019.7,705],[1057.8,648.2],[1057.8,648.2],[1148.9,645.7],[1163.4,595.2],[1149.7,574.9],[1149.7,574.9],[1101.3,567.1],[1124.4,556.8],[1136.6,515.5],[1118.6,503.5],[1140.1,491.8],[1140.1,491.8],[1140.1,491.8],[1189.9,546],[1254.3,618.4],[1254.3,618.4],[1252.9,623.3],[1255.4,656],[1271.5,665.4],[1313,656.9],[1328.5,666],[1363.4,683.1],[1392.8,690],[1417.6,711.3],[1436.8,740.6],[1446.6,733],[1455.6,717.9],[1462.7,734.1],[1469.8,750.3],[1497.6,737.3],[1498.7,724.8],[1469.1,731.9],[1472.6,734.2],[1470.1,722.7],[1467.3,687.5],[1435.3,689.8],[1427.1,720.5],[1387.7,737.1],[1351.2,759.6],[1298.7,791.7],[1242.4,818.8],[1195.6,837.3],[1171.8,842.7],[1115.1,878.1],[1060.5,910.6],[1031.2,917.6],[1025.2,917.4],[1044.3,913.4],[1061,867.1],[1073,840.4],[1059.2,853.9],[1067.1,852.7],[1041,867.7],[1039.8,873.5],[1042.7,869.5],[1050.5,870.4],[1039,865.4],[1037.5,862.9],[1035.5,897.2],[988.8,935.9],[995.5,916.4],[908,907.9],[841.2,911],[777.8,912.9],[697.1,920],[649.6,915.9],[596.5,918.8],[532.5,906],[448.5,913.2],[409.2,916],[342.4,934.2],[360.3,948.6],[357.2,926.6],[359.8,898.9],[365.7,885.6],[335.7,861.6],[305.7,837.6],[278.5,830.7],[271.3,803.4],[259.5,776.8],[247.6,752.8],[246.5,720.9],[249,707.5],[243.1,689.2],[245,664],[253.8,669.9],[262.6,675.8],[262.6,675.8],[259.3,677.8],[261.6,673.2],[259.5,681.9],[258.4,675.6],[243.6,671.2],[231.7,672.8],[226.6,688],[221.5,703.2],[201.9,732.1],[184.7,749.8],[180.4,768.5],[198,790.1],[224.6,797.7],[233.6,828.4],[245.5,865.1],[278.9,904],[315.3,932.4],[436.6,949.7],[559.9,943.8],[666.5,950.6],[770.4,956.4],[857.6,964.8],[944.8,973.2],[944.8,973.2],[1036,974.5],[1036,974.5],[1121.5,970.3],[1121.5,970.3],[1179.3,953.7],[1179.3,953.7],[1235.7,938.9],[1235.7,938.9],[1193,897.9],[1193,897.9],[1132.7,811.5],[1098.3,746.1],[1137.1,694.7],[1146.3,623.6],[1153.4,559],[1181.7,483],[1177.8,445.3],[1192.5,452.4],[1193.6,459],[1193.6,459],[1214.6,463.9],[1251,528.8],[1275.8,571.2],[1226.5,577.6],[1196,604.8],[1178.9,604.6],[1145.9,616.4],[1147.6,589.3],[1134,521.6],[1134,454.4],[1116.1,455.9],[1103.8,438.2],[1100.8,415.3],[1098.8,413.6],[1111.7,412],[1079.5,440.3],[1054.6,467],[1039.6,487.5],[1024.6,508],[1016.6,525.7],[1020.8,513.7],[1022.3,489.1],[1014.5,469.7],[999.9,465.4],[970.4,461],[985.8,454.4],[985.8,454.4],[1001.2,447.8],[1001.2,447.8],[1000.4,436.6],[992.5,410.2],[990.8,407],[989.1,403.8],[990.1,413.2],[1002,404.5],[1020.6,381.5],[1037.2,369.4],[1042.7,350.5],[1034,337.8],[1037.5,338.8],[1048.1,355],[1037.6,356.5],[1027.1,358],[1028.1,358.5],[1018.2,377.1],[1019.4,400.6],[1022.6,413.2],[1024.4,407.3],[1040.4,395.2],[1042.1,388.1],[1043.8,381],[1053.7,364],[1072.5,342.9],[1080.6,326],[1088.7,309.1],[1080.4,298.1],[1070.9,283.9],[1062.8,288.2],[1062.8,288.2],[1058.6,291.5],[1077.2,296.7],[1095.8,301.9],[1101.7,316],[1090.4,327.9],[1078.3,336.6],[1068.9,339.9],[1065.3,333],[1059.7,351],[1054.1,369],[1041.5,388.8],[1016,405],[998.7,453.6],[971.1,495.1],[958.3,547.2],[950.5,601],[933.8,647.3],[920.2,699.6],[918.8,693.3],[906.9,675.5],[907.1,663.1],[909,650.6],[902.1,603.9],[906.4,553.1],[902.9,500.8],[895.6,463],[894.5,438.1],[914.1,381.3]]","[0,0.5333]","[0.5333,0.5333]","[-0.5333,0]","[-0.5333,-0.5333]","[0,0]","[0.5333,0]","[0,-0.5333]","[0.5333,-0.5333]",0,0,0,0,1,3,Monitor,11,9,9,1
