inst1_resp.keys,inst1_resp.rt,calibrationMouse.x,calibrationMouse.y,calibrationMouse.leftButton,calibrationMouse.midButton,calibrationMouse.rightButton,calibrationClick.x,calibrationClick.y,calibrationClick.leftButton,calibrationClick.midButton,calibrationClick.rightButton,calibrationClick.clicked_name,trialsc.thisRepN,trialsc.thisTrialN,trialsc.thisN,trialsc.thisIndex,trialsc.ran,calibration_x,calibration_y,participant,session,date,expName,psychopyVersion,OS,frameRate,ScreenRes_pixels,Camera_pixels,mouse_2.x,mouse_2.y,mouse_2.leftButton,mouse_2.midButton,mouse_2.rightButton,mouse_2.time,mouse_2.clicked_name,mouse.x,mouse.y,mouse.leftButton,mouse.midButton,mouse.rightButton,mouse.time,mouse.clicked_name,Choice,Trial,TrialDuration,MOUSE_GAZE,ET_GAZE,ET_GAZE_x_T,time,unixTime,ET_GAZE_NF,Loc_Option1_label,Loc_Option2_label,Loc_Cost_label,Loc_Qual_label,Loc_Option1_cost,Loc_Option2_cost,Loc_Option1_quality,Loc_Option2_quality,trials.thisRepN,trials.thisTrialN,trials.thisN,trials.thisIndex,trials.ran,Block,Device,cost1,qual1,cost2,qual2
space,4.9522,-0.360416667,-0.037037037,1,0,0,-0.325,0.664814815,1,0,0,calibration_square,0,0,0,8,1,-0.33,0.67,30,001,2024-12-04_11h01.03.444,Attention_exp_legacy,2023.1.0,Win32,60.24096386,,,,,,,,,,,,,,,,,,,,,,,,,,,,,,,,,,,,,,,,,,,,
,,,,,,,0.323958333,-0.662962963,1,0,0,calibration_square,0,1,1,14,1,0.33,-0.67,30,001,2024-12-04_11h01.03.444,Attention_exp_legacy,2023.1.0,Win32,60.24096386,,,,,,,,,,,,,,,,,,,,,,,,,,,,,,,,,,,,,,,,,,,,
,,,,,,,-0.329166667,-0.666666667,1,0,0,calibration_square,0,2,2,4,1,-0.33,-0.67,30,001,2024-12-04_11h01.03.444,Attention_exp_legacy,2023.1.0,Win32,60.24096386,,,,,,,,,,,,,,,,,,,,,,,,,,,,,,,,,,,,,,,,,,,,
,,,,,,,-0.673958333,-0.675925926,1,0,0,calibration_square,0,3,3,0,1,-0.67,-0.67,30,001,2024-12-04_11h01.03.444,Attention_exp_legacy,2023.1.0,Win32,60.24096386,,,,,,,,,,,,,,,,,,,,,,,,,,,,,,,,,,,,,,,,,,,,
,,,,,,,-0.326041667,0.012962963,1,0,0,,0,4,4,6,1,-0.33,0,30,001,2024-12-04_11h01.03.444,Attention_exp_legacy,2023.1.0,Win32,60.24096386,,,,,,,,,,,,,,,,,,,,,,,,,,,,,,,,,,,,,,,,,,,,
,,,,,,,0.65625,-0.664814815,1,0,0,,0,5,5,20,1,0.67,-0.67,30,001,2024-12-04_11h01.03.444,Attention_exp_legacy,2023.1.0,Win32,60.24096386,,,,,,,,,,,,,,,,,,,,,,,,,,,,,,,,,,,,,,,,,,,,
,,,,,,,-0.017708333,-0.322222222,1,0,0,,0,6,6,10,1,0,-0.33,30,001,2024-12-04_11h01.03.444,Attention_exp_legacy,2023.1.0,Win32,60.24096386,,,,,,,,,,,,,,,,,,,,,,,,,,,,,,,,,,,,,,,,,,,,
,,,,,,,0.672916667,0.668518519,1,0,0,calibration_square,0,7,7,19,1,0.67,0.67,30,001,2024-12-04_11h01.03.444,Attention_exp_legacy,2023.1.0,Win32,60.24096386,,,,,,,,,,,,,,,,,,,,,,,,,,,,,,,,,,,,,,,,,,,,
,,,,,,,0.323958333,0.011111111,1,0,0,,0,8,8,16,1,0.33,0,30,001,2024-12-04_11h01.03.444,Attention_exp_legacy,2023.1.0,Win32,60.24096386,,,,,,,,,,,,,,,,,,,,,,,,,,,,,,,,,,,,,,,,,,,,
,,,,,,,0.320833333,-0.312962963,1,0,0,,0,9,9,15,1,0.33,-0.33,30,001,2024-12-04_11h01.03.444,Attention_exp_legacy,2023.1.0,Win32,60.24096386,,,,,,,,,,,,,,,,,,,,,,,,,,,,,,,,,,,,,,,,,,,,
,,,,,,,0.334375,0.67037037,1,0,0,calibration_square,0,10,10,18,1,0.33,0.67,30,001,2024-12-04_11h01.03.444,Attention_exp_legacy,2023.1.0,Win32,60.24096386,,,,,,,,,,,,,,,,,,,,,,,,,,,,,,,,,,,,,,,,,,,,
,,,,,,,-0.00625,0.675925926,1,0,0,calibration_square,0,11,11,13,1,0,0.67,30,001,2024-12-04_11h01.03.444,Attention_exp_legacy,2023.1.0,Win32,60.24096386,,,,,,,,,,,,,,,,,,,,,,,,,,,,,,,,,,,,,,,,,,,,
,,,,,,,-0.002083333,-0.011111111,1,0,0,,0,12,12,11,1,0,0,30,001,2024-12-04_11h01.03.444,Attention_exp_legacy,2023.1.0,Win32,60.24096386,,,,,,,,,,,,,,,,,,,,,,,,,,,,,,,,,,,,,,,,,,,,
,,,,,,,0.002083333,0.32962963,1,0,0,calibration_square,0,13,13,12,1,0,0.33,30,001,2024-12-04_11h01.03.444,Attention_exp_legacy,2023.1.0,Win32,60.24096386,,,,,,,,,,,,,,,,,,,,,,,,,,,,,,,,,,,,,,,,,,,,
,,,,,,,0.3375,0.325925926,1,0,0,calibration_square,0,14,14,17,1,0.33,0.33,30,001,2024-12-04_11h01.03.444,Attention_exp_legacy,2023.1.0,Win32,60.24096386,,,,,,,,,,,,,,,,,,,,,,,,,,,,,,,,,,,,,,,,,,,,
,,,,,,,0.003125,-0.672222222,1,0,0,calibration_square,0,15,15,9,1,0,-0.67,30,001,2024-12-04_11h01.03.444,Attention_exp_legacy,2023.1.0,Win32,60.24096386,,,,,,,,,,,,,,,,,,,,,,,,,,,,,,,,,,,,,,,,,,,,
,,,,,,,-0.661458333,0.344444444,1,0,0,,0,16,16,3,1,-0.67,0.33,30,001,2024-12-04_11h01.03.444,Attention_exp_legacy,2023.1.0,Win32,60.24096386,,,,,,,,,,,,,,,,,,,,,,,,,,,,,,,,,,,,,,,,,,,,
,,,,,,,-0.68125,-0.333333333,1,0,0,,0,17,17,1,1,-0.67,-0.33,30,001,2024-12-04_11h01.03.444,Attention_exp_legacy,2023.1.0,Win32,60.24096386,,,,,,,,,,,,,,,,,,,,,,,,,,,,,,,,,,,,,,,,,,,,
,,,,,,,-0.341666667,0.325925926,1,0,0,,0,18,18,7,1,-0.33,0.33,30,001,2024-12-04_11h01.03.444,Attention_exp_legacy,2023.1.0,Win32,60.24096386,,,,,,,,,,,,,,,,,,,,,,,,,,,,,,,,,,,,,,,,,,,,
,,,,,,,-0.665625,-0.018518519,1,0,0,,0,19,19,2,1,-0.67,0,30,001,2024-12-04_11h01.03.444,Attention_exp_legacy,2023.1.0,Win32,60.24096386,,,,,,,,,,,,,,,,,,,,,,,,,,,,,,,,,,,,,,,,,,,,
,,,,,,,-0.330208333,-0.32962963,1,0,0,calibration_square,0,20,20,5,1,-0.33,-0.33,30,001,2024-12-04_11h01.03.444,Attention_exp_legacy,2023.1.0,Win32,60.24096386,,,,,,,,,,,,,,,,,,,,,,,,,,,,,,,,,,,,,,,,,,,,
,,,,,,,,,,,,,,,,,,,,30,001,2024-12-04_11h01.03.444,Attention_exp_legacy,2023.1.0,Win32,60.24096386,"[1920,1080]","[640,480]",[0.004166666666666667],[-0.49444444444444446],[1],[0],[0],[7.317],"[""StartButton""]","[0.029166666666666667,0.03333333333333333]","[0,0.28888888888888886]","[1,1]","[0,0]","[0,0]","[4.588400000005969,5.138100000001508]","[""Option1_label""]",Option1_label,1,6.1648,"[[0.022916666666666665,-0.32407407407407407],[0.022916666666666665,-0.32407407407407407],[0.022916666666666665,-0.32407407407407407],[0.022916666666666665,-0.32407407407407407],[0.022916666666666665,-0.32407407407407407],[0.022916666666666665,-0.32407407407407407],[0.022916666666666665,-0.32407407407407407],[0.022916666666666665,-0.32407407407407407],[0.022916666666666665,-0.32407407407407407],[0.022916666666666665,-0.32407407407407407],[0.022916666666666665,-0.32407407407407407],[0.022916666666666665,-0.32407407407407407],[0.022916666666666665,-0.32407407407407407],[0.022916666666666665,-0.32407407407407407],[0.022916666666666665,-0.32407407407407407],[0.022916666666666665,-0.32407407407407407],[0.022916666666666665,-0.32407407407407407],[0.022916666666666665,-0.32407407407407407],[0.022916666666666665,-0.32407407407407407],[0.022916666666666665,-0.32407407407407407],[0.022916666666666665,-0.32407407407407407],[0.022916666666666665,-0.32407407407407407],[0.022916666666666665,-0.32407407407407407],[0.022916666666666665,-0.32407407407407407],[0.022916666666666665,-0.32407407407407407],[0.022916666666666665,-0.32407407407407407],[0.022916666666666665,-0.32407407407407407],[0.022916666666666665,-0.32407407407407407],[0.022916666666666665,-0.32407407407407407],[0.022916666666666665,-0.32407407407407407],[0.022916666666666665,-0.32407407407407407],[0.022916666666666665,-0.32407407407407407],[0.022916666666666665,-0.32407407407407407],[0.022916666666666665,-0.32407407407407407],[0.022916666666666665,-0.32407407407407407],[0.022916666666666665,-0.32407407407407407],[0.022916666666666665,-0.32407407407407407],[0.022916666666666665,-0.32407407407407407],[0.022916666666666665,-0.32407407407407407],[0.022916666666666665,-0.32407407407407407],[0.022916666666666665,-0.32407407407407407],[0.022916666666666665,-0.32407407407407407],[0.022916666666666665,-0.32407407407407407],[0.022916666666666665,-0.32407407407407407],[0.022916666666666665,-0.32407407407407407],[0.022916666666666665,-0.32407407407407407],[0.022916666666666665,-0.32407407407407407],[0.022916666666666665,-0.32407407407407407],[0.022916666666666665,-0.32407407407407407],[0.022916666666666665,-0.32407407407407407],[0.022916666666666665,-0.32407407407407407],[0.022916666666666665,-0.32407407407407407],[0.022916666666666665,-0.32407407407407407],[0.022916666666666665,-0.32407407407407407],[0.022916666666666665,-0.32407407407407407],[0.022916666666666665,-0.32407407407407407],[0.022916666666666665,-0.32407407407407407],[0.022916666666666665,-0.32407407407407407],[0.022916666666666665,-0.32407407407407407],[0.022916666666666665,-0.32407407407407407],[0.022916666666666665,-0.32407407407407407],[0.022916666666666665,-0.32407407407407407],[0.022916666666666665,-0.32407407407407407],[0.022916666666666665,-0.32407407407407407],[0.022916666666666665,-0.32407407407407407],[0.022916666666666665,-0.32407407407407407],[0.022916666666666665,-0.32407407407407407],[0.022916666666666665,-0.32407407407407407],[0.022916666666666665,-0.32407407407407407],[0.022916666666666665,-0.32407407407407407],[0.022916666666666665,-0.32407407407407407],[0.022916666666666665,-0.32407407407407407],[0.022916666666666665,-0.32407407407407407],[0.022916666666666665,-0.32407407407407407],[0.022916666666666665,-0.32407407407407407],[0.022916666666666665,-0.32407407407407407],[0.022916666666666665,-0.32407407407407407],[0.022916666666666665,-0.32407407407407407],[0.022916666666666665,-0.32407407407407407],[0.022916666666666665,-0.32407407407407407],[0.022916666666666665,-0.32407407407407407],[0.022916666666666665,-0.32407407407407407],[0.022916666666666665,-0.32407407407407407],[0.022916666666666665,-0.32407407407407407],[0.022916666666666665,-0.32407407407407407],[0.022916666666666665,-0.32407407407407407],[0.022916666666666665,-0.32407407407407407],[0.022916666666666665,-0.32407407407407407],[0.022916666666666665,-0.32407407407407407],[0.022916666666666665,-0.32407407407407407],[0.022916666666666665,-0.32407407407407407],[0.022916666666666665,-0.32407407407407407],[0.022916666666666665,-0.32407407407407407],[0.022916666666666665,-0.32407407407407407],[0.022916666666666665,-0.32407407407407407],[0.022916666666666665,-0.32407407407407407],[0.022916666666666665,-0.32407407407407407],[0.022916666666666665,-0.32407407407407407],[0.022916666666666665,-0.32407407407407407],[0.022916666666666665,-0.32407407407407407],[0.022916666666666665,-0.32407407407407407],[0.022916666666666665,-0.32407407407407407],[0.022916666666666665,-0.32407407407407407],[0.022916666666666665,-0.32407407407407407],[0.022916666666666665,-0.32407407407407407],[0.022916666666666665,-0.32407407407407407],[0.022916666666666665,-0.32407407407407407],[0.022916666666666665,-0.32407407407407407],[0.022916666666666665,-0.32407407407407407],[0.022916666666666665,-0.32407407407407407],[0.022916666666666665,-0.32407407407407407],[0.022916666666666665,-0.32407407407407407],[0.022916666666666665,-0.32407407407407407],[0.022916666666666665,-0.32407407407407407],[0.022916666666666665,-0.32407407407407407],[0.022916666666666665,-0.32407407407407407],[0.022916666666666665,-0.32407407407407407],[0.022916666666666665,-0.32407407407407407],[0.022916666666666665,-0.32407407407407407],[0.022916666666666665,-0.32407407407407407],[0.022916666666666665,-0.32407407407407407],[0.022916666666666665,-0.32407407407407407],[0.022916666666666665,-0.32407407407407407],[0.022916666666666665,-0.32407407407407407],[0.022916666666666665,-0.32407407407407407],[0.022916666666666665,-0.32407407407407407],[0.022916666666666665,-0.32407407407407407],[0.022916666666666665,-0.32407407407407407],[0.022916666666666665,-0.32407407407407407],[0.022916666666666665,-0.32407407407407407],[0.022916666666666665,-0.32407407407407407],[0.022916666666666665,-0.32407407407407407],[0.022916666666666665,-0.32407407407407407],[0.022916666666666665,-0.32407407407407407],[0.022916666666666665,-0.32407407407407407],[0.022916666666666665,-0.32407407407407407],[0.022916666666666665,-0.32407407407407407],[0.022916666666666665,-0.32407407407407407],[0.022916666666666665,-0.32407407407407407],[0.022916666666666665,-0.32407407407407407],[0.022916666666666665,-0.32407407407407407],[0.022916666666666665,-0.32407407407407407],[0.022916666666666665,-0.32407407407407407],[0.022916666666666665,-0.32407407407407407],[0.022916666666666665,-0.32407407407407407],[0.022916666666666665,-0.32407407407407407],[0.022916666666666665,-0.32407407407407407],[0.022916666666666665,-0.32407407407407407],[0.022916666666666665,-0.32407407407407407],[0.022916666666666665,-0.32407407407407407],[0.022916666666666665,-0.32407407407407407],[0.022916666666666665,-0.32407407407407407],[0.022916666666666665,-0.32407407407407407],[0.022916666666666665,-0.32407407407407407],[0.022916666666666665,-0.32407407407407407],[0.022916666666666665,-0.32407407407407407],[0.022916666666666665,-0.32407407407407407],[0.022916666666666665,-0.32407407407407407],[0.022916666666666665,-0.32407407407407407],[0.022916666666666665,-0.32407407407407407],[0.022916666666666665,-0.32407407407407407],[0.022916666666666665,-0.32407407407407407],[0.022916666666666665,-0.32407407407407407],[0.022916666666666665,-0.32407407407407407],[0.022916666666666665,-0.32407407407407407],[0.022916666666666665,-0.32407407407407407],[0.022916666666666665,-0.32407407407407407],[0.022916666666666665,-0.32407407407407407],[0.022916666666666665,-0.32407407407407407],[0.022916666666666665,-0.32407407407407407],[0.022916666666666665,-0.32407407407407407],[0.022916666666666665,-0.32407407407407407],[0.022916666666666665,-0.32407407407407407],[0.022916666666666665,-0.32407407407407407],[0.022916666666666665,-0.32407407407407407],[0.022916666666666665,-0.32407407407407407],[0.022916666666666665,-0.32407407407407407],[0.022916666666666665,-0.32407407407407407],[0.022916666666666665,-0.32407407407407407],[0.022916666666666665,-0.32407407407407407],[0.022916666666666665,-0.32407407407407407],[0.022916666666666665,-0.32407407407407407],[0.022916666666666665,-0.32407407407407407],[0.022916666666666665,-0.32407407407407407],[0.022916666666666665,-0.32407407407407407],[0.022916666666666665,-0.32407407407407407],[0.022916666666666665,-0.32407407407407407],[0.022916666666666665,-0.32407407407407407],[0.022916666666666665,-0.32407407407407407],[0.022916666666666665,-0.32407407407407407],[0.022916666666666665,-0.32407407407407407],[0.022916666666666665,-0.32407407407407407],[0.022916666666666665,-0.32407407407407407],[0.022916666666666665,-0.32407407407407407],[0.022916666666666665,-0.32407407407407407],[0.022916666666666665,-0.32407407407407407],[0.022916666666666665,-0.32407407407407407],[0.022916666666666665,-0.32407407407407407],[0.022916666666666665,-0.32407407407407407],[0.022916666666666665,-0.32407407407407407],[0.022916666666666665,-0.32407407407407407],[0.022916666666666665,-0.32407407407407407],[0.022916666666666665,-0.32407407407407407],[0.022916666666666665,-0.32407407407407407],[0.022916666666666665,-0.32407407407407407],[0.022916666666666665,-0.32407407407407407],[0.022916666666666665,-0.32407407407407407],[0.022916666666666665,-0.32407407407407407],[0.022916666666666665,-0.32407407407407407],[0.022916666666666665,-0.32407407407407407],[0.022916666666666665,-0.32407407407407407],[0.022916666666666665,-0.32407407407407407],[0.022916666666666665,-0.32407407407407407],[0.022916666666666665,-0.32407407407407407],[0.022916666666666665,-0.32407407407407407],[0.022916666666666665,-0.32407407407407407],[0.022916666666666665,-0.32407407407407407],[0.022916666666666665,-0.32407407407407407],[0.022916666666666665,-0.32407407407407407],[0.022916666666666665,-0.32407407407407407],[0.022916666666666665,-0.32407407407407407],[0.022916666666666665,-0.32407407407407407],[0.022916666666666665,-0.32407407407407407],[0.022916666666666665,-0.32407407407407407],[0.022916666666666665,-0.32407407407407407],[0.022916666666666665,-0.32407407407407407],[0.022916666666666665,-0.32407407407407407],[0.022916666666666665,-0.32407407407407407],[0.022916666666666665,-0.32407407407407407],[0.022916666666666665,-0.32222222222222224],[0.022916666666666665,-0.32037037037037036],[0.025,-0.3037037037037037],[0.026041666666666668,-0.29074074074074074],[0.026041666666666668,-0.2759259259259259],[0.028125,-0.2611111111111111],[0.029166666666666667,-0.24444444444444444],[0.029166666666666667,-0.22592592592592592],[0.029166666666666667,-0.20185185185185187],[0.029166666666666667,-0.17962962962962964],[0.029166666666666667,-0.15555555555555556],[0.029166666666666667,-0.13333333333333333],[0.029166666666666667,-0.10925925925925926],[0.029166666666666667,-0.08703703703703704],[0.029166666666666667,-0.053703703703703705],[0.029166666666666667,-0.03888888888888889],[0.029166666666666667,-0.025925925925925925],[0.029166666666666667,-0.016666666666666666],[0.029166666666666667,-0.009259259259259259],[0.029166666666666667,-0.003703703703703704],[0.029166666666666667,-0.001851851851851852],[0.029166666666666667,-0.001851851851851852],[0.029166666666666667,-0.001851851851851852],[0.029166666666666667,0],[0.029166666666666667,0],[0.029166666666666667,0],[0.029166666666666667,0],[0.029166666666666667,0],[0.029166666666666667,0],[0.029166666666666667,0],[0.029166666666666667,0],[0.029166666666666667,0],[0.029166666666666667,0],[0.029166666666666667,0],[0.029166666666666667,0],[0.029166666666666667,0],[0.029166666666666667,0],[0.029166666666666667,0],[0.029166666666666667,0],[0.029166666666666667,0],[0.029166666666666667,0],[0.029166666666666667,0],[0.029166666666666667,0],[0.029166666666666667,0],[0.029166666666666667,0],[0.029166666666666667,0],[0.029166666666666667,0],[0.029166666666666667,0],[0.029166666666666667,0],[0.029166666666666667,0],[0.029166666666666667,0],[0.029166666666666667,0],[0.029166666666666667,0],[0.029166666666666667,0],[0.029166666666666667,0],[0.029166666666666667,0],[0.029166666666666667,0],[0.029166666666666667,0],[0.029166666666666667,0],[0.029166666666666667,0],[0.029166666666666667,0],[0.029166666666666667,0],[0.029166666666666667,0],[0.030208333333333334,0.02962962962962963],[0.030208333333333334,0.06296296296296296],[0.03333333333333333,0.1],[0.03333333333333333,0.1388888888888889],[0.03333333333333333,0.17592592592592593],[0.03333333333333333,0.2074074074074074],[0.03333333333333333,0.23333333333333334],[0.03333333333333333,0.2537037037037037],[0.03333333333333333,0.26851851851851855],[0.03333333333333333,0.2777777777777778],[0.03333333333333333,0.2814814814814815],[0.03333333333333333,0.2851851851851852],[0.03333333333333333,0.2851851851851852],[0.03333333333333333,0.2851851851851852],[0.03333333333333333,0.28703703703703703],[0.03333333333333333,0.28703703703703703],[0.03333333333333333,0.28888888888888886],[0.03333333333333333,0.28888888888888886],[0.03333333333333333,0.28888888888888886],[0.03333333333333333,0.28888888888888886],[0.03333333333333333,0.28888888888888886],[0.03333333333333333,0.28888888888888886],[0.03333333333333333,0.28888888888888886],[0.03333333333333333,0.28888888888888886],[0.03333333333333333,0.28888888888888886],[0.03333333333333333,0.28888888888888886],[0.03333333333333333,0.28888888888888886],[0.03333333333333333,0.28888888888888886],[0.03333333333333333,0.28888888888888886],[0.03333333333333333,0.28888888888888886],[0.03333333333333333,0.28888888888888886],[0.03333333333333333,0.28888888888888886],[0.03333333333333333,0.28888888888888886],[0.03333333333333333,0.28888888888888886],[0.03333333333333333,0.28888888888888886],[0.03333333333333333,0.28888888888888886],[0.03333333333333333,0.28888888888888886],[0.03333333333333333,0.28888888888888886],[0.03333333333333333,0.28888888888888886],[0.03333333333333333,0.28888888888888886],[0.03333333333333333,0.28888888888888886],[0.03333333333333333,0.28888888888888886],[0.03333333333333333,0.28888888888888886],[0.03333333333333333,0.28888888888888886],[0.03333333333333333,0.28888888888888886],[0.03333333333333333,0.28888888888888886],[0.03333333333333333,0.28888888888888886],[0.03333333333333333,0.28888888888888886],[0.03333333333333333,0.28888888888888886],[0.03333333333333333,0.28888888888888886],[0.03333333333333333,0.28888888888888886],[0.03333333333333333,0.28888888888888886],[0.03333333333333333,0.28888888888888886],[0.03333333333333333,0.28888888888888886],[0.03333333333333333,0.28888888888888886],[0.03333333333333333,0.28888888888888886],[0.03333333333333333,0.28888888888888886],[0.03333333333333333,0.28888888888888886],[0.03333333333333333,0.28888888888888886],[0.03333333333333333,0.3],[0.03333333333333333,0.30925925925925923],[0.03333333333333333,0.31851851851851853],[0.03333333333333333,0.32592592592592595],[0.03333333333333333,0.3333333333333333],[0.03333333333333333,0.3388888888888889],[0.03333333333333333,0.34444444444444444],[0.03333333333333333,0.34629629629629627],[0.03333333333333333,0.35],[0.03333333333333333,0.35],[0.03333333333333333,0.35],[0.03333333333333333,0.35],[0.03333333333333333,0.35],[0.03333333333333333,0.35],[0.03333333333333333,0.35],[0.03333333333333333,0.35],[0.03333333333333333,0.35],[0.03333333333333333,0.35],[0.03333333333333333,0.35]]","[[0.15875000000000009,-0.17407407407407408],[0.15875000000000009,-0.17407407407407408],[0.14072916666666657,-0.17314814814814813],[0.14385416666666656,-0.17518518518518522],[0.16541666666666663,-0.16370370370370366],[0.16541666666666663,-0.16370370370370366],[0.1634375000000001,-0.1581481481481481],[0.18333333333333332,-0.1574074074074074],[0.19177083333333325,-0.12777777777777777],[0.20020833333333338,-0.09814814814814815],[0.22395833333333334,-0.13407407407407404],[0.240625,-0.1527777777777778],[0.23989583333333328,-0.15055555555555558],[0.2607291666666666,-0.13777777777777775],[0.253125,-0.13351851851851856],[0.2490624999999999,-0.12185185185185188],[0.2720833333333334,-0.11888888888888886],[0.2720833333333334,-0.11888888888888886],[0.2587500000000001,-0.09740740740740746],[0.2620833333333332,-0.11222222222222226],[0.26541666666666663,-0.1270370370370371],[0.24729166666666677,-0.12037037037037036],[0.23624999999999996,-0.13092592592592592],[0.22312500000000005,-0.15388888888888894],[0.21416666666666656,-0.17962962962962964],[0.21624999999999991,-0.19592592592592595],[0.21479166666666671,-0.21962962962962967],[0.19197916666666662,-0.20314814814814813],[0.18416666666666662,-0.19166666666666668],[0.17572916666666671,-0.15981481481481483],[0.16729166666666656,-0.127962962962963],[0.16729166666666656,-0.127962962962963],[0.17041666666666658,-0.09462962962962967],[0.17041666666666658,-0.09462962962962967],[0.14364583333333342,-0.06796296296296295],[0.14364583333333342,-0.06796296296296295],[0.1506249999999999,-0.022592592592592678],[0.15322916666666658,0.02814814814814823],[0.15322916666666658,0.02814814814814823],[0.165625,0.07888888888888893],[0.165625,0.07888888888888893],[0.19281249999999991,0.11148148148148157],[0.2224999999999999,0.11185185185185181],[0.2521874999999999,0.11222222222222226],[0.2772916666666667,0.09962962962962954],[0.3186458333333334,0.102962962962963],[0.3489583333333333,0.08944444444444435],[0.3489583333333333,0.08944444444444435],[0.4114583333333333,0.10648148148148148],[0.4521874999999999,0.1014814814814814],[0.4931250000000001,0.09388888888888898],[0.5267708333333334,0.09240740740740737],[0.5456249999999999,0.10907407407407403],[0.5456249999999999,0.10907407407407403],[0.4960416666666667,0.1205555555555556],[0.4418750000000001,0.13925925925925933],[0.3741666666666667,0.14444444444444443],[0.29020833333333323,0.1337037037037038],[0.20125000000000004,0.17981481481481484],[0.20125000000000004,0.17981481481481484],[0.1099999999999999,0.20203703703703707],[-0.0010416666666666667,0.19018518518518526],[-0.096875,0.16611111111111118],[-0.20145833333333332,0.1425925925925926],[-0.32395833333333335,0.12129629629629629],[-0.37218749999999995,0.11129629629629634],[-0.41822916666666665,0.08925925925925934],[-0.45072916666666674,0.08074074074074078],[-0.48322916666666665,0.07222222222222222],[-0.5055208333333333,0.04944444444444453],[-0.5278125,0.026666666666666623],[-0.5278125,0.026666666666666623],[-0.526875,0.036666666666666584],[-0.549375,0.04796296296296292],[-0.5360416666666666,0.038703703703703664],[-0.5165624999999999,0.05092592592592592],[-0.5225000000000001,0.04203703703703712],[-0.5225000000000001,0.04203703703703712],[-0.5203125,0.034999999999999955],[-0.515625,0.016111111111111194],[-0.4984375,0.01907407407407399],[-0.4814583333333333,0.01722222222222214],[-0.430625,0.03037037037037033],[-0.3772916666666667,0.04870370370370362],[-0.32052083333333337,0.04351851851851852],[-0.29708333333333337,0.054259259259259174],[-0.2598958333333333,0.04944444444444453],[-0.1892708333333334,0.05611111111111103],[-0.1219791666666667,0.08203703703703695],[-0.057187499999999974,0.1198148148148149],[0.0021875000000000236,0.15],[0.05614583333333331,0.16833333333333328],[0.08166666666666676,0.18351851851851855],[0.07645833333333343,0.17444444444444454],[0.07604166666666666,0.19981481481481478],[0.07885416666666671,0.21500000000000005],[0.0796875,0.222037037037037],[0.07614583333333323,0.23574074074074067],[0.07020833333333343,0.2331481481481481],[0.07166666666666661,0.2331481481481481],[0.06604166666666664,0.21888888888888897],[0.06604166666666664,0.21888888888888897],[0.0743750000000001,0.18555555555555564],[0.050833333333333286,0.15925925925925927],[0.06520833333333335,0.13407407407407404],[0.07958333333333342,0.1088888888888888],[0.103125,0.10314814814814824],[0.1224999999999999,0.10444444444444441],[0.13229166666666667,0.10018518518518522],[0.14208333333333342,0.09592592592592585],[0.13677083333333329,0.08759259259259251],[0.12937500000000005,0.08796296296296297],[0.10697916666666671,0.11666666666666667],[0.11104166666666657,0.1264814814814814],[0.11520833333333323,0.14314814814814805],[0.11937499999999991,0.15981481481481474],[0.12260416666666671,0.14722222222222223],[0.12604166666666666,0.11462962962962958],[0.1321875000000001,0.08185185185185194],[0.1375,0.09222222222222214],[0.14260416666666675,0.09907407407407408],[0.1678124999999999,0.08092592592592601],[0.19947916666666668,0.06537037037037029],[0.24093749999999994,0.05981481481481473],[0.24093749999999994,0.05981481481481473],[0.27281250000000007,0.04537037037037037],[0.2873958333333334,0.041666666666666664],[0.29052083333333345,0.057962962962962876],[0.3084374999999999,0.07833333333333325],[0.3102083333333333,0.11055555555555564],[0.32052083333333337,0.10777777777777786],[0.32052083333333337,0.10777777777777786],[0.33875000000000005,0.10999999999999996],[0.3429166666666667,0.07925925925925917],[0.3408333333333334,0.07388888888888885],[0.32864583333333336,0.08462962962962971],[0.3251041666666666,0.102962962962963],[0.3388541666666666,0.11055555555555564],[0.3494791666666667,0.10981481481481473],[0.3492708333333333,0.11796296296296305],[0.36520833333333325,0.11425925925925934],[0.3676041666666668,0.08629629629629634],[0.3679166666666667,0.07703703703703708],[0.3679166666666667,0.07703703703703708],[0.38333333333333336,0.12185185185185177],[0.4140625,0.09166666666666666],[0.4414583333333333,0.04092592592592597],[0.45333333333333337,-0.01055555555555564],[0.4566666666666668,-0.05092592592592592],[0.4566666666666668,-0.05092592592592592],[0.4397916666666667,-0.08629629629629634],[0.4397916666666667,-0.08629629629629634],[0.44677083333333345,-0.0809259259259259],[0.44677083333333345,-0.0809259259259259],[0.45260416666666664,-0.06851851851851852],[0.45260416666666664,-0.06851851851851852],[0.45322916666666657,-0.09259259259259259],[0.45322916666666657,-0.09259259259259259],[0.46979166666666666,-0.12222222222222222],[0.46979166666666666,-0.12222222222222222],[0.45281250000000006,-0.12907407407407406],[0.45281250000000006,-0.12907407407407406],[0.4439583333333334,-0.0735185185185185],[0.4256249999999999,-0.06722222222222224],[0.40593750000000006,-0.01055555555555564],[0.40114583333333326,0.020370370370370372],[0.4236458333333334,0.030555555555555555],[0.4165625000000001,0.004074074074074159],[0.4170833333333334,-0.012407407407407492],[0.42374999999999996,-0.006851851851851936],[0.4210416666666667,-0.0012962962962963806],[0.42249999999999993,-0.017407407407407365],[0.40677083333333336,-0.046296296296296294],[0.4032291666666666,-0.03537037037037041],[0.40260416666666665,-0.06833333333333329],[0.4125,-0.053703703703703705],[0.4125,-0.053703703703703705],[0.42468750000000005,-0.0020370370370370794],[0.403125,0.0507407407407407],[0.37510416666666657,0.08648148148148156],[0.3519791666666668,0.13481481481481472],[0.3243750000000001,0.16999999999999993],[0.3102083333333333,0.20981481481481473],[0.28489583333333335,0.244074074074074],[0.28489583333333335,0.244074074074074],[0.26802083333333326,0.28296296296296286],[0.2412499999999999,0.32037037037037036],[0.19760416666666672,0.3248148148148148],[0.14770833333333327,0.3162962962962962],[0.11739583333333338,0.3229629629629629],[0.08927083333333338,0.3012962962962964],[0.053125,0.3131481481481482],[0.016979166666666618,0.325],[-0.02958333333333331,0.3531481481481482],[-0.06499999999999997,0.38685185185185184],[-0.11510416666666666,0.3942592592592592],[-0.1625,0.37111111111111106],[-0.1625,0.37111111111111106],[-0.1929166666666667,0.4046296296296296],[-0.22250000000000003,0.41203703703703703],[-0.22937500000000005,0.42666666666666664],[-0.2564583333333334,0.4338888888888888],[-0.25968749999999996,0.44166666666666665],[-0.26291666666666663,0.44944444444444454],[-0.25354166666666667,0.4477777777777777],[-0.24416666666666664,0.44611111111111107],[-0.2295833333333333,0.465],[-0.2078125,0.515925925925926],[-0.2117708333333333,0.5016666666666666],[-0.21656249999999996,0.5135185185185185],[-0.21677083333333336,0.4948148148148149],[-0.19895833333333332,0.5118518518518518],[-0.19697916666666668,0.5127777777777778],[-0.18187500000000004,0.5187037037037038],[-0.1720833333333334,0.5072222222222221],[-0.1375,0.4703703703703704],[-0.11218750000000005,0.43499999999999994],[-0.06291666666666665,0.40925925925925927],[-0.0048958333333333805,0.39203703703703713],[0.05489583333333338,0.37962962962962965],[0.10729166666666666,0.3701851851851851],[0.10729166666666666,0.3701851851851851],[0.13947916666666677,0.3453703703703704],[0.19187500000000005,0.3396296296296296],[0.23489583333333333,0.2920370370370371],[0.27791666666666665,0.24444444444444444],[0.2873958333333334,0.2161111111111112],[0.3081249999999999,0.19129629629629621],[0.2931250000000001,0.11555555555555551],[0.2886458333333332,0.08185185185185194],[0.2652083333333332,0.07296296296296292],[0.22541666666666677,0.012407407407407492],[0.2365624999999999,0.024074074074074074],[0.2275000000000001,0.016666666666666666],[0.18385416666666668,0.02111111111111107],[0.14020833333333324,0.02555555555555547],[0.11375000000000005,0.04296296296296305],[0.09864583333333338,0.054074074074074156],[0.08489583333333334,0.11888888888888897],[0.04812500000000005,0.11592592592592597],[0.028541666666666642,0.08333333333333333],[0.049374999999999974,0.1175925925925926],[0.02791666666666662,0.0962962962962963],[-0.0036458333333333334,0.04888888888888885],[-0.004375000000000047,0.026481481481481398],[0.0012500000000000473,0.04148148148148144],[0.008958333333333356,0.04611111111111107],[0.005312500000000024,0.057037037037036956],[-0.000833333333333286,0.053703703703703705],[0.005520833333333286,0.07611111111111116],[0.025729166666666713,0.12407407407407407],[0.021875,0.15685185185185194],[0.03427083333333331,0.16722222222222213],[0.0203125,0.14425925925925923],[0.03322916666666664,0.19574074074074083],[0.03979166666666671,0.20981481481481473],[0.03093750000000005,0.2168518518518519],[0.01583333333333338,0.2024074074074073],[0.01072916666666662,0.2074074074074074],[0.0010416666666666667,0.16796296296296304],[-0.022500000000000023,0.102962962962963],[-0.022083333333333382,0.0698148148148149],[-0.02635416666666662,0.057777777777777865],[-0.004999999999999952,0.12722222222222232],[-0.020937500000000022,0.11537037037037029],[-0.03114583333333331,0.13148148148148148],[-0.036458333333333336,0.1581481481481481],[-0.07895833333333328,0.1361111111111111],[-0.11854166666666661,0.09648148148148153],[-0.1592708333333333,0.105925925925926],[-0.23104166666666662,0.1337037037037038],[-0.23104166666666662,0.1337037037037038],[-0.28937499999999994,0.14148148148148143],[-0.28937499999999994,0.14148148148148143],[-0.35208333333333336,0.11907407407407399],[-0.35208333333333336,0.11907407407407399],[-0.4157291666666667,0.06703703703703712],[-0.4720833333333333,0.07222222222222222],[-0.4720833333333333,0.07222222222222222],[-0.49895833333333334,0.017407407407407365],[-0.49895833333333334,0.017407407407407365],[-0.4711458333333333,-0.010740740740740657],[-0.4711458333333333,-0.010740740740740657],[-0.4395833333333333,-0.032037037037036954],[-0.4080208333333334,-0.05333333333333336],[-0.34874999999999995,-0.05611111111111113],[-0.2646875,-0.06166666666666669],[-0.18135416666666668,-0.05703703703703706],[-0.09739583333333333,-0.05055555555555547],[-0.03187500000000002,-0.0257407407407407],[0.027395833333333286,-0.057777777777777754],[0.0787499999999999,-0.03555555555555564],[0.07541666666666676,-0.04000000000000004],[0.07541666666666676,-0.04000000000000004],[0.06052083333333336,-0.038703703703703664],[0.08395833333333323,-0.002407407407407323],[0.07166666666666661,-0.039074074074074115],[0.065625,-0.09129629629629632],[0.03083333333333336,-0.12240740740740745],[-0.0002083333333333807,-0.12518518518518523],[0.00791666666666669,-0.14611111111111108],[0.025416666666666643,-0.16055555555555553],[0.0014583333333333095,-0.21777777777777782],[-0.022500000000000023,-0.275],[0.0002083333333333807,-0.25259259259259254],[-0.015625,-0.26666666666666666],[-0.005104166666666643,-0.25999999999999995],[0.0021875000000000236,-0.2205555555555556],[0.0021875000000000236,-0.2205555555555556],[0.002812500000000047,-0.22407407407407406],[0.009791666666666643,-0.22592592592592592],[0.0109375,-0.2103703703703704],[0.012083333333333357,-0.1948148148148148],[0.02781250000000005,-0.19944444444444442],[0.035104166666666714,-0.19092592592592597],[0.05635416666666669,-0.182962962962963],[0.07000000000000005,-0.1714814814814815],[0.08854166666666667,-0.12296296296296293],[0.11031250000000009,-0.10722222222222218],[0.13624999999999995,-0.10481481481481486],[0.14729166666666677,-0.09666666666666665],[0.1616666666666667,-0.0933333333333333],[0.16302083333333334,-0.12314814814814815],[0.16770833333333332,-0.08296296296296299],[0.19822916666666662,-0.08388888888888892],[0.21291666666666675,-0.0801851851851852],[0.22385416666666677,-0.11037037037037041],[0.22104166666666672,-0.12888888888888894],[0.22708333333333333,-0.11962962962962967],[0.2131249999999999,-0.09592592592592594],[0.196875,-0.11037037037037041],[0.18937499999999996,-0.10777777777777775],[0.18947916666666675,-0.06370370370370367],[0.18958333333333333,-0.03981481481481482],[0.16656250000000009,-0.021851851851851768],[0.14677083333333343,-0.0448148148148149],[0.13166666666666677,-0.07537037037037035],[0.13114583333333343,-0.07333333333333338],[0.11875,-0.09425925925925922],[0.12989583333333338,-0.12518518518518523],[0.13489583333333333,-0.09055555555555551],[0.14135416666666673,-0.10555555555555556],[0.13541666666666666,-0.10259259259259255],[0.13604166666666656,-0.11833333333333329],[0.15,-0.1346296296296296],[0.1671875,-0.1361111111111111],[0.18083333333333323,-0.07296296296296292],[0.18083333333333323,-0.07296296296296292],[0.17072916666666677,-0.04981481481481477],[0.16135416666666677,-0.04666666666666675],[0.14895833333333333,-0.08888888888888889],[0.15520833333333334,-0.11351851851851855],[0.14375,-0.10999999999999996],[0.1502083333333334,-0.13370370370370369],[0.13635416666666675,-0.16370370370370366],[0.13333333333333333,-0.1844444444444445],[0.13020833333333334,-0.2051851851851852],[0.14510416666666662,-0.24240740740740738],[0.14510416666666662,-0.24240740740740738],[0.140625,-0.2844444444444445],[0.1414583333333333,-0.30759259259259264],[0.14229166666666657,-0.2687037037037037],[0.1414583333333333,-0.2822222222222222],[0.1414583333333333,-0.2822222222222222],[0.14572916666666677,-0.27314814814814814],[0.14572916666666677,-0.27314814814814814],[0.14260416666666675,-0.26185185185185184],[0.14895833333333333,-0.2561111111111111],[0.14489583333333325,-0.21240740740740738],[0.14739583333333334,-0.1653703703703704]]","[[0.15875000000000009,-0.17407407407407408,0.00019999999553022008],[0.15875000000000009,-0.17407407407407408,0.03759999999404329],[0.14072916666666657,-0.17314814814814813,0.04589999999851102],[0.14385416666666656,-0.17518518518518522,0.06200000000001182],[0.16541666666666663,-0.16370370370370366,0.0785999999940401],[0.16541666666666663,-0.16370370370370366,0.09550000000000125],[0.1634375000000001,-0.1581481481481481,0.11189999999851352],[0.18333333333333332,-0.1574074074074074,0.12859999999405147],[0.19177083333333325,-0.12777777777777777,0.1452999999970217],[0.20020833333333338,-0.09814814814814815,0.16229999999703182],[0.22395833333333334,-0.13407407407407404,0.17859999999404863],[0.240625,-0.1527777777777778,0.19650000000000034],[0.23989583333333328,-0.15055555555555558,0.2120000000000033],[0.2607291666666666,-0.13777777777777775,0.22979999999702727],[0.253125,-0.13351851851851856,0.24539999999851148],[0.2490624999999999,-0.12185185185185188,0.26200000000000045],[0.2720833333333334,-0.11888888888888886,0.2786999999955384],[0.2720833333333334,-0.11888888888888886,0.295899999998511],[0.2587500000000001,-0.09740740740740746,0.31189999999851636],[0.2620833333333332,-0.11222222222222226,0.3285999999940401],[0.26541666666666663,-0.1270370370370371,0.34529999999702454],[0.24729166666666677,-0.12037037037037036,0.3618999999985135],[0.23624999999999996,-0.13092592592592592,0.3785999999940515],[0.22312500000000005,-0.15388888888888894,0.3955999999940474],[0.21416666666666656,-0.17962962962962964,0.4118999999985107],[0.21624999999999991,-0.19592592592592595,0.42859999999404863],[0.21479166666666671,-0.21962962962962967,0.4485000000000099],[0.19197916666666662,-0.20314814814814813,0.4631999999955383],[0.18416666666666662,-0.19166666666666668,0.4785999999940458],[0.17572916666666671,-0.15981481481481483,0.49550000000000693],[0.16729166666666656,-0.127962962962963,0.5118999999985192],[0.16729166666666656,-0.127962962962963,0.5286999999955384],[0.17041666666666658,-0.09462962962962967,0.5452999999970274],[0.17041666666666658,-0.09462962962962967,0.5618999999985164],[0.14364583333333342,-0.06796296296296295,0.5785999999940401],[0.14364583333333342,-0.06796296296296295,0.59539999999852],[0.1506249999999999,-0.022592592592592678,0.612000000000009],[0.15322916666666658,0.02814814814814823,0.6327999999970189],[0.15322916666666658,0.02814814814814823,0.6451999999955405],[0.165625,0.07888888888888893,0.6620000000000061],[0.165625,0.07888888888888893,0.6785999999940486],[0.19281249999999991,0.11148148148148157,0.6953999999985143],[0.2224999999999999,0.11185185185185181,0.7141999999955289],[0.2521874999999999,0.11222222222222226,0.728899999998518],[0.2772916666666667,0.09962962962962954,0.7452999999970302],[0.3186458333333334,0.102962962962963,0.7618999999985192],[0.3489583333333333,0.08944444444444435,0.778599999994043],[0.3489583333333333,0.08944444444444435,0.7953999999985086],[0.4114583333333333,0.10648148148148148,0.8120999999940466],[0.4521874999999999,0.1014814814814814,0.8296999999955403],[0.4931250000000001,0.09388888888888898,0.8452999999970245],[0.5267708333333334,0.09240740740740737,0.862000000000009],[0.5456249999999999,0.10907407407407403,0.8785999999940515],[0.5456249999999999,0.10907407407407403,0.8953999999985172],[0.4960416666666667,0.1205555555555556,0.9120000000000061],[0.4418750000000001,0.13925925925925933,0.9285999999940486],[0.3741666666666667,0.14444444444444443,0.9465000000000003],[0.29020833333333323,0.1337037037037038,0.9620000000000033],[0.20125000000000004,0.17981481481481484,0.9785999999940529],[0.20125000000000004,0.17981481481481484,0.9953999999985186],[0.1099999999999999,0.20203703703703707,1.0118999999985263],[-0.0010416666666666667,0.19018518518518526,1.02859999999405],[-0.096875,0.16611111111111118,1.0452999999970345],[-0.20145833333333332,0.1425925925925926,1.0618999999985235],[-0.32395833333333335,0.12129629629629629,1.0785999999940472],[-0.37218749999999995,0.11129629629629634,1.0955000000000084],[-0.41822916666666665,0.08925925925925934,1.1118999999985206],[-0.45072916666666674,0.08074074074074078,1.1285999999940586],[-0.48322916666666665,0.07222222222222222,1.1486999999955358],[-0.5055208333333333,0.04944444444444453,1.1642999999970343],[-0.5278125,0.026666666666666623,1.1785999999940557],[-0.5278125,0.026666666666666623,1.1953999999985214],[-0.526875,0.036666666666666584,1.2118999999985292],[-0.549375,0.04796296296296292,1.231199999995546],[-0.5360416666666666,0.038703703703703664,1.2452999999970373],[-0.5165624999999999,0.05092592592592592,1.2623999999985287],[-0.5225000000000001,0.04203703703703712,1.2786999999955455],[-0.5225000000000001,0.04203703703703712,1.2953999999985157],[-0.5203125,0.034999999999999955,1.312000000000019],[-0.515625,0.016111111111111194,1.3290999999940496],[-0.4984375,0.01907407407407399,1.345799999997034],[-0.4814583333333333,0.01722222222222214,1.362000000000016],[-0.430625,0.03037037037037033,1.3785999999940586],[-0.3772916666666667,0.04870370370370362,1.397199999995543],[-0.32052083333333337,0.04351851851851852,1.4120000000000132],[-0.29708333333333337,0.054259259259259174,1.4285999999940557],[-0.2598958333333333,0.04944444444444453,1.4451999999955447],[-0.1892708333333334,0.05611111111111103,1.4620000000000104],[-0.1219791666666667,0.08203703703703695,1.478599999994053],[-0.057187499999999974,0.1198148148148149,1.4986999999955444],[0.0021875000000000236,0.15,1.5123999999985287],[0.05614583333333331,0.16833333333333328,1.52859999999405],[0.08166666666666676,0.18351851851851855,1.545199999995539],[0.07645833333333343,0.17444444444444454,1.5618999999985235],[0.07604166666666666,0.19981481481481478,1.5786999999955427],[0.07885416666666671,0.21500000000000005,1.5967999999970388],[0.0796875,0.222037037037037,1.6118999999985206],[0.07614583333333323,0.23574074074074067,1.6285999999940586],[0.07020833333333343,0.2331481481481481,1.6451999999955476],[0.07166666666666661,0.2331481481481481,1.6618999999985178],[0.06604166666666664,0.21888888888888897,1.678699999995537],[0.06604166666666664,0.21888888888888897,1.6955000000000169],[0.0743750000000001,0.18555555555555564,1.7118999999985292],[0.050833333333333286,0.15925925925925927,1.728899999998525],[0.06520833333333335,0.13407407407407404,1.7452999999970373],[0.07958333333333342,0.1088888888888888,1.7618999999985263],[0.103125,0.10314814814814824,1.77859999999405],[0.1224999999999999,0.10444444444444441,1.7952999999970345],[0.13229166666666667,0.10018518518518522,1.8118999999985235],[0.14208333333333342,0.09592592592592585,1.8285999999940472],[0.13677083333333329,0.08759259259259251,1.8452999999970316],[0.12937500000000005,0.08796296296296297,1.8618999999985206],[0.10697916666666671,0.11666666666666667,1.8785999999940586],[0.11104166666666657,0.1264814814814814,1.8957999999970312],[0.11520833333333323,0.14314814814814805,1.9118999999985178],[0.11937499999999991,0.15981481481481474,1.9297999999970372],[0.12260416666666671,0.14722222222222223,1.945299999997026],[0.12604166666666666,0.11462962962962958,1.964199999995536],[0.1321875000000001,0.08185185185185194,1.978599999994053],[0.1375,0.09222222222222214,1.9965000000000188],[0.14260416666666675,0.09907407407407408,2.0118999999985263],[0.1678124999999999,0.08092592592592601,2.02859999999405],[0.19947916666666668,0.06537037037037029,2.0452999999970345],[0.24093749999999994,0.05981481481481473,2.076599999994052],[0.24093749999999994,0.05981481481481473,2.0873999999985173],[0.27281250000000007,0.04537037037037037,2.1015000000000086],[0.2873958333333334,0.041666666666666664,2.115000000000016],[0.29052083333333345,0.057962962962962876,2.1285999999940586],[0.3084374999999999,0.07833333333333325,2.1451999999955476],[0.3102083333333333,0.11055555555555564,2.1620000000000132],[0.32052083333333337,0.10777777777777786,2.1785999999940557],[0.32052083333333337,0.10777777777777786,2.1953999999985214],[0.33875000000000005,0.10999999999999996,2.211899999998529],[0.3429166666666667,0.07925925925925917,2.228500000000018],[0.3408333333333334,0.07388888888888885,2.245199999995542],[0.32864583333333336,0.08462962962962971,2.2618999999985263],[0.3251041666666666,0.102962962962963,2.27859999999405],[0.3388541666666666,0.11055555555555564,2.2990999999940485],[0.3494791666666667,0.10981481481481473,2.3118999999985235],[0.3492708333333333,0.11796296296296305,2.328599999994047],[0.36520833333333325,0.11425925925925934,2.3482999999970318],[0.3676041666666668,0.08629629629629634,2.3618999999985206],[0.3679166666666667,0.07703703703703708,2.37869999999554],[0.3679166666666667,0.07703703703703708,2.395299999997029],[0.38333333333333336,0.12185185185185177,2.4120000000000132],[0.4140625,0.09166666666666666,2.4285999999940557],[0.4414583333333333,0.04092592592592597,2.445299999997026],[0.45333333333333337,-0.01055555555555564,2.461899999998529],[0.4566666666666668,-0.05092592592592592,2.478599999994053],[0.4566666666666668,-0.05092592592592592,2.4952999999970373],[0.4397916666666667,-0.08629629629629634,2.5120000000000076],[0.4397916666666667,-0.08629629629629634,2.52859999999405],[0.44677083333333345,-0.0809259259259259,2.5453999999985157],[0.44677083333333345,-0.0809259259259259,2.5618999999985235],[0.45260416666666664,-0.06851851851851852,2.578599999994047],[0.45260416666666664,-0.06851851851851852,2.5955000000000084],[0.45322916666666657,-0.09259259259259259,2.6118999999985206],[0.45322916666666657,-0.09259259259259259,2.6285999999940586],[0.46979166666666666,-0.12222222222222222,2.645299999997029],[0.46979166666666666,-0.12222222222222222,2.661899999998518],[0.45281250000000006,-0.12907407407407406,2.6785000000000068],[0.45281250000000006,-0.12907407407407406,2.695299999997026],[0.4439583333333334,-0.0735185185185185,2.711899999998529],[0.4256249999999999,-0.06722222222222224,2.7295999999940577],[0.40593750000000006,-0.01055555555555564,2.748500000000014],[0.40114583333333326,0.020370370370370372,2.763099999994047],[0.4236458333333334,0.030555555555555555,2.77859999999405],[0.4165625000000001,0.004074074074074159,2.7952999999970345],[0.4170833333333334,-0.012407407407407492,2.8118999999985235],[0.42374999999999996,-0.006851851851851936,2.8285000000000124],[0.4210416666666667,-0.0012962962962963806,2.845199999995536],[0.42249999999999993,-0.017407407407407365,2.8617999999970394],[0.40677083333333336,-0.046296296296296294,2.8785000000000096],[0.4032291666666666,-0.03537037037037041,2.895299999997029],[0.40260416666666665,-0.06833333333333329,2.9117999999970365],[0.4125,-0.053703703703703705,2.9285000000000068],[0.4125,-0.053703703703703705,2.945299999997026],[0.42468750000000005,-0.0020370370370370794,2.961899999998529],[0.403125,0.0507407407407407,2.978500000000018],[0.37510416666666657,0.08648148148148156,2.9952999999970373],[0.3519791666666668,0.13481481481481472,3.0118999999985263],[0.3243750000000001,0.16999999999999993,3.02859999999405],[0.3102083333333333,0.20981481481481473,3.0452999999970345],[0.28489583333333335,0.244074074074074,3.0618999999985235],[0.28489583333333335,0.244074074074074,3.078599999994047],[0.26802083333333326,0.28296296296296286,3.095399999998527],[0.2412499999999999,0.32037037037037036,3.1118999999985206],[0.19760416666666672,0.3248148148148148,3.1285000000000096],[0.14770833333333327,0.3162962962962962,3.1451999999955476],[0.11739583333333338,0.3229629629629629,3.1617999999970365],[0.08927083333333338,0.3012962962962964,3.1785999999940557],[0.053125,0.3131481481481482,3.195299999997026],[0.016979166666666618,0.325,3.211899999998529],[-0.02958333333333331,0.3531481481481482,3.228500000000018],[-0.06499999999999997,0.38685185185185184,3.2452999999970373],[-0.11510416666666666,0.3942592592592592,3.2618999999985263],[-0.1625,0.37111111111111106,3.27859999999405],[-0.1625,0.37111111111111106,3.2952999999970345],[-0.1929166666666667,0.4046296296296296,3.312000000000019],[-0.22250000000000003,0.41203703703703703,3.328599999994047],[-0.22937500000000005,0.42666666666666664,3.345399999998527],[-0.2564583333333334,0.4338888888888888,3.3618999999985206],[-0.25968749999999996,0.44166666666666665,3.3785000000000096],[-0.26291666666666663,0.44944444444444454,3.3951999999955476],[-0.25354166666666667,0.4477777777777777,3.4120000000000132],[-0.24416666666666664,0.44611111111111107,3.4285999999940557],[-0.2295833333333333,0.465,3.4451999999955447],[-0.2078125,0.515925925925926,3.461899999998529],[-0.2117708333333333,0.5016666666666666,3.478500000000018],[-0.21656249999999996,0.5135185185185185,3.498500000000014],[-0.21677083333333336,0.4948148148148149,3.5118999999985263],[-0.19895833333333332,0.5118518518518518,3.52859999999405],[-0.19697916666666668,0.5127777777777778,3.545199999995539],[-0.18187500000000004,0.5187037037037038,3.5618999999985235],[-0.1720833333333334,0.5072222222222221,3.578599999994047],[-0.1375,0.4703703703703704,3.595399999998527],[-0.11218750000000005,0.43499999999999994,3.6118999999985206],[-0.06291666666666665,0.40925925925925927,3.6285000000000096],[-0.0048958333333333805,0.39203703703703713,3.645299999997029],[0.05489583333333338,0.37962962962962965,3.661899999998518],[0.10729166666666666,0.3701851851851851,3.681899999998528],[0.10729166666666666,0.3701851851851851,3.695299999997026],[0.13947916666666677,0.3453703703703704,3.711899999998529],[0.19187500000000005,0.3396296296296296,3.728500000000018],[0.23489583333333333,0.2920370370370371,3.7452999999970373],[0.27791666666666665,0.24444444444444444,3.7618999999985263],[0.2873958333333334,0.2161111111111112,3.77859999999405],[0.3081249999999999,0.19129629629629621,3.7963999999985205],[0.2931250000000001,0.11555555555555551,3.8118999999985235],[0.2886458333333332,0.08185185185185194,3.8311999999955404],[0.2652083333333332,0.07296296296296292,3.845399999998527],[0.22541666666666677,0.012407407407407492,3.8645999999940486],[0.2365624999999999,0.024074074074074074,3.87869999999554],[0.2275000000000001,0.016666666666666666,3.897899999998522],[0.18385416666666668,0.02111111111111107,3.9120000000000132],[0.14020833333333324,0.02555555555555547,3.928699999995537],[0.11375000000000005,0.04296296296296305,3.945299999997026],[0.09864583333333338,0.054074074074074156,3.9640999999940547],[0.08489583333333334,0.11888888888888897,3.9786999999955484],[0.04812500000000005,0.11592592592592597,3.9956999999955443],[0.028541666666666642,0.08333333333333333,4.012000000000008],[0.049374999999999974,0.1175925925925926,4.030599999994045],[0.02791666666666662,0.0962962962962963,4.0452999999970345],[-0.0036458333333333334,0.04888888888888885,4.06229999999703],[-0.004375000000000047,0.026481481481481398,4.0818999999985195],[0.0012500000000000473,0.04148148148148144,4.09709999999405],[0.008958333333333356,0.04611111111111107,4.112099999994051],[0.005312500000000024,0.057037037037036956,4.131899999998517],[-0.000833333333333286,0.053703703703703705,4.146599999994045],[0.005520833333333286,0.07611111111111116,4.162000000000013],[0.025729166666666713,0.12407407407407407,4.178599999994056],[0.021875,0.15685185185185194,4.195299999997026],[0.03427083333333331,0.16722222222222213,4.214000000000006],[0.0203125,0.14425925925925923,4.228500000000018],[0.03322916666666664,0.19574074074074083,4.245299999997037],[0.03979166666666671,0.20981481481481473,4.261799999997031],[0.03093750000000005,0.2168518518518519,4.278500000000015],[0.01583333333333338,0.2024074074074073,4.295500000000011],[0.01072916666666662,0.2074074074074074,4.314500000000017],[0.0010416666666666667,0.16796296296296304,4.3285000000000124],[-0.022500000000000023,0.102962962962963,4.345199999995536],[-0.022083333333333382,0.0698148148148149,4.361899999998521],[-0.02635416666666662,0.057777777777777865,4.378599999994059],[-0.004999999999999952,0.12722222222222232,4.395299999997029],[-0.020937500000000022,0.11537037037037029,4.411899999998518],[-0.03114583333333331,0.13148148148148148,4.428500000000007],[-0.036458333333333336,0.1581481481481481,4.445299999997026],[-0.07895833333333328,0.1361111111111111,4.461899999998529],[-0.11854166666666661,0.09648148148148153,4.478599999994053],[-0.1592708333333333,0.105925925925926,4.495399999998519],[-0.23104166666666662,0.1337037037037038,4.511799999997031],[-0.23104166666666662,0.1337037037037038,4.52859999999405],[-0.28937499999999994,0.14148148148148143,4.545199999995539],[-0.28937499999999994,0.14148148148148143,4.562000000000019],[-0.35208333333333336,0.11907407407407399,4.5785000000000124],[-0.35208333333333336,0.11907407407407399,4.595299999997032],[-0.4157291666666667,0.06703703703703712,4.611799999997039],[-0.4720833333333333,0.07222222222222222,4.6311999999955376],[-0.4720833333333333,0.07222222222222222,4.645299999997029],[-0.49895833333333334,0.017407407407407365,4.662000000000013],[-0.49895833333333334,0.017407407407407365,4.682099999994058],[-0.4711458333333333,-0.010740740740740657,4.695299999997026],[-0.4711458333333333,-0.010740740740740657,4.711799999997034],[-0.4395833333333333,-0.032037037037036954,4.728599999994053],[-0.4080208333333334,-0.05333333333333336,4.745199999995542],[-0.34874999999999995,-0.05611111111111113,4.761799999997031],[-0.2646875,-0.06166666666666669,4.778500000000015],[-0.18135416666666668,-0.05703703703703706,4.795199999995539],[-0.09739583333333333,-0.05055555555555547,4.811799999997028],[-0.03187500000000002,-0.0257407407407407,4.828599999994047],[0.027395833333333286,-0.057777777777777754,4.845199999995536],[0.0787499999999999,-0.03555555555555564,4.861899999998521],[0.07541666666666676,-0.04000000000000004,4.88150000000001],[0.07541666666666676,-0.04000000000000004,4.895399999998524],[0.06052083333333336,-0.038703703703703664,4.912099999994048],[0.08395833333333323,-0.002407407407407323,4.931399999998526],[0.07166666666666661,-0.039074074074074115,4.945399999998521],[0.065625,-0.09129629629629632,4.963500000000018],[0.03083333333333336,-0.12240740740740745,4.978599999994053],[-0.0002083333333333807,-0.12518518518518523,4.9980999999940465],[0.00791666666666669,-0.14611111111111108,5.011899999998526],[0.025416666666666643,-0.16055555555555553,5.0286999999955455],[0.0014583333333333095,-0.21777777777777782,5.0452999999970345],[-0.022500000000000023,-0.275,5.064000000000014],[0.0002083333333333807,-0.25259259259259254,5.079799999997029],[-0.015625,-0.26666666666666666,5.097699999995548],[-0.005104166666666643,-0.25999999999999995,5.114500000000014],[0.0021875000000000236,-0.2205555555555556,5.128599999994059],[0.0021875000000000236,-0.2205555555555556,5.145199999995548],[0.002812500000000047,-0.22407407407407406,5.161899999998518],[0.009791666666666643,-0.22592592592592592,5.178500000000007],[0.0109375,-0.2103703703703704,5.195299999997026],[0.012083333333333357,-0.1948148148148148,5.211899999998529],[0.02781250000000005,-0.19944444444444442,5.228500000000018],[0.035104166666666714,-0.19092592592592597,5.245199999995542],[0.05635416666666669,-0.182962962962963,5.2620999999940565],[0.07000000000000005,-0.1714814814814815,5.278500000000015],[0.08854166666666667,-0.12296296296296293,5.295599999994046],[0.11031250000000009,-0.10722222222222218,5.3152999999970305],[0.13624999999999995,-0.10481481481481486,5.329899999998524],[0.14729166666666677,-0.09666666666666665,5.345399999998527],[0.1616666666666667,-0.0933333333333333,5.361899999998521],[0.16302083333333334,-0.12314814814814815,5.378799999997035],[0.16770833333333332,-0.08296296296296299,5.395199999995548],[0.19822916666666662,-0.08388888888888892,5.4117999999970365],[0.21291666666666675,-0.0801851851851852,5.428599999994056],[0.22385416666666677,-0.11037037037037041,5.445199999995545],[0.22104166666666672,-0.12888888888888894,5.461799999997034],[0.22708333333333333,-0.11962962962962967,5.478500000000018],[0.2131249999999999,-0.09592592592592594,5.495299999997037],[0.196875,-0.11037037037037041,5.511799999997031],[0.18937499999999996,-0.10777777777777775,5.52859999999405],[0.18947916666666675,-0.06370370370370367,5.545199999995539],[0.18958333333333333,-0.03981481481481482,5.5618999999985235],[0.16656250000000009,-0.021851851851851768,5.5785000000000124],[0.14677083333333343,-0.0448148148148149,5.595199999995536],[0.13166666666666677,-0.07537037037037035,5.611899999998521],[0.13114583333333343,-0.07333333333333338,5.628599999994059],[0.11875,-0.09425925925925922,5.645199999995548],[0.12989583333333338,-0.12518518518518523,5.661899999998518],[0.13489583333333333,-0.09055555555555551,5.678500000000007],[0.14135416666666673,-0.10555555555555556,5.695299999997026],[0.13541666666666666,-0.10259259259259255,5.711899999998529],[0.13604166666666656,-0.11833333333333329,5.728599999994053],[0.15,-0.1346296296296296,5.745199999995542],[0.1671875,-0.1361111111111111,5.761899999998526],[0.18083333333333323,-0.07296296296296292,5.778500000000015],[0.18083333333333323,-0.07296296296296292,5.7952999999970345],[0.17072916666666677,-0.04981481481481477,5.8118999999985235],[0.16135416666666677,-0.04666666666666675,5.8285000000000124],[0.14895833333333333,-0.08888888888888889,5.845299999997032],[0.15520833333333334,-0.11351851851851855,5.865199999995546],[0.14375,-0.10999999999999996,5.878799999997035],[0.1502083333333334,-0.13370370370370369,5.895399999998524],[0.13635416666666675,-0.16370370370370366,5.914299999997034],[0.13333333333333333,-0.1844444444444445,5.928699999995537],[0.13020833333333334,-0.2051851851851852,5.945399999998521],[0.14510416666666662,-0.24240740740740738,5.965199999995541],[0.14510416666666662,-0.24240740740740738,5.978699999995548],[0.140625,-0.2844444444444445,5.995599999994049],[0.1414583333333333,-0.30759259259259264,6.011899999998526],[0.14229166666666657,-0.2687037037037037,6.02859999999405],[0.1414583333333333,-0.2822222222222222,6.049599999994051],[0.1414583333333333,-0.2822222222222222,6.0722999999970355],[0.14572916666666677,-0.27314814814814814,6.090399999998517],[0.14572916666666677,-0.27314814814814814,6.098699999995539],[0.14260416666666675,-0.26185185185185184,6.111899999998521],[0.14895833333333333,-0.2561111111111111,6.128599999994059],[0.14489583333333325,-0.21240740740740738,6.145099999994052],[0.14739583333333334,-0.1653703703703704,6.164799999997037]]","[0.00019999999553022008,0.03759999999404329,0.04589999999851102,0.06200000000001182,0.0785999999940401,0.09550000000000125,0.11189999999851352,0.12859999999405147,0.1452999999970217,0.16229999999703182,0.17859999999404863,0.19650000000000034,0.2120000000000033,0.22979999999702727,0.24539999999851148,0.26200000000000045,0.2786999999955384,0.295899999998511,0.31189999999851636,0.3285999999940401,0.34529999999702454,0.3618999999985135,0.3785999999940515,0.3955999999940474,0.4118999999985107,0.42859999999404863,0.4485000000000099,0.4631999999955383,0.4785999999940458,0.49550000000000693,0.5118999999985192,0.5286999999955384,0.5452999999970274,0.5618999999985164,0.5785999999940401,0.59539999999852,0.612000000000009,0.6327999999970189,0.6451999999955405,0.6620000000000061,0.6785999999940486,0.6953999999985143,0.7141999999955289,0.728899999998518,0.7452999999970302,0.7618999999985192,0.778599999994043,0.7953999999985086,0.8120999999940466,0.8296999999955403,0.8452999999970245,0.862000000000009,0.8785999999940515,0.8953999999985172,0.9120000000000061,0.9285999999940486,0.9465000000000003,0.9620000000000033,0.9785999999940529,0.9953999999985186,1.0118999999985263,1.02859999999405,1.0452999999970345,1.0618999999985235,1.0785999999940472,1.0955000000000084,1.1118999999985206,1.1285999999940586,1.1486999999955358,1.1642999999970343,1.1785999999940557,1.1953999999985214,1.2118999999985292,1.231199999995546,1.2452999999970373,1.2623999999985287,1.2786999999955455,1.2953999999985157,1.312000000000019,1.3290999999940496,1.345799999997034,1.362000000000016,1.3785999999940586,1.397199999995543,1.4120000000000132,1.4285999999940557,1.4451999999955447,1.4620000000000104,1.478599999994053,1.4986999999955444,1.5123999999985287,1.52859999999405,1.545199999995539,1.5618999999985235,1.5786999999955427,1.5967999999970388,1.6118999999985206,1.6285999999940586,1.6451999999955476,1.6618999999985178,1.678699999995537,1.6955000000000169,1.7118999999985292,1.728899999998525,1.7452999999970373,1.7618999999985263,1.77859999999405,1.7952999999970345,1.8118999999985235,1.8285999999940472,1.8452999999970316,1.8618999999985206,1.8785999999940586,1.8957999999970312,1.9118999999985178,1.9297999999970372,1.945299999997026,1.964199999995536,1.978599999994053,1.9965000000000188,2.0118999999985263,2.02859999999405,2.0452999999970345,2.076599999994052,2.0873999999985173,2.1015000000000086,2.115000000000016,2.1285999999940586,2.1451999999955476,2.1620000000000132,2.1785999999940557,2.1953999999985214,2.211899999998529,2.228500000000018,2.245199999995542,2.2618999999985263,2.27859999999405,2.2990999999940485,2.3118999999985235,2.328599999994047,2.3482999999970318,2.3618999999985206,2.37869999999554,2.395299999997029,2.4120000000000132,2.4285999999940557,2.445299999997026,2.461899999998529,2.478599999994053,2.4952999999970373,2.5120000000000076,2.52859999999405,2.5453999999985157,2.5618999999985235,2.578599999994047,2.5955000000000084,2.6118999999985206,2.6285999999940586,2.645299999997029,2.661899999998518,2.6785000000000068,2.695299999997026,2.711899999998529,2.7295999999940577,2.748500000000014,2.763099999994047,2.77859999999405,2.7952999999970345,2.8118999999985235,2.8285000000000124,2.845199999995536,2.8617999999970394,2.8785000000000096,2.895299999997029,2.9117999999970365,2.9285000000000068,2.945299999997026,2.961899999998529,2.978500000000018,2.9952999999970373,3.0118999999985263,3.02859999999405,3.0452999999970345,3.0618999999985235,3.078599999994047,3.095399999998527,3.1118999999985206,3.1285000000000096,3.1451999999955476,3.1617999999970365,3.1785999999940557,3.195299999997026,3.211899999998529,3.228500000000018,3.2452999999970373,3.2618999999985263,3.27859999999405,3.2952999999970345,3.312000000000019,3.328599999994047,3.345399999998527,3.3618999999985206,3.3785000000000096,3.3951999999955476,3.4120000000000132,3.4285999999940557,3.4451999999955447,3.461899999998529,3.478500000000018,3.498500000000014,3.5118999999985263,3.52859999999405,3.545199999995539,3.5618999999985235,3.578599999994047,3.595399999998527,3.6118999999985206,3.6285000000000096,3.645299999997029,3.661899999998518,3.681899999998528,3.695299999997026,3.711899999998529,3.728500000000018,3.7452999999970373,3.7618999999985263,3.77859999999405,3.7963999999985205,3.8118999999985235,3.8311999999955404,3.845399999998527,3.8645999999940486,3.87869999999554,3.897899999998522,3.9120000000000132,3.928699999995537,3.945299999997026,3.9640999999940547,3.9786999999955484,3.9956999999955443,4.012000000000008,4.030599999994045,4.0452999999970345,4.06229999999703,4.0818999999985195,4.09709999999405,4.112099999994051,4.131899999998517,4.146599999994045,4.162000000000013,4.178599999994056,4.195299999997026,4.214000000000006,4.228500000000018,4.245299999997037,4.261799999997031,4.278500000000015,4.295500000000011,4.314500000000017,4.3285000000000124,4.345199999995536,4.361899999998521,4.378599999994059,4.395299999997029,4.411899999998518,4.428500000000007,4.445299999997026,4.461899999998529,4.478599999994053,4.495399999998519,4.511799999997031,4.52859999999405,4.545199999995539,4.562000000000019,4.5785000000000124,4.595299999997032,4.611799999997039,4.6311999999955376,4.645299999997029,4.662000000000013,4.682099999994058,4.695299999997026,4.711799999997034,4.728599999994053,4.745199999995542,4.761799999997031,4.778500000000015,4.795199999995539,4.811799999997028,4.828599999994047,4.845199999995536,4.861899999998521,4.88150000000001,4.895399999998524,4.912099999994048,4.931399999998526,4.945399999998521,4.963500000000018,4.978599999994053,4.9980999999940465,5.011899999998526,5.0286999999955455,5.0452999999970345,5.064000000000014,5.079799999997029,5.097699999995548,5.114500000000014,5.128599999994059,5.145199999995548,5.161899999998518,5.178500000000007,5.195299999997026,5.211899999998529,5.228500000000018,5.245199999995542,5.2620999999940565,5.278500000000015,5.295599999994046,5.3152999999970305,5.329899999998524,5.345399999998527,5.361899999998521,5.378799999997035,5.395199999995548,5.4117999999970365,5.428599999994056,5.445199999995545,5.461799999997034,5.478500000000018,5.495299999997037,5.511799999997031,5.52859999999405,5.545199999995539,5.5618999999985235,5.5785000000000124,5.595199999995536,5.611899999998521,5.628599999994059,5.645199999995548,5.661899999998518,5.678500000000007,5.695299999997026,5.711899999998529,5.728599999994053,5.745199999995542,5.761899999998526,5.778500000000015,5.7952999999970345,5.8118999999985235,5.8285000000000124,5.845299999997032,5.865199999995546,5.878799999997035,5.895399999998524,5.914299999997034,5.928699999995537,5.945399999998521,5.965199999995541,5.978699999995548,5.995599999994049,6.011899999998526,6.02859999999405,6.049599999994051,6.0722999999970355,6.090399999998517,6.098699999995539,6.111899999998521,6.128599999994059,6.145099999994052,6.164799999997037]","[1733281321404,1733281321434,1733281321442,1733281321459,1733281321475,1733281321492,1733281321509,1733281321525,1733281321542,1733281321559,1733281321575,1733281321593,1733281321609,1733281321626,1733281321642,1733281321659,1733281321675,1733281321693,1733281321709,1733281321725,1733281321742,1733281321759,1733281321775,1733281321792,1733281321809,1733281321825,1733281321845,1733281321860,1733281321875,1733281321892,1733281321909,1733281321925,1733281321942,1733281321959,1733281321975,1733281321992,1733281322009,1733281322029,1733281322042,1733281322059,1733281322075,1733281322092,1733281322111,1733281322126,1733281322142,1733281322159,1733281322175,1733281322192,1733281322209,1733281322226,1733281322242,1733281322259,1733281322275,1733281322292,1733281322309,1733281322325,1733281322343,1733281322359,1733281322375,1733281322392,1733281322409,1733281322425,1733281322442,1733281322459,1733281322475,1733281322492,1733281322509,1733281322525,1733281322545,1733281322561,1733281322575,1733281322592,1733281322609,1733281322628,1733281322642,1733281322659,1733281322675,1733281322692,1733281322709,1733281322726,1733281322742,1733281322759,1733281322775,1733281322794,1733281322809,1733281322825,1733281322842,1733281322859,1733281322875,1733281322895,1733281322909,1733281322925,1733281322942,1733281322959,1733281322975,1733281322993,1733281323009,1733281323025,1733281323042,1733281323059,1733281323075,1733281323092,1733281323109,1733281323125,1733281323142,1733281323159,1733281323175,1733281323192,1733281323209,1733281323225,1733281323242,1733281323259,1733281323275,1733281323292,1733281323309,1733281323326,1733281323342,1733281323361,1733281323375,1733281323393,1733281323409,1733281323425,1733281323442,1733281323473,1733281323484,1733281323498,1733281323512,1733281323525,1733281323542,1733281323559,1733281323575,1733281323592,1733281323609,1733281323625,1733281323642,1733281323659,1733281323675,1733281323696,1733281323709,1733281323725,1733281323745,1733281323759,1733281323775,1733281323792,1733281323809,1733281323825,1733281323842,1733281323859,1733281323875,1733281323892,1733281323909,1733281323925,1733281323942,1733281323959,1733281323975,1733281323992,1733281324009,1733281324025,1733281324042,1733281324059,1733281324075,1733281324092,1733281324109,1733281324126,1733281324145,1733281324160,1733281324175,1733281324192,1733281324209,1733281324225,1733281324242,1733281324259,1733281324275,1733281324292,1733281324309,1733281324325,1733281324342,1733281324359,1733281324375,1733281324392,1733281324409,1733281324425,1733281324442,1733281324459,1733281324475,1733281324492,1733281324509,1733281324525,1733281324542,1733281324559,1733281324575,1733281324592,1733281324609,1733281324625,1733281324642,1733281324659,1733281324675,1733281324692,1733281324709,1733281324725,1733281324742,1733281324759,1733281324775,1733281324792,1733281324809,1733281324825,1733281324842,1733281324859,1733281324875,1733281324895,1733281324909,1733281324925,1733281324942,1733281324959,1733281324975,1733281324992,1733281325009,1733281325025,1733281325042,1733281325059,1733281325079,1733281325092,1733281325109,1733281325125,1733281325142,1733281325159,1733281325175,1733281325193,1733281325209,1733281325228,1733281325242,1733281325261,1733281325275,1733281325294,1733281325309,1733281325325,1733281325342,1733281325361,1733281325375,1733281325392,1733281325409,1733281325427,1733281325442,1733281325459,1733281325479,1733281325494,1733281325509,1733281325529,1733281325543,1733281325559,1733281325575,1733281325592,1733281325611,1733281325625,1733281325642,1733281325659,1733281325675,1733281325692,1733281325711,1733281325725,1733281325742,1733281325759,1733281325775,1733281325792,1733281325809,1733281325825,1733281325842,1733281325859,1733281325875,1733281325892,1733281325909,1733281325925,1733281325942,1733281325959,1733281325975,1733281325992,1733281326009,1733281326028,1733281326042,1733281326059,1733281326079,1733281326092,1733281326108,1733281326125,1733281326142,1733281326158,1733281326175,1733281326192,1733281326208,1733281326225,1733281326242,1733281326259,1733281326278,1733281326292,1733281326309,1733281326328,1733281326342,1733281326360,1733281326375,1733281326395,1733281326409,1733281326425,1733281326442,1733281326461,1733281326476,1733281326494,1733281326511,1733281326525,1733281326542,1733281326559,1733281326575,1733281326592,1733281326609,1733281326625,1733281326642,1733281326659,1733281326675,1733281326692,1733281326712,1733281326727,1733281326742,1733281326759,1733281326775,1733281326792,1733281326808,1733281326825,1733281326842,1733281326859,1733281326875,1733281326892,1733281326909,1733281326925,1733281326942,1733281326958,1733281326975,1733281326992,1733281327008,1733281327025,1733281327042,1733281327059,1733281327075,1733281327092,1733281327109,1733281327125,1733281327142,1733281327159,1733281327175,1733281327192,1733281327209,1733281327225,1733281327242,1733281327262,1733281327275,1733281327292,1733281327311,1733281327325,1733281327342,1733281327362,1733281327375,1733281327392,1733281327409,1733281327425,1733281327446,1733281327469,1733281327487,1733281327495,1733281327508,1733281327525,1733281327542,1733281327561]","[[1112.4,446],[1112.4,446],[1095.1,446.5],[1098.1,445.4],[1118.8,451.6],[1118.8,451.6],[1116.9,454.6],[1136,455],[1144.1,471],[1152.2,487],[1175,467.6],[1191,457.5],[1190.3,458.7],[1210.3,465.6],[1203,467.9],[1199.1,474.2],[1221.2,475.8],[1221.2,475.8],[1208.4,487.4],[1211.6,479.4],[1214.8,471.4],[1197.4,475],[1186.8,469.3],[1174.2,456.9],[1165.6,443],[1167.6,434.2],[1166.2,421.4],[1144.3,430.3],[1136.8,436.5],[1128.7,453.7],[1120.6,470.9],[1120.6,470.9],[1123.6,488.9],[1123.6,488.9],[1097.9,503.3],[1097.9,503.3],[1104.6,527.8],[1107.1,555.2],[1107.1,555.2],[1119,582.6],[1119,582.6],[1145.1,600.2],[1173.6,600.4],[1202.1,600.6],[1226.2,593.8],[1265.9,595.6],[1295,588.3],[1295,588.3],[1355,597.5],[1394.1,594.8],[1433.4,590.7],[1465.7,589.9],[1483.8,598.9],[1483.8,598.9],[1436.2,605.1],[1384.2,615.2],[1319.2,618],[1238.6,612.2],[1153.2,637.1],[1153.2,637.1],[1065.6,649.1],[959,642.7],[867,629.7],[766.6,617],[649,605.5],[602.7,600.1],[558.5,588.2],[527.3,583.6],[496.1,579],[474.7,566.7],[453.3,554.4],[453.3,554.4],[454.2,559.8],[432.6,565.9],[445.4,560.9],[464.1,567.5],[458.4,562.7],[458.4,562.7],[460.5,558.9],[465,548.7],[481.5,550.3],[497.8,549.3],[546.6,556.4],[597.8,566.3],[652.3,563.5],[674.8,569.3],[710.5,566.7],[778.3,570.3],[842.9,584.3],[905.1,604.7],[962.1,621],[1013.9,630.9],[1038.4,639.1],[1033.4,634.2],[1033,647.9],[1035.7,656.1],[1036.5,659.9],[1033.1,667.3],[1027.4,665.9],[1028.8,665.9],[1023.4,658.2],[1023.4,658.2],[1031.4,640.2],[1008.8,626],[1022.6,612.4],[1036.4,598.8],[1059,595.7],[1077.6,596.4],[1087,594.1],[1096.4,591.8],[1091.3,587.3],[1084.2,587.5],[1062.7,603],[1066.6,608.3],[1070.6,617.3],[1074.6,626.3],[1077.7,619.5],[1081,601.9],[1086.9,584.2],[1092,589.8],[1096.9,593.5],[1121.1,583.7],[1151.5,575.3],[1191.3,572.3],[1191.3,572.3],[1221.9,564.5],[1235.9,562.5],[1238.9,571.3],[1256.1,582.3],[1257.8,599.7],[1267.7,598.2],[1267.7,598.2],[1285.2,599.4],[1289.2,582.8],[1287.2,579.9],[1275.5,585.7],[1272.1,595.6],[1285.3,599.7],[1295.5,599.3],[1295.3,603.7],[1310.6,601.7],[1312.9,586.6],[1313.2,581.6],[1313.2,581.6],[1328,605.8],[1357.5,589.5],[1383.8,562.1],[1395.2,534.3],[1398.4,512.5],[1398.4,512.5],[1382.2,493.4],[1382.2,493.4],[1388.9,496.3],[1388.9,496.3],[1394.5,503],[1394.5,503],[1395.1,490],[1395.1,490],[1411,474],[1411,474],[1394.7,470.3],[1394.7,470.3],[1386.2,500.3],[1368.6,503.7],[1349.7,534.3],[1345.1,551],[1366.7,556.5],[1359.9,542.2],[1360.4,533.3],[1366.8,536.3],[1364.2,539.3],[1365.6,530.6],[1350.5,515],[1347.1,520.9],[1346.5,503.1],[1356,511],[1356,511],[1367.7,538.9],[1347,567.4],[1320.1,586.7],[1297.9,612.8],[1271.4,631.8],[1257.8,653.3],[1233.5,671.8],[1233.5,671.8],[1217.3,692.8],[1191.6,713],[1149.7,715.4],[1101.8,710.8],[1072.7,714.4],[1045.7,702.7],[1011,709.1],[976.3,715.5],[931.6,730.7],[897.6,748.9],[849.5,752.9],[804,740.4],[804,740.4],[774.8,758.5],[746.4,762.5],[739.8,770.4],[713.8,774.3],[710.7,778.5],[707.6,782.7],[716.6,781.8],[725.6,780.9],[739.6,791.1],[760.5,818.6],[756.7,810.9],[752.1,817.3],[751.9,807.2],[769,816.4],[770.9,816.9],[785.4,820.1],[794.8,813.9],[828,794],[852.3,774.9],[899.6,761],[955.3,751.7],[1012.7,745],[1063,739.9],[1063,739.9],[1093.9,726.5],[1144.2,723.4],[1185.5,697.7],[1226.8,672],[1235.9,656.7],[1255.8,643.3],[1241.4,602.4],[1237.1,584.2],[1214.6,579.4],[1176.4,546.7],[1187.1,553],[1178.4,549],[1136.5,551.4],[1094.6,553.8],[1069.2,563.2],[1054.7,569.2],[1041.5,604.2],[1006.2,602.6],[987.4,585],[1007.4,603.5],[986.8,592],[956.5,566.4],[955.8,554.3],[961.2,562.4],[968.6,564.9],[965.1,570.8],[959.2,569],[965.3,581.1],[984.7,607],[981,624.7],[992.9,630.3],[979.5,617.9],[991.9,645.7],[998.2,653.3],[989.7,657.1],[975.2,649.3],[970.3,652],[961,630.7],[938.4,595.6],[938.8,577.7],[934.7,571.2],[955.2,608.7],[939.9,602.3],[930.1,611],[925,625.4],[884.2,613.5],[846.2,592.1],[807.1,597.2],[738.2,612.2],[738.2,612.2],[682.2,616.4],[682.2,616.4],[622,604.3],[622,604.3],[560.9,576.2],[506.8,579],[506.8,579],[481,549.4],[481,549.4],[507.7,534.2],[507.7,534.2],[538,522.7],[568.3,511.2],[625.2,509.7],[705.9,506.7],[785.9,509.2],[866.5,512.7],[929.4,526.1],[986.3,508.8],[1035.6,520.8],[1032.4,518.4],[1032.4,518.4],[1018.1,519.1],[1040.6,538.7],[1028.8,518.9],[1023,490.7],[989.6,473.9],[959.8,472.4],[967.6,461.1],[984.4,453.3],[961.4,422.4],[938.4,391.5],[960.2,403.6],[945,396],[955.1,399.6],[962.1,420.9],[962.1,420.9],[962.7,419],[969.4,418],[970.5,426.4],[971.6,434.8],[986.7,432.3],[993.7,436.9],[1014.1,441.2],[1027.2,447.4],[1045,473.6],[1065.9,482.1],[1090.8,483.4],[1101.4,487.8],[1115.2,489.6],[1116.5,473.5],[1121,495.2],[1150.3,494.7],[1164.4,496.7],[1174.9,480.4],[1172.2,470.4],[1178,475.4],[1164.6,488.2],[1149,480.4],[1141.8,481.8],[1141.9,505.6],[1142,518.5],[1119.9,528.2],[1100.9,515.8],[1086.4,499.3],[1085.9,500.4],[1074,489.1],[1084.7,472.4],[1089.5,491.1],[1095.7,483],[1090,484.6],[1090.6,476.1],[1104,467.3],[1120.5,466.5],[1133.6,500.6],[1133.6,500.6],[1123.9,513.1],[1114.9,514.8],[1103,492],[1109,478.7],[1098,480.6],[1104.2,467.8],[1090.9,451.6],[1088,440.4],[1085,429.2],[1099.3,409.1],[1099.3,409.1],[1095,386.4],[1095.8,373.9],[1096.6,394.9],[1095.8,387.6],[1095.8,387.6],[1099.9,392.5],[1099.9,392.5],[1096.9,398.6],[1103,401.7],[1099.1,425.3],[1101.5,450.7]]","[0,0.3527331528]","[0.3527331528,0.3527331528]","[-0.3527331528,0]","[-0.3527331528,-0.3527331528]","[0,0]","[0.3527331528,0]","[0,-0.3527331528]","[0.3527331528,-0.3527331528]",0,0,0,0,1,3,Tablet,11,9,9,1
