inst1_resp.keys,inst1_resp.rt,calibrationMouse.x,calibrationMouse.y,calibrationMouse.leftButton,calibrationMouse.midButton,calibrationMouse.rightButton,calibrationClick.x,calibrationClick.y,calibrationClick.leftButton,calibrationClick.midButton,calibrationClick.rightButton,trialsc.thisRepN,trialsc.thisTrialN,trialsc.thisN,trialsc.thisIndex,trialsc.ran,calibration_x,calibration_y,participant,session,date,expName,psychopyVersion,OS,frameRate,ScreenRes_pixels,Camera_pixels,mouse_2.x,mouse_2.y,mouse_2.leftButton,mouse_2.midButton,mouse_2.rightButton,mouse_2.time,mouse_2.clicked_name,mouse.x,mouse.y,mouse.leftButton,mouse.midButton,mouse.rightButton,mouse.time,mouse.clicked_name,Choice,Trial,TrialDuration,MOUSE_GAZE,ET_GAZE,ET_GAZE_x_T,time,unixTime,ET_GAZE_NF,Loc_Option1_label,Loc_Option2_label,Loc_Cost_label,Loc_Qual_label,Loc_Option1_cost,Loc_Option2_cost,Loc_Option1_quality,Loc_Option2_quality,trials.thisRepN,trials.thisTrialN,trials.thisN,trials.thisIndex,trials.ran,Block,Device,cost1,qual1,cost2,qual2
space,2.0228,0.51875,0.090740741,1,0,0,0.0125,0.666666667,1,0,0,0,0,0,13,1,0,0.67,35,001,2024-12-06_11h55.31.840,Attention_exp_legacy,2023.1.0,Win32,60.24096386,,,,,,,,,,,,,,,,,,,,,,,,,,,,,,,,,,,,,,,,,,,,
,,,,,,,0.307291667,0.22962963,1,0,0,0,1,1,12,1,0,0.33,35,001,2024-12-06_11h55.31.840,Attention_exp_legacy,2023.1.0,Win32,60.24096386,,,,,,,,,,,,,,,,,,,,,,,,,,,,,,,,,,,,,,,,,,,,
,,,,,,,0.308333333,0.22962963,1,0,0,0,2,2,17,1,0.33,0.33,35,001,2024-12-06_11h55.31.840,Attention_exp_legacy,2023.1.0,Win32,60.24096386,,,,,,,,,,,,,,,,,,,,,,,,,,,,,,,,,,,,,,,,,,,,
,,,,,,,0.308333333,0.227777778,1,0,0,0,3,3,8,1,-0.33,0.67,35,001,2024-12-06_11h55.31.840,Attention_exp_legacy,2023.1.0,Win32,60.24096386,,,,,,,,,,,,,,,,,,,,,,,,,,,,,,,,,,,,,,,,,,,,
,,,,,,,0.307291667,0.225925926,1,0,0,0,4,4,16,1,0.33,0,35,001,2024-12-06_11h55.31.840,Attention_exp_legacy,2023.1.0,Win32,60.24096386,,,,,,,,,,,,,,,,,,,,,,,,,,,,,,,,,,,,,,,,,,,,
,,,,,,,0.307291667,0.225925926,1,0,0,0,5,5,3,1,-0.67,0.33,35,001,2024-12-06_11h55.31.840,Attention_exp_legacy,2023.1.0,Win32,60.24096386,,,,,,,,,,,,,,,,,,,,,,,,,,,,,,,,,,,,,,,,,,,,
,,,,,,,0.3125,0.240740741,0,0,0,0,6,6,20,1,0.67,-0.67,35,001,2024-12-06_11h55.31.840,Attention_exp_legacy,2023.1.0,Win32,60.24096386,,,,,,,,,,,,,,,,,,,,,,,,,,,,,,,,,,,,,,,,,,,,
,,,,,,,0.3125,0.240740741,0,0,0,0,7,7,4,1,-0.33,-0.67,35,001,2024-12-06_11h55.31.840,Attention_exp_legacy,2023.1.0,Win32,60.24096386,,,,,,,,,,,,,,,,,,,,,,,,,,,,,,,,,,,,,,,,,,,,
,,,,,,,0.313541667,0.257407407,1,0,0,0,8,8,0,1,-0.67,-0.67,35,001,2024-12-06_11h55.31.840,Attention_exp_legacy,2023.1.0,Win32,60.24096386,,,,,,,,,,,,,,,,,,,,,,,,,,,,,,,,,,,,,,,,,,,,
,,,,,,,0.313541667,0.259259259,1,0,0,0,9,9,5,1,-0.33,-0.33,35,001,2024-12-06_11h55.31.840,Attention_exp_legacy,2023.1.0,Win32,60.24096386,,,,,,,,,,,,,,,,,,,,,,,,,,,,,,,,,,,,,,,,,,,,
,,,,,,,0.313541667,0.259259259,1,0,0,0,10,10,2,1,-0.67,0,35,001,2024-12-06_11h55.31.840,Attention_exp_legacy,2023.1.0,Win32,60.24096386,,,,,,,,,,,,,,,,,,,,,,,,,,,,,,,,,,,,,,,,,,,,
,,,,,,,0.313541667,0.290740741,1,0,0,0,11,11,15,1,0.33,-0.33,35,001,2024-12-06_11h55.31.840,Attention_exp_legacy,2023.1.0,Win32,60.24096386,,,,,,,,,,,,,,,,,,,,,,,,,,,,,,,,,,,,,,,,,,,,
,,,,,,,0.314583333,0.268518519,1,0,0,0,12,12,18,1,0.33,0.67,35,001,2024-12-06_11h55.31.840,Attention_exp_legacy,2023.1.0,Win32,60.24096386,,,,,,,,,,,,,,,,,,,,,,,,,,,,,,,,,,,,,,,,,,,,
,,,,,,,0.314583333,0.268518519,1,0,0,0,13,13,1,1,-0.67,-0.33,35,001,2024-12-06_11h55.31.840,Attention_exp_legacy,2023.1.0,Win32,60.24096386,,,,,,,,,,,,,,,,,,,,,,,,,,,,,,,,,,,,,,,,,,,,
,,,,,,,0.314583333,0.301851852,1,0,0,0,14,14,9,1,0,-0.67,35,001,2024-12-06_11h55.31.840,Attention_exp_legacy,2023.1.0,Win32,60.24096386,,,,,,,,,,,,,,,,,,,,,,,,,,,,,,,,,,,,,,,,,,,,
,,,,,,,0.317708333,0.287037037,1,0,0,0,15,15,14,1,0.33,-0.67,35,001,2024-12-06_11h55.31.840,Attention_exp_legacy,2023.1.0,Win32,60.24096386,,,,,,,,,,,,,,,,,,,,,,,,,,,,,,,,,,,,,,,,,,,,
,,,,,,,0.317708333,0.287037037,1,0,0,0,16,16,10,1,0,-0.33,35,001,2024-12-06_11h55.31.840,Attention_exp_legacy,2023.1.0,Win32,60.24096386,,,,,,,,,,,,,,,,,,,,,,,,,,,,,,,,,,,,,,,,,,,,
,,,,,,,0.317708333,0.309259259,1,0,0,0,17,17,6,1,-0.33,0,35,001,2024-12-06_11h55.31.840,Attention_exp_legacy,2023.1.0,Win32,60.24096386,,,,,,,,,,,,,,,,,,,,,,,,,,,,,,,,,,,,,,,,,,,,
,,,,,,,0.316666667,0.296296296,1,0,0,0,18,18,7,1,-0.33,0.33,35,001,2024-12-06_11h55.31.840,Attention_exp_legacy,2023.1.0,Win32,60.24096386,,,,,,,,,,,,,,,,,,,,,,,,,,,,,,,,,,,,,,,,,,,,
,,,,,,,0.316666667,0.296296296,1,0,0,0,19,19,19,1,0.67,0.67,35,001,2024-12-06_11h55.31.840,Attention_exp_legacy,2023.1.0,Win32,60.24096386,,,,,,,,,,,,,,,,,,,,,,,,,,,,,,,,,,,,,,,,,,,,
,,,,,,,0.316666667,0.296296296,1,0,0,0,20,20,11,1,0,0,35,001,2024-12-06_11h55.31.840,Attention_exp_legacy,2023.1.0,Win32,60.24096386,,,,,,,,,,,,,,,,,,,,,,,,,,,,,,,,,,,,,,,,,,,,
,,,,,,,,,,,,,,,,,,,35,001,2024-12-06_11h55.31.840,Attention_exp_legacy,2023.1.0,Win32,60.24096386,"[1920,1080]","[640,480]",[0.023958333333333335],[-0.5166666666666667],[1],[0],[0],[1.5959000000059618],"[""StartButton""]",[0.5291666666666667],[0.4425925925925926],[1],[0],[0],[5.073199999988077],"[""Option2_label""]",Option2_label,1,6.0859,"[[0.5583333333333333,-0.037037037037037035],[0.5541666666666667,0.016666666666666666],[0.5520833333333334,0.03333333333333333],[0.5520833333333334,0.03518518518518519],[0.5520833333333334,0.04259259259259259],[0.5510416666666667,0.04814814814814815],[0.55,0.05185185185185185],[0.5479166666666667,0.05555555555555555],[0.5479166666666667,0.05740740740740741],[0.546875,0.06296296296296296],[0.5447916666666667,0.07037037037037037],[0.54375,0.07962962962962963],[0.54375,0.09074074074074075],[0.540625,0.10740740740740741],[0.5364583333333334,0.12777777777777777],[0.5354166666666667,0.14444444444444443],[0.534375,0.15925925925925927],[0.5322916666666667,0.18888888888888888],[0.53125,0.2074074074074074],[0.5302083333333333,0.22592592592592592],[0.5291666666666667,0.2388888888888889],[0.528125,0.24814814814814815],[0.528125,0.25925925925925924],[0.528125,0.27037037037037037],[0.528125,0.2740740740740741],[0.528125,0.2796296296296296],[0.5270833333333333,0.2833333333333333],[0.5270833333333333,0.2851851851851852],[0.5270833333333333,0.2851851851851852],[0.5270833333333333,0.2851851851851852],[0.5270833333333333,0.2851851851851852],[0.5270833333333333,0.2851851851851852],[0.5270833333333333,0.2851851851851852],[0.5270833333333333,0.2851851851851852],[0.5270833333333333,0.2851851851851852],[0.5270833333333333,0.2851851851851852],[0.5270833333333333,0.2851851851851852],[0.5270833333333333,0.2851851851851852],[0.5270833333333333,0.2851851851851852],[0.5260416666666666,0.28703703703703703],[0.5239583333333333,0.2833333333333333],[0.5197916666666667,0.2740740740740741],[0.515625,0.26666666666666666],[0.5041666666666667,0.24814814814814815],[0.48854166666666665,0.22777777777777777],[0.46979166666666666,0.2111111111111111],[0.446875,0.19074074074074074],[0.42083333333333334,0.17222222222222222],[0.38229166666666664,0.15],[0.34270833333333334,0.12962962962962962],[0.26666666666666666,0.09259259259259259],[0.23854166666666668,0.07777777777777778],[0.17708333333333334,0.05740740740740741],[0.1,0.02962962962962963],[0.07916666666666666,0.024074074074074074],[0.013541666666666667,0.003703703703703704],[-0.03229166666666667,-0.007407407407407408],[-0.075,-0.016666666666666666],[-0.11458333333333333,-0.027777777777777776],[-0.14479166666666668,-0.037037037037037035],[-0.171875,-0.044444444444444446],[-0.19375,-0.04814814814814815],[-0.21458333333333332,-0.05740740740740741],[-0.24270833333333333,-0.06666666666666667],[-0.259375,-0.07037037037037037],[-0.27708333333333335,-0.07592592592592592],[-0.2833333333333333,-0.07592592592592592],[-0.30416666666666664,-0.08333333333333333],[-0.3125,-0.08518518518518518],[-0.31875,-0.08518518518518518],[-0.32395833333333335,-0.08518518518518518],[-0.33229166666666665,-0.08703703703703704],[-0.33958333333333335,-0.09074074074074075],[-0.34791666666666665,-0.09074074074074075],[-0.35833333333333334,-0.09259259259259259],[-0.36770833333333336,-0.09259259259259259],[-0.37604166666666666,-0.09259259259259259],[-0.3854166666666667,-0.09814814814814815],[-0.39791666666666664,-0.1],[-0.40729166666666666,-0.1037037037037037],[-0.415625,-0.10740740740740741],[-0.42083333333333334,-0.11296296296296296],[-0.43020833333333336,-0.11296296296296296],[-0.43125,-0.11296296296296296],[-0.43125,-0.11481481481481481],[-0.43125,-0.11481481481481481],[-0.42916666666666664,-0.11481481481481481],[-0.42604166666666665,-0.11481481481481481],[-0.41875,-0.11481481481481481],[-0.40625,-0.11481481481481481],[-0.36875,-0.11481481481481481],[-0.3375,-0.12037037037037036],[-0.30520833333333336,-0.12962962962962962],[-0.271875,-0.1388888888888889],[-0.2375,-0.14629629629629629],[-0.19895833333333332,-0.15925925925925927],[-0.16666666666666666,-0.15925925925925927],[-0.134375,-0.15925925925925927],[-0.10833333333333334,-0.15925925925925927],[-0.08541666666666667,-0.15925925925925927],[-0.058333333333333334,-0.15925925925925927],[-0.05,-0.15925925925925927],[-0.036458333333333336,-0.15925925925925927],[-0.03333333333333333,-0.15925925925925927],[-0.029166666666666667,-0.15925925925925927],[-0.028125,-0.15925925925925927],[-0.028125,-0.15925925925925927],[-0.028125,-0.15925925925925927],[-0.028125,-0.15925925925925927],[-0.028125,-0.15925925925925927],[-0.028125,-0.15925925925925927],[-0.028125,-0.15925925925925927],[-0.028125,-0.15925925925925927],[-0.028125,-0.15925925925925927],[-0.028125,-0.15925925925925927],[-0.025,-0.15925925925925927],[-0.021875,-0.15925925925925927],[-0.017708333333333333,-0.1574074074074074],[-0.013541666666666667,-0.15],[-0.00625,-0.1425925925925926],[-0.003125,-0.13703703703703704],[0.0020833333333333333,-0.1259259259259259],[0.005208333333333333,-0.11851851851851852],[0.008333333333333333,-0.11296296296296296],[0.008333333333333333,-0.11296296296296296],[0.009375,-0.1111111111111111],[0.010416666666666666,-0.1111111111111111],[0.010416666666666666,-0.1111111111111111],[0.011458333333333333,-0.1111111111111111],[0.0125,-0.10925925925925926],[0.015625,-0.10740740740740741],[0.019791666666666666,-0.10555555555555556],[0.028125,-0.1037037037037037],[0.03958333333333333,-0.1037037037037037],[0.05625,-0.1037037037037037],[0.096875,-0.1037037037037037],[0.11354166666666667,-0.1037037037037037],[0.16458333333333333,-0.1037037037037037],[0.2552083333333333,-0.10925925925925926],[0.3,-0.12037037037037036],[0.3385416666666667,-0.13333333333333333],[0.3645833333333333,-0.13703703703703704],[0.38333333333333336,-0.14444444444444443],[0.396875,-0.15185185185185185],[0.4041666666666667,-0.1537037037037037],[0.40729166666666666,-0.15555555555555556],[0.40729166666666666,-0.15555555555555556],[0.409375,-0.1574074074074074],[0.409375,-0.1574074074074074],[0.409375,-0.1574074074074074],[0.41041666666666665,-0.15925925925925927],[0.41041666666666665,-0.15925925925925927],[0.41041666666666665,-0.15925925925925927],[0.41041666666666665,-0.15925925925925927],[0.41041666666666665,-0.15925925925925927],[0.41041666666666665,-0.15925925925925927],[0.41041666666666665,-0.15925925925925927],[0.41041666666666665,-0.15925925925925927],[0.41041666666666665,-0.15925925925925927],[0.41041666666666665,-0.15925925925925927],[0.41041666666666665,-0.15925925925925927],[0.41041666666666665,-0.15925925925925927],[0.41041666666666665,-0.15925925925925927],[0.41041666666666665,-0.15925925925925927],[0.41041666666666665,-0.15925925925925927],[0.41041666666666665,-0.15925925925925927],[0.41041666666666665,-0.15925925925925927],[0.4083333333333333,-0.16296296296296298],[0.40208333333333335,-0.1685185185185185],[0.3927083333333333,-0.17592592592592593],[0.3770833333333333,-0.19074074074074074],[0.359375,-0.2111111111111111],[0.340625,-0.23333333333333334],[0.3125,-0.26851851851851855],[0.30104166666666665,-0.2833333333333333],[0.27395833333333336,-0.3055555555555556],[0.2520833333333333,-0.3296296296296296],[0.228125,-0.3611111111111111],[0.209375,-0.387037037037037],[0.1875,-0.4166666666666667],[0.171875,-0.44074074074074077],[0.15833333333333333,-0.46111111111111114],[0.14791666666666667,-0.4759259259259259],[0.13229166666666667,-0.5055555555555555],[0.12604166666666666,-0.5185185185185185],[0.12395833333333334,-0.5259259259259259],[0.12291666666666666,-0.5314814814814814],[0.12291666666666666,-0.5370370370370371],[0.12291666666666666,-0.5370370370370371],[0.12916666666666668,-0.5407407407407407],[0.14270833333333333,-0.5444444444444444],[0.15416666666666667,-0.5481481481481482],[0.1625,-0.5481481481481482],[0.16666666666666666,-0.5518518518518518],[0.16875,-0.5518518518518518],[0.16875,-0.5518518518518518],[0.16875,-0.5518518518518518],[0.16875,-0.5518518518518518],[0.16875,-0.5518518518518518],[0.16875,-0.5518518518518518],[0.16458333333333333,-0.5555555555555556],[0.15833333333333333,-0.5592592592592592],[0.15208333333333332,-0.5611111111111111],[0.15104166666666666,-0.562962962962963],[0.15104166666666666,-0.562962962962963],[0.15104166666666666,-0.5648148148148148],[0.15104166666666666,-0.5666666666666667],[0.153125,-0.5722222222222222],[0.16979166666666667,-0.5796296296296296],[0.18125,-0.5851851851851851],[0.20208333333333334,-0.5944444444444444],[0.21145833333333333,-0.6],[0.21666666666666667,-0.6],[0.22083333333333333,-0.6],[0.22395833333333334,-0.6],[0.228125,-0.6],[0.23125,-0.6],[0.23645833333333333,-0.6],[0.24270833333333333,-0.6],[0.24895833333333334,-0.6],[0.25833333333333336,-0.6],[0.2791666666666667,-0.6],[0.29375,-0.6],[0.3072916666666667,-0.6],[0.31979166666666664,-0.6],[0.33125,-0.6018518518518519],[0.34375,-0.6055555555555555],[0.353125,-0.6092592592592593],[0.3614583333333333,-0.6111111111111112],[0.36770833333333336,-0.6148148148148148],[0.371875,-0.6166666666666667],[0.37604166666666666,-0.6185185185185185],[0.3802083333333333,-0.6203703703703703],[0.3802083333333333,-0.6203703703703703],[0.38125,-0.6203703703703703],[0.38125,-0.6203703703703703],[0.38125,-0.6222222222222222],[0.38125,-0.6222222222222222],[0.38125,-0.6222222222222222],[0.38125,-0.6222222222222222],[0.378125,-0.6277777777777778],[0.371875,-0.6277777777777778],[0.3697916666666667,-0.6314814814814815],[0.36666666666666664,-0.6314814814814815],[0.365625,-0.6333333333333333],[0.365625,-0.6333333333333333],[0.3645833333333333,-0.6333333333333333],[0.3645833333333333,-0.6333333333333333],[0.3645833333333333,-0.6333333333333333],[0.3645833333333333,-0.6333333333333333],[0.3645833333333333,-0.6314814814814815],[0.3645833333333333,-0.6222222222222222],[0.365625,-0.6129629629629629],[0.37083333333333335,-0.5944444444444444],[0.38333333333333336,-0.5481481481481482],[0.3885416666666667,-0.5277777777777778],[0.4,-0.4759259259259259],[0.409375,-0.42962962962962964],[0.41458333333333336,-0.39444444444444443],[0.421875,-0.35555555555555557],[0.425,-0.337037037037037],[0.43020833333333336,-0.30185185185185187],[0.43645833333333334,-0.26851851851851855],[0.44166666666666665,-0.22962962962962963],[0.453125,-0.16111111111111112],[0.4708333333333333,-0.06666666666666667],[0.478125,-0.03518518518518519],[0.48333333333333334,-0.012962962962962963],[0.49166666666666664,0.025925925925925925],[0.5,0.05925925925925926],[0.5114583333333333,0.10740740740740741],[0.5166666666666667,0.12962962962962962],[0.5208333333333334,0.15],[0.521875,0.15925925925925927],[0.5229166666666667,0.17037037037037037],[0.5229166666666667,0.17962962962962964],[0.5229166666666667,0.18888888888888888],[0.5229166666666667,0.1925925925925926],[0.5229166666666667,0.19814814814814816],[0.5229166666666667,0.2],[0.5239583333333333,0.2111111111111111],[0.5239583333333333,0.22037037037037038],[0.525,0.23703703703703705],[0.5270833333333333,0.25925925925925924],[0.5302083333333333,0.28703703703703703],[0.5322916666666667,0.31851851851851853],[0.534375,0.3425925925925926],[0.534375,0.362962962962963],[0.534375,0.3814814814814815],[0.534375,0.3962962962962963],[0.534375,0.40925925925925927],[0.534375,0.4203703703703704],[0.534375,0.42962962962962964],[0.534375,0.43333333333333335],[0.534375,0.44074074074074077],[0.5333333333333333,0.4425925925925926],[0.5333333333333333,0.4425925925925926],[0.5333333333333333,0.4425925925925926],[0.5322916666666667,0.4425925925925926],[0.5302083333333333,0.4425925925925926],[0.5291666666666667,0.4425925925925926],[0.5291666666666667,0.4425925925925926],[0.5291666666666667,0.4425925925925926],[0.5291666666666667,0.4425925925925926],[0.5291666666666667,0.4425925925925926],[0.5291666666666667,0.4425925925925926],[0.5291666666666667,0.4425925925925926],[0.5291666666666667,0.4425925925925926],[0.5291666666666667,0.4425925925925926],[0.5291666666666667,0.4425925925925926],[0.5291666666666667,0.4425925925925926],[0.5291666666666667,0.4425925925925926],[0.528125,0.44074074074074077],[0.5270833333333333,0.44074074074074077],[0.525,0.4388888888888889],[0.525,0.4388888888888889],[0.525,0.43703703703703706],[0.525,0.43703703703703706],[0.525,0.43703703703703706],[0.525,0.43703703703703706],[0.5229166666666667,0.43703703703703706],[0.521875,0.43703703703703706],[0.51875,0.42777777777777776],[0.5177083333333333,0.42407407407407405],[0.515625,0.4166666666666667],[0.5145833333333333,0.4111111111111111],[0.5135416666666667,0.40555555555555556],[0.5114583333333333,0.4],[0.5114583333333333,0.3925925925925926],[0.509375,0.3851851851851852],[0.5083333333333333,0.37962962962962965],[0.5072916666666667,0.3685185185185185],[0.50625,0.3611111111111111],[0.503125,0.34629629629629627],[0.49895833333333334,0.3277777777777778],[0.496875,0.3074074074074074],[0.49166666666666664,0.2814814814814815],[0.4875,0.2518518518518518],[0.484375,0.22777777777777777],[0.48125,0.2037037037037037],[0.4739583333333333,0.17592592592592593],[0.4666666666666667,0.15],[0.45625,0.10925925925925926],[0.4479166666666667,0.08148148148148149],[0.434375,0.04259259259259259],[0.41875,-0.003703703703703704],[0.3885416666666667,-0.09259259259259259],[0.3614583333333333,-0.1925925925925926],[0.3416666666666667,-0.3148148148148148],[0.32395833333333335,-0.43333333333333335],[0.30520833333333336,-0.5462962962962963],[0.29791666666666666,-0.5907407407407408],[0.29375,-0.6129629629629629],[0.2916666666666667,-0.6351851851851852],[0.28854166666666664,-0.6481481481481481],[0.28854166666666664,-0.6518518518518519],[0.28854166666666664,-0.6518518518518519],[0.28854166666666664,-0.6518518518518519],[0.28854166666666664,-0.6518518518518519],[0.28854166666666664,-0.6518518518518519],[0.28854166666666664,-0.6518518518518519],[0.28854166666666664,-0.6518518518518519],[0.28854166666666664,-0.6462962962962963],[0.28854166666666664,-0.6314814814814815]]","[[0.5247916666666667,-0.012037037037037037],[0.5247916666666667,-0.012037037037037037],[0.4970833333333334,-0.04351851851851852],[0.4970833333333334,-0.04351851851851852],[0.49406249999999996,-0.056666666666666705],[0.49406249999999996,-0.056666666666666705],[0.4652083333333332,-0.07796296296296301],[0.4292708333333332,-0.15499999999999997],[0.4488541666666668,-0.13333333333333333],[0.45416666666666666,-0.13962962962962958],[0.44812500000000005,-0.1655555555555555],[0.44812500000000005,-0.1655555555555555],[0.4415625000000001,-0.13851851851851854],[0.4415625000000001,-0.13851851851851854],[0.44677083333333345,-0.1257407407407407],[0.44677083333333345,-0.1257407407407407],[0.4944791666666667,-0.05592592592592591],[0.5327083333333335,-0.00851851851851856],[0.5528125,0.024074074074074074],[0.5747916666666666,0.032777777777777864],[0.6061458333333334,0.069074074074074],[0.6061458333333334,0.069074074074074],[0.5847916666666667,0.06962962962962967],[0.5336458333333333,0.03222222222222218],[0.4938541666666666,0.01444444444444436],[0.4938541666666666,0.01444444444444436],[0.47072916666666675,-0.04148148148148144],[0.4560416666666666,-0.09685185185185187],[0.40822916666666675,-0.12000000000000002],[0.40822916666666675,-0.12000000000000002],[0.36354166666666665,-0.15851851851851856],[0.3363541666666668,-0.14388888888888887],[0.3363541666666668,-0.14388888888888887],[0.31531250000000005,-0.11333333333333331],[0.3003124999999999,-0.07388888888888885],[0.29927083333333326,-0.060555555555555536],[0.3271874999999999,-0.0235185185185186],[0.35656249999999995,-0.012222222222222264],[0.3523958333333333,0.018703703703703747],[0.3523958333333333,0.018703703703703747],[0.3502083333333334,0.012592592592592508],[0.38312499999999994,-0.03814814814814819],[0.42177083333333343,-0.06351851851851854],[0.4448958333333332,-0.06129629629629634],[0.478125,-0.1205555555555556],[0.478125,-0.1205555555555556],[0.46677083333333325,-0.14388888888888887],[0.46677083333333325,-0.14388888888888887],[0.46416666666666656,-0.17462962962962966],[0.43864583333333323,-0.1955555555555556],[0.4321875000000001,-0.19037037037037038],[0.4321875000000001,-0.19037037037037038],[0.43427083333333344,-0.21055555555555552],[0.42916666666666664,-0.20111111111111116],[0.42916666666666664,-0.20111111111111116],[0.39208333333333345,-0.13925925925925925],[0.34572916666666675,-0.09870370370370372],[0.34572916666666675,-0.09870370370370372],[0.3298958333333334,-0.09888888888888885],[0.29583333333333334,-0.10629629629629625],[0.2664583333333333,-0.13333333333333333],[0.2664583333333333,-0.13333333333333333],[0.2118750000000001,-0.12018518518518514],[0.2,-0.11444444444444446],[0.2,-0.11444444444444446],[0.14135416666666673,-0.0801851851851852],[0.14135416666666673,-0.0801851851851852],[0.0890625,-0.052037037037037076],[0.05583333333333336,-0.040740740740740744],[0.05583333333333336,-0.040740740740740744],[0.014687500000000023,-0.05333333333333336],[0.014687500000000023,-0.05333333333333336],[-0.01260416666666669,-0.034444444444444486],[-0.03927083333333338,-0.02296296296296292],[-0.06749999999999995,-0.0011111111111111532],[-0.06749999999999995,-0.0011111111111111532],[-0.0296875,0.004074074074074159],[0.025937499999999978,-0.02907407407407416],[0.01739583333333338,-0.02833333333333325],[0.035104166666666714,-0.05648148148148148],[0.04093749999999995,-0.09537037037037037],[-0.008541666666666715,-0.0787037037037037],[0.04072916666666669,-0.09814814814814815],[0.07697916666666677,-0.12444444444444443],[0.08937499999999995,-0.14666666666666664],[0.04593750000000003,-0.1287037037037037],[0.010520833333333358,-0.11425925925925924],[-0.02020833333333331,-0.10018518518518522],[-0.05604166666666662,-0.08203703703703706],[-0.06364583333333336,-0.10055555555555558],[-0.07999999999999995,-0.1014814814814815],[-0.07999999999999995,-0.1014814814814815],[-0.04729166666666664,-0.09500000000000001],[-0.04729166666666664,-0.09500000000000001],[-0.06958333333333329,-0.09722222222222222],[-0.06958333333333329,-0.09722222222222222],[-0.1391666666666667,-0.07240740740740745],[-0.1872916666666666,-0.08185185185185183],[-0.1694791666666667,-0.08296296296296299],[-0.18875000000000006,-0.08277777777777776],[-0.20927083333333332,-0.059999999999999956],[-0.1794791666666666,-0.06333333333333331],[-0.20499999999999996,-0.0507407407407407],[-0.21281249999999996,-0.03351851851851856],[-0.23447916666666668,-0.062037037037037036],[-0.23208333333333328,-0.06351851851851854],[-0.23208333333333328,-0.06351851851851854],[-0.20520833333333333,-0.07629629629629628],[-0.19395833333333337,-0.03481481481481473],[-0.1772916666666667,-0.03537037037037041],[-0.16833333333333336,-0.06740740740740736],[-0.20343749999999997,-0.05055555555555547],[-0.23854166666666668,-0.03370370370370379],[-0.20843750000000003,-0.012592592592592508],[-0.14114583333333333,0.020555555555555598],[-0.10291666666666661,-0.008333333333333333],[-0.13781249999999995,0.08740740740740749],[-0.05572916666666667,0.004814814814814857],[0.03729166666666662,-0.1111111111111111],[0.08624999999999995,-0.1581481481481481],[0.10374999999999991,-0.12074074074074072],[0.1727083333333333,-0.18574074074074076],[0.24333333333333323,-0.2855555555555555],[0.25541666666666674,-0.2903703703703704],[0.25541666666666674,-0.2903703703703704],[0.22239583333333332,-0.3146296296296296],[0.22239583333333332,-0.3146296296296296],[0.22427083333333328,-0.26944444444444443],[0.24895833333333334,-0.33259259259259266],[0.24895833333333334,-0.33259259259259266],[0.184375,-0.23166666666666672],[0.09229166666666658,-0.1014814814814815],[0.09229166666666658,-0.1014814814814815],[0.0640625,-0.05555555555555555],[0.05656249999999995,-0.08370370370370368],[0.025625000000000023,-0.05537037037037033],[0.025625000000000023,-0.05537037037037033],[0.01260416666666669,0.029814814814814856],[0.030520833333333285,0.03351851851851856],[0.04208333333333331,0.04592592592592584],[0.06749999999999995,0.05555555555555555],[0.08989583333333329,0.04740740740740745],[0.11062500000000004,0.032777777777777864],[0.11062500000000004,0.032777777777777864],[0.15854166666666672,-0.01055555555555564],[0.15458333333333343,0.006666666666666709],[0.16135416666666677,0.06388888888888888],[0.20083333333333328,0.069074074074074],[0.21822916666666667,0.057777777777777865],[0.21822916666666667,0.057777777777777865],[0.23250000000000004,0.019999999999999917],[0.2273958333333333,-0.002407407407407323],[0.2273958333333333,-0.002407407407407323],[0.20604166666666662,0.0003703703703704546],[0.21541666666666662,-0.026666666666666623],[0.21541666666666662,-0.026666666666666623],[0.22614583333333324,-0.03296296296296288],[0.22614583333333324,-0.03296296296296288],[0.22625000000000003,-0.02833333333333325],[0.2587500000000001,-0.045740740740740825],[0.2912499999999999,-0.06314814814814819],[0.27395833333333336,-0.06592592592592597],[0.2560416666666666,-0.07037037037037037],[0.2241666666666667,-0.03685185185185181],[0.2165625000000001,-0.021296296296296296],[0.2165625000000001,-0.021296296296296296],[0.22864583333333333,-0.08425925925925926],[0.22864583333333333,-0.08425925925925926],[0.23989583333333328,-0.055740740740740785],[0.2569791666666667,-0.05888888888888891],[0.2755208333333333,-0.06666666666666667],[0.2755208333333333,-0.06666666666666667],[0.2548958333333334,-0.07537037037037035],[0.26843750000000005,-0.08648148148148146],[0.26843750000000005,-0.08648148148148146],[0.27625000000000005,-0.05462962962962963],[0.28718750000000004,-0.026666666666666623],[0.28718750000000004,-0.026666666666666623],[0.31239583333333343,-0.020185185185185143],[0.32572916666666674,0.002962962962963005],[0.32156250000000003,0.08407407407407404],[0.32156250000000003,0.08407407407407404],[0.29625000000000007,0.1301851851851851],[0.27291666666666664,0.1492592592592593],[0.24958333333333324,0.16833333333333328],[0.24958333333333324,0.16833333333333328],[0.2478125000000001,0.172037037037037],[0.20385416666666673,0.21296296296296297],[0.20197916666666677,0.21055555555555563],[0.20791666666666658,0.19870370370370363],[0.1929166666666667,0.25388888888888894],[0.1921875,0.2524074074074073],[0.18677083333333327,0.24962962962962953],[0.18875000000000006,0.22370370370370363],[0.18875000000000006,0.22370370370370363],[0.18427083333333344,0.26222222222222225],[0.1765625,0.3077777777777779],[0.1765625,0.3077777777777779],[0.1710416666666667,0.3725925925925927],[0.1857291666666666,0.36944444444444446],[0.1814583333333334,0.4050000000000001],[0.16270833333333337,0.4612962962962963],[0.15916666666666662,0.4170370370370371],[0.15739583333333323,0.40796296296296286],[0.15739583333333323,0.40796296296296286],[0.15625,0.41740740740740734],[0.15625,0.41740740740740734],[0.1546875,0.43555555555555564],[0.15177083333333338,0.4427777777777778],[0.16062500000000005,0.41944444444444445],[0.17541666666666675,0.3794444444444444],[0.17541666666666675,0.3794444444444444],[0.15812499999999996,0.3992592592592593],[0.15697916666666673,0.39203703703703713],[0.1625,0.3735185185185186],[0.1625,0.3735185185185186],[0.17635416666666662,0.415925925925926],[0.1724999999999999,0.4566666666666667],[0.1681250000000001,0.47611111111111115],[0.1681250000000001,0.47611111111111115],[0.17708333333333334,0.45500000000000007],[0.18197916666666672,0.4487037037037036],[0.16958333333333328,0.4988888888888888],[0.16958333333333328,0.4988888888888888],[0.15489583333333337,0.5403703703703703],[0.15489583333333337,0.5403703703703703],[0.16937499999999991,0.5437037037037038],[0.18447916666666658,0.5207407407407408],[0.20739583333333325,0.5112962962962964],[0.20739583333333325,0.5112962962962964],[0.22000000000000006,0.4918518518518519],[0.23666666666666672,0.46703703703703714],[0.23666666666666672,0.46703703703703714],[0.2639583333333334,0.4674074074074074],[0.28135416666666657,0.4922222222222221],[0.2833333333333333,0.4385185185185184],[0.29406249999999995,0.35185185185185186],[0.29406249999999995,0.35185185185185186],[0.29500000000000004,0.3164814814814814],[0.30458333333333343,0.2887037037037037],[0.30458333333333343,0.2887037037037037],[0.31437499999999996,0.32592592592592595],[0.31437499999999996,0.32592592592592595],[0.3240624999999999,0.334074074074074],[0.3240624999999999,0.334074074074074],[0.31395833333333345,0.31740740740740736],[0.30739583333333326,0.31814814814814807],[0.30656249999999996,0.23740740740740748],[0.30656249999999996,0.23740740740740748],[0.30010416666666656,0.130925925925926],[0.30520833333333336,0.10462962962962963],[0.30520833333333336,0.10462962962962963],[0.31239583333333343,0.17537037037037045],[0.3294791666666666,0.13759259259259252],[0.3368750000000001,0.11444444444444436],[0.3368750000000001,0.11444444444444436],[0.3375,0.10648148148148148],[0.3375,0.10648148148148148],[0.31968750000000007,0.03333333333333333],[0.31968750000000007,0.03333333333333333],[0.321875,-0.030740740740740784],[0.3272916666666667,-0.10277777777777777],[0.33312499999999995,-0.05388888888888893],[0.33479166666666677,0.032777777777777864],[0.33479166666666677,0.032777777777777864],[0.3490624999999999,0.08351851851851856],[0.3490624999999999,0.08351851851851856],[0.3389583333333334,0.02111111111111107],[0.3310416666666666,0.024629629629629547],[0.3220833333333334,0.0235185185185186],[0.32177083333333345,-0.007407407407407408],[0.33791666666666675,0.06740740740740736],[0.3478125000000001,0.0801851851851851],[0.36041666666666666,0.09537037037037037],[0.3556250000000001,0.06481481481481481],[0.3556250000000001,0.06481481481481481],[0.36864583333333345,0.026851851851851852],[0.36864583333333345,0.026851851851851852],[0.3586458333333333,-0.010370370370370412],[0.38947916666666677,0.020185185185185143],[0.43250000000000005,0.03462962962962971],[0.4565624999999999,0.026666666666666623],[0.47593750000000007,-0.002962962962963005],[0.48677083333333326,-0.04666666666666675],[0.5036458333333333,-0.01703703703703712],[0.5115624999999999,0.02111111111111107],[0.534375,0.015555555555555513],[0.534375,0.015555555555555513],[0.5332291666666668,0.018148148148148063],[0.5595833333333334,0.03925925925925934],[0.5595833333333334,0.03925925925925934],[0.5536458333333333,0.01796296296296305],[0.5536458333333333,0.01796296296296305],[0.5355208333333332,0.012777777777777735],[0.5246875000000001,-0.055185185185185205],[0.4992708333333333,-0.10537037037037032],[0.5012500000000001,-0.16166666666666668],[0.5012500000000001,-0.16166666666666668],[0.4970833333333334,-0.20481481481481487],[0.5084374999999999,-0.2614814814814815],[0.4992708333333333,-0.2766666666666666],[0.49729166666666674,-0.29259259259259257],[0.4835416666666667,-0.3248148148148148],[0.4835416666666667,-0.36629629629629634],[0.4835416666666667,-0.40777777777777774],[0.4835416666666667,-0.40777777777777774],[0.49072916666666655,-0.36370370370370364],[0.4982291666666666,-0.35907407407407405],[0.48114583333333344,-0.3592592592592593],[0.4673958333333334,-0.40425925925925926],[0.4470833333333334,-0.44425925925925924],[0.4180208333333333,-0.46888888888888886],[0.39166666666666666,-0.48351851851851857],[0.3729166666666667,-0.4644444444444445],[0.3729166666666667,-0.4644444444444445],[0.3541666666666667,-0.44537037037037036],[0.34354166666666663,-0.4468518518518519],[0.34354166666666663,-0.4468518518518519],[0.3216666666666666,-0.4361111111111111],[0.3151041666666667,-0.4009259259259259],[0.3155208333333334,-0.35351851851851845],[0.3155208333333334,-0.35351851851851845],[0.3310416666666666,-0.3140740740740741],[0.33958333333333335,-0.27518518518518525],[0.3229166666666667,-0.22407407407407406],[0.3572916666666667,-0.2235185185185185],[0.36531250000000004,-0.24370370370370376],[0.38864583333333325,-0.30185185185185187],[0.40260416666666665,-0.30833333333333335],[0.4157291666666666,-0.29814814814814816],[0.42458333333333326,-0.2866666666666667],[0.42458333333333326,-0.2866666666666667],[0.4235416666666666,-0.30037037037037034],[0.40677083333333336,-0.2644444444444445],[0.3962500000000001,-0.22185185185185188],[0.4382291666666667,-0.27259259259259255],[0.42687499999999995,-0.252962962962963],[0.42687499999999995,-0.252962962962963],[0.4421875,-0.27907407407407403],[0.4421875,-0.27907407407407403],[0.4287499999999999,-0.20333333333333337],[0.4254166666666668,-0.1638888888888889],[0.40125000000000005,-0.1479629629629629],[0.3770833333333333,-0.13203703703703706],[0.37864583333333335,-0.12814814814814812],[0.37468750000000006,-0.13388888888888892],[0.37468750000000006,-0.13388888888888892],[0.3732291666666666,-0.125],[0.3714583333333332,-0.08574074074074076],[0.3719791666666666,-0.06629629629629631],[0.35479166666666656,0.0031481481481482323],[0.3558333333333332,-0.0005555555555554713],[0.3558333333333332,-0.0005555555555554713],[0.3480208333333332,0.000925925925925926],[0.36729166666666657,0.01907407407407399],[0.39124999999999993,-0.0001851851851852273],[0.38822916666666674,0.012592592592592508],[0.38822916666666674,0.012592592592592508],[0.39041666666666663,0.03370370370370379],[0.3877083333333334,0.05277777777777778],[0.3719791666666666,0.08537037037037042],[0.3525000000000001,0.10240740740740732],[0.34406249999999994,0.10314814814814824],[0.3246875000000001,0.15351851851851847]]","[[0.5247916666666667,-0.012037037037037037,0.00020000000298381337],[0.5247916666666667,-0.012037037037037037,0.0625],[0.4970833333333334,-0.04351851851851852,0.0687999999970188],[0.4970833333333334,-0.04351851851851852,0.0799999999999983],[0.49406249999999996,-0.056666666666666705,0.10179999999702005],[0.49406249999999996,-0.056666666666666705,0.11179999999701806],[0.4652083333333332,-0.07796296296296301,0.12859999999404437],[0.4292708333333332,-0.15499999999999997,0.14929999999701948],[0.4488541666666668,-0.13333333333333333,0.16459999999403863],[0.45416666666666666,-0.13962962962962958,0.18359999999404408],[0.44812500000000005,-0.1655555555555555,0.20129999999701909],[0.44812500000000005,-0.1655555555555555,0.21170000000298472],[0.4415625000000001,-0.13851851851851854,0.22850000000000392],[0.4415625000000001,-0.13851851851851854,0.24500000000000455],[0.44677083333333345,-0.1257407407407407,0.26759999999404016],[0.44677083333333345,-0.1257407407407407,0.27859999999404295],[0.4944791666666667,-0.05592592592592591,0.29509999999404357],[0.5327083333333335,-0.00851851851851856,0.31609999999404437],[0.5528125,0.024074074074074074,0.33079999999701926],[0.5747916666666666,0.032777777777777864,0.34640000000596416],[0.6061458333333334,0.069074074074074,0.36770000000298353],[0.6061458333333334,0.069074074074074,0.37840000000596064],[0.5847916666666667,0.06962962962962967,0.39520000000297983],[0.5336458333333333,0.03222222222222218,0.4140000000000015],[0.4938541666666666,0.01444444444444436,0.43409999999403936],[0.4938541666666666,0.01444444444444436,0.44509999999404215],[0.47072916666666675,-0.04148148148148144,0.4617999999970195],[0.4560416666666666,-0.09685185185185187,0.4834000000059646],[0.40822916666666675,-0.12000000000000002,0.4985999999940418],[0.40822916666666675,-0.12000000000000002,0.5115999999940399],[0.36354166666666665,-0.15851851851851856,0.5282999999970244],[0.3363541666666668,-0.14388888888888887,0.5467000000029785],[0.3363541666666668,-0.14388888888888887,0.5615999999940442],[0.31531250000000005,-0.11333333333333331,0.5782999999970215],[0.3003124999999999,-0.07388888888888885,0.5949999999999989],[0.29927083333333326,-0.060555555555555536,0.6155999999940391],[0.3271874999999999,-0.0235185185185186,0.6305999999940397],[0.35656249999999995,-0.012222222222222264,0.6472999999970241],[0.3523958333333333,0.018703703703703747,0.6642000000029853],[0.3523958333333333,0.018703703703703747,0.6830999999940417],[0.3502083333333334,0.012592592592592508,0.6950999999940422],[0.38312499999999994,-0.03814814814814819,0.7120000000000033],[0.42177083333333343,-0.06351851851851854,0.7327000000029855],[0.4448958333333332,-0.06129629629629634,0.7485999999940418],[0.478125,-0.1205555555555556,0.7685000000000031],[0.478125,-0.1205555555555556,0.7830000000000013],[0.46677083333333325,-0.14388888888888887,0.7950999999940436],[0.46677083333333325,-0.14388888888888887,0.811700000002979],[0.46416666666666656,-0.17462962962962966,0.8284000000059635],[0.43864583333333323,-0.1955555555555556,0.8500999999940433],[0.4321875000000001,-0.19037037037037038,0.8657000000029811],[0.4321875000000001,-0.19037037037037038,0.8785999999940444],[0.43427083333333344,-0.21055555555555552,0.8952999999970217],[0.42916666666666664,-0.20111111111111116,0.9180999999940411],[0.42916666666666664,-0.20111111111111116,0.9285999999940415],[0.39208333333333345,-0.13925925925925925,0.9450999999940422],[0.34572916666666675,-0.09870370370370372,0.9617999999970195],[0.34572916666666675,-0.09870370370370372,0.9827999999970203],[0.3298958333333334,-0.09888888888888885,0.9952999999970231],[0.29583333333333334,-0.10629629629629625,1.01309999999404],[0.2664583333333333,-0.13333333333333333,1.0339000000059642],[0.2664583333333333,-0.13333333333333333,1.0452999999970203],[0.2118750000000001,-0.12018518518518514,1.061799999997021],[0.2,-0.11444444444444446,1.0862999999970242],[0.2,-0.11444444444444446,1.1024999999999991],[0.14135416666666673,-0.0801851851851852,1.116500000000002],[0.14135416666666673,-0.0801851851851852,1.1284000000059606],[0.0890625,-0.052037037037037076,1.1475999999940427],[0.05583333333333336,-0.040740740740740744,1.1622000000029828],[0.05583333333333336,-0.040740740740740744,1.1789000000059602],[0.014687500000000023,-0.05333333333333336,1.198299999997019],[0.014687500000000023,-0.05333333333333336,1.2117000000029847],[-0.01260416666666669,-0.034444444444444486,1.228500000000004],[-0.03927083333333338,-0.02296296296296292,1.2479000000059628],[-0.06749999999999995,-0.0011111111111111532,1.2617000000029819],[-0.06749999999999995,-0.0011111111111111532,1.278599999994043],[-0.0296875,0.004074074074074159,1.2950999999940436],[0.025937499999999978,-0.02907407407407416,1.3145000000000024],[0.01739583333333338,-0.02833333333333325,1.3304000000059588],[0.035104166666666714,-0.05648148148148148,1.3489000000059619],[0.04093749999999995,-0.09537037037037037,1.3662000000029835],[-0.008541666666666715,-0.0787037037037037,1.381099999994042],[0.04072916666666669,-0.09814814814814815,1.395799999997024],[0.07697916666666677,-0.12444444444444443,1.41429999999702],[0.08937499999999995,-0.14666666666666664,1.4327999999970231],[0.04593750000000003,-0.1287037037037037,1.4480999999940423],[0.010520833333333358,-0.11425925925925924,1.4630999999940428],[-0.02020833333333331,-0.10018518518518522,1.4819999999999993],[-0.05604166666666662,-0.08203703703703706,1.4957000000029836],[-0.06364583333333336,-0.10055555555555558,1.512400000005961],[-0.07999999999999995,-0.1014814814814815,1.5320999999940383],[-0.07999999999999995,-0.1014814814814815,1.5450999999940436],[-0.04729166666666664,-0.09500000000000001,1.561700000002979],[-0.04729166666666664,-0.09500000000000001,1.5784000000059635],[-0.06958333333333329,-0.09722222222222222,1.6007000000029805],[-0.06958333333333329,-0.09722222222222222,1.6120000000000019],[-0.1391666666666667,-0.07240740740740745,1.6284000000059606],[-0.1872916666666666,-0.08185185185185183,1.6450999999940379],[-0.1694791666666667,-0.08296296296296299,1.6640000000000015],[-0.18875000000000006,-0.08277777777777776,1.6802000000029835],[-0.20927083333333332,-0.059999999999999956,1.6977999999970237],[-0.1794791666666666,-0.06333333333333331,1.7144000000059592],[-0.20499999999999996,-0.0507407407407407,1.7317999999970226],[-0.21281249999999996,-0.03351851851851856,1.7452000000029813],[-0.23447916666666668,-0.062037037037037036,1.7617999999970237],[-0.23208333333333328,-0.06351851851851854,1.783200000002985],[-0.23208333333333328,-0.06351851851851854,1.7949000000059598],[-0.20520833333333333,-0.07629629629629628,1.811700000002979],[-0.19395833333333337,-0.03481481481481473,1.8282999999970215],[-0.1772916666666667,-0.03537037037037041,1.844900000005964],[-0.16833333333333336,-0.06740740740740736,1.8645999999940415],[-0.20343749999999997,-0.05055555555555547,1.8782999999970187],[-0.23854166666666668,-0.03370370370370379,1.8949000000059613],[-0.20843750000000003,-0.012592592592592508,1.9130000000000038],[-0.14114583333333333,0.020555555555555598,1.928299999997023],[-0.10291666666666661,-0.008333333333333333,1.9492000000029819],[-0.13781249999999995,0.08740740740740749,1.9635999999940381],[-0.05572916666666667,0.004814814814814857,1.9815999999940388],[0.03729166666666662,-0.1111111111111111,1.995400000005965],[0.08624999999999995,-0.1581481481481481,2.0170999999940378],[0.10374999999999991,-0.12074074074074072,2.031500000000001],[0.1727083333333333,-0.18574074074074076,2.0454000000059622],[0.24333333333333323,-0.2855555555555555,2.064799999997021],[0.25541666666666674,-0.2903703703703704,2.081900000005959],[0.25541666666666674,-0.2903703703703704,2.094900000005964],[0.22239583333333332,-0.3146296296296296,2.115799999997023],[0.22239583333333332,-0.3146296296296296,2.1284000000059606],[0.22427083333333328,-0.26944444444444443,2.145000000000003],[0.24895833333333334,-0.33259259259259266,2.16840000000596],[0.24895833333333334,-0.33259259259259266,2.1784999999999997],[0.184375,-0.23166666666666672,2.195200000002984],[0.09229166666666658,-0.1014814814814815,2.2117000000029847],[0.09229166666666658,-0.1014814814814815,2.2310999999940435],[0.0640625,-0.05555555555555555,2.2450999999940393],[0.05656249999999995,-0.08370370370370368,2.262400000005961],[0.025625000000000023,-0.05537037037037033,2.283900000005964],[0.025625000000000023,-0.05537037037037033,2.2952000000029855],[0.01260416666666669,0.029814814814814856,2.311799999997021],[0.030520833333333285,0.03351851851851856,2.3297999999970216],[0.04208333333333331,0.04592592592592584,2.35029999999702],[0.06749999999999995,0.05555555555555555,2.36490000000596],[0.08989583333333329,0.04740740740740745,2.382599999994042],[0.11062500000000004,0.032777777777777864,2.4007999999970195],[0.11062500000000004,0.032777777777777864,2.4117999999970223],[0.15854166666666672,-0.01055555555555564,2.428400000005965],[0.15458333333333343,0.006666666666666709,2.4480999999940423],[0.16135416666666677,0.06388888888888888,2.4617999999970195],[0.20083333333333328,0.069074074074074,2.4840000000000018],[0.21822916666666667,0.057777777777777865,2.4982999999970232],[0.21822916666666667,0.057777777777777865,2.511500000000005],[0.23250000000000004,0.019999999999999917,2.528400000005959],[0.2273958333333333,-0.002407407407407323,2.54490000000596],[0.2273958333333333,-0.002407407407407323,2.5615000000000023],[0.20604166666666662,0.0003703703703704546,2.5784000000059635],[0.21541666666666662,-0.026666666666666623,2.599499999999999],[0.21541666666666662,-0.026666666666666623,2.6114999999999995],[0.22614583333333324,-0.03296296296296288,2.6282999999970187],[0.22614583333333324,-0.03296296296296288,2.6447999999970193],[0.22625000000000003,-0.02833333333333325,2.6615000000000038],[0.2587500000000001,-0.045740740740740825,2.678200000002981],[0.2912499999999999,-0.06314814814814819,2.6985999999940447],[0.27395833333333336,-0.06592592592592597,2.713799999997022],[0.2560416666666666,-0.07037037037037037,2.7282000000029853],[0.2241666666666667,-0.03685185185185181,2.748400000005965],[0.2165625000000001,-0.021296296296296296,2.767900000005959],[0.2165625000000001,-0.021296296296296296,2.7782999999970244],[0.22864583333333333,-0.08425925925925926,2.79490000000596],[0.22864583333333333,-0.08425925925925926,2.814799999997021],[0.23989583333333328,-0.055740740740740785,2.8284000000059635],[0.2569791666666667,-0.05888888888888891,2.845700000002985],[0.2755208333333333,-0.06666666666666667,2.8660999999940415],[0.2755208333333333,-0.06666666666666667,2.8785000000000025],[0.2548958333333334,-0.07537037037037035,2.89520000000298],[0.26843750000000005,-0.08648148148148146,2.9192000000029807],[0.26843750000000005,-0.08648148148148146,2.928400000005965],[0.27625000000000005,-0.05462962962962963,2.945099999994042],[0.28718750000000004,-0.026666666666666623,2.9617999999970195],[0.28718750000000004,-0.026666666666666623,2.982200000002983],[0.31239583333333343,-0.020185185185185143,2.995400000005965],[0.32572916666666674,0.002962962962963005,3.013299999997024],[0.32156250000000003,0.08407407407407404,3.035700000002983],[0.32156250000000003,0.08407407407407404,3.0450999999940436],[0.29625000000000007,0.1301851851851851,3.0620000000000047],[0.27291666666666664,0.1492592592592593,3.08159999999404],[0.24958333333333324,0.16833333333333328,3.1060000000000016],[0.24958333333333324,0.16833333333333328,3.112599999994039],[0.2478125000000001,0.172037037037037,3.1284000000059606],[0.20385416666666673,0.21296296296296297,3.147400000005959],[0.20197916666666677,0.21055555555555563,3.161999999999999],[0.20791666666666658,0.19870370370370363,3.1830999999940417],[0.1929166666666667,0.25388888888888894,3.1985999999940447],[0.1921875,0.2524074074074073,3.213599999994038],[0.18677083333333327,0.24962962962962953,3.22829999999702],[0.18875000000000006,0.22370370370370363,3.2512999999970233],[0.18875000000000006,0.22370370370370363,3.261700000002982],[0.18427083333333344,0.26222222222222225,3.2782999999970244],[0.1765625,0.3077777777777779,3.29490000000596],[0.1765625,0.3077777777777779,3.311700000002979],[0.1710416666666667,0.3725925925925927,3.3282000000029797],[0.1857291666666666,0.36944444444444446,3.346400000005964],[0.1814583333333334,0.4050000000000001,3.3667000000029788],[0.16270833333333337,0.4612962962962963,3.3830999999940445],[0.15916666666666662,0.4170370370370371,3.399000000000001],[0.15739583333333323,0.40796296296296286,3.4192999999970226],[0.15739583333333323,0.40796296296296286,3.428200000002981],[0.15625,0.41740740740740734,3.445099999994042],[0.15625,0.41740740740740734,3.4617000000029847],[0.1546875,0.43555555555555564,3.4817000000029807],[0.15177083333333338,0.4427777777777778,3.4957000000029836],[0.16062500000000005,0.41944444444444445,3.512299999997019],[0.17541666666666675,0.3794444444444444,3.533799999997022],[0.17541666666666675,0.3794444444444444,3.5450000000000017],[0.15812499999999996,0.3992592592592593,3.561799999997021],[0.15697916666666673,0.39203703703703713,3.5812999999970216],[0.1625,0.3735185185185186,3.6035999999940387],[0.1625,0.3735185185185186,3.61190000000596],[0.17635416666666662,0.415925925925926,3.6284000000059606],[0.1724999999999999,0.4566666666666667,3.6469999999999985],[0.1681250000000001,0.47611111111111115,3.6657000000029853],[0.1681250000000001,0.47611111111111115,3.6784999999999997],[0.17708333333333334,0.45500000000000007,3.695099999994042],[0.18197916666666672,0.4487037037037036,3.7169999999999987],[0.16958333333333328,0.4988888888888888,3.7327999999970203],[0.16958333333333328,0.4988888888888888,3.7450999999940393],[0.15489583333333337,0.5403703703703703,3.761700000002982],[0.15489583333333337,0.5403703703703703,3.7820999999940383],[0.16937499999999991,0.5437037037037038,3.7950000000000017],[0.18447916666666658,0.5207407407407408,3.8152999999970234],[0.20739583333333325,0.5112962962962964,3.8355000000000032],[0.20739583333333325,0.5112962962962964,3.844999999999999],[0.22000000000000006,0.4918518518518519,3.861799999997018],[0.23666666666666672,0.46703703703703714,3.8800999999940444],[0.23666666666666672,0.46703703703703714,3.899000000000001],[0.2639583333333334,0.4674074074074074,3.9115999999940385],[0.28135416666666657,0.4922222222222221,3.928400000005965],[0.2833333333333333,0.4385185185185184,3.948500000000003],[0.29406249999999995,0.35185185185185186,3.966799999997022],[0.29406249999999995,0.35185185185185186,3.9782000000029853],[0.29500000000000004,0.3164814814814814,3.9949000000059627],[0.30458333333333343,0.2887037037037037,4.013000000000005],[0.30458333333333343,0.2887037037037037,4.031500000000001],[0.31437499999999996,0.32592592592592595,4.045099999994044],[0.31437499999999996,0.32592592592592595,4.061599999994044],[0.3240624999999999,0.334074074074074,4.082400000005961],[0.3240624999999999,0.334074074074074,4.094999999999999],[0.31395833333333345,0.31740740740740736,4.1114999999999995],[0.30739583333333326,0.31814814814814807,4.128400000005961],[0.30656249999999996,0.23740740740740748,4.150500000000001],[0.30656249999999996,0.23740740740740748,4.1615999999940385],[0.30010416666666656,0.130925925925926,4.178299999997023],[0.30520833333333336,0.10462962962962963,4.202700000002984],[0.30520833333333336,0.10462962962962963,4.211900000005961],[0.31239583333333343,0.17537037037037045,4.228500000000004],[0.3294791666666666,0.13759259259259252,4.246599999994039],[0.3368750000000001,0.11444444444444436,4.268000000000001],[0.3368750000000001,0.11444444444444436,4.278500000000001],[0.3375,0.10648148148148148,4.295099999994044],[0.3375,0.10648148148148148,4.311599999994044],[0.31968750000000007,0.03333333333333333,4.331299999997022],[0.31968750000000007,0.03333333333333333,4.344999999999999],[0.321875,-0.030740740740740784,4.361799999997018],[0.3272916666666667,-0.10277777777777777,4.383400000005963],[0.33312499999999995,-0.05388888888888893,4.398700000002982],[0.33479166666666677,0.032777777777777864,4.416099999994039],[0.33479166666666677,0.032777777777777864,4.450700000002982],[0.3490624999999999,0.08351851851851856,4.457299999997019],[0.3490624999999999,0.08351851851851856,4.466200000002985],[0.3389583333333334,0.02111111111111107,4.478400000005962],[0.3310416666666666,0.024629629629629547,4.497700000002979],[0.3220833333333334,0.0235185185185186,4.512299999997019],[0.32177083333333345,-0.007407407407407408,4.531500000000001],[0.33791666666666675,0.06740740740740736,4.549700000002979],[0.3478125000000001,0.0801851851851851,4.564900000005963],[0.36041666666666666,0.09537037037037037,4.580400000005959],[0.3556250000000001,0.06481481481481481,4.595599999994043],[0.3556250000000001,0.06481481481481481,4.615599999994039],[0.36864583333333345,0.026851851851851852,4.6285000000000025],[0.36864583333333345,0.026851851851851852,4.645000000000003],[0.3586458333333333,-0.010370370370370412,4.664200000002985],[0.38947916666666677,0.020185185185185143,4.680099999994042],[0.43250000000000005,0.03462962962962971,4.697900000005966],[0.4565624999999999,0.026666666666666623,4.715799999997024],[0.47593750000000007,-0.002962962962963005,4.731700000002981],[0.48677083333333326,-0.04666666666666675,4.746500000000005],[0.5036458333333333,-0.01703703703703712,4.761700000002982],[0.5115624999999999,0.02111111111111107,4.782700000002983],[0.534375,0.015555555555555513,4.796900000005962],[0.534375,0.015555555555555513,4.811700000002979],[0.5332291666666668,0.018148148148148063,4.8282999999970215],[0.5595833333333334,0.03925925925925934,4.8507000000029805],[0.5595833333333334,0.03925925925925934,4.861599999994041],[0.5536458333333333,0.01796296296296305,4.8785000000000025],[0.5536458333333333,0.01796296296296305,4.895099999994038],[0.5355208333333332,0.012777777777777735,4.914200000002985],[0.5246875000000001,-0.055185185185185205,4.933900000005963],[0.4992708333333333,-0.10537037037037032,4.947900000005966],[0.5012500000000001,-0.16166666666666668,4.961599999994043],[0.5012500000000001,-0.16166666666666668,4.97829999999702],[0.4970833333333334,-0.20481481481481487,4.997599999994044],[0.5084374999999999,-0.2614814814814815,5.012400000005961],[0.4992708333333333,-0.2766666666666666,5.030799999997022],[0.49729166666666674,-0.29259259259259257,5.047599999994041],[0.4835416666666667,-0.3248148148148148,5.0652000000029815],[0.4835416666666667,-0.36629629629629634,5.081499999999998],[0.4835416666666667,-0.40777777777777774,5.100799999997022],[0.4835416666666667,-0.40777777777777774,5.1114999999999995],[0.49072916666666655,-0.36370370370370364,5.128099999994042],[0.4982291666666666,-0.35907407407407405,5.147200000002982],[0.48114583333333344,-0.3592592592592593,5.161500000000004],[0.4673958333333334,-0.40425925925925926,5.178299999997023],[0.4470833333333334,-0.44425925925925924,5.19759999999404],[0.4180208333333333,-0.46888888888888886,5.214599999994043],[0.39166666666666666,-0.48351851851851857,5.23279999999702],[0.3729166666666667,-0.4644444444444445,5.247900000005963],[0.3729166666666667,-0.4644444444444445,5.261700000002982],[0.3541666666666667,-0.44537037037037036,5.2782000000029825],[0.34354166666666663,-0.4468518518518519,5.297700000002983],[0.34354166666666663,-0.4468518518518519,5.311500000000002],[0.3216666666666666,-0.4361111111111111,5.32820000000298],[0.3151041666666667,-0.4009259259259259,5.345200000002983],[0.3155208333333334,-0.35351851851851845,5.366500000000002],[0.3155208333333334,-0.35351851851851845,5.3785000000000025],[0.3310416666666666,-0.3140740740740741,5.395000000000003],[0.33958333333333335,-0.27518518518518525,5.414400000005962],[0.3229166666666667,-0.22407407407407406,5.432099999994044],[0.3572916666666667,-0.2235185185185185,5.448400000005961],[0.36531250000000004,-0.24370370370370376,5.463200000002985],[0.38864583333333325,-0.30185185185185187,5.48279999999702],[0.40260416666666665,-0.30833333333333335,5.497799999997021],[0.4157291666666666,-0.29814814814814816,5.51720000000298],[0.42458333333333326,-0.2866666666666667,5.533099999994043],[0.42458333333333326,-0.2866666666666667,5.545099999994044],[0.4235416666666666,-0.30037037037037034,5.561799999997021],[0.40677083333333336,-0.2644444444444445,5.5790999999940425],[0.3962500000000001,-0.22185185185185188,5.599799999997025],[0.4382291666666667,-0.27259259259259255,5.615000000000002],[0.42687499999999995,-0.252962962962963,5.628799999997021],[0.42687499999999995,-0.252962962962963,5.645000000000003],[0.4421875,-0.27907407407407403,5.664599999994039],[0.4421875,-0.27907407407407403,5.678400000005965],[0.4287499999999999,-0.20333333333333337,5.695],[0.4254166666666668,-0.1638888888888889,5.715099999994038],[0.40125000000000005,-0.1479629629629629,5.7302999999970226],[0.3770833333333333,-0.13203703703703706,5.746799999997023],[0.37864583333333335,-0.12814814814814812,5.761700000002982],[0.37468750000000006,-0.13388888888888892,5.784099999994041],[0.37468750000000006,-0.13388888888888892,5.795000000000002],[0.3732291666666666,-0.125,5.811599999994044],[0.3714583333333332,-0.08574074074074076,5.828799999997024],[0.3719791666666666,-0.06629629629629631,5.850599999994039],[0.35479166666666656,0.0031481481481482323,5.864799999997018],[0.3558333333333332,-0.0005555555555554713,5.881099999994042],[0.3558333333333332,-0.0005555555555554713,5.894900000005961],[0.3480208333333332,0.000925925925925926,5.914500000000004],[0.36729166666666657,0.01907407407407399,5.933500000000002],[0.39124999999999993,-0.0001851851851852273,5.948500000000003],[0.38822916666666674,0.012592592592592508,5.961900000005961],[0.38822916666666674,0.012592592592592508,5.97829999999702],[0.39041666666666663,0.03370370370370379,5.994900000005963],[0.3877083333333334,0.05277777777777778,6.011500000000005],[0.3719791666666666,0.08537037037037042,6.031500000000001],[0.3525000000000001,0.10240740740740732,6.047400000005965],[0.34406249999999994,0.10314814814814824,6.066200000002979],[0.3246875000000001,0.15351851851851847,6.085900000005964]]","[0.00020000000298381337,0.0625,0.0687999999970188,0.0799999999999983,0.10179999999702005,0.11179999999701806,0.12859999999404437,0.14929999999701948,0.16459999999403863,0.18359999999404408,0.20129999999701909,0.21170000000298472,0.22850000000000392,0.24500000000000455,0.26759999999404016,0.27859999999404295,0.29509999999404357,0.31609999999404437,0.33079999999701926,0.34640000000596416,0.36770000000298353,0.37840000000596064,0.39520000000297983,0.4140000000000015,0.43409999999403936,0.44509999999404215,0.4617999999970195,0.4834000000059646,0.4985999999940418,0.5115999999940399,0.5282999999970244,0.5467000000029785,0.5615999999940442,0.5782999999970215,0.5949999999999989,0.6155999999940391,0.6305999999940397,0.6472999999970241,0.6642000000029853,0.6830999999940417,0.6950999999940422,0.7120000000000033,0.7327000000029855,0.7485999999940418,0.7685000000000031,0.7830000000000013,0.7950999999940436,0.811700000002979,0.8284000000059635,0.8500999999940433,0.8657000000029811,0.8785999999940444,0.8952999999970217,0.9180999999940411,0.9285999999940415,0.9450999999940422,0.9617999999970195,0.9827999999970203,0.9952999999970231,1.01309999999404,1.0339000000059642,1.0452999999970203,1.061799999997021,1.0862999999970242,1.1024999999999991,1.116500000000002,1.1284000000059606,1.1475999999940427,1.1622000000029828,1.1789000000059602,1.198299999997019,1.2117000000029847,1.228500000000004,1.2479000000059628,1.2617000000029819,1.278599999994043,1.2950999999940436,1.3145000000000024,1.3304000000059588,1.3489000000059619,1.3662000000029835,1.381099999994042,1.395799999997024,1.41429999999702,1.4327999999970231,1.4480999999940423,1.4630999999940428,1.4819999999999993,1.4957000000029836,1.512400000005961,1.5320999999940383,1.5450999999940436,1.561700000002979,1.5784000000059635,1.6007000000029805,1.6120000000000019,1.6284000000059606,1.6450999999940379,1.6640000000000015,1.6802000000029835,1.6977999999970237,1.7144000000059592,1.7317999999970226,1.7452000000029813,1.7617999999970237,1.783200000002985,1.7949000000059598,1.811700000002979,1.8282999999970215,1.844900000005964,1.8645999999940415,1.8782999999970187,1.8949000000059613,1.9130000000000038,1.928299999997023,1.9492000000029819,1.9635999999940381,1.9815999999940388,1.995400000005965,2.0170999999940378,2.031500000000001,2.0454000000059622,2.064799999997021,2.081900000005959,2.094900000005964,2.115799999997023,2.1284000000059606,2.145000000000003,2.16840000000596,2.1784999999999997,2.195200000002984,2.2117000000029847,2.2310999999940435,2.2450999999940393,2.262400000005961,2.283900000005964,2.2952000000029855,2.311799999997021,2.3297999999970216,2.35029999999702,2.36490000000596,2.382599999994042,2.4007999999970195,2.4117999999970223,2.428400000005965,2.4480999999940423,2.4617999999970195,2.4840000000000018,2.4982999999970232,2.511500000000005,2.528400000005959,2.54490000000596,2.5615000000000023,2.5784000000059635,2.599499999999999,2.6114999999999995,2.6282999999970187,2.6447999999970193,2.6615000000000038,2.678200000002981,2.6985999999940447,2.713799999997022,2.7282000000029853,2.748400000005965,2.767900000005959,2.7782999999970244,2.79490000000596,2.814799999997021,2.8284000000059635,2.845700000002985,2.8660999999940415,2.8785000000000025,2.89520000000298,2.9192000000029807,2.928400000005965,2.945099999994042,2.9617999999970195,2.982200000002983,2.995400000005965,3.013299999997024,3.035700000002983,3.0450999999940436,3.0620000000000047,3.08159999999404,3.1060000000000016,3.112599999994039,3.1284000000059606,3.147400000005959,3.161999999999999,3.1830999999940417,3.1985999999940447,3.213599999994038,3.22829999999702,3.2512999999970233,3.261700000002982,3.2782999999970244,3.29490000000596,3.311700000002979,3.3282000000029797,3.346400000005964,3.3667000000029788,3.3830999999940445,3.399000000000001,3.4192999999970226,3.428200000002981,3.445099999994042,3.4617000000029847,3.4817000000029807,3.4957000000029836,3.512299999997019,3.533799999997022,3.5450000000000017,3.561799999997021,3.5812999999970216,3.6035999999940387,3.61190000000596,3.6284000000059606,3.6469999999999985,3.6657000000029853,3.6784999999999997,3.695099999994042,3.7169999999999987,3.7327999999970203,3.7450999999940393,3.761700000002982,3.7820999999940383,3.7950000000000017,3.8152999999970234,3.8355000000000032,3.844999999999999,3.861799999997018,3.8800999999940444,3.899000000000001,3.9115999999940385,3.928400000005965,3.948500000000003,3.966799999997022,3.9782000000029853,3.9949000000059627,4.013000000000005,4.031500000000001,4.045099999994044,4.061599999994044,4.082400000005961,4.094999999999999,4.1114999999999995,4.128400000005961,4.150500000000001,4.1615999999940385,4.178299999997023,4.202700000002984,4.211900000005961,4.228500000000004,4.246599999994039,4.268000000000001,4.278500000000001,4.295099999994044,4.311599999994044,4.331299999997022,4.344999999999999,4.361799999997018,4.383400000005963,4.398700000002982,4.416099999994039,4.450700000002982,4.457299999997019,4.466200000002985,4.478400000005962,4.497700000002979,4.512299999997019,4.531500000000001,4.549700000002979,4.564900000005963,4.580400000005959,4.595599999994043,4.615599999994039,4.6285000000000025,4.645000000000003,4.664200000002985,4.680099999994042,4.697900000005966,4.715799999997024,4.731700000002981,4.746500000000005,4.761700000002982,4.782700000002983,4.796900000005962,4.811700000002979,4.8282999999970215,4.8507000000029805,4.861599999994041,4.8785000000000025,4.895099999994038,4.914200000002985,4.933900000005963,4.947900000005966,4.961599999994043,4.97829999999702,4.997599999994044,5.012400000005961,5.030799999997022,5.047599999994041,5.0652000000029815,5.081499999999998,5.100799999997022,5.1114999999999995,5.128099999994042,5.147200000002982,5.161500000000004,5.178299999997023,5.19759999999404,5.214599999994043,5.23279999999702,5.247900000005963,5.261700000002982,5.2782000000029825,5.297700000002983,5.311500000000002,5.32820000000298,5.345200000002983,5.366500000000002,5.3785000000000025,5.395000000000003,5.414400000005962,5.432099999994044,5.448400000005961,5.463200000002985,5.48279999999702,5.497799999997021,5.51720000000298,5.533099999994043,5.545099999994044,5.561799999997021,5.5790999999940425,5.599799999997025,5.615000000000002,5.628799999997021,5.645000000000003,5.664599999994039,5.678400000005965,5.695,5.715099999994038,5.7302999999970226,5.746799999997023,5.761700000002982,5.784099999994041,5.795000000000002,5.811599999994044,5.828799999997024,5.850599999994039,5.864799999997018,5.881099999994042,5.894900000005961,5.914500000000004,5.933500000000002,5.948500000000003,5.961900000005961,5.97829999999702,5.994900000005963,6.011500000000005,6.031500000000001,6.047400000005965,6.066200000002979,6.085900000005964]","[1733457366251,1733457366305,1733457366311,1733457366322,1733457366344,1733457366354,1733457366371,1733457366391,1733457366407,1733457366426,1733457366443,1733457366454,1733457366471,1733457366487,1733457366510,1733457366521,1733457366537,1733457366558,1733457366573,1733457366589,1733457366610,1733457366621,1733457366637,1733457366656,1733457366676,1733457366687,1733457366704,1733457366726,1733457366741,1733457366754,1733457366770,1733457366789,1733457366804,1733457366820,1733457366837,1733457366858,1733457366873,1733457366889,1733457366906,1733457366925,1733457366937,1733457366954,1733457366975,1733457366991,1733457367011,1733457367025,1733457367037,1733457367054,1733457367071,1733457367092,1733457367108,1733457367121,1733457367137,1733457367160,1733457367171,1733457367187,1733457367204,1733457367225,1733457367237,1733457367255,1733457367276,1733457367287,1733457367304,1733457367328,1733457367345,1733457367359,1733457367370,1733457367390,1733457367404,1733457367421,1733457367440,1733457367454,1733457367471,1733457367490,1733457367504,1733457367521,1733457367537,1733457367557,1733457367573,1733457367591,1733457367608,1733457367623,1733457367638,1733457367656,1733457367675,1733457367690,1733457367705,1733457367724,1733457367738,1733457367755,1733457367774,1733457367787,1733457367804,1733457367821,1733457367843,1733457367854,1733457367871,1733457367887,1733457367906,1733457367922,1733457367940,1733457367956,1733457367974,1733457367987,1733457368004,1733457368025,1733457368037,1733457368054,1733457368070,1733457368087,1733457368107,1733457368120,1733457368137,1733457368155,1733457368170,1733457368191,1733457368206,1733457368224,1733457368238,1733457368259,1733457368274,1733457368287,1733457368307,1733457368324,1733457368337,1733457368358,1733457368371,1733457368387,1733457368411,1733457368421,1733457368437,1733457368454,1733457368473,1733457368487,1733457368504,1733457368526,1733457368537,1733457368554,1733457368572,1733457368592,1733457368607,1733457368625,1733457368643,1733457368654,1733457368670,1733457368690,1733457368704,1733457368726,1733457368740,1733457368754,1733457368770,1733457368787,1733457368804,1733457368821,1733457368842,1733457368854,1733457368870,1733457368887,1733457368904,1733457368920,1733457368941,1733457368956,1733457368970,1733457368991,1733457369010,1733457369020,1733457369037,1733457369057,1733457369071,1733457369088,1733457369108,1733457369121,1733457369137,1733457369161,1733457369171,1733457369187,1733457369204,1733457369224,1733457369237,1733457369256,1733457369278,1733457369287,1733457369304,1733457369324,1733457369348,1733457369355,1733457369371,1733457369389,1733457369404,1733457369425,1733457369441,1733457369456,1733457369470,1733457369493,1733457369504,1733457369520,1733457369537,1733457369554,1733457369570,1733457369589,1733457369609,1733457369625,1733457369641,1733457369662,1733457369670,1733457369687,1733457369704,1733457369724,1733457369738,1733457369754,1733457369776,1733457369787,1733457369804,1733457369823,1733457369846,1733457369854,1733457369871,1733457369889,1733457369908,1733457369921,1733457369937,1733457369959,1733457369975,1733457369987,1733457370004,1733457370024,1733457370037,1733457370057,1733457370078,1733457370087,1733457370104,1733457370122,1733457370141,1733457370154,1733457370170,1733457370191,1733457370209,1733457370220,1733457370237,1733457370255,1733457370274,1733457370287,1733457370304,1733457370325,1733457370337,1733457370354,1733457370370,1733457370393,1733457370404,1733457370420,1733457370445,1733457370454,1733457370471,1733457370489,1733457370510,1733457370521,1733457370537,1733457370554,1733457370573,1733457370587,1733457370604,1733457370626,1733457370641,1733457370658,1733457370693,1733457370699,1733457370708,1733457370720,1733457370740,1733457370754,1733457370774,1733457370792,1733457370807,1733457370822,1733457370838,1733457370858,1733457370871,1733457370887,1733457370906,1733457370922,1733457370940,1733457370958,1733457370974,1733457370989,1733457371004,1733457371025,1733457371039,1733457371054,1733457371070,1733457371093,1733457371104,1733457371121,1733457371137,1733457371156,1733457371176,1733457371190,1733457371204,1733457371220,1733457371240,1733457371254,1733457371273,1733457371290,1733457371307,1733457371324,1733457371343,1733457371354,1733457371370,1733457371389,1733457371404,1733457371420,1733457371440,1733457371457,1733457371475,1733457371490,1733457371504,1733457371520,1733457371540,1733457371554,1733457371570,1733457371587,1733457371609,1733457371621,1733457371637,1733457371656,1733457371674,1733457371691,1733457371705,1733457371725,1733457371740,1733457371759,1733457371775,1733457371787,1733457371804,1733457371821,1733457371842,1733457371857,1733457371871,1733457371887,1733457371907,1733457371921,1733457371937,1733457371957,1733457371972,1733457371989,1733457372004,1733457372026,1733457372037,1733457372054,1733457372071,1733457372093,1733457372107,1733457372123,1733457372137,1733457372157,1733457372176,1733457372191,1733457372204,1733457372220,1733457372237,1733457372254,1733457372274,1733457372290,1733457372308,1733457372328]","[[1463.8,533.5],[1463.8,533.5],[1437.2,516.5],[1437.2,516.5],[1434.3,509.4],[1434.3,509.4],[1406.6,497.9],[1372.1,456.3],[1390.9,468],[1396,464.6],[1390.2,450.6],[1390.2,450.6],[1383.9,465.2],[1383.9,465.2],[1388.9,472.1],[1388.9,472.1],[1434.7,509.8],[1471.4,535.4],[1490.7,553],[1511.8,557.7],[1541.9,577.3],[1541.9,577.3],[1521.4,577.6],[1472.3,557.4],[1434.1,547.8],[1434.1,547.8],[1411.9,517.6],[1397.8,487.7],[1351.9,475.2],[1351.9,475.2],[1309,454.4],[1282.9,462.3],[1282.9,462.3],[1262.7,478.8],[1248.3,500.1],[1247.3,507.3],[1274.1,527.3],[1302.3,533.4],[1298.3,550.1],[1298.3,550.1],[1296.2,546.8],[1327.8,519.4],[1364.9,505.7],[1387.1,506.9],[1419,474.9],[1419,474.9],[1408.1,462.3],[1408.1,462.3],[1405.6,445.7],[1381.1,434.4],[1374.9,437.2],[1374.9,437.2],[1376.9,426.3],[1372,431.4],[1372,431.4],[1336.4,464.8],[1291.9,486.7],[1291.9,486.7],[1276.7,486.6],[1244,482.6],[1215.8,468],[1215.8,468],[1163.4,475.1],[1152,478.2],[1152,478.2],[1095.7,496.7],[1095.7,496.7],[1045.5,511.9],[1013.6,518],[1013.6,518],[974.1,511.2],[974.1,511.2],[947.9,521.4],[922.3,527.6],[895.2,539.4],[895.2,539.4],[931.5,542.2],[984.9,524.3],[976.7,524.7],[993.7,509.5],[999.3,488.5],[951.8,497.5],[999.1,487],[1033.9,472.8],[1045.8,460.8],[1004.1,470.5],[970.1,478.3],[940.6,485.9],[906.2,495.7],[898.9,485.7],[883.2,485.2],[883.2,485.2],[914.6,488.7],[914.6,488.7],[893.2,487.5],[893.2,487.5],[826.4,500.9],[780.2,495.8],[797.3,495.2],[778.8,495.3],[759.1,507.6],[787.7,505.8],[763.2,512.6],[755.7,521.9],[734.9,506.5],[737.2,505.7],[737.2,505.7],[763,498.8],[773.8,521.2],[789.8,520.9],[798.4,503.6],[764.7,512.7],[731,521.8],[759.9,533.2],[824.5,551.1],[861.2,535.5],[827.7,587.2],[906.5,542.6],[995.8,480],[1042.8,454.6],[1059.6,474.8],[1125.8,439.7],[1193.6,385.8],[1205.2,383.2],[1205.2,383.2],[1173.5,370.1],[1173.5,370.1],[1175.3,394.5],[1199,360.4],[1199,360.4],[1137,414.9],[1048.6,485.2],[1048.6,485.2],[1021.5,510],[1014.3,494.8],[984.6,510.1],[984.6,510.1],[972.1,556.1],[989.3,558.1],[1000.4,564.8],[1024.8,570],[1046.3,565.6],[1066.2,557.7],[1066.2,557.7],[1112.2,534.3],[1108.4,543.6],[1114.9,574.5],[1152.8,577.3],[1169.5,571.2],[1169.5,571.2],[1183.2,550.8],[1178.3,538.7],[1178.3,538.7],[1157.8,540.2],[1166.8,525.6],[1166.8,525.6],[1177.1,522.2],[1177.1,522.2],[1177.2,524.7],[1208.4,515.3],[1239.6,505.9],[1223,504.4],[1205.8,502],[1175.2,520.1],[1167.9,528.5],[1167.9,528.5],[1179.5,494.5],[1179.5,494.5],[1190.3,509.9],[1206.7,508.2],[1224.5,504],[1224.5,504],[1204.7,499.3],[1217.7,493.3],[1217.7,493.3],[1225.2,510.5],[1235.7,525.6],[1235.7,525.6],[1259.9,529.1],[1272.7,541.6],[1268.7,585.4],[1268.7,585.4],[1244.4,610.3],[1222,620.6],[1199.6,630.9],[1199.6,630.9],[1197.9,632.9],[1155.7,655],[1153.9,653.7],[1159.6,647.3],[1145.2,677.1],[1144.5,676.3],[1139.3,674.8],[1141.2,660.8],[1141.2,660.8],[1136.9,681.6],[1129.5,706.2],[1129.5,706.2],[1124.2,741.2],[1138.3,739.5],[1134.2,758.7],[1116.2,789.1],[1112.8,765.2],[1111.1,760.3],[1111.1,760.3],[1110,765.4],[1110,765.4],[1108.5,775.2],[1105.7,779.1],[1114.2,766.5],[1128.4,744.9],[1128.4,744.9],[1111.8,755.6],[1110.7,751.7],[1116,741.7],[1116,741.7],[1129.3,764.6],[1125.6,786.6],[1121.4,797.1],[1121.4,797.1],[1130,785.7],[1134.7,782.3],[1122.8,809.4],[1122.8,809.4],[1108.7,831.8],[1108.7,831.8],[1122.6,833.6],[1137.1,821.2],[1159.1,816.1],[1159.1,816.1],[1171.2,805.6],[1187.2,792.2],[1187.2,792.2],[1213.4,792.4],[1230.1,805.8],[1232,776.8],[1242.3,730],[1242.3,730],[1243.2,710.9],[1252.4,695.9],[1252.4,695.9],[1261.8,716],[1261.8,716],[1271.1,720.4],[1271.1,720.4],[1261.4,711.4],[1255.1,711.8],[1254.3,668.2],[1254.3,668.2],[1248.1,610.7],[1253,596.5],[1253,596.5],[1259.9,634.7],[1276.3,614.3],[1283.4,601.8],[1283.4,601.8],[1284,597.5],[1284,597.5],[1266.9,558],[1266.9,558],[1269,523.4],[1274.2,484.5],[1279.8,510.9],[1281.4,557.7],[1281.4,557.7],[1295.1,585.1],[1295.1,585.1],[1285.4,551.4],[1277.8,553.3],[1269.2,552.7],[1268.9,536],[1284.4,576.4],[1293.9,583.3],[1306,591.5],[1301.4,575],[1301.4,575],[1313.9,554.5],[1313.9,554.5],[1304.3,534.4],[1333.9,550.9],[1375.2,558.7],[1398.3,554.4],[1416.9,538.4],[1427.3,514.8],[1443.5,530.8],[1451.1,551.4],[1473,548.4],[1473,548.4],[1471.9,549.8],[1497.2,561.2],[1497.2,561.2],[1491.5,549.7],[1491.5,549.7],[1474.1,546.9],[1463.7,510.2],[1439.3,483.1],[1441.2,452.7],[1441.2,452.7],[1437.2,429.4],[1448.1,398.8],[1439.3,390.6],[1437.4,382],[1424.2,364.6],[1424.2,342.2],[1424.2,319.8],[1424.2,319.8],[1431.1,343.6],[1438.3,346.1],[1421.9,346],[1408.7,321.7],[1389.2,300.1],[1361.3,286.8],[1336,278.9],[1318,289.2],[1318,289.2],[1300,299.5],[1289.8,298.7],[1289.8,298.7],[1268.8,304.5],[1262.5,323.5],[1262.9,349.1],[1262.9,349.1],[1277.8,370.4],[1286,391.4],[1270,419],[1303,419.3],[1310.7,408.4],[1333.1,377],[1346.5,373.5],[1359.1,379],[1367.6,385.2],[1367.6,385.2],[1366.6,377.8],[1350.5,397.2],[1340.4,420.2],[1380.7,392.8],[1369.8,403.4],[1369.8,403.4],[1384.5,389.3],[1384.5,389.3],[1371.6,430.2],[1368.4,451.5],[1345.2,460.1],[1322,468.7],[1323.5,470.8],[1319.7,467.7],[1319.7,467.7],[1318.3,472.5],[1316.6,493.7],[1317.1,504.2],[1300.6,541.7],[1301.6,539.7],[1301.6,539.7],[1294.1,540.5],[1312.6,550.3],[1335.6,539.9],[1332.7,546.8],[1332.7,546.8],[1334.8,558.2],[1332.2,568.5],[1317.1,586.1],[1298.4,595.3],[1290.3,595.7],[1271.7,622.9]]","[0,0.5333]","[0.5333,0.5333]","[-0.5333,0]","[-0.5333,-0.5333]","[0,0]","[0.5333,0]","[0,-0.5333]","[0.5333,-0.5333]",0,0,0,0,1,2,Monitor,7,1,11,9
