inst1_resp.keys,inst1_resp.rt,calibrationMouse.x,calibrationMouse.y,calibrationMouse.leftButton,calibrationMouse.midButton,calibrationMouse.rightButton,calibrationClick.x,calibrationClick.y,calibrationClick.leftButton,calibrationClick.midButton,calibrationClick.rightButton,trialsc.thisRepN,trialsc.thisTrialN,trialsc.thisN,trialsc.thisIndex,trialsc.ran,calibration_x,calibration_y,participant,session,date,expName,psychopyVersion,OS,frameRate,calibrationClick.clicked_name,ScreenRes_pixels,mouse_2.x,mouse_2.y,mouse_2.leftButton,mouse_2.midButton,mouse_2.rightButton,mouse_2.time,mouse_2.clicked_name,Camera_pixels,mouse.x,mouse.y,mouse.leftButton,mouse.midButton,mouse.rightButton,mouse.time,mouse.clicked_name,Choice,Trial,TrialDuration,MOUSE_GAZE,ET_GAZE,ET_GAZE_x_T,time,unixTime,ET_GAZE_NF,Loc_Option1_label,Loc_Option2_label,Loc_Cost_label,Loc_Qual_label,Loc_Option1_cost,Loc_Option2_cost,Loc_Option1_quality,Loc_Option2_quality,trials.thisRepN,trials.thisTrialN,trials.thisN,trials.thisIndex,trials.ran,Block,Device,cost1,qual1,cost2,qual2
space,0.7564,-0.034375,-0.383333333,1,0,0,-0.65,-0.672222222,1,0,0,0,0,0,0,1,-0.67,-0.67,08,001,2024-12-04_12h10.57.905,Attention_exp_legacy,2023.1.0,Win32,59.88023952,,,,,,,,,,,,,,,,,,,,,,,,,,,,,,,,,,,,,,,,,,,,,
,,,,,,,-0.679166667,0.337037037,1,0,0,0,1,1,3,1,-0.67,0.33,08,001,2024-12-04_12h10.57.905,Attention_exp_legacy,2023.1.0,Win32,59.88023952,calibration_square,,,,,,,,,,,,,,,,,,,,,,,,,,,,,,,,,,,,,,,,,,,,
,,,,,,,-0.004166667,-0.668518519,1,0,0,0,2,2,9,1,0,-0.67,08,001,2024-12-04_12h10.57.905,Attention_exp_legacy,2023.1.0,Win32,59.88023952,calibration_square,,,,,,,,,,,,,,,,,,,,,,,,,,,,,,,,,,,,,,,,,,,,
,,,,,,,0.010416667,-0.331481481,1,0,0,0,3,3,10,1,0,-0.33,08,001,2024-12-04_12h10.57.905,Attention_exp_legacy,2023.1.0,Win32,59.88023952,,,,,,,,,,,,,,,,,,,,,,,,,,,,,,,,,,,,,,,,,,,,,
,,,,,,,-0.323958333,-0.32962963,1,0,0,0,4,4,5,1,-0.33,-0.33,08,001,2024-12-04_12h10.57.905,Attention_exp_legacy,2023.1.0,Win32,59.88023952,calibration_square,,,,,,,,,,,,,,,,,,,,,,,,,,,,,,,,,,,,,,,,,,,,
,,,,,,,-0.332291667,0.331481481,1,0,0,0,5,5,7,1,-0.33,0.33,08,001,2024-12-04_12h10.57.905,Attention_exp_legacy,2023.1.0,Win32,59.88023952,calibration_square,,,,,,,,,,,,,,,,,,,,,,,,,,,,,,,,,,,,,,,,,,,,
,,,,,,,-0.010416667,-0.005555556,1,0,0,0,6,6,11,1,0,0,08,001,2024-12-04_12h10.57.905,Attention_exp_legacy,2023.1.0,Win32,59.88023952,,,,,,,,,,,,,,,,,,,,,,,,,,,,,,,,,,,,,,,,,,,,,
,,,,,,,0.319791667,-0.677777778,1,0,0,0,7,7,14,1,0.33,-0.67,08,001,2024-12-04_12h10.57.905,Attention_exp_legacy,2023.1.0,Win32,59.88023952,,,,,,,,,,,,,,,,,,,,,,,,,,,,,,,,,,,,,,,,,,,,,
,,,,,,,0.334375,-0.005555556,1,0,0,0,8,8,16,1,0.33,0,08,001,2024-12-04_12h10.57.905,Attention_exp_legacy,2023.1.0,Win32,59.88023952,calibration_square,,,,,,,,,,,,,,,,,,,,,,,,,,,,,,,,,,,,,,,,,,,,
,,,,,,,0.001041667,0.344444444,1,0,0,0,9,9,12,1,0,0.33,08,001,2024-12-04_12h10.57.905,Attention_exp_legacy,2023.1.0,Win32,59.88023952,,,,,,,,,,,,,,,,,,,,,,,,,,,,,,,,,,,,,,,,,,,,,
,,,,,,,0.667708333,-0.662962963,1,0,0,0,10,10,20,1,0.67,-0.67,08,001,2024-12-04_12h10.57.905,Attention_exp_legacy,2023.1.0,Win32,59.88023952,calibration_square,,,,,,,,,,,,,,,,,,,,,,,,,,,,,,,,,,,,,,,,,,,,
,,,,,,,-0.339583333,-0.662962963,1,0,0,0,11,11,4,1,-0.33,-0.67,08,001,2024-12-04_12h10.57.905,Attention_exp_legacy,2023.1.0,Win32,59.88023952,calibration_square,,,,,,,,,,,,,,,,,,,,,,,,,,,,,,,,,,,,,,,,,,,,
,,,,,,,-0.675,-0.324074074,1,0,0,0,12,12,1,1,-0.67,-0.33,08,001,2024-12-04_12h10.57.905,Attention_exp_legacy,2023.1.0,Win32,59.88023952,calibration_square,,,,,,,,,,,,,,,,,,,,,,,,,,,,,,,,,,,,,,,,,,,,
,,,,,,,0.663541667,0.666666667,1,0,0,0,13,13,19,1,0.67,0.67,08,001,2024-12-04_12h10.57.905,Attention_exp_legacy,2023.1.0,Win32,59.88023952,calibration_square,,,,,,,,,,,,,,,,,,,,,,,,,,,,,,,,,,,,,,,,,,,,
,,,,,,,-0.320833333,0.662962963,1,0,0,0,14,14,8,1,-0.33,0.67,08,001,2024-12-04_12h10.57.905,Attention_exp_legacy,2023.1.0,Win32,59.88023952,calibration_square,,,,,,,,,,,,,,,,,,,,,,,,,,,,,,,,,,,,,,,,,,,,
,,,,,,,0.319791667,0.666666667,1,0,0,0,15,15,18,1,0.33,0.67,08,001,2024-12-04_12h10.57.905,Attention_exp_legacy,2023.1.0,Win32,59.88023952,,,,,,,,,,,,,,,,,,,,,,,,,,,,,,,,,,,,,,,,,,,,,
,,,,,,,0.001041667,0.681481481,1,0,0,0,16,16,13,1,0,0.67,08,001,2024-12-04_12h10.57.905,Attention_exp_legacy,2023.1.0,Win32,59.88023952,,,,,,,,,,,,,,,,,,,,,,,,,,,,,,,,,,,,,,,,,,,,,
,,,,,,,0.321875,0.331481481,1,0,0,0,17,17,17,1,0.33,0.33,08,001,2024-12-04_12h10.57.905,Attention_exp_legacy,2023.1.0,Win32,59.88023952,calibration_square,,,,,,,,,,,,,,,,,,,,,,,,,,,,,,,,,,,,,,,,,,,,
,,,,,,,-0.332291667,0.012962963,1,0,0,0,18,18,6,1,-0.33,0,08,001,2024-12-04_12h10.57.905,Attention_exp_legacy,2023.1.0,Win32,59.88023952,,,,,,,,,,,,,,,,,,,,,,,,,,,,,,,,,,,,,,,,,,,,,
,,,,,,,-0.669791667,-0.014814815,1,0,0,0,19,19,2,1,-0.67,0,08,001,2024-12-04_12h10.57.905,Attention_exp_legacy,2023.1.0,Win32,59.88023952,,,,,,,,,,,,,,,,,,,,,,,,,,,,,,,,,,,,,,,,,,,,,
,,,,,,,0.316666667,-0.325925926,1,0,0,0,20,20,15,1,0.33,-0.33,08,001,2024-12-04_12h10.57.905,Attention_exp_legacy,2023.1.0,Win32,59.88023952,,,,,,,,,,,,,,,,,,,,,,,,,,,,,,,,,,,,,,,,,,,,,
,,,,,,,,,,,,,,,,,,,08,001,2024-12-04_12h10.57.905,Attention_exp_legacy,2023.1.0,Win32,59.88023952,,"[1920,1080]",[0.03333333333333333],[-0.4740740740740741],[1],[0],[0],[0.7676000000014938],"[""StartButton""]","[640,480]",[0.0125],[0.3148148148148148],[1],[0],[0],[2.7867999999970223],"[""Option1_label""]",Option1_label,1,3.8113,"[[0.06145833333333333,-0.08518518518518518],[0.06145833333333333,-0.08518518518518518],[0.06145833333333333,-0.08518518518518518],[0.06145833333333333,-0.08518518518518518],[0.06145833333333333,-0.08518518518518518],[0.06145833333333333,-0.08518518518518518],[0.06145833333333333,-0.08518518518518518],[0.06145833333333333,-0.08518518518518518],[0.06145833333333333,-0.08518518518518518],[0.06145833333333333,-0.08518518518518518],[0.06145833333333333,-0.08518518518518518],[0.06145833333333333,-0.08518518518518518],[0.06145833333333333,-0.08518518518518518],[0.06145833333333333,-0.08518518518518518],[0.06145833333333333,-0.08518518518518518],[0.06145833333333333,-0.08518518518518518],[0.06145833333333333,-0.08518518518518518],[0.06145833333333333,-0.08518518518518518],[0.06145833333333333,-0.08518518518518518],[0.06145833333333333,-0.08518518518518518],[0.06145833333333333,-0.08518518518518518],[0.06145833333333333,-0.08518518518518518],[0.06145833333333333,-0.08518518518518518],[0.06145833333333333,-0.08518518518518518],[0.06145833333333333,-0.08518518518518518],[0.06145833333333333,-0.08518518518518518],[0.06145833333333333,-0.08518518518518518],[0.06145833333333333,-0.08518518518518518],[0.06145833333333333,-0.08518518518518518],[0.06145833333333333,-0.08518518518518518],[0.06145833333333333,-0.08518518518518518],[0.06145833333333333,-0.08518518518518518],[0.06145833333333333,-0.08518518518518518],[0.06145833333333333,-0.08518518518518518],[0.06145833333333333,-0.08518518518518518],[0.06145833333333333,-0.08518518518518518],[0.06145833333333333,-0.08518518518518518],[0.06145833333333333,-0.08518518518518518],[0.06145833333333333,-0.08518518518518518],[0.06145833333333333,-0.08518518518518518],[0.06145833333333333,-0.08518518518518518],[0.06145833333333333,-0.08518518518518518],[0.06145833333333333,-0.08518518518518518],[0.06145833333333333,-0.08518518518518518],[0.06145833333333333,-0.08518518518518518],[0.06145833333333333,-0.08518518518518518],[0.06145833333333333,-0.08518518518518518],[0.06145833333333333,-0.08518518518518518],[0.06145833333333333,-0.08518518518518518],[0.06145833333333333,-0.08518518518518518],[0.06145833333333333,-0.08518518518518518],[0.06145833333333333,-0.08518518518518518],[0.06145833333333333,-0.08518518518518518],[0.06145833333333333,-0.08518518518518518],[0.06145833333333333,-0.08518518518518518],[0.06145833333333333,-0.08518518518518518],[0.06145833333333333,-0.08518518518518518],[0.06145833333333333,-0.08518518518518518],[0.06145833333333333,-0.08518518518518518],[0.06145833333333333,-0.08518518518518518],[0.06145833333333333,-0.08518518518518518],[0.06145833333333333,-0.08518518518518518],[0.06145833333333333,-0.08518518518518518],[0.06145833333333333,-0.08518518518518518],[0.06145833333333333,-0.08518518518518518],[0.06145833333333333,-0.08518518518518518],[0.06145833333333333,-0.08518518518518518],[0.06145833333333333,-0.08518518518518518],[0.06145833333333333,-0.08518518518518518],[0.06145833333333333,-0.08518518518518518],[0.06145833333333333,-0.08518518518518518],[0.06145833333333333,-0.08518518518518518],[0.06145833333333333,-0.08518518518518518],[0.06145833333333333,-0.08518518518518518],[0.06145833333333333,-0.08518518518518518],[0.06145833333333333,-0.08518518518518518],[0.06145833333333333,-0.08518518518518518],[0.06145833333333333,-0.08518518518518518],[0.06145833333333333,-0.08518518518518518],[0.06145833333333333,-0.08518518518518518],[0.06145833333333333,-0.08518518518518518],[0.06145833333333333,-0.08518518518518518],[0.06145833333333333,-0.08518518518518518],[0.06145833333333333,-0.08518518518518518],[0.06145833333333333,-0.08518518518518518],[0.06145833333333333,-0.08518518518518518],[0.06145833333333333,-0.08518518518518518],[0.06145833333333333,-0.08518518518518518],[0.06145833333333333,-0.08518518518518518],[0.06145833333333333,-0.08518518518518518],[0.06145833333333333,-0.08518518518518518],[0.06145833333333333,-0.08518518518518518],[0.06145833333333333,-0.08518518518518518],[0.06145833333333333,-0.08518518518518518],[0.06145833333333333,-0.08518518518518518],[0.06145833333333333,-0.08518518518518518],[0.06145833333333333,-0.08518518518518518],[0.06145833333333333,-0.08518518518518518],[0.06145833333333333,-0.08518518518518518],[0.06145833333333333,-0.08518518518518518],[0.06145833333333333,-0.08518518518518518],[0.06145833333333333,-0.08518518518518518],[0.06145833333333333,-0.08518518518518518],[0.06145833333333333,-0.05925925925925926],[0.06145833333333333,-0.020370370370370372],[0.06145833333333333,0.027777777777777776],[0.06145833333333333,0.09814814814814815],[0.059375,0.13703703703703704],[0.051041666666666666,0.1814814814814815],[0.030208333333333334,0.24074074074074073],[0.021875,0.26666666666666666],[0.011458333333333333,0.29259259259259257],[0.007291666666666667,0.31296296296296294],[0.0020833333333333333,0.3314814814814815],[-0.0010416666666666667,0.34814814814814815],[-0.003125,0.3611111111111111],[-0.003125,0.37407407407407406],[-0.003125,0.3851851851851852],[-0.005208333333333333,0.3907407407407407],[-0.005208333333333333,0.3925925925925926],[-0.00625,0.39814814814814814],[-0.008333333333333333,0.40370370370370373],[-0.008333333333333333,0.4074074074074074],[-0.010416666666666666,0.4166666666666667],[-0.013541666666666667,0.42592592592592593],[-0.016666666666666666,0.43333333333333335],[-0.017708333333333333,0.43703703703703706],[-0.019791666666666666,0.4425925925925926],[-0.020833333333333332,0.4444444444444444],[-0.021875,0.4444444444444444],[-0.021875,0.4444444444444444],[-0.022916666666666665,0.4462962962962963],[-0.022916666666666665,0.44814814814814813],[-0.023958333333333335,0.45185185185185184],[-0.025,0.45185185185185184],[-0.025,0.45185185185185184],[-0.025,0.45185185185185184],[-0.025,0.45185185185185184],[-0.025,0.45185185185185184],[-0.026041666666666668,0.4537037037037037],[-0.026041666666666668,0.45],[-0.027083333333333334,0.4444444444444444],[-0.027083333333333334,0.4388888888888889],[-0.027083333333333334,0.42962962962962964],[-0.027083333333333334,0.4222222222222222],[-0.023958333333333335,0.4],[-0.01875,0.3851851851851852],[-0.016666666666666666,0.37777777777777777],[-0.00625,0.35185185185185186],[-0.0010416666666666667,0.34074074074074073],[0.003125,0.3314814814814815],[0.007291666666666667,0.32222222222222224],[0.010416666666666666,0.31666666666666665],[0.011458333333333333,0.3148148148148148],[0.0125,0.3148148148148148],[0.0125,0.3148148148148148],[0.0125,0.3148148148148148],[0.0125,0.3148148148148148],[0.0125,0.3148148148148148],[0.0125,0.3148148148148148],[0.0125,0.3148148148148148],[0.0125,0.3148148148148148],[0.0125,0.3148148148148148],[0.0125,0.3148148148148148],[0.0125,0.3148148148148148],[0.0125,0.3148148148148148],[0.0125,0.3148148148148148],[0.0125,0.3148148148148148],[0.0125,0.3148148148148148],[0.0125,0.3148148148148148],[0.0125,0.3148148148148148],[0.0125,0.3148148148148148],[0.0125,0.3148148148148148],[0.0125,0.3148148148148148],[0.0125,0.3148148148148148],[0.0125,0.3148148148148148],[0.0125,0.3148148148148148],[0.0125,0.3148148148148148],[0.0125,0.3148148148148148],[0.0125,0.3148148148148148],[0.0125,0.3148148148148148],[0.0125,0.3148148148148148],[0.0125,0.3148148148148148],[0.0125,0.3148148148148148],[0.0125,0.3148148148148148],[0.0125,0.3148148148148148],[0.0125,0.3148148148148148],[0.0125,0.3148148148148148],[0.0125,0.3148148148148148],[0.0125,0.3148148148148148],[0.0125,0.3148148148148148],[0.0125,0.3148148148148148],[0.0125,0.3148148148148148],[0.0125,0.3148148148148148],[0.0125,0.3148148148148148],[0.0125,0.3148148148148148],[0.0125,0.3148148148148148],[0.0125,0.3148148148148148],[0.0125,0.3148148148148148],[0.0125,0.3148148148148148],[0.0125,0.3148148148148148],[0.0125,0.3148148148148148],[0.0125,0.3148148148148148],[0.0125,0.3148148148148148],[0.0125,0.3148148148148148],[0.0125,0.3148148148148148],[0.0125,0.3148148148148148],[0.0125,0.3148148148148148],[0.0125,0.3148148148148148],[0.0125,0.3148148148148148],[0.0125,0.3148148148148148],[0.0125,0.3148148148148148],[0.0125,0.3148148148148148],[0.0125,0.3148148148148148],[0.0125,0.3148148148148148],[0.0125,0.3148148148148148],[0.0125,0.3148148148148148],[0.0125,0.3148148148148148],[0.0125,0.3148148148148148],[0.0125,0.3148148148148148],[0.0125,0.3148148148148148],[0.0125,0.3148148148148148],[0.0125,0.3148148148148148],[0.0125,0.3148148148148148],[0.0125,0.3148148148148148],[0.0125,0.3148148148148148],[0.0125,0.3148148148148148],[0.0125,0.3148148148148148],[0.0125,0.3148148148148148]]","[[-0.1342708333333333,0.3735185185185186],[-0.1342708333333333,0.3735185185185186],[-0.1078125,0.3531481481481482],[-0.1078125,0.3531481481481482],[-0.11958333333333329,0.444074074074074],[-0.11927083333333334,0.4579629629629629],[-0.05552083333333328,0.41759259259259257],[-0.059583333333333384,0.4348148148148147],[-0.06302083333333333,0.45129629629629636],[-0.043020833333333286,0.334074074074074],[-0.043020833333333286,0.334074074074074],[-0.05572916666666667,0.33277777777777784],[-0.016875000000000046,0.28129629629629627],[0.0003124999999999526,0.20425925925925917],[-0.03677083333333329,0.23481481481481473],[-0.01270833333333338,0.15648148148148147],[-0.013750000000000047,0.15129629629629637],[-0.024270833333333287,0.13833333333333342],[0.03114583333333331,0.06351851851851843],[0.05010416666666669,0.018518518518518517],[0.058124999999999954,0.051111111111111156],[0.03885416666666662,0.045740740740740825],[0.029270833333333357,-0.014074074074074116],[0.024166666666666715,-0.05611111111111113],[-0.0006250000000000236,-0.009259259259259259],[-0.04750000000000002,0.04722222222222222],[-0.05020833333333338,-0.06129629629629634],[-0.0811458333333333,-0.11222222222222226],[-0.11427083333333338,-0.19018518518518515],[-0.15552083333333327,-0.21055555555555552],[-0.16614583333333333,-0.30481481481481487],[-0.16614583333333333,-0.30481481481481487],[-0.16458333333333333,-0.325],[-0.18541666666666667,-0.31851851851851853],[-0.21479166666666671,-0.32759259259259255],[-0.16822916666666668,-0.42888888888888893],[-0.12166666666666662,-0.5301851851851852],[-0.11343749999999998,-0.5418518518518519],[-0.13093750000000004,-0.549074074074074],[-0.2015625,-0.5151851851851852],[-0.23385416666666667,-0.5570370370370371],[-0.31364583333333335,-0.5120370370370371],[-0.3697916666666667,-0.48814814814814816],[-0.4217708333333333,-0.45981481481481484],[-0.47270833333333334,-0.425],[-0.5508333333333333,-0.40425925925925926],[-0.6494791666666667,-0.41074074074074074],[-0.7219791666666667,-0.3838888888888889],[-0.7691666666666667,-0.33370370370370367],[-0.7610416666666667,-0.2975925925925926],[-0.7673958333333334,-0.2661111111111111],[-0.7394791666666667,-0.25574074074074077],[-0.7359375,-0.2838888888888889],[-0.7579166666666667,-0.3096296296296296],[-0.7339583333333334,-0.3124074074074074],[-0.7119791666666667,-0.31500000000000006],[-0.6614583333333334,-0.2742592592592593],[-0.6611458333333334,-0.2535185185185185],[-0.6861458333333333,-0.2561111111111111],[-0.7159375,-0.25759259259259265],[-0.73125,-0.2544444444444444],[-0.7303125,-0.14592592592592596],[-0.7702083333333333,-0.09870370370370372],[-0.7797916666666667,-0.0787037037037037],[-0.8293750000000001,-0.08648148148148146],[-0.8432291666666667,-0.056666666666666705],[-0.8651041666666667,-0.04296296296296305],[-0.8332291666666667,-0.023333333333333376],[-0.8116666666666668,-0.014259259259259343],[-0.7669791666666667,0.012962962962962963],[-0.7380208333333333,0.025925925925925925],[-0.7380208333333333,0.025925925925925925],[-0.7382291666666667,-0.07407407407407407],[-0.7155208333333333,-0.13351851851851856],[-0.6857291666666666,-0.14500000000000002],[-0.654375,-0.1425925925925926],[-0.6392708333333333,-0.17444444444444443],[-0.63125,-0.15777777777777777],[-0.6267708333333334,-0.1270370370370371],[-0.6135416666666667,-0.06648148148148143],[-0.6388541666666666,-0.08629629629629634],[-0.6452083333333333,-0.10777777777777775],[-0.6515625,-0.12925925925925927],[-0.5946874999999999,-0.08944444444444447],[-0.5367708333333333,-0.05648148148148148],[-0.49104166666666665,-0.01777777777777782],[-0.4664583333333333,0.02296296296296292],[-0.4205208333333334,-0.003888888888888931],[-0.3745833333333334,-0.030740740740740784],[-0.3745833333333334,-0.030740740740740784],[-0.336875,-0.09666666666666665],[-0.2820833333333333,-0.0883333333333333],[-0.2233333333333333,-0.05925925925925926],[-0.16458333333333333,-0.0301851851851851],[-0.17916666666666667,-0.03296296296296288],[-0.19375,-0.035740740740740656],[-0.1929166666666667,-0.06574074074074074],[-0.19166666666666668,-0.10499999999999998],[-0.17999999999999997,-0.09722222222222222],[-0.16833333333333336,-0.08944444444444447],[-0.15750000000000006,-0.05333333333333336],[-0.14354166666666662,-0.03037037037037033],[-0.13677083333333329,-0.012222222222222264],[-0.13145833333333337,0.010370370370370412],[-0.09927083333333328,0.018703703703703747],[-0.09927083333333328,0.018703703703703747],[-0.07104166666666671,0.01518518518518527],[-0.05447916666666662,0.03370370370370379],[-0.036145833333333384,0.03814814814814819],[-0.10104166666666667,0.0242592592592593],[-0.10593750000000005,-0.004074074074074159],[-0.10791666666666669,-0.0020370370370370794],[-0.10989583333333333,0],[-0.10270833333333336,-0.027777777777777776],[-0.057500000000000044,-0.06666666666666667],[-0.028645833333333332,-0.09444444444444444],[0.04031250000000005,-0.11481481481481481],[0.04031250000000005,-0.11481481481481481],[0.033749999999999974,-0.13759259259259263],[0.036562500000000026,-0.13425925925925927],[0.0978125000000001,-0.13759259259259263],[0.10020833333333339,-0.15314814814814812],[0.13802083333333334,-0.17611111111111116],[0.13802083333333334,-0.17611111111111116],[0.17583333333333329,-0.19907407407407407],[0.17583333333333329,-0.19907407407407407],[0.18624999999999994,-0.225],[0.1736458333333334,-0.2601851851851852],[0.13677083333333329,-0.28277777777777774],[0.13677083333333329,-0.28277777777777774],[0.06156250000000003,-0.29203703703703704],[0.06239583333333331,-0.3175925925925926],[0.06177083333333329,-0.34629629629629627],[0.06708333333333343,-0.3990740740740741],[0.07125000000000009,-0.4251851851851852],[0.07125000000000009,-0.4251851851851852],[0.02052083333333338,-0.4711111111111111],[0.02052083333333338,-0.4711111111111111],[0.013541666666666667,-0.4905555555555555],[0.013541666666666667,-0.4905555555555555],[0.0036458333333333334,-0.4722222222222222],[0.0036458333333333334,-0.4722222222222222],[-0.0003124999999999526,-0.46296296296296297],[-0.0003124999999999526,-0.46296296296296297],[0.015104166666666667,-0.5001851851851852],[0.021458333333333357,-0.4975925925925926],[0.03989583333333328,-0.4787037037037037],[0.03989583333333328,-0.4787037037037037],[0.0696875000000001,-0.4618518518518518],[0.12000000000000005,-0.462037037037037],[0.11645833333333329,-0.43037037037037035],[0.12385416666666677,-0.4057407407407408],[0.0875,-0.4075925925925926],[0.049791666666666616,-0.46814814814814815],[-0.019583333333333286,-0.42666666666666664],[-0.07177083333333331,-0.3785185185185185],[-0.08708333333333336,-0.3781481481481481],[-0.14114583333333333,-0.37537037037037035],[-0.21625000000000003,-0.3794444444444444],[-0.3151041666666667,-0.317037037037037],[-0.3745833333333334,-0.3020370370370371],[-0.3867708333333333,-0.28481481481481485],[-0.42781250000000004,-0.28944444444444445],[-0.42781250000000004,-0.28944444444444445],[-0.39958333333333335,-0.24833333333333338],[-0.42552083333333335,-0.25925925925925924],[-0.42552083333333335,-0.25925925925925924],[-0.4632291666666667,-0.19888888888888884],[-0.5126041666666666,-0.182962962962963],[-0.5273958333333334,-0.1675925925925926],[-0.5273958333333334,-0.1675925925925926],[-0.5539583333333333,-0.12888888888888894],[-0.5934375000000001,-0.09222222222222225],[-0.6184375000000001,-0.04000000000000004],[-0.6744791666666666,0.005370370370370328],[-0.6907291666666667,0.02833333333333325],[-0.75375,0.05925925925925926],[-0.7386458333333333,0.049629629629629544],[-0.7386458333333333,0.049629629629629544],[-0.7298958333333334,0.0035185185185184764],[-0.6905208333333334,0.013888888888888888],[-0.6554166666666668,0.022592592592592678],[-0.6153125,-0.012592592592592508],[-0.5622916666666666,-0.034444444444444486],[-0.5092708333333333,-0.056296296296296254],[-0.4702083333333333,-0.11351851851851855],[-0.44208333333333333,-0.1264814814814815],[-0.4117708333333333,-0.09185185185185189],[-0.42614583333333333,-0.0940740740740741],[-0.43468749999999995,-0.10388888888888893],[-0.4753125,-0.10592592592592591],[-0.5116666666666666,-0.10629629629629625],[-0.5116666666666666,-0.10629629629629625],[-0.5040625,-0.12537037037037035],[-0.4888541666666667,-0.15981481481481483],[-0.47385416666666663,-0.20777777777777776],[-0.45989583333333334,-0.24833333333333338],[-0.44593750000000004,-0.28888888888888886],[-0.45281250000000006,-0.3774074074074074],[-0.39395833333333335,-0.40777777777777774],[-0.335,-0.43796296296296294],[-0.2789583333333333,-0.4770370370370371],[-0.23697916666666666,-0.5062962962962962],[-0.23822916666666671,-0.48222222222222216],[-0.2648958333333333,-0.4838888888888889],[-0.2430208333333333,-0.4837037037037037],[-0.2413541666666667,-0.46277777777777773],[-0.23604166666666668,-0.4183333333333333],[-0.20979166666666665,-0.3675925925925926],[-0.20541666666666672,-0.3537037037037037],[-0.15895833333333337,-0.3398148148148148],[-0.1267708333333334,-0.31666666666666665],[-0.09927083333333328,-0.2638888888888889],[-0.042604166666666644,-0.2381481481481482],[-0.019687499999999976,-0.2581481481481481],[-0.022916666666666665,-0.2561111111111111],[-0.022916666666666665,-0.2561111111111111],[0.008958333333333356,-0.23537037037037042],[0.027187500000000024,-0.24351851851851852],[0.036249999999999956,-0.2616666666666667],[0.06385416666666661,-0.2607407407407408],[0.03458333333333338,-0.24592592592592594],[0.017812500000000023,-0.257962962962963],[0.014999999999999977,-0.29555555555555557],[-0.0109375,-0.32018518518518513],[0.0296875,-0.32314814814814813],[0.05791666666666669,-0.3809259259259259],[0.0626041666666667,-0.44055555555555553],[0.07729166666666672,-0.4948148148148148]]","[[-0.1342708333333333,0.3735185185185186,0.00029999999701857405],[-0.1342708333333333,0.3735185185185186,0.043299999997017835],[-0.1078125,0.3531481481481482,0.05369999999552988],[-0.1078125,0.3531481481481482,0.061499999999995225],[-0.11958333333333329,0.444074074074074,0.07799999999999585],[-0.11927083333333334,0.4579629629629629,0.0967999999970175],[-0.05552083333333328,0.41759259259259257,0.11429999999701579],[-0.059583333333333384,0.4348148148148147,0.13019999999552567],[-0.06302083333333333,0.45129629629629636,0.1473999999985054],[-0.043020833333333286,0.334074074074074,0.16619999999552704],[-0.043020833333333286,0.334074074074074,0.18499999999999517],[-0.05572916666666667,0.33277777777777784,0.19849999999999568],[-0.016875000000000046,0.28129629629629627,0.21419999999552886],[0.0003124999999999526,0.20425925925925917,0.22889999999851085],[-0.03677083333333329,0.23481481481481473,0.24469999999552527],[-0.01270833333333338,0.15648148148148147,0.2613999999985097],[-0.013750000000000047,0.15129629629629637,0.27809999999404056],[-0.024270833333333287,0.13833333333333342,0.29469999999552954],[0.03114583333333331,0.06351851851851843,0.3112999999970185],[0.05010416666666669,0.018518518518518517,0.32799999999999585],[0.058124999999999954,0.051111111111111156,0.34459999999403834],[0.03885416666666662,0.045740740740740825,0.3626999999955274],[0.029270833333333357,-0.014074074074074116,0.37879999999701397],[0.024166666666666715,-0.05611111111111113,0.3945999999940355],[-0.0006250000000000236,-0.009259259259259259,0.4131999999955269],[-0.04750000000000002,0.04722222222222222,0.42799999999999727],[-0.05020833333333338,-0.06129629629629634,0.44479999999701647],[-0.0811458333333333,-0.11222222222222226,0.4612999999970171],[-0.11427083333333338,-0.19018518518518515,0.47839999999850846],[-0.15552083333333327,-0.21055555555555552,0.4945999999940369],[-0.16614583333333333,-0.30481481481481487,0.5112999999970143],[-0.16614583333333333,-0.30481481481481487,0.5279999999999987],[-0.16458333333333333,-0.325,0.5446999999955295],[-0.18541666666666667,-0.31851851851851853,0.5621999999955278],[-0.21479166666666671,-0.32759259259259255,0.5779999999999959],[-0.16822916666666668,-0.42888888888888893,0.5973999999985082],[-0.12166666666666662,-0.5301851851851852,0.6112999999970157],[-0.11343749999999998,-0.5418518518518519,0.6282999999970187],[-0.13093750000000004,-0.549074074074074,0.6445999999940355],[-0.2015625,-0.5151851851851852,0.6614999999999966],[-0.23385416666666667,-0.5570370370370371,0.6778999999985089],[-0.31364583333333335,-0.5120370370370371,0.6945999999940398],[-0.3697916666666667,-0.48814814814814816,0.7113999999985055],[-0.4217708333333333,-0.45981481481481484,0.7278999999985061],[-0.47270833333333334,-0.425,0.7447999999970207],[-0.5508333333333333,-0.40425925925925926,0.7612999999970143],[-0.6494791666666667,-0.41074074074074074,0.7783999999985056],[-0.7219791666666667,-0.3838888888888889,0.7945999999940341],[-0.7691666666666667,-0.33370370370370367,0.8112999999970185],[-0.7610416666666667,-0.2975925925925926,0.8279999999999959],[-0.7673958333333334,-0.2661111111111111,0.8445999999940383],[-0.7394791666666667,-0.25574074074074077,0.8612999999970157],[-0.7359375,-0.2838888888888889,0.8790999999940396],[-0.7579166666666667,-0.3096296296296296,0.8947999999970193],[-0.7339583333333334,-0.3124074074074074,0.9112999999970199],[-0.7119791666666667,-0.31500000000000006,0.9279999999999973],[-0.6614583333333334,-0.2742592592592593,0.9445999999940398],[-0.6611458333333334,-0.2535185185185185,0.9612999999970171],[-0.6861458333333333,-0.2561111111111111,0.9778999999985061],[-0.7159375,-0.25759259259259265,0.9946999999955253],[-0.73125,-0.2544444444444444,1.0131999999955283],[-0.7303125,-0.14592592592592596,1.0279999999999987],[-0.7702083333333333,-0.09870370370370372,1.0446999999955295],[-0.7797916666666667,-0.0787037037037037,1.0642999999970186],[-0.8293750000000001,-0.08648148148148146,1.0779999999999959],[-0.8432291666666667,-0.056666666666666705,1.0946999999955267],[-0.8651041666666667,-0.04296296296296305,1.1114999999999995],[-0.8332291666666667,-0.023333333333333376,1.1278999999985047],[-0.8116666666666668,-0.014259259259259343,1.1446999999955239],[-0.7669791666666667,0.012962962962962963,1.1614999999999966],[-0.7380208333333333,0.025925925925925925,1.1779999999999973],[-0.7380208333333333,0.025925925925925925,1.1945999999940398],[-0.7382291666666667,-0.07407407407407407,1.211299999997017],[-0.7155208333333333,-0.13351851851851856,1.2283999999985085],[-0.6857291666666666,-0.14500000000000002,1.2446999999955253],[-0.654375,-0.1425925925925926,1.2612999999970143],[-0.6392708333333333,-0.17444444444444443,1.2779999999999987],[-0.63125,-0.15777777777777777,1.2946999999955295],[-0.6267708333333334,-0.1270370370370371,1.3111999999955302],[-0.6135416666666667,-0.06648148148148143,1.3279999999999959],[-0.6388541666666666,-0.08629629629629634,1.3445999999940383],[-0.6452083333333333,-0.10777777777777775,1.3612999999970157],[-0.6515625,-0.12925925925925927,1.3780000000000001],[-0.5946874999999999,-0.08944444444444447,1.3946999999955239],[-0.5367708333333333,-0.05648148148148148,1.41129999999702],[-0.49104166666666665,-0.01777777777777782,1.427899999998509],[-0.4664583333333333,0.02296296296296292,1.4445999999940398],[-0.4205208333333334,-0.003888888888888931,1.461299999997017],[-0.3745833333333334,-0.030740740740740784,1.4807999999970178],[-0.3745833333333334,-0.030740740740740784,1.4946999999955253],[-0.336875,-0.09666666666666665,1.5113999999985097],[-0.2820833333333333,-0.0883333333333333,1.5305999999940383],[-0.2233333333333333,-0.05925925925925926,1.5460999999940341],[-0.16458333333333333,-0.0301851851851851,1.5613999999985069],[-0.17916666666666667,-0.03296296296296288,1.5793999999985076],[-0.19375,-0.035740740740740656,1.5945999999940383],[-0.1929166666666667,-0.06574074074074074,1.6112999999970157],[-0.19166666666666668,-0.10499999999999998,1.6280000000000001],[-0.17999999999999997,-0.09722222222222222,1.6445999999940355],[-0.16833333333333336,-0.08944444444444447,1.66129999999702],[-0.15750000000000006,-0.05333333333333336,1.6779999999999973],[-0.14354166666666662,-0.03037037037037033,1.6946999999955281],[-0.13677083333333329,-0.012222222222222264,1.711299999997017],[-0.13145833333333337,0.010370370370370412,1.7304999999999993],[-0.09927083333333328,0.018703703703703747,1.7449999999999974],[-0.09927083333333328,0.018703703703703747,1.761499999999998],[-0.07104166666666671,0.01518518518518527,1.7821999999955267],[-0.05447916666666662,0.03370370370370379,1.7975999999940342],[-0.036145833333333384,0.03814814814814819,1.8129999999999953],[-0.10104166666666667,0.0242592592592593,1.8320000000000007],[-0.10593750000000005,-0.004074074074074159,1.846299999997015],[-0.10791666666666669,-0.0020370370370370794,1.862899999998504],[-0.10989583333333333,0,1.8780999999940349],[-0.10270833333333336,-0.027777777777777776,1.8990999999940357],[-0.057500000000000044,-0.06666666666666667,1.9152999999970177],[-0.028645833333333332,-0.09444444444444444,1.931999999999995],[0.04031250000000005,-0.11481481481481481,1.9506999999955283],[0.04031250000000005,-0.11481481481481481,1.961500000000001],[0.033749999999999974,-0.13759259259259263,1.9781999999955246],[0.036562500000000026,-0.13425925925925927,1.9963999999985091],[0.0978125000000001,-0.13759259259259263,2.015499999999996],[0.10020833333333339,-0.15314814814814812,2.0301999999955243],[0.13802083333333334,-0.17611111111111116,2.0448999999985062],[0.13802083333333334,-0.17611111111111116,2.0614999999999952],[0.17583333333333329,-0.19907407407407407,2.082199999995524],[0.17583333333333329,-0.19907407407407407,2.0948999999985105],[0.18624999999999994,-0.225,2.1114999999999995],[0.1736458333333334,-0.2601851851851852,2.1310000000000002],[0.13677083333333329,-0.28277777777777774,2.1485999999940404],[0.13677083333333329,-0.28277777777777774,2.16429999999702],[0.06156250000000003,-0.29203703703703704,2.1779999999999973],[0.06239583333333331,-0.3175925925925926,2.1980000000000004],[0.06177083333333329,-0.34629629629629627,2.2113999999985055],[0.06708333333333343,-0.3990740740740741,2.229099999994034],[0.07125000000000009,-0.4251851851851852,2.250599999994037],[0.07125000000000009,-0.4251851851851852,2.261499999999998],[0.02052083333333338,-0.4711111111111111,2.2778999999985103],[0.02052083333333338,-0.4711111111111111,2.294599999994034],[0.013541666666666667,-0.4905555555555555,2.3112999999970185],[0.013541666666666667,-0.4905555555555555,2.3320000000000007],[0.0036458333333333334,-0.4722222222222222,2.3448999999985105],[0.0036458333333333334,-0.4722222222222222,2.3614999999999995],[-0.0003124999999999526,-0.46296296296296297,2.3837999999970165],[-0.0003124999999999526,-0.46296296296296297,2.394699999995524],[0.015104166666666667,-0.5001851851851852,2.4114999999999966],[0.021458333333333357,-0.4975925925925926,2.4333999999985068],[0.03989583333333328,-0.4787037037037037,2.4507999999970167],[0.03989583333333328,-0.4787037037037037,2.461699999995524],[0.0696875000000001,-0.4618518518518518,2.4780999999940363],[0.12000000000000005,-0.462037037037037,2.497],[0.11645833333333329,-0.43037037037037035,2.511499999999998],[0.12385416666666677,-0.4057407407407408,2.5280999999940406],[0.0875,-0.4075925925925926,2.5446999999955295],[0.049791666666666616,-0.46814814814814815,2.5633999999985093],[-0.019583333333333286,-0.42666666666666664,2.5780999999940377],[-0.07177083333333331,-0.3785185185185185,2.5946999999955267],[-0.08708333333333336,-0.3781481481481481,2.611399999998511],[-0.14114583333333333,-0.37537037037037035,2.6278999999985047],[-0.21625000000000003,-0.3794444444444444,2.6445999999940355],[-0.3151041666666667,-0.317037037037037,2.661699999995527],[-0.3745833333333334,-0.3020370370370371,2.677899999998509],[-0.3867708333333333,-0.28481481481481485,2.6945999999940398],[-0.42781250000000004,-0.28944444444444445,2.711299999997017],[-0.42781250000000004,-0.28944444444444445,2.727899999998506],[-0.39958333333333335,-0.24833333333333338,2.7446999999955253],[-0.42552083333333335,-0.25925925925925924,2.763799999997019],[-0.42552083333333335,-0.25925925925925924,2.7779999999999987],[-0.4632291666666667,-0.19888888888888884,2.794599999994034],[-0.5126041666666666,-0.182962962962963,2.811799999997021],[-0.5273958333333334,-0.1675925925925926,2.828199999995526],[-0.5273958333333334,-0.1675925925925926,2.8445999999940383],[-0.5539583333333333,-0.12888888888888894,2.8612999999970157],[-0.5934375000000001,-0.09222222222222225,2.8788999999985094],[-0.6184375000000001,-0.04000000000000004,2.894699999995524],[-0.6744791666666666,0.005370370370370328,2.91129999999702],[-0.6907291666666667,0.02833333333333325,2.9279999999999973],[-0.75375,0.05925925925925926,2.9447999999970165],[-0.7386458333333333,0.049629629629629544,2.962799999997017],[-0.7386458333333333,0.049629629629629544,2.9779999999999944],[-0.7298958333333334,0.0035185185185184764,2.9946999999955253],[-0.6905208333333334,0.013888888888888888,3.0128999999985098],[-0.6554166666666668,0.022592592592592678,3.0278999999985103],[-0.6153125,-0.012592592592592508,3.0449999999999946],[-0.5622916666666666,-0.034444444444444486,3.0612999999970185],[-0.5092708333333333,-0.056296296296296254,3.077999999999996],[-0.4702083333333333,-0.11351851851851855,3.095199999995529],[-0.44208333333333333,-0.1264814814814815,3.1118999999985064],[-0.4117708333333333,-0.09185185185185189,3.128399999998507],[-0.42614583333333333,-0.0940740740740741,3.1460999999940356],[-0.43468749999999995,-0.10388888888888893,3.1622999999970176],[-0.4753125,-0.10592592592592591,3.180599999994037],[-0.5116666666666666,-0.10629629629629625,3.196199999995528],[-0.5116666666666666,-0.10629629629629625,3.211299999997017],[-0.5040625,-0.12537037037037035,3.2279999999999944],[-0.4888541666666667,-0.15981481481481483,3.2455],[-0.47385416666666663,-0.20777777777777776,3.261499999999998],[-0.45989583333333334,-0.24833333333333338,3.2778999999985103],[-0.44593750000000004,-0.28888888888888886,3.2946999999955295],[-0.45281250000000006,-0.3774074074074074,3.3112999999970185],[-0.39395833333333335,-0.40777777777777774,3.3278999999985075],[-0.335,-0.43796296296296294,3.3446999999955267],[-0.2789583333333333,-0.4770370370370371,3.3645999999940344],[-0.23697916666666666,-0.5062962962962962,3.3786999999955256],[-0.23822916666666671,-0.48222222222222216,3.3954999999999984],[-0.2648958333333333,-0.4838888888888889,3.4128999999985083],[-0.2430208333333333,-0.4837037037037037,3.4302999999970183],[-0.2413541666666667,-0.46277777777777773,3.444499999999998],[-0.23604166666666668,-0.4183333333333333,3.4611999999955287],[-0.20979166666666665,-0.3675925925925926,3.477899999998506],[-0.20541666666666672,-0.3537037037037037,3.4946999999955253],[-0.15895833333333337,-0.3398148148148148,3.511199999995526],[-0.1267708333333334,-0.31666666666666665,3.531500000000001],[-0.09927083333333328,-0.2638888888888889,3.5480999999940366],[-0.042604166666666644,-0.2381481481481482,3.5638999999985046],[-0.019687499999999976,-0.2581481481481481,3.579699999995526],[-0.022916666666666665,-0.2561111111111111,3.5973999999985082],[-0.022916666666666665,-0.2561111111111111,3.6111999999955273],[0.008958333333333356,-0.23537037037037042,3.6278999999985047],[0.027187500000000024,-0.24351851851851852,3.6448999999985077],[0.036249999999999956,-0.2616666666666667,3.6621999999955293],[0.06385416666666661,-0.2607407407407408,3.6784999999999997],[0.03458333333333338,-0.24592592592592594,3.6945999999940398],[0.017812500000000023,-0.257962962962963,3.713199999995524],[0.014999999999999977,-0.29555555555555557,3.7281999999955246],[-0.0109375,-0.32018518518518513,3.746399999998509],[0.0296875,-0.32314814814814813,3.7616999999955283],[0.05791666666666669,-0.3809259259259259,3.7793999999985104],[0.0626041666666667,-0.44055555555555553,3.794599999994034],[0.07729166666666672,-0.4948148148148148,3.8112999999970185]]","[0.00029999999701857405,0.043299999997017835,0.05369999999552988,0.061499999999995225,0.07799999999999585,0.0967999999970175,0.11429999999701579,0.13019999999552567,0.1473999999985054,0.16619999999552704,0.18499999999999517,0.19849999999999568,0.21419999999552886,0.22889999999851085,0.24469999999552527,0.2613999999985097,0.27809999999404056,0.29469999999552954,0.3112999999970185,0.32799999999999585,0.34459999999403834,0.3626999999955274,0.37879999999701397,0.3945999999940355,0.4131999999955269,0.42799999999999727,0.44479999999701647,0.4612999999970171,0.47839999999850846,0.4945999999940369,0.5112999999970143,0.5279999999999987,0.5446999999955295,0.5621999999955278,0.5779999999999959,0.5973999999985082,0.6112999999970157,0.6282999999970187,0.6445999999940355,0.6614999999999966,0.6778999999985089,0.6945999999940398,0.7113999999985055,0.7278999999985061,0.7447999999970207,0.7612999999970143,0.7783999999985056,0.7945999999940341,0.8112999999970185,0.8279999999999959,0.8445999999940383,0.8612999999970157,0.8790999999940396,0.8947999999970193,0.9112999999970199,0.9279999999999973,0.9445999999940398,0.9612999999970171,0.9778999999985061,0.9946999999955253,1.0131999999955283,1.0279999999999987,1.0446999999955295,1.0642999999970186,1.0779999999999959,1.0946999999955267,1.1114999999999995,1.1278999999985047,1.1446999999955239,1.1614999999999966,1.1779999999999973,1.1945999999940398,1.211299999997017,1.2283999999985085,1.2446999999955253,1.2612999999970143,1.2779999999999987,1.2946999999955295,1.3111999999955302,1.3279999999999959,1.3445999999940383,1.3612999999970157,1.3780000000000001,1.3946999999955239,1.41129999999702,1.427899999998509,1.4445999999940398,1.461299999997017,1.4807999999970178,1.4946999999955253,1.5113999999985097,1.5305999999940383,1.5460999999940341,1.5613999999985069,1.5793999999985076,1.5945999999940383,1.6112999999970157,1.6280000000000001,1.6445999999940355,1.66129999999702,1.6779999999999973,1.6946999999955281,1.711299999997017,1.7304999999999993,1.7449999999999974,1.761499999999998,1.7821999999955267,1.7975999999940342,1.8129999999999953,1.8320000000000007,1.846299999997015,1.862899999998504,1.8780999999940349,1.8990999999940357,1.9152999999970177,1.931999999999995,1.9506999999955283,1.961500000000001,1.9781999999955246,1.9963999999985091,2.015499999999996,2.0301999999955243,2.0448999999985062,2.0614999999999952,2.082199999995524,2.0948999999985105,2.1114999999999995,2.1310000000000002,2.1485999999940404,2.16429999999702,2.1779999999999973,2.1980000000000004,2.2113999999985055,2.229099999994034,2.250599999994037,2.261499999999998,2.2778999999985103,2.294599999994034,2.3112999999970185,2.3320000000000007,2.3448999999985105,2.3614999999999995,2.3837999999970165,2.394699999995524,2.4114999999999966,2.4333999999985068,2.4507999999970167,2.461699999995524,2.4780999999940363,2.497,2.511499999999998,2.5280999999940406,2.5446999999955295,2.5633999999985093,2.5780999999940377,2.5946999999955267,2.611399999998511,2.6278999999985047,2.6445999999940355,2.661699999995527,2.677899999998509,2.6945999999940398,2.711299999997017,2.727899999998506,2.7446999999955253,2.763799999997019,2.7779999999999987,2.794599999994034,2.811799999997021,2.828199999995526,2.8445999999940383,2.8612999999970157,2.8788999999985094,2.894699999995524,2.91129999999702,2.9279999999999973,2.9447999999970165,2.962799999997017,2.9779999999999944,2.9946999999955253,3.0128999999985098,3.0278999999985103,3.0449999999999946,3.0612999999970185,3.077999999999996,3.095199999995529,3.1118999999985064,3.128399999998507,3.1460999999940356,3.1622999999970176,3.180599999994037,3.196199999995528,3.211299999997017,3.2279999999999944,3.2455,3.261499999999998,3.2778999999985103,3.2946999999955295,3.3112999999970185,3.3278999999985075,3.3446999999955267,3.3645999999940344,3.3786999999955256,3.3954999999999984,3.4128999999985083,3.4302999999970183,3.444499999999998,3.4611999999955287,3.477899999998506,3.4946999999955253,3.511199999995526,3.531500000000001,3.5480999999940366,3.5638999999985046,3.579699999995526,3.5973999999985082,3.6111999999955273,3.6278999999985047,3.6448999999985077,3.6621999999955293,3.6784999999999997,3.6945999999940398,3.713199999995524,3.7281999999955246,3.746399999998509,3.7616999999955283,3.7793999999985104,3.794599999994034,3.8112999999970185]","[1733285499332,1733285499368,1733285499378,1733285499386,1733285499402,1733285499421,1733285499439,1733285499455,1733285499472,1733285499491,1733285499509,1733285499523,1733285499539,1733285499553,1733285499569,1733285499586,1733285499602,1733285499619,1733285499636,1733285499652,1733285499669,1733285499687,1733285499703,1733285499719,1733285499738,1733285499752,1733285499769,1733285499786,1733285499803,1733285499819,1733285499836,1733285499852,1733285499869,1733285499887,1733285499902,1733285499922,1733285499936,1733285499953,1733285499969,1733285499986,1733285500002,1733285500019,1733285500036,1733285500052,1733285500069,1733285500086,1733285500103,1733285500119,1733285500136,1733285500152,1733285500169,1733285500186,1733285500204,1733285500219,1733285500236,1733285500252,1733285500269,1733285500286,1733285500302,1733285500319,1733285500338,1733285500352,1733285500369,1733285500389,1733285500402,1733285500419,1733285500436,1733285500452,1733285500469,1733285500486,1733285500502,1733285500519,1733285500536,1733285500553,1733285500569,1733285500586,1733285500602,1733285500619,1733285500636,1733285500652,1733285500669,1733285500686,1733285500702,1733285500719,1733285500736,1733285500752,1733285500769,1733285500786,1733285500805,1733285500819,1733285500836,1733285500855,1733285500871,1733285500886,1733285500904,1733285500919,1733285500936,1733285500952,1733285500969,1733285500986,1733285501002,1733285501019,1733285501036,1733285501055,1733285501069,1733285501086,1733285501107,1733285501122,1733285501137,1733285501156,1733285501171,1733285501187,1733285501203,1733285501223,1733285501240,1733285501256,1733285501275,1733285501286,1733285501303,1733285501321,1733285501340,1733285501355,1733285501369,1733285501386,1733285501407,1733285501419,1733285501436,1733285501455,1733285501473,1733285501489,1733285501502,1733285501522,1733285501536,1733285501554,1733285501575,1733285501586,1733285501602,1733285501619,1733285501636,1733285501657,1733285501670,1733285501687,1733285501709,1733285501720,1733285501737,1733285501758,1733285501776,1733285501787,1733285501803,1733285501822,1733285501837,1733285501853,1733285501870,1733285501888,1733285501903,1733285501920,1733285501936,1733285501953,1733285501970,1733285501987,1733285502003,1733285502020,1733285502036,1733285502053,1733285502070,1733285502089,1733285502103,1733285502120,1733285502137,1733285502153,1733285502170,1733285502186,1733285502204,1733285502220,1733285502236,1733285502253,1733285502270,1733285502288,1733285502303,1733285502320,1733285502338,1733285502353,1733285502370,1733285502386,1733285502403,1733285502420,1733285502437,1733285502453,1733285502471,1733285502487,1733285502506,1733285502521,1733285502536,1733285502553,1733285502571,1733285502587,1733285502603,1733285502620,1733285502636,1733285502653,1733285502670,1733285502690,1733285502704,1733285502721,1733285502738,1733285502755,1733285502770,1733285502786,1733285502803,1733285502820,1733285502836,1733285502857,1733285502873,1733285502889,1733285502905,1733285502922,1733285502936,1733285502953,1733285502970,1733285502987,1733285503004,1733285503020,1733285503038,1733285503053,1733285503072,1733285503087,1733285503105,1733285503120,1733285503136]","[[831.1,741.7],[831.1,741.7],[856.5,730.7],[856.5,730.7],[845.2,779.8],[845.5,787.3],[906.7,765.5],[902.8,774.8],[899.5,783.7],[918.7,720.4],[918.7,720.4],[906.5,719.7],[943.8,691.9],[960.3,650.3],[924.7,666.8],[947.8,624.5],[946.8,621.7],[936.7,614.7],[989.9,574.3],[1008.1,550],[1015.8,567.6],[997.3,564.7],[988.1,532.4],[983.2,509.7],[959.4,535],[914.4,565.5],[911.8,506.9],[882.1,479.4],[850.3,437.3],[810.7,426.3],[800.5,375.4],[800.5,375.4],[802,364.5],[782,368],[753.8,363.1],[798.5,308.4],[843.2,253.7],[851.1,247.4],[834.3,243.5],[766.5,261.8],[735.5,239.2],[658.9,263.5],[605,276.4],[555.1,291.7],[506.2,310.5],[431.2,321.7],[336.5,318.2],[266.9,332.7],[221.6,359.8],[229.4,379.3],[223.3,396.3],[250.1,401.9],[253.5,386.7],[232.4,372.8],[255.4,371.3],[276.5,369.9],[325,391.9],[325.3,403.1],[301.3,401.7],[272.7,400.9],[258,402.6],[258.9,461.2],[220.6,486.7],[211.4,497.5],[163.8,493.3],[150.5,509.4],[129.5,516.8],[160.1,527.4],[180.8,532.3],[223.7,547],[251.5,554],[251.5,554],[251.3,500],[273.1,467.9],[301.7,461.7],[331.8,463],[346.3,445.8],[354,454.8],[358.3,471.4],[371,504.1],[346.7,493.4],[340.6,481.8],[334.5,470.2],[389.1,491.7],[444.7,509.5],[488.6,530.4],[512.2,552.4],[556.3,537.9],[600.4,523.4],[600.4,523.4],[636.6,487.8],[689.2,492.3],[745.6,508],[802,523.7],[788,522.2],[774,520.7],[774.8,504.5],[776,483.3],[787.2,487.5],[798.4,491.7],[808.8,511.2],[822.2,523.6],[828.7,533.4],[833.8,545.6],[864.7,550.1],[864.7,550.1],[891.8,548.2],[907.7,558.2],[925.3,560.6],[863,553.1],[858.3,537.8],[856.4,538.9],[854.5,540],[861.4,525],[904.8,504],[932.5,489],[998.7,478],[998.7,478],[992.4,465.7],[995.1,467.5],[1053.9,465.7],[1056.2,457.3],[1092.5,444.9],[1092.5,444.9],[1128.8,432.5],[1128.8,432.5],[1138.8,418.5],[1126.7,399.5],[1091.3,387.3],[1091.3,387.3],[1019.1,382.3],[1019.9,368.5],[1019.3,353],[1024.4,324.5],[1028.4,310.4],[1028.4,310.4],[979.7,285.6],[979.7,285.6],[973,275.1],[973,275.1],[963.5,285],[963.5,285],[959.7,290],[959.7,290],[974.5,269.9],[980.6,271.3],[998.3,281.5],[998.3,281.5],[1026.9,290.6],[1075.2,290.5],[1071.8,307.6],[1078.9,320.9],[1044,319.9],[1007.8,287.2],[941.2,309.6],[891.1,335.6],[876.4,335.8],[824.5,337.3],[752.4,335.1],[657.5,368.8],[600.4,376.9],[588.7,386.2],[549.3,383.7],[549.3,383.7],[576.4,405.9],[551.5,400],[551.5,400],[515.3,432.6],[467.9,441.2],[453.7,449.5],[453.7,449.5],[428.2,470.4],[390.3,490.2],[366.3,518.4],[312.5,542.9],[296.9,555.3],[236.4,572],[250.9,566.8],[250.9,566.8],[259.3,541.9],[297.1,547.5],[330.8,552.2],[369.3,533.2],[420.2,521.4],[471.1,509.6],[508.6,478.7],[535.6,471.7],[564.7,490.4],[550.9,489.2],[542.7,483.9],[503.7,482.8],[468.8,482.6],[468.8,482.6],[476.1,472.3],[490.7,453.7],[505.1,427.8],[518.5,405.9],[531.9,384],[525.3,336.2],[581.8,319.8],[638.4,303.5],[692.2,282.4],[732.5,266.6],[731.3,279.6],[705.7,278.7],[726.7,278.8],[728.3,290.1],[733.4,314.1],[758.6,341.5],[762.8,349],[807.4,356.5],[838.3,369],[864.7,397.5],[919.1,411.4],[941.1,400.6],[938,401.7],[938,401.7],[968.6,412.9],[986.1,408.5],[994.8,398.7],[1021.3,399.2],[993.2,407.2],[977.1,400.7],[974.4,380.4],[949.5,367.1],[988.5,365.5],[1015.6,334.3],[1020.1,302.1],[1034.2,272.8]]","[0,0.3527331528]","[0.3527331528,0.3527331528]","[-0.3527331528,-0.3527331528]","[-0.3527331528,0]","[0,-0.3527331528]","[0.3527331528,-0.3527331528]","[0,0]","[0.3527331528,0]",0,0,0,0,1,3,Tablet,11,9,9,1
,,,,,,,,,,,,,,,,,,,08,001,2024-12-04_12h10.57.905,Attention_exp_legacy,2023.1.0,Win32,59.88023952,,,,,,,,,,,[0.007291666666666667],[0.3148148148148148],[1],[0],[0],[2.4122000000029757],"[""Option1_label""]",Option1_label,2,3.4142,"[[0.007291666666666667,0.3148148148148148],[0.007291666666666667,0.3148148148148148],[0.007291666666666667,0.3148148148148148],[0.007291666666666667,0.3148148148148148],[0.007291666666666667,0.3148148148148148],[0.007291666666666667,0.3148148148148148],[0.007291666666666667,0.3148148148148148],[0.007291666666666667,0.3148148148148148],[0.007291666666666667,0.3148148148148148],[0.007291666666666667,0.3148148148148148],[0.007291666666666667,0.3148148148148148],[0.007291666666666667,0.3148148148148148],[0.007291666666666667,0.3148148148148148],[0.007291666666666667,0.3148148148148148],[0.007291666666666667,0.3148148148148148],[0.007291666666666667,0.3148148148148148],[0.007291666666666667,0.3148148148148148],[0.007291666666666667,0.3148148148148148],[0.007291666666666667,0.3148148148148148],[0.007291666666666667,0.3148148148148148],[0.007291666666666667,0.3148148148148148],[0.007291666666666667,0.3148148148148148],[0.007291666666666667,0.3148148148148148],[0.007291666666666667,0.3148148148148148],[0.007291666666666667,0.3148148148148148],[0.007291666666666667,0.3148148148148148],[0.007291666666666667,0.3148148148148148],[0.007291666666666667,0.3148148148148148],[0.007291666666666667,0.3148148148148148],[0.007291666666666667,0.3148148148148148],[0.007291666666666667,0.3148148148148148],[0.007291666666666667,0.3148148148148148],[0.007291666666666667,0.3148148148148148],[0.007291666666666667,0.3148148148148148],[0.007291666666666667,0.3148148148148148],[0.007291666666666667,0.3148148148148148],[0.007291666666666667,0.3148148148148148],[0.007291666666666667,0.3148148148148148],[0.007291666666666667,0.3148148148148148],[0.007291666666666667,0.3148148148148148],[0.007291666666666667,0.3148148148148148],[0.007291666666666667,0.3148148148148148],[0.007291666666666667,0.3148148148148148],[0.007291666666666667,0.3148148148148148],[0.007291666666666667,0.3148148148148148],[0.007291666666666667,0.3148148148148148],[0.007291666666666667,0.3148148148148148],[0.007291666666666667,0.3148148148148148],[0.007291666666666667,0.3148148148148148],[0.007291666666666667,0.3148148148148148],[0.007291666666666667,0.3148148148148148],[0.007291666666666667,0.3148148148148148],[0.007291666666666667,0.3148148148148148],[0.007291666666666667,0.3148148148148148],[0.007291666666666667,0.3148148148148148],[0.007291666666666667,0.3148148148148148],[0.007291666666666667,0.3148148148148148],[0.007291666666666667,0.3148148148148148],[0.007291666666666667,0.3148148148148148],[0.007291666666666667,0.3148148148148148],[0.007291666666666667,0.3148148148148148],[0.007291666666666667,0.3148148148148148],[0.007291666666666667,0.3148148148148148],[0.007291666666666667,0.3148148148148148],[0.007291666666666667,0.3148148148148148],[0.007291666666666667,0.3148148148148148],[0.007291666666666667,0.3148148148148148],[0.007291666666666667,0.3148148148148148],[0.007291666666666667,0.3148148148148148],[0.007291666666666667,0.3148148148148148],[0.007291666666666667,0.3148148148148148],[0.007291666666666667,0.3148148148148148],[0.007291666666666667,0.3148148148148148],[0.007291666666666667,0.3148148148148148],[0.007291666666666667,0.3148148148148148],[0.007291666666666667,0.3148148148148148],[0.007291666666666667,0.3148148148148148],[0.007291666666666667,0.3148148148148148],[0.007291666666666667,0.3148148148148148],[0.007291666666666667,0.3148148148148148],[0.007291666666666667,0.3148148148148148],[0.007291666666666667,0.3148148148148148],[0.007291666666666667,0.3148148148148148],[0.007291666666666667,0.3148148148148148],[0.007291666666666667,0.3148148148148148],[0.007291666666666667,0.3148148148148148],[0.007291666666666667,0.3148148148148148],[0.007291666666666667,0.3148148148148148],[0.007291666666666667,0.3148148148148148],[0.007291666666666667,0.3148148148148148],[0.007291666666666667,0.3148148148148148],[0.007291666666666667,0.3148148148148148],[0.007291666666666667,0.3148148148148148],[0.007291666666666667,0.3148148148148148],[0.007291666666666667,0.3148148148148148],[0.007291666666666667,0.3148148148148148],[0.007291666666666667,0.3148148148148148],[0.007291666666666667,0.3148148148148148],[0.007291666666666667,0.3148148148148148],[0.007291666666666667,0.3148148148148148],[0.007291666666666667,0.3148148148148148],[0.007291666666666667,0.3148148148148148],[0.007291666666666667,0.3148148148148148],[0.007291666666666667,0.3148148148148148],[0.007291666666666667,0.3148148148148148],[0.007291666666666667,0.3148148148148148],[0.007291666666666667,0.3148148148148148],[0.007291666666666667,0.3148148148148148],[0.007291666666666667,0.3148148148148148],[0.007291666666666667,0.3148148148148148],[0.007291666666666667,0.3148148148148148],[0.007291666666666667,0.3148148148148148],[0.007291666666666667,0.3148148148148148],[0.007291666666666667,0.3148148148148148],[0.007291666666666667,0.3148148148148148],[0.007291666666666667,0.3148148148148148],[0.007291666666666667,0.3148148148148148],[0.007291666666666667,0.3148148148148148],[0.007291666666666667,0.3148148148148148],[0.007291666666666667,0.3148148148148148],[0.007291666666666667,0.3148148148148148],[0.007291666666666667,0.3148148148148148],[0.007291666666666667,0.3148148148148148],[0.007291666666666667,0.3148148148148148],[0.007291666666666667,0.3148148148148148],[0.007291666666666667,0.3148148148148148],[0.007291666666666667,0.3148148148148148],[0.007291666666666667,0.3148148148148148],[0.007291666666666667,0.3148148148148148],[0.007291666666666667,0.3148148148148148],[0.007291666666666667,0.3148148148148148],[0.007291666666666667,0.3148148148148148],[0.007291666666666667,0.3148148148148148],[0.007291666666666667,0.3148148148148148],[0.007291666666666667,0.3148148148148148],[0.007291666666666667,0.3148148148148148],[0.007291666666666667,0.3148148148148148],[0.007291666666666667,0.3148148148148148],[0.007291666666666667,0.3148148148148148],[0.007291666666666667,0.3148148148148148],[0.007291666666666667,0.3148148148148148],[0.007291666666666667,0.3148148148148148],[0.007291666666666667,0.3148148148148148],[0.007291666666666667,0.3148148148148148],[0.007291666666666667,0.3148148148148148],[0.007291666666666667,0.3148148148148148],[0.007291666666666667,0.3148148148148148],[0.007291666666666667,0.3148148148148148],[0.007291666666666667,0.3148148148148148],[0.007291666666666667,0.3148148148148148],[0.007291666666666667,0.3148148148148148],[0.007291666666666667,0.3148148148148148],[0.007291666666666667,0.3148148148148148],[0.007291666666666667,0.3148148148148148],[0.007291666666666667,0.3148148148148148],[0.007291666666666667,0.3148148148148148],[0.007291666666666667,0.3148148148148148],[0.007291666666666667,0.3148148148148148],[0.007291666666666667,0.3148148148148148],[0.007291666666666667,0.3148148148148148],[0.007291666666666667,0.3148148148148148],[0.007291666666666667,0.3148148148148148],[0.007291666666666667,0.3148148148148148],[0.007291666666666667,0.3148148148148148],[0.007291666666666667,0.3148148148148148],[0.007291666666666667,0.3148148148148148],[0.007291666666666667,0.3148148148148148],[0.007291666666666667,0.3148148148148148],[0.007291666666666667,0.3148148148148148],[0.007291666666666667,0.3148148148148148],[0.007291666666666667,0.3148148148148148],[0.007291666666666667,0.3148148148148148],[0.007291666666666667,0.3148148148148148],[0.007291666666666667,0.3148148148148148],[0.007291666666666667,0.3148148148148148],[0.007291666666666667,0.3148148148148148],[0.007291666666666667,0.3148148148148148],[0.007291666666666667,0.3148148148148148],[0.007291666666666667,0.3148148148148148],[0.007291666666666667,0.3148148148148148],[0.007291666666666667,0.3148148148148148],[0.007291666666666667,0.3148148148148148],[0.007291666666666667,0.3148148148148148],[0.007291666666666667,0.3148148148148148],[0.007291666666666667,0.3148148148148148],[0.007291666666666667,0.3148148148148148],[0.007291666666666667,0.3148148148148148],[0.007291666666666667,0.3148148148148148],[0.007291666666666667,0.3148148148148148],[0.007291666666666667,0.3148148148148148],[0.007291666666666667,0.3148148148148148],[0.007291666666666667,0.3148148148148148],[0.007291666666666667,0.3148148148148148],[0.007291666666666667,0.3148148148148148],[0.007291666666666667,0.3148148148148148],[0.007291666666666667,0.3148148148148148],[0.007291666666666667,0.3148148148148148],[0.007291666666666667,0.3148148148148148],[0.007291666666666667,0.3148148148148148],[0.007291666666666667,0.3148148148148148],[0.007291666666666667,0.3148148148148148],[0.007291666666666667,0.3148148148148148],[0.007291666666666667,0.3148148148148148],[0.007291666666666667,0.3148148148148148],[0.007291666666666667,0.3148148148148148],[0.007291666666666667,0.3148148148148148]]","[[0.10031249999999996,-0.22851851851851848],[0.11802083333333328,-0.2051851851851852],[0.12895833333333329,-0.17185185185185187],[0.14489583333333325,-0.18555555555555553],[0.14489583333333325,-0.18555555555555553],[0.15760416666666663,-0.16574074074074074],[0.15760416666666663,-0.16574074074074074],[0.17833333333333337,-0.16277777777777774],[0.17833333333333337,-0.16277777777777774],[0.20302083333333343,-0.16259259259259262],[0.20302083333333343,-0.16259259259259262],[0.225,-0.1425925925925926],[0.23187499999999991,-0.19037037037037038],[0.23187499999999991,-0.19037037037037038],[0.23083333333333325,-0.22777777777777777],[0.18916666666666657,-0.18925925925925924],[0.18916666666666657,-0.18925925925925924],[0.13031249999999991,-0.16259259259259262],[0.0775000000000001,-0.14814814814814814],[0.01583333333333338,-0.13870370370370366],[0.009375,-0.11925925925925922],[0.009375,-0.11925925925925922],[0.002916666666666619,-0.09981481481481477],[-0.01083333333333331,-0.09203703703703701],[-0.0036458333333333334,-0.10833333333333334],[-0.0037500000000000237,-0.04296296296296305],[-0.01270833333333338,-0.000925925925925926],[-0.010625000000000048,-0.011296296296296339],[-0.011874999999999976,-0.01722222222222214],[-0.01552083333333331,-0.03740740740740749],[0.0020833333333333333,-0.03166666666666671],[0.0203125,-0.06518518518518517],[0.03854166666666667,-0.09870370370370372],[0.04041666666666662,-0.11629629629629631],[0.049687500000000044,-0.11944444444444445],[0.05427083333333336,-0.14018518518518516],[0.08239583333333324,-0.14833333333333337],[0.10812499999999996,-0.152962962962963],[0.13354166666666673,-0.1742592592592593],[0.13354166666666673,-0.1742592592592593],[0.22364583333333338,-0.20870370370370367],[0.22802083333333342,-0.21388888888888888],[0.22770833333333323,-0.19592592592592595],[0.22229166666666675,-0.19462962962962968],[0.2275000000000001,-0.20240740740740742],[0.22625000000000003,-0.21277777777777773],[0.23666666666666672,-0.22240740740740744],[0.24427083333333333,-0.2222222222222222],[0.23312499999999994,-0.2337037037037037],[0.2428124999999999,-0.22111111111111106],[0.14093749999999997,-0.17074074074074072],[0.11322916666666671,-0.16648148148148145],[0.06354166666666666,-0.17907407407407405],[0.02333333333333331,-0.14370370370370375],[-0.030208333333333334,-0.08611111111111111],[-0.030208333333333334,-0.08611111111111111],[-0.08947916666666664,-0.05481481481481486],[-0.12083333333333333,-0.04759259259259268],[-0.15614583333333332,-0.04981481481481477],[-0.17000000000000004,-0.04333333333333329],[-0.18385416666666668,-0.03685185185185181],[-0.11937500000000002,-0.04592592592592584],[-0.11937500000000002,-0.04592592592592584],[-0.05572916666666667,-0.05907407407407403],[0.021875,-0.06018518518518518],[0.09645833333333324,-0.06407407407407412],[0.17218749999999997,-0.11092592592592589],[0.17218749999999997,-0.11092592592592589],[0.23624999999999996,-0.12370370370370372],[0.2696875000000001,-0.11796296296296294],[0.3334374999999999,-0.16074074074074077],[0.39052083333333343,-0.20777777777777776],[0.4174999999999999,-0.21425925925925923],[0.40645833333333337,-0.20833333333333334],[0.3862499999999999,-0.19370370370370374],[0.37374999999999997,-0.18314814814814812],[0.3564583333333334,-0.19185185185185188],[0.3844791666666666,-0.21592592592592597],[0.42989583333333337,-0.2477777777777778],[0.47062499999999996,-0.297037037037037],[0.47062499999999996,-0.297037037037037],[0.48104166666666665,-0.2977777777777778],[0.44656250000000003,-0.23574074074074075],[0.4431250000000001,-0.22092592592592594],[0.4396874999999999,-0.20611111111111113],[0.4644791666666668,-0.23185185185185184],[0.48166666666666674,-0.26481481481481484],[0.48166666666666674,-0.26481481481481484],[0.46854166666666663,-0.21851851851851853],[0.4331249999999999,-0.2081481481481481],[0.3977083333333333,-0.1977777777777778],[0.3648958333333333,-0.17407407407407408],[0.3337500000000001,-0.17037037037037037],[0.3474999999999999,-0.2294444444444444],[0.34916666666666674,-0.25018518518518523],[0.3508333333333333,-0.27092592592592596],[0.3133333333333333,-0.23425925925925925],[0.29145833333333326,-0.21481481481481482],[0.31281249999999994,-0.2553703703703703],[0.3054166666666667,-0.21814814814814817],[0.3067708333333333,-0.21240740740740738],[0.30614583333333345,-0.15722222222222218],[0.3038541666666667,-0.08203703703703706],[0.2982291666666666,-0.025185185185185227],[0.2982291666666666,-0.025185185185185227],[0.29812500000000003,-0.0022222222222223064],[0.3008333333333333,0.020555555555555598],[0.31927083333333334,-0.012592592592592508],[0.32874999999999993,0.03555555555555564],[0.31906249999999997,0.0448148148148149],[0.3120833333333332,0.03425925925925926],[0.27677083333333335,0.019999999999999917],[0.2516666666666666,0.04222222222222214],[0.17135416666666667,-0.0020370370370370794],[0.08552083333333324,0.008148148148148106],[0.005312500000000024,0.020555555555555598],[-0.04645833333333336,0.024814814814814772],[-0.04645833333333336,0.024814814814814772],[-0.09479166666666666,0.05722222222222218],[-0.15833333333333333,0.038703703703703664],[-0.19489583333333335,0.056296296296296254],[-0.2273958333333333,0.09425925925925922],[-0.24343750000000006,0.1300000000000001],[-0.27291666666666664,0.08055555555555556],[-0.25281250000000005,0.0911111111111112],[-0.22385416666666663,0.06555555555555552],[-0.19489583333333335,0.04000000000000004],[-0.18802083333333333,0.027962962962963005],[-0.18802083333333333,0.027962962962963005],[-0.18020833333333333,0.018148148148148063],[-0.16572916666666668,-0.013703703703703662],[-0.16531250000000006,-0.021481481481481525],[-0.1648958333333333,-0.029259259259259176],[-0.19333333333333336,-0.07537037037037035],[-0.20958333333333337,-0.10185185185185185],[-0.21687500000000004,-0.1316666666666667],[-0.20687500000000003,-0.11222222222222226],[-0.1892708333333334,-0.09074074074074075],[-0.19166666666666668,-0.06129629629629634],[-0.19406249999999994,-0.03185185185185194],[-0.1967708333333333,-0.007592592592592635],[-0.1967708333333333,-0.007592592592592635],[-0.20270833333333335,-0.03314814814814811],[-0.21104166666666668,-0.025370370370370456],[-0.1454166666666667,0.005000000000000084],[-0.09197916666666663,0.01574074074074074],[-0.03979166666666671,0.04740740740740745],[-0.0048958333333333805,0.029814814814814856],[0.015416666666666618,-0.016666666666666666],[0.04677083333333331,-0.07574074074074069],[0.078125,-0.13481481481481483],[0.1359375,-0.13499999999999995],[0.19375,-0.13518518518518519],[0.2543750000000001,-0.16277777777777774],[0.2543750000000001,-0.16277777777777774],[0.2768749999999999,-0.15092592592592594],[0.2846874999999999,-0.12259259259259257],[0.2934375000000001,-0.12259259259259257],[0.28364583333333326,-0.14296296296296293],[0.28229166666666666,-0.147037037037037],[0.28072916666666664,-0.15166666666666662],[0.2908333333333334,-0.15499999999999997],[0.2525000000000001,-0.18425925925925926],[0.2525000000000001,-0.18425925925925926],[0.23927083333333338,-0.20925925925925926],[0.21729166666666658,-0.21777777777777782],[0.21729166666666658,-0.21777777777777782],[0.18552083333333325,-0.22481481481481477],[0.18489583333333334,-0.2490740740740741],[0.178125,-0.26296296296296295],[0.1678124999999999,-0.24685185185185188],[0.1560416666666666,-0.22018518518518515],[0.1560416666666666,-0.22018518518518515],[0.11166666666666672,-0.23148148148148148],[0.11166666666666672,-0.23148148148148148],[0.05562499999999997,-0.24407407407407408],[0.05562499999999997,-0.24407407407407408],[0.03156249999999995,-0.23777777777777773],[0.03156249999999995,-0.23777777777777773],[-0.012187500000000047,-0.2494444444444444],[-0.012187500000000047,-0.2494444444444444],[-0.06135416666666664,-0.2770370370370371],[-0.06135416666666664,-0.2770370370370371],[-0.06739583333333338,-0.30999999999999994],[-0.11791666666666671,-0.28648148148148145],[-0.15989583333333332,-0.2788888888888889],[-0.17770833333333336,-0.2764814814814815],[-0.1955208333333334,-0.2740740740740741],[-0.19458333333333327,-0.2485185185185185],[-0.19364583333333332,-0.22296296296296292],[-0.18624999999999994,-0.19444444444444445],[-0.1842708333333333,-0.1522222222222222],[-0.19135416666666671,-0.13555555555555554],[-0.23562500000000006,-0.10129629629629627],[-0.21979166666666666,-0.12166666666666665],[-0.209375,-0.11925925925925922],[-0.209375,-0.11925925925925922],[-0.18406250000000005,-0.12018518518518514],[-0.1704166666666667,-0.09203703703703701],[-0.14270833333333333,-0.021481481481481525],[-0.14270833333333333,-0.021481481481481525],[-0.12468750000000005,0.03740740740740749],[-0.11395833333333331,0.057037037037036956],[-0.11395833333333331,0.057037037037036956],[-0.14375,0.05018518518518523],[-0.1125,0.09592592592592585]]","[[0.10031249999999996,-0.22851851851851848,0.00010000000148835397],[0.11802083333333328,-0.2051851851851852,0.017499999999998295],[0.12895833333333329,-0.17185185185185187,0.03339999999850818],[0.14489583333333325,-0.18555555555555553,0.04949999999999477],[0.14489583333333325,-0.18555555555555553,0.0632000000029791],[0.15760416666666663,-0.16574074074074074,0.07979999999701448],[0.15760416666666663,-0.16574074074074074,0.09660000000148727],[0.17833333333333337,-0.16277777777777774,0.1131000000014879],[0.17833333333333337,-0.16277777777777774,0.12979999999701874],[0.20302083333333343,-0.16259259259259262,0.14649999999999608],[0.20302083333333343,-0.16259259259259262,0.16310000000148506],[0.225,-0.1425925925925926,0.17989999999850426],[0.23187499999999991,-0.19037037037037038,0.20339999999850988],[0.23187499999999991,-0.19037037037037038,0.21310000000148932],[0.23083333333333325,-0.22777777777777777,0.22979999999701306],[0.18916666666666657,-0.18925925925925924,0.25479999999701874],[0.18916666666666657,-0.18925925925925924,0.26320000000297483],[0.13031249999999991,-0.16259259259259262,0.2798999999985057],[0.0775000000000001,-0.14814814814814814,0.29679999999701323],[0.01583333333333338,-0.13870370370370366,0.31310000000148364],[0.009375,-0.11925925925925922,0.3338999999985077],[0.009375,-0.11925925925925922,0.3464999999999989],[0.002916666666666619,-0.09981481481481477,0.36320000000297625],[-0.01083333333333331,-0.09203703703703701,0.37979999999701874],[-0.0036458333333333334,-0.10833333333333334,0.3963999999985077],[-0.0037500000000000237,-0.04296296296296305,0.41339999999850363],[-0.01270833333333338,-0.000925925925925926,0.4302000000029764],[-0.010625000000000048,-0.011296296296296339,0.4466000000014887],[-0.011874999999999976,-0.01722222222222214,0.4632000000029777],[-0.01552083333333331,-0.03740740740740749,0.4797000000029783],[0.0020833333333333333,-0.03166666666666671,0.4964999999999975],[0.0203125,-0.06518518518518517,0.5147000000029749],[0.03854166666666667,-0.09870370370370372,0.5313999999985057],[0.04041666666666662,-0.11629629629629631,0.5497999999970133],[0.049687500000000044,-0.11944444444444445,0.5668999999985047],[0.05427083333333336,-0.14018518518518516,0.5836000000014891],[0.08239583333333324,-0.14833333333333337,0.5981000000014873],[0.10812499999999996,-0.152962962962963,0.6138999999985089],[0.13354166666666673,-0.1742592592592593,0.6328999999985072],[0.13354166666666673,-0.1742592592592593,0.6463999999985077],[0.22364583333333338,-0.20870370370370367,0.6632000000029734],[0.22802083333333342,-0.21388888888888888,0.6806000000014834],[0.22770833333333323,-0.19592592592592595,0.6963999999985049],[0.22229166666666675,-0.19462962962962968,0.7131000000014893],[0.2275000000000001,-0.20240740740740742,0.7306000000014876],[0.22625000000000003,-0.21277777777777773,0.7506000000014836],[0.23666666666666672,-0.22240740740740744,0.7672000000029797],[0.24427083333333333,-0.2222222222222222,0.783200000002978],[0.23312499999999994,-0.2337037037037037,0.7987999999970157],[0.2428124999999999,-0.22111111111111106,0.8138999999985046],[0.14093749999999997,-0.17074074074074072,0.830600000001489],[0.11322916666666671,-0.16648148148148145,0.8463999999985035],[0.06354166666666666,-0.17907407407407405,0.8629999999999995],[0.02333333333333331,-0.14370370370370375,0.8799999999999955],[-0.030208333333333334,-0.08611111111111111,0.8963999999985077],[-0.030208333333333334,-0.08611111111111111,0.9131000000014851],[-0.08947916666666664,-0.05481481481481486,0.9297999999970159],[-0.12083333333333333,-0.04759259259259268,0.9497000000029772],[-0.15614583333333332,-0.04981481481481477,0.9664999999999964],[-0.17000000000000004,-0.04333333333333329,0.9822999999970179],[-0.18385416666666668,-0.03685185185185181,0.999200000002979],[-0.11937500000000002,-0.04592592592592584,1.0162999999970168],[-0.11937500000000002,-0.04592592592592584,1.0302999999970197],[-0.05572916666666667,-0.05907407407407403,1.0464999999999947],[0.021875,-0.06018518518518518,1.0631000000014836],[0.09645833333333324,-0.06407407407407412,1.0797999999970145],[0.17218749999999997,-0.11092592592592589,1.096499999999999],[0.17218749999999997,-0.11092592592592589,1.1132000000029763],[0.23624999999999996,-0.12370370370370372,1.1297999999970187],[0.2696875000000001,-0.11796296296296294,1.146899999998503],[0.3334374999999999,-0.16074074074074077,1.163100000001485],[0.39052083333333343,-0.20777777777777776,1.179799999997016],[0.4174999999999999,-0.21425925925925923,1.1997000000029772],[0.40645833333333337,-0.20833333333333334,1.2131000000014893],[0.3862499999999999,-0.19370370370370374,1.2332000000029737],[0.37374999999999997,-0.18314814814814812,1.2497999999970162],[0.3564583333333334,-0.19185185185185188,1.2637000000029772],[0.3844791666666666,-0.21592592592592597,1.2797999999970173],[0.42989583333333337,-0.2477777777777778,1.2963999999985063],[0.47062499999999996,-0.297037037037037,1.3129999999999953],[0.47062499999999996,-0.297037037037037,1.3297999999970145],[0.48104166666666665,-0.2977777777777778,1.346499999999999],[0.44656250000000003,-0.23574074074074075,1.3629999999999995],[0.4431250000000001,-0.22092592592592594,1.3797999999970187],[0.4396874999999999,-0.20611111111111113,1.3963999999985077],[0.4644791666666668,-0.23185185185185184,1.4157000000029782],[0.48166666666666674,-0.26481481481481484,1.4299999999999997],[0.48166666666666674,-0.26481481481481484,1.4464999999999932],[0.46854166666666663,-0.21851851851851853,1.4632000000029777],[0.4331249999999999,-0.2081481481481481,1.4799999999999969],[0.3977083333333333,-0.1977777777777778,1.4963999999985091],[0.3648958333333333,-0.17407407407407408,1.5131000000014865],[0.3337500000000001,-0.17037037037037037,1.5297000000029755],[0.3474999999999999,-0.2294444444444444,1.5466000000014901],[0.34916666666666674,-0.25018518518518523,1.5629999999999953],[0.3508333333333333,-0.27092592592592596,1.5797999999970145],[0.3133333333333333,-0.23425925925925925,1.5963999999985035],[0.29145833333333326,-0.21481481481481482,1.6129999999999995],[0.31281249999999994,-0.2553703703703703,1.629899999998507],[0.3054166666666667,-0.21814814814814817,1.6463999999985077],[0.3067708333333333,-0.21240740740740738,1.6629999999999967],[0.30614583333333345,-0.15722222222222218,1.679700000002974],[0.3038541666666667,-0.08203703703703706,1.6964999999999932],[0.2982291666666666,-0.025185185185185227,1.7129999999999939],[0.2982291666666666,-0.025185185185185227,1.729799999997013],[0.29812500000000003,-0.0022222222222223064,1.7464999999999975],[0.3008333333333333,0.020555555555555598,1.763399999998505],[0.31927083333333334,-0.012592592592592508,1.7797999999970173],[0.32874999999999993,0.03555555555555564,1.7964999999999947],[0.31906249999999997,0.0448148148148149,1.813200000002979],[0.3120833333333332,0.03425925925925926,1.8297999999970145],[0.27677083333333335,0.019999999999999917,1.8469999999999942],[0.2516666666666666,0.04222222222222214,1.863100000001488],[0.17135416666666667,-0.0020370370370370794,1.8823999999985048],[0.08552083333333324,0.008148148148148106,1.896499999999996],[0.005312500000000024,0.020555555555555598,1.9129999999999967],[-0.04645833333333336,0.024814814814814772,1.9324999999999974],[-0.04645833333333336,0.024814814814814772,1.9464999999999932],[-0.09479166666666666,0.05722222222222218,1.9632000000029777],[-0.15833333333333333,0.038703703703703664,1.9797000000029783],[-0.19489583333333335,0.056296296296296254,1.9964999999999975],[-0.2273958333333333,0.09425925925925922,2.012999999999998],[-0.24343750000000006,0.1300000000000001,2.0312999999970174],[-0.27291666666666664,0.08055555555555556,2.0463999999985063],[-0.25281250000000005,0.0911111111111112,2.063299999997014],[-0.22385416666666663,0.06555555555555552,2.0797000000029797],[-0.19489583333333335,0.04000000000000004,2.0963999999985035],[-0.18802083333333333,0.027962962962963005,2.1129999999999995],[-0.18802083333333333,0.027962962962963005,2.1297999999970187],[-0.18020833333333333,0.018148148148148063,2.146499999999996],[-0.16572916666666668,-0.013703703703703662,2.1648999999985037],[-0.16531250000000006,-0.021481481481481525,2.182200000002979],[-0.1648958333333333,-0.029259259259259176,2.196799999997019],[-0.19333333333333336,-0.07537037037037035,2.2132999999970195],[-0.20958333333333337,-0.10185185185185185,2.2313999999985086],[-0.21687500000000004,-0.1316666666666667,2.2489999999999952],[-0.20687500000000003,-0.11222222222222226,2.2631000000014865],[-0.1892708333333334,-0.09074074074074075,2.2797999999970173],[-0.19166666666666668,-0.06129629629629634,2.298700000002974],[-0.19406249999999994,-0.03185185185185194,2.3141000000014884],[-0.1967708333333333,-0.007592592592592635,2.332100000001489],[-0.1967708333333333,-0.007592592592592635,2.346499999999999],[-0.20270833333333335,-0.03314814814814811,2.363100000001488],[-0.21104166666666668,-0.025370370370370456,2.3814999999999955],[-0.1454166666666667,0.005000000000000084,2.3987000000029752],[-0.09197916666666663,0.01574074074074074,2.4139999999999944],[-0.03979166666666671,0.04740740740740745,2.4303999999985066],[-0.0048958333333333805,0.029814814814814856,2.4464999999999932],[0.015416666666666618,-0.016666666666666666,2.4647999999970196],[0.04677083333333331,-0.07574074074074069,2.4798999999985085],[0.078125,-0.13481481481481483,2.496399999998509],[0.1359375,-0.13499999999999995,2.5167000000029773],[0.19375,-0.13518518518518519,2.532600000001487],[0.2543750000000001,-0.16277777777777774,2.549299999997018],[0.2543750000000001,-0.16277777777777774,2.5631000000014836],[0.2768749999999999,-0.15092592592592594,2.5797999999970145],[0.2846874999999999,-0.12259259259259257,2.598700000002978],[0.2934375000000001,-0.12259259259259257,2.613299999997018],[0.28364583333333326,-0.14296296296296293,2.6297999999970187],[0.28229166666666666,-0.147037037037037,2.646499999999996],[0.28072916666666664,-0.15166666666666662,2.6662000000029735],[0.2908333333333334,-0.15499999999999997,2.6802999999970183],[0.2525000000000001,-0.18425925925925926,2.701999999999998],[0.2525000000000001,-0.18425925925925926,2.717100000001487],[0.23927083333333338,-0.20925925925925926,2.7297000000029783],[0.21729166666666658,-0.21777777777777782,2.749600000001486],[0.21729166666666658,-0.21777777777777782,2.7631000000014865],[0.18552083333333325,-0.22481481481481477,2.7797000000029755],[0.18489583333333334,-0.2490740740740741,2.79660000000149],[0.178125,-0.26296296296296295,2.8129999999999953],[0.1678124999999999,-0.24685185185185188,2.8297000000029797],[0.1560416666666666,-0.22018518518518515,2.8463999999985035],[0.1560416666666666,-0.22018518518518515,2.863100000001488],[0.11166666666666672,-0.23148148148148148,2.879700000002977],[0.11166666666666672,-0.23148148148148148,2.8963999999985077],[0.05562499999999997,-0.24407407407407408,2.913100000001485],[0.05562499999999997,-0.24407407407407408,2.929799999997016],[0.03156249999999995,-0.23777777777777773,2.9464999999999932],[0.03156249999999995,-0.23777777777777773,2.9631000000014893],[-0.012187500000000047,-0.2494444444444444,2.979799999997013],[-0.012187500000000047,-0.2494444444444444,2.9962999999970137],[-0.06135416666666664,-0.2770370370370371,3.013200000002975],[-0.06135416666666664,-0.2770370370370371,3.0297999999970173],[-0.06739583333333338,-0.30999999999999994,3.0464999999999947],[-0.11791666666666671,-0.28648148148148145,3.067600000001484],[-0.15989583333333332,-0.2788888888888889,3.0826000000014844],[-0.17770833333333336,-0.2764814814814815,3.0981000000014873],[-0.1955208333333334,-0.2740740740740741,3.1129999999999995],[-0.19458333333333327,-0.2485185185185185,3.1297999999970187],[-0.19364583333333332,-0.22296296296296292,3.1491000000014893],[-0.18624999999999994,-0.19444444444444445,3.1629999999999967],[-0.1842708333333333,-0.1522222222222222,3.1809999999999974],[-0.19135416666666671,-0.13555555555555554,3.1966000000014887],[-0.23562500000000006,-0.10129629629629627,3.2166000000014847],[-0.21979166666666666,-0.12166666666666665,3.2316000000014853],[-0.209375,-0.11925925925925922,3.246399999998509],[-0.209375,-0.11925925925925922,3.263200000002975],[-0.18406250000000005,-0.12018518518518514,3.2798999999985057],[-0.1704166666666667,-0.09203703703703701,3.2963999999985063],[-0.14270833333333333,-0.021481481481481525,3.3129999999999953],[-0.14270833333333333,-0.021481481481481525,3.3297000000029797],[-0.12468750000000005,0.03740740740740749,3.3466000000014873],[-0.11395833333333331,0.057037037037036956,3.3629999999999995],[-0.11395833333333331,0.057037037037036956,3.3797999999970187],[-0.14375,0.05018518518518523,3.396499999999996],[-0.1125,0.09592592592592585,3.414200000002978]]","[0.00010000000148835397,0.017499999999998295,0.03339999999850818,0.04949999999999477,0.0632000000029791,0.07979999999701448,0.09660000000148727,0.1131000000014879,0.12979999999701874,0.14649999999999608,0.16310000000148506,0.17989999999850426,0.20339999999850988,0.21310000000148932,0.22979999999701306,0.25479999999701874,0.26320000000297483,0.2798999999985057,0.29679999999701323,0.31310000000148364,0.3338999999985077,0.3464999999999989,0.36320000000297625,0.37979999999701874,0.3963999999985077,0.41339999999850363,0.4302000000029764,0.4466000000014887,0.4632000000029777,0.4797000000029783,0.4964999999999975,0.5147000000029749,0.5313999999985057,0.5497999999970133,0.5668999999985047,0.5836000000014891,0.5981000000014873,0.6138999999985089,0.6328999999985072,0.6463999999985077,0.6632000000029734,0.6806000000014834,0.6963999999985049,0.7131000000014893,0.7306000000014876,0.7506000000014836,0.7672000000029797,0.783200000002978,0.7987999999970157,0.8138999999985046,0.830600000001489,0.8463999999985035,0.8629999999999995,0.8799999999999955,0.8963999999985077,0.9131000000014851,0.9297999999970159,0.9497000000029772,0.9664999999999964,0.9822999999970179,0.999200000002979,1.0162999999970168,1.0302999999970197,1.0464999999999947,1.0631000000014836,1.0797999999970145,1.096499999999999,1.1132000000029763,1.1297999999970187,1.146899999998503,1.163100000001485,1.179799999997016,1.1997000000029772,1.2131000000014893,1.2332000000029737,1.2497999999970162,1.2637000000029772,1.2797999999970173,1.2963999999985063,1.3129999999999953,1.3297999999970145,1.346499999999999,1.3629999999999995,1.3797999999970187,1.3963999999985077,1.4157000000029782,1.4299999999999997,1.4464999999999932,1.4632000000029777,1.4799999999999969,1.4963999999985091,1.5131000000014865,1.5297000000029755,1.5466000000014901,1.5629999999999953,1.5797999999970145,1.5963999999985035,1.6129999999999995,1.629899999998507,1.6463999999985077,1.6629999999999967,1.679700000002974,1.6964999999999932,1.7129999999999939,1.729799999997013,1.7464999999999975,1.763399999998505,1.7797999999970173,1.7964999999999947,1.813200000002979,1.8297999999970145,1.8469999999999942,1.863100000001488,1.8823999999985048,1.896499999999996,1.9129999999999967,1.9324999999999974,1.9464999999999932,1.9632000000029777,1.9797000000029783,1.9964999999999975,2.012999999999998,2.0312999999970174,2.0463999999985063,2.063299999997014,2.0797000000029797,2.0963999999985035,2.1129999999999995,2.1297999999970187,2.146499999999996,2.1648999999985037,2.182200000002979,2.196799999997019,2.2132999999970195,2.2313999999985086,2.2489999999999952,2.2631000000014865,2.2797999999970173,2.298700000002974,2.3141000000014884,2.332100000001489,2.346499999999999,2.363100000001488,2.3814999999999955,2.3987000000029752,2.4139999999999944,2.4303999999985066,2.4464999999999932,2.4647999999970196,2.4798999999985085,2.496399999998509,2.5167000000029773,2.532600000001487,2.549299999997018,2.5631000000014836,2.5797999999970145,2.598700000002978,2.613299999997018,2.6297999999970187,2.646499999999996,2.6662000000029735,2.6802999999970183,2.701999999999998,2.717100000001487,2.7297000000029783,2.749600000001486,2.7631000000014865,2.7797000000029755,2.79660000000149,2.8129999999999953,2.8297000000029797,2.8463999999985035,2.863100000001488,2.879700000002977,2.8963999999985077,2.913100000001485,2.929799999997016,2.9464999999999932,2.9631000000014893,2.979799999997013,2.9962999999970137,3.013200000002975,3.0297999999970173,3.0464999999999947,3.067600000001484,3.0826000000014844,3.0981000000014873,3.1129999999999995,3.1297999999970187,3.1491000000014893,3.1629999999999967,3.1809999999999974,3.1966000000014887,3.2166000000014847,3.2316000000014853,3.246399999998509,3.263200000002975,3.2798999999985057,3.2963999999985063,3.3129999999999953,3.3297000000029797,3.3466000000014873,3.3629999999999995,3.3797999999970187,3.396499999999996,3.414200000002978]","[1733285504142,1733285504157,1733285504173,1733285504189,1733285504203,1733285504220,1733285504236,1733285504253,1733285504270,1733285504286,1733285504303,1733285504320,1733285504343,1733285504353,1733285504370,1733285504395,1733285504403,1733285504420,1733285504437,1733285504453,1733285504474,1733285504486,1733285504503,1733285504520,1733285504536,1733285504553,1733285504570,1733285504587,1733285504603,1733285504620,1733285504636,1733285504655,1733285504671,1733285504690,1733285504707,1733285504723,1733285504738,1733285504754,1733285504773,1733285504786,1733285504803,1733285504820,1733285504836,1733285504853,1733285504870,1733285504890,1733285504907,1733285504923,1733285504939,1733285504954,1733285504970,1733285504986,1733285505003,1733285505020,1733285505036,1733285505053,1733285505070,1733285505090,1733285505106,1733285505122,1733285505139,1733285505156,1733285505170,1733285505186,1733285505203,1733285505220,1733285505236,1733285505253,1733285505270,1733285505287,1733285505303,1733285505320,1733285505340,1733285505353,1733285505373,1733285505390,1733285505404,1733285505420,1733285505436,1733285505453,1733285505470,1733285505486,1733285505503,1733285505520,1733285505536,1733285505556,1733285505570,1733285505586,1733285505603,1733285505620,1733285505636,1733285505653,1733285505670,1733285505686,1733285505703,1733285505720,1733285505736,1733285505753,1733285505770,1733285505786,1733285505803,1733285505820,1733285505836,1733285505853,1733285505870,1733285505886,1733285505903,1733285505920,1733285505936,1733285505953,1733285505970,1733285505987,1733285506003,1733285506022,1733285506036,1733285506053,1733285506072,1733285506086,1733285506103,1733285506120,1733285506136,1733285506153,1733285506171,1733285506186,1733285506203,1733285506220,1733285506236,1733285506253,1733285506270,1733285506286,1733285506305,1733285506322,1733285506337,1733285506353,1733285506371,1733285506389,1733285506403,1733285506420,1733285506439,1733285506454,1733285506472,1733285506486,1733285506503,1733285506521,1733285506539,1733285506554,1733285506570,1733285506586,1733285506605,1733285506620,1733285506636,1733285506657,1733285506673,1733285506689,1733285506703,1733285506720,1733285506739,1733285506753,1733285506770,1733285506786,1733285506806,1733285506820,1733285506842,1733285506857,1733285506870,1733285506889,1733285506903,1733285506920,1733285506936,1733285506953,1733285506970,1733285506986,1733285507003,1733285507020,1733285507036,1733285507053,1733285507070,1733285507086,1733285507103,1733285507120,1733285507136,1733285507153,1733285507170,1733285507186,1733285507208,1733285507222,1733285507238,1733285507253,1733285507270,1733285507289,1733285507303,1733285507321,1733285507337,1733285507357,1733285507371,1733285507386,1733285507403,1733285507420,1733285507436,1733285507453,1733285507470,1733285507486,1733285507503,1733285507520,1733285507536,1733285507554]","[[1056.3,416.6],[1073.3,429.2],[1083.8,447.2],[1099.1,439.8],[1099.1,439.8],[1111.3,450.5],[1111.3,450.5],[1131.2,452.1],[1131.2,452.1],[1154.9,452.2],[1154.9,452.2],[1176,463],[1182.6,437.2],[1182.6,437.2],[1181.6,417],[1141.6,437.8],[1141.6,437.8],[1085.1,452.2],[1034.4,460],[975.2,465.1],[969,475.6],[969,475.6],[962.8,486.1],[949.6,490.3],[956.5,481.5],[956.4,516.8],[947.8,539.5],[949.8,533.9],[948.6,530.7],[945.1,519.8],[962,522.9],[979.5,504.8],[997,486.7],[998.8,477.2],[1007.7,475.5],[1012.1,464.3],[1039.1,459.9],[1063.8,457.4],[1088.2,445.9],[1088.2,445.9],[1174.7,427.3],[1178.9,424.5],[1178.6,434.2],[1173.4,434.9],[1178.4,430.7],[1177.2,425.1],[1187.2,419.9],[1194.5,420],[1183.8,413.8],[1193.1,420.6],[1095.3,447.8],[1068.7,450.1],[1021,443.3],[982.4,462.4],[931,493.5],[931,493.5],[874.1,510.4],[844,514.3],[810.1,513.1],[796.8,516.6],[783.5,520.1],[845.4,515.2],[845.4,515.2],[906.5,508.1],[981,507.5],[1052.6,505.4],[1125.3,480.1],[1125.3,480.1],[1186.8,473.2],[1218.9,476.3],[1280.1,453.2],[1334.9,427.8],[1360.8,424.3],[1350.2,427.5],[1330.8,435.4],[1318.8,441.1],[1302.2,436.4],[1329.1,423.4],[1372.7,406.2],[1411.8,379.6],[1411.8,379.6],[1421.8,379.2],[1388.7,412.7],[1385.4,420.7],[1382.1,428.7],[1405.9,414.8],[1422.4,397],[1422.4,397],[1409.8,422],[1375.8,427.6],[1341.8,433.2],[1310.3,446],[1280.4,448],[1293.6,416.1],[1295.2,404.9],[1296.8,393.7],[1260.8,413.5],[1239.8,424],[1260.3,402.1],[1253.2,422.2],[1254.5,425.3],[1253.9,455.1],[1251.7,495.7],[1246.3,526.4],[1246.3,526.4],[1246.2,538.8],[1248.8,551.1],[1266.5,533.2],[1275.6,559.2],[1266.3,564.2],[1259.6,558.5],[1225.7,550.8],[1201.6,562.8],[1124.5,538.9],[1042.1,544.4],[965.1,551.1],[915.4,553.4],[915.4,553.4],[869,570.9],[808,560.9],[772.9,570.4],[741.7,590.9],[726.3,610.2],[698,583.5],[717.3,589.2],[745.1,575.4],[772.9,561.6],[779.5,555.1],[779.5,555.1],[787,549.8],[800.9,532.6],[801.3,528.4],[801.7,524.2],[774.4,499.3],[758.8,485],[751.8,468.9],[761.4,479.4],[778.3,491],[776,506.9],[773.7,522.8],[771.1,535.9],[771.1,535.9],[765.4,522.1],[757.4,526.3],[820.4,542.7],[871.7,548.5],[921.8,565.6],[955.3,556.1],[974.8,531],[1004.9,499.1],[1035,467.2],[1090.5,467.1],[1146,467],[1204.2,452.1],[1204.2,452.1],[1225.8,458.5],[1233.3,473.8],[1241.7,473.8],[1232.3,462.8],[1231,460.6],[1229.5,458.1],[1239.2,456.3],[1202.4,440.5],[1202.4,440.5],[1189.7,427],[1168.6,422.4],[1168.6,422.4],[1138.1,418.6],[1137.5,405.5],[1131,398],[1121.1,406.7],[1109.8,421.1],[1109.8,421.1],[1067.2,415],[1067.2,415],[1013.4,408.2],[1013.4,408.2],[990.3,411.6],[990.3,411.6],[948.3,405.3],[948.3,405.3],[901.1,390.4],[901.1,390.4],[895.3,372.6],[846.8,385.3],[806.5,389.4],[789.4,390.7],[772.3,392],[773.2,405.8],[774.1,419.6],[781.2,435],[783.1,457.8],[776.3,466.8],[733.8,485.3],[749,474.3],[759,475.6],[759,475.6],[783.3,475.1],[796.4,490.3],[823,528.4],[823,528.4],[840.3,560.2],[850.6,570.8],[850.6,570.8],[822,567.1],[852,591.8]]","[0,0.3527331528]","[0.3527331528,0.3527331528]","[-0.3527331528,0]","[-0.3527331528,-0.3527331528]","[0,0]","[0.3527331528,0]","[0,-0.3527331528]","[0.3527331528,-0.3527331528]",0,1,1,1,1,3,Tablet,5,5,13,7
