inst1_resp.keys,inst1_resp.rt,calibrationMouse.x,calibrationMouse.y,calibrationMouse.leftButton,calibrationMouse.midButton,calibrationMouse.rightButton,calibrationClick.x,calibrationClick.y,calibrationClick.leftButton,calibrationClick.midButton,calibrationClick.rightButton,trialsc.thisRepN,trialsc.thisTrialN,trialsc.thisN,trialsc.thisIndex,trialsc.ran,calibration_x,calibration_y,participant,session,date,expName,psychopyVersion,OS,frameRate,calibrationClick.clicked_name,ScreenRes_pixels,Camera_pixels,mouse_2.x,mouse_2.y,mouse_2.leftButton,mouse_2.midButton,mouse_2.rightButton,mouse_2.time,mouse_2.clicked_name,mouse.x,mouse.y,mouse.leftButton,mouse.midButton,mouse.rightButton,mouse.time,mouse.clicked_name,Choice,Trial,TrialDuration,MOUSE_GAZE,ET_GAZE,ET_GAZE_x_T,time,unixTime,ET_GAZE_NF,Loc_Option1_label,Loc_Option2_label,Loc_Cost_label,Loc_Qual_label,Loc_Option1_cost,Loc_Option2_cost,Loc_Option1_quality,Loc_Option2_quality,trials.thisRepN,trials.thisTrialN,trials.thisN,trials.thisIndex,trials.ran,Block,Device,cost1,qual1,cost2,qual2
space,9.762,0.161458333,-0.355555556,1,0,0,0.319791667,0.664814815,1,0,0,0,0,0,18,1,0.33,0.67,36,001,2024-12-05_14h38.19.405,Attention_exp_legacy,2023.1.0,Win32,59.88023952,,,,,,,,,,,,,,,,,,,,,,,,,,,,,,,,,,,,,,,,,,,,,
,,,,,,,-0.676041667,-0.333333333,1,0,0,0,1,1,1,1,-0.67,-0.33,36,001,2024-12-05_14h38.19.405,Attention_exp_legacy,2023.1.0,Win32,59.88023952,calibration_square,,,,,,,,,,,,,,,,,,,,,,,,,,,,,,,,,,,,,,,,,,,,
,,,,,,,-0.005208333,0.333333333,1,0,0,0,2,2,12,1,0,0.33,36,001,2024-12-05_14h38.19.405,Attention_exp_legacy,2023.1.0,Win32,59.88023952,calibration_square,,,,,,,,,,,,,,,,,,,,,,,,,,,,,,,,,,,,,,,,,,,,
,,,,,,,-0.332291667,0.331481481,1,0,0,0,3,3,7,1,-0.33,0.33,36,001,2024-12-05_14h38.19.405,Attention_exp_legacy,2023.1.0,Win32,59.88023952,calibration_square,,,,,,,,,,,,,,,,,,,,,,,,,,,,,,,,,,,,,,,,,,,,
,,,,,,,0.00625,-0.327777778,1,0,0,0,4,4,10,1,0,-0.33,36,001,2024-12-05_14h38.19.405,Attention_exp_legacy,2023.1.0,Win32,59.88023952,calibration_square,,,,,,,,,,,,,,,,,,,,,,,,,,,,,,,,,,,,,,,,,,,,
,,,,,,,0.322916667,0.348148148,1,0,0,0,5,5,17,1,0.33,0.33,36,001,2024-12-05_14h38.19.405,Attention_exp_legacy,2023.1.0,Win32,59.88023952,,,,,,,,,,,,,,,,,,,,,,,,,,,,,,,,,,,,,,,,,,,,,
,,,,,,,-0.325,-0.005555556,1,0,0,0,6,6,6,1,-0.33,0,36,001,2024-12-05_14h38.19.405,Attention_exp_legacy,2023.1.0,Win32,59.88023952,calibration_square,,,,,,,,,,,,,,,,,,,,,,,,,,,,,,,,,,,,,,,,,,,,
,,,,,,,0.334375,-0.316666667,1,0,0,0,7,7,15,1,0.33,-0.33,36,001,2024-12-05_14h38.19.405,Attention_exp_legacy,2023.1.0,Win32,59.88023952,,,,,,,,,,,,,,,,,,,,,,,,,,,,,,,,,,,,,,,,,,,,,
,,,,,,,0.330208333,0.007407407,1,0,0,0,8,8,16,1,0.33,0,36,001,2024-12-05_14h38.19.405,Attention_exp_legacy,2023.1.0,Win32,59.88023952,calibration_square,,,,,,,,,,,,,,,,,,,,,,,,,,,,,,,,,,,,,,,,,,,,
,,,,,,,-0.335416667,0.67037037,1,0,0,0,9,9,8,1,-0.33,0.67,36,001,2024-12-05_14h38.19.405,Attention_exp_legacy,2023.1.0,Win32,59.88023952,calibration_square,,,,,,,,,,,,,,,,,,,,,,,,,,,,,,,,,,,,,,,,,,,,
,,,,,,,0.328125,-0.677777778,1,0,0,0,10,10,14,1,0.33,-0.67,36,001,2024-12-05_14h38.19.405,Attention_exp_legacy,2023.1.0,Win32,59.88023952,calibration_square,,,,,,,,,,,,,,,,,,,,,,,,,,,,,,,,,,,,,,,,,,,,
,,,,,,,-0.001041667,-0.005555556,1,0,0,0,11,11,11,1,0,0,36,001,2024-12-05_14h38.19.405,Attention_exp_legacy,2023.1.0,Win32,59.88023952,calibration_square,,,,,,,,,,,,,,,,,,,,,,,,,,,,,,,,,,,,,,,,,,,,
,,,,,,,0.66875,-0.668518519,1,0,0,0,12,12,20,1,0.67,-0.67,36,001,2024-12-05_14h38.19.405,Attention_exp_legacy,2023.1.0,Win32,59.88023952,calibration_square,,,,,,,,,,,,,,,,,,,,,,,,,,,,,,,,,,,,,,,,,,,,
,,,,,,,-0.328125,-0.333333333,1,0,0,0,13,13,5,1,-0.33,-0.33,36,001,2024-12-05_14h38.19.405,Attention_exp_legacy,2023.1.0,Win32,59.88023952,calibration_square,,,,,,,,,,,,,,,,,,,,,,,,,,,,,,,,,,,,,,,,,,,,
,,,,,,,-0.683333333,-0.001851852,1,0,0,0,14,14,2,1,-0.67,0,36,001,2024-12-05_14h38.19.405,Attention_exp_legacy,2023.1.0,Win32,59.88023952,,,,,,,,,,,,,,,,,,,,,,,,,,,,,,,,,,,,,,,,,,,,,
,,,,,,,-0.678125,-0.683333333,1,0,0,0,15,15,0,1,-0.67,-0.67,36,001,2024-12-05_14h38.19.405,Attention_exp_legacy,2023.1.0,Win32,59.88023952,,,,,,,,,,,,,,,,,,,,,,,,,,,,,,,,,,,,,,,,,,,,,
,,,,,,,-0.007291667,0.67037037,1,0,0,0,16,16,13,1,0,0.67,36,001,2024-12-05_14h38.19.405,Attention_exp_legacy,2023.1.0,Win32,59.88023952,calibration_square,,,,,,,,,,,,,,,,,,,,,,,,,,,,,,,,,,,,,,,,,,,,
,,,,,,,-0.001041667,-0.681481481,1,0,0,0,17,17,9,1,0,-0.67,36,001,2024-12-05_14h38.19.405,Attention_exp_legacy,2023.1.0,Win32,59.88023952,,,,,,,,,,,,,,,,,,,,,,,,,,,,,,,,,,,,,,,,,,,,,
,,,,,,,-0.680208333,0.337037037,1,0,0,0,18,18,3,1,-0.67,0.33,36,001,2024-12-05_14h38.19.405,Attention_exp_legacy,2023.1.0,Win32,59.88023952,,,,,,,,,,,,,,,,,,,,,,,,,,,,,,,,,,,,,,,,,,,,,
,,,,,,,-0.327083333,-0.677777778,1,0,0,0,19,19,4,1,-0.33,-0.67,36,001,2024-12-05_14h38.19.405,Attention_exp_legacy,2023.1.0,Win32,59.88023952,calibration_square,,,,,,,,,,,,,,,,,,,,,,,,,,,,,,,,,,,,,,,,,,,,
,,,,,,,0.678125,0.681481481,1,0,0,0,20,20,19,1,0.67,0.67,36,001,2024-12-05_14h38.19.405,Attention_exp_legacy,2023.1.0,Win32,59.88023952,,,,,,,,,,,,,,,,,,,,,,,,,,,,,,,,,,,,,,,,,,,,,
,,,,,,,,,,,,,,,,,,,36,001,2024-12-05_14h38.19.405,Attention_exp_legacy,2023.1.0,Win32,59.88023952,,"[1920,1080]","[640,480]",[0.029166666666666667],[-0.5166666666666667],[1],[0],[0],[2.7274000000059715],"[""StartButton""]","[0.036458333333333336,0.022916666666666665]","[-0.001851851851851852,0.16666666666666666]","[1,1]","[0,0]","[0,0]","[4.33270000001788,7.218300000011922]","[""Option1_label""]",Option1_label,1,8.2396,"[[-0.0020833333333333333,-0.3648148148148148],[-0.004166666666666667,-0.3648148148148148],[-0.005208333333333333,-0.3648148148148148],[-0.005208333333333333,-0.3648148148148148],[-0.005208333333333333,-0.3648148148148148],[-0.005208333333333333,-0.3648148148148148],[-0.005208333333333333,-0.3648148148148148],[-0.005208333333333333,-0.3648148148148148],[-0.005208333333333333,-0.3648148148148148],[-0.005208333333333333,-0.3648148148148148],[-0.005208333333333333,-0.3648148148148148],[-0.005208333333333333,-0.3648148148148148],[-0.005208333333333333,-0.3648148148148148],[-0.005208333333333333,-0.3648148148148148],[-0.005208333333333333,-0.3648148148148148],[-0.005208333333333333,-0.3648148148148148],[-0.00625,-0.3648148148148148],[-0.00625,-0.3648148148148148],[-0.00625,-0.3648148148148148],[-0.00625,-0.3648148148148148],[-0.00625,-0.3648148148148148],[-0.00625,-0.3648148148148148],[-0.007291666666666667,-0.3648148148148148],[-0.007291666666666667,-0.3648148148148148],[-0.008333333333333333,-0.3648148148148148],[-0.008333333333333333,-0.3648148148148148],[-0.009375,-0.3648148148148148],[-0.009375,-0.3648148148148148],[-0.011458333333333333,-0.3648148148148148],[-0.0125,-0.3648148148148148],[-0.014583333333333334,-0.37037037037037035],[-0.015625,-0.37037037037037035],[-0.017708333333333333,-0.37592592592592594],[-0.017708333333333333,-0.37777777777777777],[-0.021875,-0.39444444444444443],[-0.022916666666666665,-0.39814814814814814],[-0.026041666666666668,-0.4111111111111111],[-0.027083333333333334,-0.4166666666666667],[-0.029166666666666667,-0.42592592592592593],[-0.030208333333333334,-0.42962962962962964],[-0.03229166666666667,-0.4351851851851852],[-0.034375,-0.44074074074074077],[-0.03958333333333333,-0.4537037037037037],[-0.040625,-0.4537037037037037],[-0.04583333333333333,-0.46296296296296297],[-0.04583333333333333,-0.46296296296296297],[-0.059375,-0.4740740740740741],[-0.06354166666666666,-0.4759259259259259],[-0.06875,-0.4759259259259259],[-0.07083333333333333,-0.4759259259259259],[-0.07604166666666666,-0.4740740740740741],[-0.07708333333333334,-0.4740740740740741],[-0.078125,-0.4740740740740741],[-0.07916666666666666,-0.4722222222222222],[-0.08125,-0.4722222222222222],[-0.08125,-0.4722222222222222],[-0.08125,-0.4722222222222222],[-0.08125,-0.4703703703703704],[-0.08125,-0.4703703703703704],[-0.08125,-0.4703703703703704],[-0.08125,-0.4666666666666667],[-0.08125,-0.46111111111111114],[-0.08125,-0.45925925925925926],[-0.08125,-0.45555555555555555],[-0.08125,-0.45555555555555555],[-0.08125,-0.4537037037037037],[-0.08125,-0.45185185185185184],[-0.08125,-0.45185185185185184],[-0.08125,-0.45],[-0.08020833333333334,-0.44814814814814813],[-0.07916666666666666,-0.4444444444444444],[-0.075,-0.4425925925925926],[-0.075,-0.4425925925925926],[-0.06979166666666667,-0.4388888888888889],[-0.06875,-0.43703703703703706],[-0.06458333333333334,-0.43333333333333335],[-0.06354166666666666,-0.43333333333333335],[-0.06145833333333333,-0.42777777777777776],[-0.059375,-0.42407407407407405],[-0.05625,-0.4203703703703704],[-0.05625,-0.4203703703703704],[-0.05,-0.412962962962963],[-0.046875,-0.4074074074074074],[-0.042708333333333334,-0.4],[-0.041666666666666664,-0.3962962962962963],[-0.0375,-0.3888888888888889],[-0.034375,-0.3851851851851852],[-0.029166666666666667,-0.37777777777777777],[-0.027083333333333334,-0.37777777777777777],[-0.022916666666666665,-0.37222222222222223],[-0.019791666666666666,-0.3685185185185185],[-0.017708333333333333,-0.36666666666666664],[-0.014583333333333334,-0.3611111111111111],[-0.010416666666666666,-0.3574074074074074],[-0.00625,-0.3537037037037037],[-0.0010416666666666667,-0.34814814814814815],[0.003125,-0.34629629629629627],[0.009375,-0.34444444444444444],[0.014583333333333334,-0.34074074074074073],[0.023958333333333335,-0.3388888888888889],[0.036458333333333336,-0.3388888888888889],[0.057291666666666664,-0.3388888888888889],[0.06979166666666667,-0.3388888888888889],[0.07604166666666666,-0.3388888888888889],[0.08645833333333333,-0.3388888888888889],[0.10520833333333333,-0.3388888888888889],[0.11458333333333333,-0.337037037037037],[0.12083333333333333,-0.3333333333333333],[0.12395833333333334,-0.3314814814814815],[0.12708333333333333,-0.3277777777777778],[0.128125,-0.32592592592592595],[0.13020833333333334,-0.32407407407407407],[0.13020833333333334,-0.32222222222222224],[0.13125,-0.32037037037037036],[0.13229166666666667,-0.3148148148148148],[0.13229166666666667,-0.3148148148148148],[0.13333333333333333,-0.3074074074074074],[0.13333333333333333,-0.30185185185185187],[0.13541666666666666,-0.29074074074074074],[0.13541666666666666,-0.2833333333333333],[0.13541666666666666,-0.2777777777777778],[0.13645833333333332,-0.26851851851851855],[0.1375,-0.25925925925925924],[0.1375,-0.25],[0.1375,-0.2388888888888889],[0.1375,-0.22962962962962963],[0.1375,-0.21851851851851853],[0.1375,-0.2074074074074074],[0.1375,-0.19814814814814816],[0.1375,-0.19444444444444445],[0.1375,-0.18518518518518517],[0.1375,-0.17592592592592593],[0.1375,-0.1685185185185185],[0.1375,-0.15555555555555556],[0.13541666666666666,-0.1425925925925926],[0.134375,-0.12777777777777777],[0.13125,-0.11296296296296296],[0.12916666666666668,-0.10185185185185185],[0.12708333333333333,-0.08703703703703704],[0.12291666666666666,-0.07037037037037037],[0.11666666666666667,-0.046296296296296294],[0.11354166666666667,-0.03518518518518519],[0.10729166666666666,-0.016666666666666666],[0.10208333333333333,-0.001851851851851852],[0.09895833333333333,0.005555555555555556],[0.09791666666666667,0.011111111111111112],[0.09479166666666666,0.016666666666666666],[0.09166666666666666,0.024074074074074074],[0.08854166666666667,0.03148148148148148],[0.084375,0.03888888888888889],[0.08020833333333334,0.04259259259259259],[0.08020833333333334,0.04259259259259259],[0.075,0.046296296296296294],[0.06979166666666667,0.05185185185185185],[0.06666666666666667,0.05185185185185185],[0.06145833333333333,0.05740740740740741],[0.058333333333333334,0.05925925925925926],[0.05625,0.05925925925925926],[0.05625,0.05925925925925926],[0.05520833333333333,0.05925925925925926],[0.053125,0.05925925925925926],[0.052083333333333336,0.05925925925925926],[0.052083333333333336,0.05925925925925926],[0.052083333333333336,0.05925925925925926],[0.04895833333333333,0.05740740740740741],[0.04791666666666667,0.05740740740740741],[0.046875,0.05555555555555555],[0.04375,0.05185185185185185],[0.042708333333333334,0.04814814814814815],[0.041666666666666664,0.044444444444444446],[0.03958333333333333,0.040740740740740744],[0.03958333333333333,0.03518518518518519],[0.03854166666666667,0.03333333333333333],[0.0375,0.027777777777777776],[0.036458333333333336,0.024074074074074074],[0.036458333333333336,0.020370370370370372],[0.036458333333333336,0.012962962962962963],[0.036458333333333336,0.007407407407407408],[0.036458333333333336,0.003703703703703704],[0.036458333333333336,0.001851851851851852],[0.036458333333333336,0],[0.036458333333333336,-0.001851851851851852],[0.036458333333333336,-0.001851851851851852],[0.036458333333333336,-0.001851851851851852],[0.036458333333333336,-0.001851851851851852],[0.036458333333333336,-0.001851851851851852],[0.036458333333333336,-0.001851851851851852],[0.036458333333333336,-0.001851851851851852],[0.036458333333333336,-0.001851851851851852],[0.036458333333333336,-0.001851851851851852],[0.036458333333333336,-0.001851851851851852],[0.036458333333333336,-0.001851851851851852],[0.036458333333333336,-0.001851851851851852],[0.036458333333333336,-0.001851851851851852],[0.036458333333333336,-0.001851851851851852],[0.036458333333333336,-0.001851851851851852],[0.036458333333333336,-0.001851851851851852],[0.036458333333333336,-0.001851851851851852],[0.036458333333333336,-0.001851851851851852],[0.036458333333333336,-0.001851851851851852],[0.036458333333333336,-0.001851851851851852],[0.036458333333333336,-0.001851851851851852],[0.036458333333333336,-0.001851851851851852],[0.036458333333333336,-0.001851851851851852],[0.036458333333333336,-0.001851851851851852],[0.036458333333333336,-0.001851851851851852],[0.036458333333333336,-0.001851851851851852],[0.036458333333333336,-0.001851851851851852],[0.036458333333333336,-0.001851851851851852],[0.036458333333333336,-0.001851851851851852],[0.036458333333333336,-0.001851851851851852],[0.036458333333333336,-0.001851851851851852],[0.036458333333333336,-0.001851851851851852],[0.036458333333333336,-0.001851851851851852],[0.036458333333333336,-0.001851851851851852],[0.036458333333333336,-0.001851851851851852],[0.036458333333333336,-0.001851851851851852],[0.036458333333333336,-0.001851851851851852],[0.036458333333333336,-0.001851851851851852],[0.036458333333333336,-0.001851851851851852],[0.036458333333333336,-0.001851851851851852],[0.036458333333333336,-0.001851851851851852],[0.036458333333333336,-0.001851851851851852],[0.036458333333333336,-0.001851851851851852],[0.036458333333333336,-0.001851851851851852],[0.036458333333333336,-0.001851851851851852],[0.036458333333333336,-0.001851851851851852],[0.036458333333333336,-0.001851851851851852],[0.036458333333333336,-0.001851851851851852],[0.036458333333333336,-0.001851851851851852],[0.036458333333333336,-0.001851851851851852],[0.036458333333333336,-0.001851851851851852],[0.036458333333333336,-0.001851851851851852],[0.036458333333333336,-0.001851851851851852],[0.036458333333333336,-0.001851851851851852],[0.036458333333333336,-0.001851851851851852],[0.036458333333333336,-0.001851851851851852],[0.036458333333333336,-0.001851851851851852],[0.036458333333333336,-0.001851851851851852],[0.036458333333333336,-0.001851851851851852],[0.036458333333333336,-0.001851851851851852],[0.036458333333333336,-0.001851851851851852],[0.036458333333333336,-0.001851851851851852],[0.036458333333333336,-0.001851851851851852],[0.036458333333333336,-0.001851851851851852],[0.036458333333333336,-0.001851851851851852],[0.036458333333333336,-0.001851851851851852],[0.036458333333333336,-0.001851851851851852],[0.036458333333333336,-0.001851851851851852],[0.036458333333333336,-0.001851851851851852],[0.036458333333333336,-0.001851851851851852],[0.036458333333333336,-0.001851851851851852],[0.036458333333333336,-0.001851851851851852],[0.036458333333333336,-0.001851851851851852],[0.036458333333333336,-0.001851851851851852],[0.036458333333333336,-0.001851851851851852],[0.036458333333333336,-0.001851851851851852],[0.036458333333333336,-0.001851851851851852],[0.036458333333333336,-0.001851851851851852],[0.036458333333333336,-0.001851851851851852],[0.036458333333333336,-0.001851851851851852],[0.036458333333333336,-0.001851851851851852],[0.036458333333333336,-0.001851851851851852],[0.036458333333333336,-0.001851851851851852],[0.036458333333333336,-0.001851851851851852],[0.036458333333333336,-0.001851851851851852],[0.036458333333333336,-0.001851851851851852],[0.036458333333333336,-0.001851851851851852],[0.036458333333333336,-0.001851851851851852],[0.036458333333333336,-0.001851851851851852],[0.036458333333333336,-0.001851851851851852],[0.036458333333333336,-0.001851851851851852],[0.036458333333333336,-0.001851851851851852],[0.036458333333333336,-0.001851851851851852],[0.036458333333333336,-0.001851851851851852],[0.036458333333333336,-0.001851851851851852],[0.036458333333333336,-0.001851851851851852],[0.036458333333333336,-0.001851851851851852],[0.036458333333333336,-0.001851851851851852],[0.036458333333333336,-0.001851851851851852],[0.036458333333333336,-0.001851851851851852],[0.036458333333333336,-0.001851851851851852],[0.036458333333333336,-0.001851851851851852],[0.036458333333333336,-0.001851851851851852],[0.036458333333333336,-0.001851851851851852],[0.036458333333333336,-0.001851851851851852],[0.036458333333333336,-0.001851851851851852],[0.036458333333333336,-0.001851851851851852],[0.036458333333333336,-0.001851851851851852],[0.036458333333333336,-0.001851851851851852],[0.036458333333333336,-0.001851851851851852],[0.036458333333333336,-0.001851851851851852],[0.036458333333333336,-0.001851851851851852],[0.036458333333333336,-0.001851851851851852],[0.036458333333333336,-0.001851851851851852],[0.036458333333333336,-0.001851851851851852],[0.036458333333333336,-0.001851851851851852],[0.036458333333333336,-0.001851851851851852],[0.036458333333333336,-0.001851851851851852],[0.036458333333333336,-0.001851851851851852],[0.036458333333333336,-0.001851851851851852],[0.036458333333333336,-0.001851851851851852],[0.036458333333333336,-0.001851851851851852],[0.036458333333333336,-0.001851851851851852],[0.036458333333333336,-0.001851851851851852],[0.036458333333333336,-0.001851851851851852],[0.036458333333333336,-0.001851851851851852],[0.036458333333333336,-0.001851851851851852],[0.036458333333333336,-0.001851851851851852],[0.036458333333333336,-0.001851851851851852],[0.036458333333333336,-0.001851851851851852],[0.036458333333333336,-0.001851851851851852],[0.035416666666666666,-0.003703703703703704],[0.03333333333333333,-0.007407407407407408],[0.03229166666666667,-0.011111111111111112],[0.03125,-0.014814814814814815],[0.030208333333333334,-0.016666666666666666],[0.030208333333333334,-0.018518518518518517],[0.029166666666666667,-0.022222222222222223],[0.029166666666666667,-0.024074074074074074],[0.029166666666666667,-0.024074074074074074],[0.028125,-0.025925925925925925],[0.028125,-0.025925925925925925],[0.027083333333333334,-0.027777777777777776],[0.027083333333333334,-0.027777777777777776],[0.027083333333333334,-0.027777777777777776],[0.027083333333333334,-0.027777777777777776],[0.027083333333333334,-0.027777777777777776],[0.027083333333333334,-0.027777777777777776],[0.027083333333333334,-0.027777777777777776],[0.027083333333333334,-0.027777777777777776],[0.027083333333333334,-0.027777777777777776],[0.027083333333333334,-0.027777777777777776],[0.027083333333333334,-0.027777777777777776],[0.027083333333333334,-0.027777777777777776],[0.027083333333333334,-0.027777777777777776],[0.027083333333333334,-0.027777777777777776],[0.027083333333333334,-0.027777777777777776],[0.027083333333333334,-0.027777777777777776],[0.027083333333333334,-0.02962962962962963],[0.027083333333333334,-0.02962962962962963],[0.027083333333333334,-0.02962962962962963],[0.027083333333333334,-0.02962962962962963],[0.027083333333333334,-0.03148148148148148],[0.026041666666666668,-0.03333333333333333],[0.026041666666666668,-0.03518518518518519],[0.026041666666666668,-0.03518518518518519],[0.026041666666666668,-0.03888888888888889],[0.025,-0.04259259259259259],[0.023958333333333335,-0.046296296296296294],[0.022916666666666665,-0.05],[0.021875,-0.053703703703703705],[0.020833333333333332,-0.05925925925925926],[0.019791666666666666,-0.05925925925925926],[0.019791666666666666,-0.06111111111111111],[0.01875,-0.06481481481481481],[0.017708333333333333,-0.06666666666666667],[0.016666666666666666,-0.07037037037037037],[0.016666666666666666,-0.07037037037037037],[0.016666666666666666,-0.07407407407407407],[0.015625,-0.07592592592592592],[0.014583333333333334,-0.07777777777777778],[0.014583333333333334,-0.07962962962962963],[0.014583333333333334,-0.08148148148148149],[0.013541666666666667,-0.08333333333333333],[0.013541666666666667,-0.08518518518518518],[0.013541666666666667,-0.08703703703703704],[0.013541666666666667,-0.08703703703703704],[0.013541666666666667,-0.08703703703703704],[0.013541666666666667,-0.08703703703703704],[0.013541666666666667,-0.08888888888888889],[0.013541666666666667,-0.08888888888888889],[0.013541666666666667,-0.09074074074074075],[0.013541666666666667,-0.09074074074074075],[0.013541666666666667,-0.09074074074074075],[0.013541666666666667,-0.09074074074074075],[0.013541666666666667,-0.09074074074074075],[0.013541666666666667,-0.09074074074074075],[0.013541666666666667,-0.09074074074074075],[0.013541666666666667,-0.09074074074074075],[0.013541666666666667,-0.09074074074074075],[0.013541666666666667,-0.09074074074074075],[0.013541666666666667,-0.09074074074074075],[0.013541666666666667,-0.09074074074074075],[0.013541666666666667,-0.09074074074074075],[0.013541666666666667,-0.09074074074074075],[0.013541666666666667,-0.09074074074074075],[0.013541666666666667,-0.09074074074074075],[0.013541666666666667,-0.09074074074074075],[0.013541666666666667,-0.09074074074074075],[0.013541666666666667,-0.09074074074074075],[0.013541666666666667,-0.09074074074074075],[0.013541666666666667,-0.09074074074074075],[0.013541666666666667,-0.09074074074074075],[0.013541666666666667,-0.09074074074074075],[0.013541666666666667,-0.09074074074074075],[0.013541666666666667,-0.09074074074074075],[0.013541666666666667,-0.09074074074074075],[0.013541666666666667,-0.09074074074074075],[0.013541666666666667,-0.09074074074074075],[0.013541666666666667,-0.09074074074074075],[0.013541666666666667,-0.09074074074074075],[0.013541666666666667,-0.09074074074074075],[0.013541666666666667,-0.09074074074074075],[0.013541666666666667,-0.09074074074074075],[0.013541666666666667,-0.09074074074074075],[0.013541666666666667,-0.09074074074074075],[0.013541666666666667,-0.06851851851851852],[0.013541666666666667,-0.040740740740740744],[0.013541666666666667,-0.011111111111111112],[0.013541666666666667,0.018518518518518517],[0.013541666666666667,0.05],[0.015625,0.07407407407407407],[0.016666666666666666,0.09444444444444444],[0.016666666666666666,0.10740740740740741],[0.01875,0.11851851851851852],[0.019791666666666666,0.12777777777777777],[0.019791666666666666,0.13333333333333333],[0.019791666666666666,0.1388888888888889],[0.019791666666666666,0.14444444444444443],[0.020833333333333332,0.15],[0.021875,0.1574074074074074],[0.022916666666666665,0.16111111111111112],[0.022916666666666665,0.1648148148148148],[0.022916666666666665,0.16666666666666666],[0.022916666666666665,0.16666666666666666],[0.022916666666666665,0.16666666666666666],[0.022916666666666665,0.16666666666666666],[0.022916666666666665,0.16666666666666666],[0.022916666666666665,0.16666666666666666],[0.022916666666666665,0.16666666666666666],[0.022916666666666665,0.16666666666666666],[0.022916666666666665,0.16666666666666666],[0.022916666666666665,0.16666666666666666],[0.022916666666666665,0.16666666666666666],[0.022916666666666665,0.16666666666666666],[0.022916666666666665,0.16666666666666666],[0.022916666666666665,0.16666666666666666],[0.022916666666666665,0.16666666666666666],[0.022916666666666665,0.16666666666666666],[0.022916666666666665,0.16666666666666666],[0.022916666666666665,0.16666666666666666],[0.022916666666666665,0.16666666666666666],[0.022916666666666665,0.16666666666666666],[0.022916666666666665,0.16666666666666666],[0.022916666666666665,0.16666666666666666],[0.022916666666666665,0.16666666666666666],[0.022916666666666665,0.16666666666666666],[0.022916666666666665,0.16666666666666666],[0.022916666666666665,0.16666666666666666],[0.022916666666666665,0.16666666666666666],[0.022916666666666665,0.16666666666666666],[0.022916666666666665,0.16666666666666666],[0.022916666666666665,0.16666666666666666],[0.022916666666666665,0.16666666666666666],[0.022916666666666665,0.16666666666666666],[0.022916666666666665,0.16666666666666666],[0.022916666666666665,0.16666666666666666],[0.022916666666666665,0.16666666666666666],[0.022916666666666665,0.16666666666666666],[0.022916666666666665,0.16666666666666666],[0.021875,0.16666666666666666],[0.021875,0.16666666666666666],[0.021875,0.16666666666666666],[0.020833333333333332,0.16666666666666666],[0.020833333333333332,0.16666666666666666],[0.020833333333333332,0.16666666666666666],[0.019791666666666666,0.16666666666666666],[0.019791666666666666,0.16666666666666666],[0.019791666666666666,0.16666666666666666],[0.019791666666666666,0.16666666666666666],[0.019791666666666666,0.16666666666666666],[0.019791666666666666,0.16666666666666666],[0.019791666666666666,0.16666666666666666],[0.019791666666666666,0.16666666666666666],[0.019791666666666666,0.16666666666666666],[0.019791666666666666,0.16666666666666666],[0.019791666666666666,0.16666666666666666],[0.019791666666666666,0.16666666666666666],[0.019791666666666666,0.16666666666666666],[0.019791666666666666,0.16666666666666666],[0.019791666666666666,0.16666666666666666],[0.019791666666666666,0.16666666666666666],[0.019791666666666666,0.16666666666666666],[0.019791666666666666,0.16666666666666666],[0.019791666666666666,0.16666666666666666],[0.019791666666666666,0.16666666666666666],[0.019791666666666666,0.16666666666666666],[0.019791666666666666,0.16666666666666666],[0.019791666666666666,0.16666666666666666],[0.019791666666666666,0.16666666666666666],[0.019791666666666666,0.16666666666666666],[0.019791666666666666,0.16666666666666666],[0.019791666666666666,0.16666666666666666]]","[[-0.03229166666666667,0.2548148148148149],[-0.03229166666666667,0.2548148148148149],[-0.04593750000000003,0.2625925925925925],[-0.04593750000000003,0.2625925925925925],[-0.05249999999999998,0.25703703703703695],[-0.05249999999999998,0.25703703703703695],[-0.0546875,0.23481481481481473],[-0.0546875,0.23481481481481473],[-0.05541666666666671,0.25092592592592594],[-0.05541666666666671,0.25092592592592594],[-0.06145833333333333,0.24944444444444452],[-0.06145833333333333,0.24944444444444452],[-0.0453125,0.2514814814814814],[-0.0453125,0.2514814814814814],[-0.065625,0.24740740740740744],[-0.065625,0.24740740740740744],[-0.08072916666666667,0.26185185185185184],[-0.08072916666666667,0.26185185185185184],[-0.0811458333333333,0.2598148148148147],[-0.0811458333333333,0.2598148148148147],[-0.08197916666666671,0.25759259259259265],[-0.08197916666666671,0.25759259259259265],[-0.07166666666666661,0.259074074074074],[-0.07166666666666661,0.259074074074074],[-0.05604166666666662,0.2822222222222222],[-0.05604166666666662,0.2822222222222222],[-0.05239583333333329,0.29907407407407405],[-0.05239583333333329,0.29907407407407405],[-0.028750000000000022,0.3442592592592592],[-0.028750000000000022,0.3442592592592592],[-0.021145833333333287,0.35611111111111104],[-0.021145833333333287,0.35611111111111104],[-0.03083333333333336,0.3640740740740741],[-0.03083333333333336,0.3640740740740741],[-0.019166666666666644,0.3701851851851851],[-0.019166666666666644,0.3701851851851851],[-0.011874999999999976,0.36814814814814806],[-0.011874999999999976,0.36814814814814806],[-0.014687500000000023,0.3861111111111111],[-0.014687500000000023,0.3861111111111111],[-0.014687500000000023,0.3861111111111111],[-0.014687500000000023,0.3861111111111111],[-0.00614583333333331,0.4081481481481481],[-0.00614583333333331,0.4081481481481481],[-0.022083333333333382,0.425],[-0.022083333333333382,0.425],[-0.0359375,0.43425925925925923],[-0.0359375,0.43425925925925923],[-0.051145833333333356,0.41462962962962957],[-0.051145833333333356,0.41462962962962957],[-0.07229166666666664,0.3412962962962962],[-0.07229166666666664,0.3412962962962962],[-0.07229166666666664,0.3412962962962962],[-0.07229166666666664,0.3412962962962962],[-0.06427083333333337,0.35703703703703693],[-0.06427083333333337,0.35703703703703693],[-0.06427083333333337,0.35703703703703693],[-0.059895833333333336,0.3490740740740741],[-0.059895833333333336,0.3490740740740741],[-0.059895833333333336,0.3490740740740741],[-0.059895833333333336,0.3490740740740741],[-0.07468750000000005,0.3762962962962964],[-0.07468750000000005,0.3762962962962964],[-0.09666666666666662,0.3333333333333333],[-0.09666666666666662,0.3333333333333333],[-0.1016666666666667,0.35537037037037034],[-0.1016666666666667,0.35537037037037034],[-0.11385416666666662,0.369074074074074],[-0.11385416666666662,0.369074074074074],[-0.10343749999999995,0.38685185185185184],[-0.10343749999999995,0.38685185185185184],[-0.1078125,0.3762962962962964],[-0.1078125,0.3762962962962964],[-0.08406250000000005,0.44370370370370377],[-0.08406250000000005,0.44370370370370377],[-0.08979166666666671,0.47129629629629627],[-0.08979166666666671,0.47129629629629627],[-0.09510416666666661,0.5022222222222223],[-0.09510416666666661,0.5022222222222223],[-0.10062500000000002,0.5233333333333334],[-0.10062500000000002,0.5233333333333334],[-0.08531249999999997,0.51],[-0.08531249999999997,0.51],[-0.08979166666666671,0.5424074074074073],[-0.08979166666666671,0.5424074074074073],[-0.09333333333333335,0.5168518518518519],[-0.09333333333333335,0.5168518518518519],[-0.10406249999999997,0.4566666666666667],[-0.10406249999999997,0.4566666666666667],[-0.1123958333333333,0.4022222222222223],[-0.1123958333333333,0.4022222222222223],[-0.10291666666666661,0.39759259259259266],[-0.10291666666666661,0.39759259259259266],[-0.11375000000000005,0.34444444444444444],[-0.11375000000000005,0.34444444444444444],[-0.09739583333333333,0.4057407407407408],[-0.09739583333333333,0.4057407407407408],[-0.10510416666666664,0.35999999999999993],[-0.10791666666666669,0.3109259259259259],[-0.10791666666666669,0.2911111111111112],[-0.09187500000000005,0.2548148148148149],[-0.07729166666666672,0.23851851851851844],[-0.06875,0.26740740740740737],[-0.0765625,0.290925925925926],[-0.06572916666666669,0.32462962962962955],[-0.04885416666666664,0.3381481481481482],[-0.05572916666666667,0.25851851851851854],[-0.07364583333333338,0.2740740740740741],[-0.07364583333333338,0.2740740740740741],[-0.06479166666666672,0.2742592592592593],[-0.0734375,0.27314814814814814],[-0.07281249999999997,0.3116666666666666],[-0.08416666666666663,0.3175925925925926],[-0.06781250000000003,0.3168518518518519],[-0.04708333333333338,0.3103703703703704],[-0.04708333333333338,0.3103703703703704],[-0.05562499999999997,0.28962962962962957],[-0.0515625,0.3025925925925925],[-0.034062500000000044,0.3453703703703704],[0.01260416666666669,0.3494444444444445],[0.03187500000000002,0.37296296296296294],[0.05572916666666667,0.3949999999999999],[0.07447916666666667,0.39759259259259266],[0.08197916666666671,0.4111111111111111],[0.08385416666666666,0.43944444444444436],[0.09760416666666671,0.4770370370370371],[0.11291666666666676,0.5096296296296298],[0.11395833333333343,0.4846296296296297],[0.11364583333333324,0.48351851851851857],[0.0990624999999999,0.48703703703703705],[0.09854166666666657,0.4925925925925926],[0.09416666666666676,0.4579629629629629],[0.09697916666666657,0.43425925925925923],[0.09718749999999995,0.3992592592592593],[0.09249999999999996,0.35240740740740734],[0.09552083333333337,0.3127777777777777],[0.10499999999999995,0.27018518518518514],[0.11239583333333343,0.27907407407407414],[0.12239583333333333,0.2518518518518518],[0.1267708333333334,0.24351851851851852],[0.12374999999999996,0.222037037037037],[0.13114583333333343,0.24166666666666667],[0.13114583333333343,0.24166666666666667],[0.13083333333333325,0.23925925925925934],[0.1334374999999999,0.2222222222222222],[0.1334374999999999,0.2222222222222222],[0.13718750000000005,0.19685185185185178],[0.1412499999999999,0.19037037037037027],[0.14677083333333343,0.18111111111111103],[0.13677083333333329,0.15833333333333333],[0.13645833333333332,0.1712962962962963],[0.14520833333333344,0.14629629629629629],[0.14572916666666677,0.10944444444444448],[0.15916666666666662,0.0992592592592593],[0.15177083333333338,0.054259259259259174],[0.1599999999999999,0.04296296296296305],[0.16083333333333344,0.025],[0.15,0.03425925925925926],[0.13833333333333328,0.052962962962963],[0.14427083333333332,0.04203703703703712],[0.13677083333333329,0.02240740740740745],[0.13677083333333329,0.02240740740740745],[0.12708333333333333,-0.0031481481481482323],[0.10739583333333323,0.0301851851851851],[0.09166666666666666,0.02111111111111107],[0.07385416666666676,0.05351851851851848],[0.07666666666666658,0.053703703703703705],[0.07125000000000009,0.07481481481481478],[0.07125000000000009,0.07481481481481478],[0.07041666666666657,0.0198148148148149],[0.04083333333333338,-0.07907407407407405],[0.03718750000000005,-0.08648148148148146],[0.03718750000000005,-0.08648148148148146],[0.0036458333333333334,-0.1412962962962963],[0.0036458333333333334,-0.1412962962962963],[0.004999999999999952,-0.1559259259259259],[0.027395833333333286,-0.19685185185185186],[0.03114583333333331,-0.2270370370370371],[0.044479166666666715,-0.25407407407407406],[0.03583333333333331,-0.2644444444444445],[0.03156249999999995,-0.2851851851851852],[0.03833333333333329,-0.2788888888888889],[0.051041666666666666,-0.23425925925925925],[0.0359375,-0.22000000000000003],[0.04541666666666669,-0.19944444444444442],[0.028437499999999952,-0.1766666666666666],[0.0012500000000000473,-0.1838888888888889],[-0.01593749999999995,-0.20759259259259263],[-0.027708333333333356,-0.20925925925925926],[-0.04010416666666667,-0.19425925925925921],[-0.051770833333333384,-0.18481481481481485],[-0.06833333333333336,-0.19685185185185186],[-0.0703125,-0.2131481481481482],[-0.0702083333333333,-0.24351851851851852],[-0.07177083333333331,-0.23444444444444448],[-0.06583333333333338,-0.2403703703703704],[-0.065625,-0.23277777777777775],[-0.078125,-0.20481481481481487],[-0.08187500000000002,-0.21185185185185182],[-0.08531249999999997,-0.23870370370370367],[-0.08385416666666666,-0.26296296296296295],[-0.07947916666666661,-0.26500000000000007],[-0.09083333333333338,-0.24500000000000002],[-0.1,-0.24370370370370376],[-0.09718749999999995,-0.24574074074074073],[-0.10479166666666669,-0.27018518518518514],[-0.10479166666666669,-0.27018518518518514],[-0.10072916666666672,-0.27444444444444444],[-0.10072916666666672,-0.27444444444444444],[-0.08614583333333338,-0.2477777777777778],[-0.08614583333333338,-0.2477777777777778],[-0.08729166666666661,-0.2103703703703704],[-0.08729166666666661,-0.2103703703703704],[-0.08187500000000002,-0.19166666666666668],[-0.08187500000000002,-0.19166666666666668],[-0.08854166666666667,-0.1383333333333333],[-0.08854166666666667,-0.1383333333333333],[-0.09500000000000004,-0.1259259259259259],[-0.08666666666666671,-0.11833333333333329],[-0.03937499999999995,-0.14685185185185187],[-0.03937499999999995,-0.14685185185185187],[0.01906249999999995,-0.1646296296296296],[0.04874999999999995,-0.1712962962962963],[0.09979166666666663,-0.18611111111111112],[0.10197916666666676,-0.20462962962962963],[0.12479166666666662,-0.2007407407407407],[0.11572916666666658,-0.17314814814814813],[0.11645833333333329,-0.17407407407407408],[0.10729166666666666,-0.13962962962962958],[0.10958333333333338,-0.11555555555555551],[0.06614583333333333,-0.04796296296296292],[0.014583333333333334,-0.01185185185185181],[-0.013437499999999976,0.011296296296296339],[-0.08020833333333334,0.07166666666666675],[-0.0921875,0.0514814814814814],[-0.1109375,0.018333333333333292],[-0.10739583333333336,-0.0198148148148149],[-0.09614583333333329,-0.04685185185185177],[-0.09312499999999997,-0.07685185185185185],[-0.0984375,-0.10407407407407405],[-0.10104166666666667,-0.14666666666666664],[-0.10208333333333333,-0.10351851851851848],[-0.1171875,-0.10481481481481486],[-0.11229166666666662,-0.13925925925925925],[-0.11802083333333328,-0.13481481481481483],[-0.12239583333333333,-0.12092592592592595],[-0.13218749999999999,-0.09833333333333337],[-0.14572916666666663,-0.09537037037037037],[-0.15489583333333337,-0.08148148148148149],[-0.16302083333333334,-0.07074074074074072],[-0.17406250000000004,-0.044444444444444446],[-0.18968750000000004,-0.08314814814814811],[-0.18937499999999996,-0.07462962962962966],[-0.18677083333333327,-0.05277777777777778],[-0.1872916666666666,-0.020370370370370372],[-0.18947916666666664,-0.006111111111111027],[-0.18552083333333336,0.001851851851851852],[-0.18739583333333332,0.0031481481481482323],[-0.1857291666666666,-0.002962962962963005],[-0.19624999999999998,0.021851851851851768],[-0.20656249999999995,0.046481481481481526],[-0.2079166666666667,0.045740740740740825],[-0.20822916666666663,0.04000000000000004],[-0.2133333333333333,0.007037037037036953],[-0.22291666666666668,-0.006296296296296254],[-0.22583333333333327,-0.004629629629629629],[-0.21156250000000001,-0.007777777777777862],[-0.19729166666666664,0.02370370370370362],[-0.18187500000000004,0.017592592592592594],[-0.15427083333333336,-0.019444444444444445],[-0.12177083333333331,-0.062037037037037036],[-0.09822916666666662,-0.07925925925925928],[-0.08010416666666664,-0.09870370370370372],[-0.07729166666666672,-0.08129629629629626],[-0.05625,-0.09018518518518516],[-0.03999999999999997,-0.11129629629629634],[-0.041666666666666664,-0.12999999999999998],[-0.05385416666666672,-0.1624074074074074],[-0.042499999999999954,-0.12148148148148152],[-0.04364583333333331,-0.13481481481481483],[-0.04885416666666664,-0.1227777777777778],[-0.06895833333333339,-0.08648148148148146],[-0.06895833333333339,-0.04055555555555551],[-0.06614583333333333,-0.010185185185185186],[-0.058854166666666666,0.009999999999999959],[-0.07250000000000002,0.020555555555555598],[-0.07208333333333337,0.013888888888888888],[-0.06124999999999995,0.0014814814814813973],[-0.06468750000000002,-0.03333333333333333],[-0.05666666666666664,-0.01962962962962967],[-0.049479166666666664,-0.0257407407407407],[-0.03093750000000005,-0.047037037037036995],[-0.04624999999999998,-0.040740740740740744],[-0.030104166666666644,-0.04944444444444453],[-0.044375000000000026,-0.07592592592592592],[-0.026979166666666644,-0.10166666666666663],[-0.03885416666666662,-0.07074074074074072],[-0.03687499999999998,-0.04222222222222214],[-0.03895833333333331,-0.06611111111111109],[-0.036666666666666715,-0.0794444444444444],[-0.036145833333333384,-0.09425925925925922],[-0.03947916666666664,-0.09962962962962965],[-0.029270833333333357,-0.15537037037037033],[-0.029270833333333357,-0.16314814814814818],[-0.014479166666666644,-0.15333333333333335],[-0.0015625,-0.1307407407407408],[0.026979166666666644,-0.15759259259259265],[0.027395833333333286,-0.16351851851851854],[0.021458333333333357,-0.13037037037037033],[-0.005624999999999976,-0.0940740740740741],[-0.0125,-0.06925925925925921],[-0.0140625,-0.0772222222222222],[-0.011041666666666691,-0.06481481481481481],[-0.011666666666666714,-0.07999999999999997],[-0.009375,-0.06740740740740736],[-0.014479166666666644,-0.0544444444444444],[-0.02000000000000005,-0.03148148148148148],[-0.014791666666666713,-0.013703703703703662],[-0.005312500000000024,-0.011111111111111112],[0.021979166666666692,-0.01648148148148144],[0.02312500000000005,-0.004444444444444402],[0.019895833333333356,0.03814814814814819],[0.012395833333333309,0.06740740740740736],[0.01583333333333338,0.07907407407407416],[0.01583333333333338,0.07907407407407416],[0.007291666666666667,0.08574074074074066],[0.007291666666666667,0.08574074074074066],[0.0032291666666666905,0.044444444444444446],[-0.011041666666666691,0.028703703703703703],[-0.011041666666666691,0.028703703703703703],[0.00302083333333331,0.015370370370370286],[-0.010104166666666714,0.009814814814814731],[-0.02000000000000005,0.005185185185185101],[-0.01895833333333338,-0.000925925925925926],[-0.004479166666666619,-0.00851851851851856],[0.013437499999999976,-0.010925925925925884],[0.0068750000000000235,-0.006851851851851936],[0.0015625,-0.02166666666666675],[0.001979166666666643,0.00592592592592601],[0.00604166666666662,0.018148148148148063],[0.00604166666666662,0.018148148148148063],[-0.021354166666666667,0.03555555555555564],[-0.027291666666666714,0.053703703703703705],[-0.027291666666666714,0.053703703703703705],[-0.020833333333333332,0.058333333333333334],[-0.024583333333333356,0.049629629629629544],[-0.034895833333333334,0.034444444444444486],[-0.034062500000000044,0.030740740740740784],[-0.034062500000000044,0.030740740740740784],[-0.03833333333333329,0.0257407407407407],[-0.03833333333333329,0.0257407407407407],[-0.026041666666666668,0.04592592592592584],[-0.033749999999999974,0.05314814814814823],[-0.033749999999999974,0.05314814814814823],[-0.03958333333333333,0.05092592592592592],[-0.03958333333333333,0.05092592592592592],[-0.03187500000000002,0.03314814814814811],[-0.01906249999999995,0.014259259259259343],[-0.01906249999999995,0.014259259259259343],[-0.015625,0.032777777777777864],[-0.015625,0.032777777777777864],[-0.011666666666666714,0.03888888888888889],[-0.01114583333333338,0.04351851851851852],[-0.010625000000000048,0.04814814814814815],[0.000833333333333286,0.054074074074074156],[0.0005208333333333333,0.01796296296296305],[0.0005208333333333333,0.01796296296296305],[0.011354166666666643,0.027222222222222307],[0.011354166666666643,0.027222222222222307],[0.04135416666666671,0.01592592592592597],[0.05020833333333338,0.02166666666666675],[0.07427083333333329,0.03259259259259263],[0.06958333333333329,0.0198148148148149],[0.08333333333333333,0.05722222222222218],[0.08156249999999995,0.08499999999999996],[0.08572916666666662,0.08722222222222227],[0.0890625,0.08740740740740749],[0.10604166666666662,0.13055555555555556],[0.09260416666666677,0.16166666666666657],[0.07989583333333337,0.1485185185185186],[0.0806250000000001,0.12111111111111107],[0.06416666666666669,0.11185185185185181],[0.07739583333333329,0.09166666666666666],[0.0828125,0.03092592592592601],[0.1015625,0.009814814814814731],[0.09697916666666657,-0.012962962962962963],[0.09395833333333338,-0.0418518518518519],[0.08166666666666676,-0.07037037037037037],[0.09666666666666662,-0.12685185185185185],[0.09645833333333324,-0.11925925925925922],[0.09812500000000005,-0.11240740740740739],[0.09812500000000005,-0.12111111111111107],[0.08427083333333343,-0.11833333333333329],[0.06625000000000002,-0.10240740740740743],[0.05479166666666669,-0.10888888888888891],[0.05947916666666669,-0.11018518518518519],[0.05687500000000002,-0.08222222222222218],[0.06635416666666671,-0.11555555555555551],[0.07166666666666661,-0.10240740740740743],[0.06020833333333329,-0.0712962962962963],[0.06020833333333329,-0.0712962962962963],[0.049374999999999974,-0.049629629629629544],[0.04666666666666662,-0.04203703703703712],[0.05427083333333336,-0.0485185185185186],[0.06104166666666669,-0.05611111111111113],[0.06604166666666664,-0.08814814814814818],[0.06197916666666667,-0.1014814814814815],[0.07781250000000005,-0.10240740740740743],[0.0703125,-0.0824074074074074],[0.07104166666666671,-0.08370370370370368],[0.07322916666666662,-0.0794444444444444],[0.0828125,-0.07222222222222222],[0.09020833333333324,-0.1],[0.09395833333333338,-0.11537037037037039],[0.09395833333333338,-0.11537037037037039],[0.08562500000000005,-0.09740740740740746],[0.09249999999999996,-0.06444444444444447],[0.08479166666666677,-0.05333333333333336],[0.06312500000000003,-0.0883333333333333],[0.043437500000000046,-0.0933333333333333],[0.025833333333333285,-0.12629629629629627],[0.024166666666666715,-0.18111111111111114],[0.02052083333333338,-0.22722222222222221],[0.0015625,-0.15703703703703706],[-0.010000000000000024,-0.11722222222222224],[-0.015208333333333357,-0.10407407407407405],[-0.025416666666666643,-0.1346296296296296],[-0.024583333333333356,-0.15555555555555556],[-0.0296875,-0.16277777777777774],[-0.016666666666666666,-0.1411111111111111],[-0.022604166666666713,-0.1175925925925926],[-0.017812500000000023,-0.09037037037037039],[-0.01083333333333331,-0.10648148148148148],[-0.01885416666666669,-0.15796296296296297],[-0.028854166666666715,-0.17759259259259255],[-0.028125,-0.21814814814814817],[-0.02781250000000005,-0.2161111111111111],[-0.023958333333333335,-0.20185185185185187],[-0.011874999999999976,-0.17629629629629628],[-0.018333333333333358,-0.17462962962962966],[-0.0006250000000000236,-0.20925925925925926],[-0.007187499999999976,-0.20259259259259255],[-0.01593749999999995,-0.18629629629629635],[-0.003854166666666714,-0.17851851851851847],[0.00635416666666669,-0.1955555555555556],[0.021354166666666667,-0.19074074074074074],[0.026979166666666644,-0.18981481481481483],[0.02520833333333338,-0.18703703703703703],[0.024270833333333287,-0.19425925925925921],[0.0375,-0.20259259259259255],[0.034062500000000044,-0.15777777777777777],[0.036145833333333384,-0.1742592592592593],[0.029166666666666667,-0.14648148148148152],[0.04729166666666664,-0.14870370370370373],[0.05510416666666664,-0.09259259259259259],[0.044479166666666715,-0.10666666666666672],[0.03218749999999997,-0.08925925925925923],[0.029791666666666692,-0.09444444444444444],[0.034166666666666616,-0.07703703703703708],[0.013333333333333286,-0.08259259259259263],[-0.00302083333333331,-0.05740740740740741],[-0.00302083333333331,-0.05740740740740741],[-0.013645833333333357,-0.02629629629629638],[-0.006666666666666643,-0.01055555555555564],[-0.01604166666666664,-0.0242592592592593],[-0.01864583333333331,-0.07296296296296292],[-0.019479166666666714,-0.05018518518518523],[-0.005937500000000048,-0.06481481481481481],[-0.005937500000000048,-0.06481481481481481],[-0.016145833333333335,-0.0448148148148149],[-0.024687500000000046,-0.05388888888888893],[-0.024687500000000046,-0.05388888888888893],[-0.016145833333333335,-0.02907407407407416],[-0.01229166666666662,-0.046296296296296294],[-0.008229166666666643,-0.04944444444444453],[-0.01864583333333331,-0.06555555555555552],[-0.03427083333333331,-0.0455555555555556],[-0.030208333333333334,0.002962962962963005],[-0.029062499999999977,0.05648148148148148],[-0.02947916666666662,0.08314814814814811],[-0.022395833333333334,0.13148148148148148],[-0.027395833333333286,0.18851851851851845],[-0.04135416666666671,0.22370370370370363],[-0.049687500000000044,0.1883333333333334],[-0.05552083333333328,0.1881481481481482],[-0.06083333333333331,0.19648148148148153],[-0.06687500000000005,0.1992592592592593],[-0.09260416666666664,0.1735185185185186],[-0.08947916666666664,0.12314814814814815],[-0.09750000000000002,0.10555555555555556],[-0.1,0.0418518518518519],[-0.09885416666666665,-0.024074074074074074],[-0.09885416666666665,-0.024074074074074074],[-0.09104166666666665,-0.09611111111111106]]","[[-0.03229166666666667,0.2548148148148149,0.0002999999821184929],[-0.03229166666666667,0.2548148148148149,0.0426999999880735],[-0.04593750000000003,0.2625925925925925,0.05840000000596035],[-0.04593750000000003,0.2625925925925925,0.06490000000596297],[-0.05249999999999998,0.25703703703703695,0.09159999999404533],[-0.05249999999999998,0.25703703703703695,0.09869999998807089],[-0.0546875,0.23481481481481473,0.12490000000596524],[-0.0546875,0.23481481481481473,0.13140000000595364],[-0.05541666666666671,0.25092592592592594,0.15819999998808498],[-0.05541666666666671,0.25092592592592594,0.16579999998211292],[-0.06145833333333333,0.24944444444444452,0.1915000000000049],[-0.06145833333333333,0.24944444444444452,0.19819999998807702],[-0.0453125,0.2514814814814814,0.22490000000595955],[-0.0453125,0.2514814814814814,0.23209999999403408],[-0.065625,0.24740740740740744,0.25829999998211406],[-0.065625,0.24740740740740744,0.2649000000059658],[-0.08072916666666667,0.26185185185185184,0.2930999999940411],[-0.08072916666666667,0.26185185185185184,0.29909999999404135],[-0.0811458333333333,0.2598148148148147,0.32500000000000284],[-0.0811458333333333,0.2598148148148147,0.33129999998212156],[-0.08197916666666671,0.25759259259259265,0.3589000000059599],[-0.08197916666666671,0.25759259259259265,0.3664000000059531],[-0.07166666666666661,0.259074074074074,0.3929000000059659],[-0.07166666666666661,0.259074074074074,0.39909999999403567],[-0.05604166666666662,0.2822222222222222,0.4250999999940319],[-0.05604166666666662,0.2822222222222222,0.4314999999999998],[-0.05239583333333329,0.29907407407407405,0.4594000000059566],[-0.05239583333333329,0.29907407407407405,0.4654000000059568],[-0.028750000000000022,0.3442592592592592,0.4915999999940368],[-0.028750000000000022,0.3442592592592592,0.49869999998807657],[-0.021145833333333287,0.35611111111111104,0.5289000000059616],[-0.021145833333333287,0.35611111111111104,0.535499999999999],[-0.03083333333333336,0.3640740740740741,0.5582999999821112],[-0.03083333333333336,0.3640740740740741,0.5655999999940349],[-0.019166666666666644,0.3701851851851851,0.5935999999940407],[-0.019166666666666644,0.3701851851851851,0.6009000000059643],[-0.011874999999999976,0.36814814814814806,0.6252999999821185],[-0.011874999999999976,0.36814814814814806,0.6339000000059656],[-0.014687500000000023,0.3861111111111111,0.660499999999999],[-0.014687500000000023,0.3861111111111111,0.6680999999940411],[-0.014687500000000023,0.3861111111111111,0.6732999999821203],[-0.014687500000000023,0.3861111111111111,0.6909000000059535],[-0.00614583333333331,0.4081481481481481,0.726699999988071],[-0.00614583333333331,0.4081481481481481,0.7340999999940436],[-0.022083333333333382,0.425,0.7582999999821141],[-0.022083333333333382,0.425,0.7649000000059658],[-0.0359375,0.43425925925925923,0.7925999999940387],[-0.0359375,0.43425925925925923,0.7991999999880761],[-0.051145833333333356,0.41462962962962957,0.8254000000059563],[-0.051145833333333356,0.41462962962962957,0.8329999999999984],[-0.07229166666666664,0.3412962962962962,0.8605000000000018],[-0.07229166666666664,0.3412962962962962,0.867199999988074],[-0.07229166666666664,0.3412962962962962,0.8730999999940394],[-0.07229166666666664,0.3412962962962962,0.8909000000059564],[-0.06427083333333337,0.35703703703703693,0.9270999999940415],[-0.06427083333333337,0.35703703703703693,0.9334000000059604],[-0.06427083333333337,0.35703703703703693,0.9396999999880791],[-0.059895833333333336,0.3490740740740741,0.9771999999880734],[-0.059895833333333336,0.3490740740740741,0.9839999999999947],[-0.059895833333333336,0.3490740740740741,0.9896999999880762],[-0.059895833333333336,0.3490740740740741,1.0074000000059584],[-0.07468750000000005,0.3762962962962964,1.0444999999999993],[-0.07468750000000005,0.3762962962962964,1.0519000000059577],[-0.09666666666666662,0.3333333333333333,1.0752999999821213],[-0.09666666666666662,0.3333333333333333,1.0824000000059613],[-0.1016666666666667,0.35537037037037034,1.1109000000059552],[-0.1016666666666667,0.35537037037037034,1.118900000005965],[-0.11385416666666662,0.369074074074074,1.1414999999999935],[-0.11385416666666662,0.369074074074074,1.1509999999999962],[-0.10343749999999995,0.38685185185185184,1.1770999999940415],[-0.10343749999999995,0.38685185185185184,1.1846999999880836],[-0.1078125,0.3762962962962964,1.2095000000000056],[-0.1078125,0.3762962962962964,1.2179000000059546],[-0.08406250000000005,0.44370370370370377,1.2434999999999974],[-0.08406250000000005,0.44370370370370377,1.2507999999821209],[-0.08979166666666671,0.47129629629629627,1.2752999999821242],[-0.08979166666666671,0.47129629629629627,1.282400000005964],[-0.09510416666666661,0.5022222222222223,1.3125999999940348],[-0.09510416666666661,0.5022222222222223,1.3200999999940422],[-0.10062500000000002,0.5233333333333334,1.3424000000059664],[-0.10062500000000002,0.5233333333333334,1.3491999999880733],[-0.08531249999999997,0.51,1.3761999999880743],[-0.08531249999999997,0.51,1.383299999982114],[-0.08979166666666671,0.5424074074074073,1.4094000000059594],[-0.08979166666666671,0.5424074074074073,1.4191999999880807],[-0.09333333333333335,0.5168518518518519,1.4470000000000027],[-0.09333333333333335,0.5168518518518519,1.4552999999821168],[-0.10406249999999997,0.4566666666666667,1.478299999982113],[-0.10406249999999997,0.4566666666666667,1.4865999999940414],[-0.1123958333333333,0.4022222222222223,1.5212999999821193],[-0.1123958333333333,0.4022222222222223,1.5290999999940453],[-0.10291666666666661,0.39759259259259266,1.5397999999821224],[-0.10291666666666661,0.39759259259259266,1.5564999999999998],[-0.11375000000000005,0.34444444444444444,1.5795999999940449],[-0.11375000000000005,0.34444444444444444,1.5897999999821195],[-0.09739583333333333,0.4057407407407408,1.6069000000059646],[-0.09739583333333333,0.4057407407407408,1.6320999999940398],[-0.10510416666666664,0.35999999999999993,1.6397999999821167],[-0.10791666666666669,0.3109259259259259,1.656499999999994],[-0.10791666666666669,0.2911111111111112,1.673599999994039],[-0.09187500000000005,0.2548148148148149,1.694299999982121],[-0.07729166666666672,0.23851851851851844,1.710599999994045],[-0.06875,0.26740740740740737,1.7260999999940339],[-0.0765625,0.290925925925926,1.740699999988081],[-0.06572916666666669,0.32462962962962955,1.759099999994035],[-0.04885416666666664,0.3381481481481482,1.7754999999999939],[-0.05572916666666667,0.25851851851851854,1.790799999982113],[-0.07364583333333338,0.2740740740740741,1.8114999999999952],[-0.07364583333333338,0.2740740740740741,1.8230999999940423],[-0.06479166666666672,0.2742592592592593,1.8397999999821195],[-0.0734375,0.27314814814814814,1.8596999999880808],[-0.07281249999999997,0.3116666666666666,1.8755999999940371],[-0.08416666666666663,0.3175925925925926,1.8915999999940425],[-0.06781250000000003,0.3168518518518519,1.907299999982115],[-0.04708333333333338,0.3103703703703704,1.9290999999940368],[-0.04708333333333338,0.3103703703703704,1.939699999988079],[-0.05562499999999997,0.28962962962962957,1.9565999999940402],[-0.0515625,0.3025925925925925,1.9731999999880827],[-0.034062500000000044,0.3453703703703704,1.9944000000059532],[0.01260416666666669,0.3494444444444445,2.0102999999821236],[0.03187500000000002,0.37296296296296294,2.0262999999821147],[0.05572916666666667,0.3949999999999999,2.0399000000059573],[0.07447916666666667,0.39759259259259266,2.060099999994037],[0.08197916666666671,0.4111111111111111,2.07559999999404],[0.08385416666666666,0.43944444444444436,2.090500000000006],[0.09760416666666671,0.4770370370370371,2.1069000000059646],[0.11291666666666676,0.5096296296296298,2.127299999982114],[0.11395833333333343,0.4846296296296297,2.1430000000000007],[0.11364583333333324,0.48351851851851857,2.159499999999994],[0.0990624999999999,0.48703703703703705,2.1732999999821203],[0.09854166666666657,0.4925925925925926,2.1934000000059655],[0.09416666666666676,0.4579629629629629,2.2074000000059613],[0.09697916666666657,0.43425925925925923,2.2249000000059596],[0.09718749999999995,0.3992592592592593,2.239799999982111],[0.09249999999999996,0.35240740740740734,2.2587999999821164],[0.09552083333333337,0.3127777777777777,2.2734999999999985],[0.10499999999999995,0.27018518518518514,2.2897999999821224],[0.11239583333333343,0.27907407407407414,2.3096999999880836],[0.12239583333333333,0.2518518518518518,2.324799999982119],[0.1267708333333334,0.24351851851851852,2.3396999999880848],[0.12374999999999996,0.222037037037037,2.3599000000059647],[0.13114583333333343,0.24166666666666667,2.3736999999880766],[0.13114583333333343,0.24166666666666667,2.3897999999821167],[0.13083333333333325,0.23925925925925934,2.406699999988078],[0.1334374999999999,0.2222222222222222,2.4269999999999925],[0.1334374999999999,0.2222222222222222,2.439799999982114],[0.13718750000000005,0.19685185185185178,2.45659999999404],[0.1412499999999999,0.19037037037037027,2.4730999999940337],[0.14677083333333343,0.18111111111111103,2.4934000000059626],[0.13677083333333329,0.15833333333333333,2.5104999999999933],[0.13645833333333332,0.1712962962962963,2.52619999998808],[0.14520833333333344,0.14629629629629629,2.5411999999880805],[0.14572916666666677,0.10944444444444448,2.5589999999999975],[0.15916666666666662,0.0992592592592593,2.5730999999940423],[0.15177083333333338,0.054259259259259174,2.5900000000000034],[0.1599999999999999,0.04296296296296305,2.606499999999997],[0.16083333333333344,0.025,2.6267999999821114],[0.15,0.03425925925925926,2.6422999999821144],[0.13833333333333328,0.052962962962963,2.6562999999821244],[0.14427083333333332,0.04203703703703712,2.6747999999821133],[0.13677083333333329,0.02240740740740745,2.693699999988084],[0.13677083333333329,0.02240740740740745,2.70659999999404],[0.12708333333333333,-0.0031481481481482323,2.7230999999940337],[0.10739583333333323,0.0301851851851851,2.7395999999940415],[0.09166666666666666,0.02111111111111107,2.7586999999880817],[0.07385416666666676,0.05351851851851848,2.773900000005966],[0.07666666666666658,0.053703703703703705,2.7897999999821224],[0.07125000000000009,0.07481481481481478,2.8112999999821113],[0.07125000000000009,0.07481481481481478,2.8230999999940423],[0.07041666666666657,0.0198148148148149,2.8399000000059544],[0.04083333333333338,-0.07907407407407405,2.856400000005962],[0.03718750000000005,-0.08648148148148146,2.8769999999999953],[0.03718750000000005,-0.08648148148148146,2.889900000005966],[0.0036458333333333334,-0.1412962962962963,2.9069999999999965],[0.0036458333333333334,-0.1412962962962963,2.9270999999940415],[0.004999999999999952,-0.1559259259259259,2.939799999982114],[0.027395833333333286,-0.19685185185185186,2.9565000000000055],[0.03114583333333331,-0.2270370370370371,2.9770999999940386],[0.044479166666666715,-0.25407407407407406,2.991400000005953],[0.03583333333333331,-0.2644444444444445,3.0065000000000026],[0.03156249999999995,-0.2851851851851852,3.024000000000001],[0.03833333333333329,-0.2788888888888889,3.042999999999992],[0.051041666666666666,-0.23425925925925925,3.057799999982123],[0.0359375,-0.22000000000000003,3.0730999999940423],[0.04541666666666669,-0.19944444444444442,3.089599999994036],[0.028437499999999952,-0.1766666666666666,3.106299999982113],[0.0012500000000000473,-0.1838888888888889,3.1230000000000047],[-0.01593749999999995,-0.20759259259259263,3.139599999994033],[-0.027708333333333356,-0.20925925925925926,3.1562999999821244],[-0.04010416666666667,-0.19425925925925921,3.172900000005953],[-0.051770833333333384,-0.18481481481481485,3.189699999988079],[-0.06833333333333336,-0.19685185185185186,3.2062999999821216],[-0.0703125,-0.2131481481481482,3.222999999999999],[-0.0702083333333333,-0.24351851851851852,3.2396999999880762],[-0.07177083333333331,-0.23444444444444448,3.2562999999821187],[-0.06583333333333338,-0.2403703703703704,3.273099999994045],[-0.065625,-0.23277777777777775,3.2895999999940386],[-0.078125,-0.20481481481481487,3.306400000005965],[-0.08187500000000002,-0.21185185185185182,3.323400000005961],[-0.08531249999999997,-0.23870370370370367,3.3396999999880848],[-0.08385416666666666,-0.26296296296296295,3.356299999982113],[-0.07947916666666661,-0.26500000000000007,3.3730000000000047],[-0.09083333333333338,-0.24500000000000002,3.389599999994033],[-0.1,-0.24370370370370376,3.4064000000059593],[-0.09718749999999995,-0.24574074074074073,3.423000000000002],[-0.10479166666666669,-0.27018518518518514,3.4464000000059656],[-0.10479166666666669,-0.27018518518518514,3.4562999999821216],[-0.10072916666666672,-0.27444444444444444,3.472999999999999],[-0.10072916666666672,-0.27444444444444444,3.4896999999880762],[-0.08614583333333338,-0.2477777777777778,3.5065000000000026],[-0.08614583333333338,-0.2477777777777778,3.522999999999996],[-0.08729166666666661,-0.2103703703703704,3.5395999999940386],[-0.08729166666666661,-0.2103703703703704,3.556299999982116],[-0.08187500000000002,-0.19166666666666668,3.5729999999999933],[-0.08187500000000002,-0.19166666666666668,3.589599999994036],[-0.08854166666666667,-0.1383333333333333,3.6065999999940317],[-0.08854166666666667,-0.1383333333333333,3.6230999999940394],[-0.09500000000000004,-0.1259259259259259,3.639599999994033],[-0.08666666666666671,-0.11833333333333329,3.6592999999821245],[-0.03937499999999995,-0.14685185185185187,3.673000000000002],[-0.03937499999999995,-0.14685185185185187,3.689699999988079],[0.01906249999999995,-0.1646296296296296,3.7065000000000055],[0.04874999999999995,-0.1712962962962963,3.724499999999992],[0.09979166666666663,-0.18611111111111112,3.7396999999880762],[0.10197916666666676,-0.20462962962962963,3.7562999999821187],[0.12479166666666662,-0.2007407407407407,3.772999999999996],[0.11572916666666658,-0.17314814814814813,3.7896999999880734],[0.11645833333333329,-0.17407407407407408,3.806400000005965],[0.10729166666666666,-0.13962962962962958,3.8229999999999933],[0.10958333333333338,-0.11555555555555551,3.8396999999880848],[0.06614583333333333,-0.04796296296296292,3.856299999982113],[0.014583333333333334,-0.01185185185185181,3.8730000000000047],[-0.013437499999999976,0.011296296296296339,3.889599999994033],[-0.08020833333333334,0.07166666666666675,3.9062999999821244],[-0.0921875,0.0514814814814814,3.923000000000002],[-0.1109375,0.018333333333333292,3.939699999988079],[-0.10739583333333336,-0.0198148148148149,3.9562999999821216],[-0.09614583333333329,-0.04685185185185177,3.972900000005964],[-0.09312499999999997,-0.07685185185185185,3.9896999999880762],[-0.0984375,-0.10407407407407405,4.006299999982119],[-0.10104166666666667,-0.14666666666666664,4.022999999999996],[-0.10208333333333333,-0.10351851851851848,4.039599999994039],[-0.1171875,-0.10481481481481486,4.056299999982116],[-0.11229166666666662,-0.13925925925925925,4.072999999999993],[-0.11802083333333328,-0.13481481481481483,4.089699999988085],[-0.12239583333333333,-0.12092592592592595,4.106400000005962],[-0.13218749999999999,-0.09833333333333337,4.123099999994039],[-0.14572916666666663,-0.09537037037037037,4.139599999994033],[-0.15489583333333337,-0.08148148148148149,4.156299999982124],[-0.16302083333333334,-0.07074074074074072,4.173099999994037],[-0.17406250000000004,-0.044444444444444446,4.189699999988079],[-0.18968750000000004,-0.08314814814814811,4.2064000000059565],[-0.18937499999999996,-0.07462962962962966,4.225299999982113],[-0.18677083333333327,-0.05277777777777778,4.2395999999940415],[-0.1872916666666666,-0.020370370370370372,4.256299999982119],[-0.18947916666666664,-0.006111111111111027,4.272999999999996],[-0.18552083333333336,0.001851851851851852,4.290099999994041],[-0.18739583333333332,0.0031481481481482323,4.306400000005965],[-0.1857291666666666,-0.002962962962963005,4.324599999994035],[-0.19624999999999998,0.021851851851851768,4.339599999994036],[-0.20656249999999995,0.046481481481481526,4.356400000005962],[-0.2079166666666667,0.045740740740740825,4.372900000005956],[-0.20822916666666663,0.04000000000000004,4.389599999994033],[-0.2133333333333333,0.007037037037036953,4.406400000005959],[-0.22291666666666668,-0.006296296296296254,4.423000000000002],[-0.22583333333333327,-0.004629629629629629,4.439599999994044],[-0.21156250000000001,-0.007777777777777862,4.456299999982122],[-0.19729166666666664,0.02370370370370362,4.472900000005964],[-0.18187500000000004,0.017592592592592594,4.4895999999940415],[-0.15427083333333336,-0.019444444444444445,4.506500000000003],[-0.12177083333333331,-0.062037037037037036,4.523099999994045],[-0.09822916666666662,-0.07925925925925928,4.539599999994039],[-0.08010416666666664,-0.09870370370370372,4.556299999982116],[-0.07729166666666672,-0.08129629629629626,4.572999999999993],[-0.05625,-0.09018518518518516,4.589599999994036],[-0.03999999999999997,-0.11129629629629634,4.606299999982113],[-0.041666666666666664,-0.12999999999999998,4.622900000005956],[-0.05385416666666672,-0.1624074074074074,4.639599999994033],[-0.042499999999999954,-0.12148148148148152,4.656299999982124],[-0.04364583333333331,-0.13481481481481483,4.673099999994037],[-0.04885416666666664,-0.1227777777777778,4.694000000000003],[-0.06895833333333339,-0.08648148148148146,4.710799999982115],[-0.06895833333333339,-0.04055555555555551,4.727199999988073],[-0.06614583333333333,-0.010185185185185186,4.740900000005965],[-0.058854166666666666,0.009999999999999959,4.756299999982119],[-0.07250000000000002,0.020555555555555598,4.772999999999996],[-0.07208333333333337,0.013888888888888888,4.789699999988073],[-0.06124999999999995,0.0014814814814813973,4.806299999982116],[-0.06468750000000002,-0.03333333333333333,4.824299999982117],[-0.05666666666666664,-0.01962962962962967,4.839599999994036],[-0.049479166666666664,-0.0257407407407407,4.856299999982113],[-0.03093750000000005,-0.047037037037036995,4.873000000000005],[-0.04624999999999998,-0.040740740740740744,4.889599999994033],[-0.030104166666666644,-0.04944444444444453,4.906499999999994],[-0.044375000000000026,-0.07592592592592592,4.923099999994037],[-0.026979166666666644,-0.10166666666666663,4.939599999994044],[-0.03885416666666662,-0.07074074074074072,4.956199999988073],[-0.03687499999999998,-0.04222222222222214,4.972999999999999],[-0.03895833333333331,-0.06611111111111109,4.9895999999940415],[-0.036666666666666715,-0.0794444444444444,5.006400000005954],[-0.036145833333333384,-0.09425925925925922,5.022999999999996],[-0.03947916666666664,-0.09962962962962965,5.039599999994039],[-0.029270833333333357,-0.15537037037037033,5.056299999982116],[-0.029270833333333357,-0.16314814814814818,5.072999999999993],[-0.014479166666666644,-0.15333333333333335,5.089599999994036],[-0.0015625,-0.1307407407407408,5.106299999982113],[0.026979166666666644,-0.15759259259259265,5.124299999982114],[0.027395833333333286,-0.16351851851851854,5.139699999988082],[0.021458333333333357,-0.13037037037037033,5.156299999982124],[-0.005624999999999976,-0.0940740740740741,5.172900000005953],[-0.0125,-0.06925925925925921,5.189599999994044],[-0.0140625,-0.0772222222222222,5.206299999982122],[-0.011041666666666691,-0.06481481481481481,5.2255999999940315],[-0.011666666666666714,-0.07999999999999997,5.239699999988076],[-0.009375,-0.06740740740740736,5.256599999994037],[-0.014479166666666644,-0.0544444444444444,5.273099999994045],[-0.02000000000000005,-0.03148148148148148,5.292999999999992],[-0.014791666666666713,-0.013703703703703662,5.309799999982118],[-0.005312500000000024,-0.011111111111111112,5.326499999999996],[0.021979166666666692,-0.01648148148148144,5.340500000000006],[0.02312500000000005,-0.004444444444444402,5.356199999988078],[0.019895833333333356,0.03814814814814819,5.375599999994037],[0.012395833333333309,0.06740740740740736,5.389599999994033],[0.01583333333333338,0.07907407407407416,5.410099999994031],[0.01583333333333338,0.07907407407407416,5.423000000000002],[0.007291666666666667,0.08574074074074066,5.439599999994044],[0.007291666666666667,0.08574074074074066,5.456299999982122],[0.0032291666666666905,0.044444444444444446,5.473099999994034],[-0.011041666666666691,0.028703703703703703,5.490199999988079],[-0.011041666666666691,0.028703703703703703,5.506400000005954],[0.00302083333333331,0.015370370370370286,5.522999999999996],[-0.010104166666666714,0.009814814814814731,5.539599999994039],[-0.02000000000000005,0.005185185185185101,5.556299999982116],[-0.01895833333333338,-0.000925925925925926,5.576299999982112],[-0.004479166666666619,-0.00851851851851856,5.59169999998808],[0.013437499999999976,-0.010925925925925884,5.606599999994032],[0.0068750000000000235,-0.006851851851851936,5.627799999982116],[0.0015625,-0.02166666666666675,5.642699999988082],[0.001979166666666643,0.00592592592592601,5.658400000005955],[0.00604166666666662,0.018148148148148063,5.677299999982111],[0.00604166666666662,0.018148148148148063,5.689699999988079],[-0.021354166666666667,0.03555555555555564,5.7064000000059565],[-0.027291666666666714,0.053703703703703705,5.726900000005955],[-0.027291666666666714,0.053703703703703705,5.742599999994042],[-0.020833333333333332,0.058333333333333334,5.756400000005954],[-0.024583333333333356,0.049629629629629544,5.774699999988073],[-0.034895833333333334,0.034444444444444486,5.79229999998212],[-0.034062500000000044,0.030740740740740784,5.809900000005953],[-0.034062500000000044,0.030740740740740784,5.823099999994042],[-0.03833333333333329,0.0257407407407407,5.839900000005954],[-0.03833333333333329,0.0257407407407407,5.856400000005962],[-0.026041666666666668,0.04592592592592584,5.877199999988079],[-0.033749999999999974,0.05314814814814823,5.895799999982117],[-0.033749999999999974,0.05314814814814823,5.906900000005962],[-0.03958333333333333,0.05092592592592592,5.928900000005953],[-0.03958333333333333,0.05092592592592592,5.939699999988079],[-0.03187500000000002,0.03314814814814811,5.9565000000000055],[-0.01906249999999995,0.014259259259259343,5.98090000000596],[-0.01906249999999995,0.014259259259259343,5.9895999999940415],[-0.015625,0.032777777777777864,6.006799999982121],[-0.015625,0.032777777777777864,6.023099999994045],[-0.011666666666666714,0.03888888888888889,6.042599999994039],[-0.01114583333333338,0.04351851851851852,6.059099999994032],[-0.010625000000000048,0.04814814814814815,6.073900000005963],[0.000833333333333286,0.054074074074074156,6.093199999988073],[0.0005208333333333333,0.01796296296296305,6.110099999994034],[0.0005208333333333333,0.01796296296296305,6.131900000005956],[0.011354166666666643,0.027222222222222307,6.1461999999880845],[0.011354166666666643,0.027222222222222307,6.156299999982124],[0.04135416666666671,0.01592592592592597,6.173000000000002],[0.05020833333333338,0.02166666666666675,6.191699999988074],[0.07427083333333329,0.03259259259259263,6.206299999982122],[0.06958333333333329,0.0198148148148149,6.224599999994041],[0.08333333333333333,0.05722222222222218,6.2395999999940415],[0.08156249999999995,0.08499999999999996,6.256199999988084],[0.08572916666666662,0.08722222222222227,6.272900000005961],[0.0890625,0.08740740740740749,6.289599999994039],[0.10604166666666662,0.13055555555555556,6.3065],[0.09260416666666677,0.16166666666666657,6.32559999999404],[0.07989583333333337,0.1485185185185186,6.339699999988085],[0.0806250000000001,0.12111111111111107,6.356199999988078],[0.06416666666666669,0.11185185185185181,6.372900000005956],[0.07739583333333329,0.09166666666666666,6.389599999994033],[0.0828125,0.03092592592592601,6.406299999982124],[0.1015625,0.009814814814814731,6.422900000005953],[0.09697916666666657,-0.012962962962962963,6.439599999994044],[0.09395833333333338,-0.0418518518518519,6.456299999982122],[0.08166666666666676,-0.07037037037037037,6.472900000005964],[0.09666666666666662,-0.12685185185185185,6.4894999999999925],[0.09645833333333324,-0.11925925925925922,6.506400000005954],[0.09812500000000005,-0.11240740740740739,6.524299999982119],[0.09812500000000005,-0.12111111111111107,6.539699999988073],[0.08427083333333343,-0.11833333333333329,6.556199999988081],[0.06625000000000002,-0.10240740740740743,6.5729000000059585],[0.05479166666666669,-0.10888888888888891,6.589599999994036],[0.05947916666666669,-0.11018518518518519,6.606400000005962],[0.05687500000000002,-0.08222222222222218,6.623000000000005],[0.06635416666666671,-0.11555555555555551,6.639699999988082],[0.07166666666666661,-0.10240740740740743,6.656199999988075],[0.06020833333333329,-0.0712962962962963,6.672900000005953],[0.06020833333333329,-0.0712962962962963,6.689699999988079],[0.049374999999999974,-0.049629629629629544,6.7064000000059565],[0.04666666666666662,-0.04203703703703712,6.72479999998211],[0.05427083333333336,-0.0485185185185186,6.7395999999940415],[0.06104166666666669,-0.05611111111111113,6.756199999988084],[0.06604166666666664,-0.08814814814814818,6.772900000005961],[0.06197916666666667,-0.1014814814814815,6.790199999988076],[0.07781250000000005,-0.10240740740740743,6.809199999988081],[0.0703125,-0.0824074074074074,6.826299999982112],[0.07104166666666671,-0.08370370370370368,6.842500000000001],[0.07322916666666662,-0.0794444444444444,6.86079999998212],[0.0828125,-0.07222222222222222,6.873699999988077],[0.09020833333333324,-0.1,6.889699999988082],[0.09395833333333338,-0.11537037037037039,6.906599999994043],[0.09395833333333338,-0.11537037037037039,6.92629999998212],[0.08562500000000005,-0.09740740740740746,6.939699999988079],[0.09249999999999996,-0.06444444444444447,6.9564000000059565],[0.08479166666666677,-0.05333333333333336,6.975199999988078],[0.06312500000000003,-0.0883333333333333,6.989799999982111],[0.043437500000000046,-0.0933333333333333,7.006500000000003],[0.025833333333333285,-0.12629629629629627,7.025299999982124],[0.024166666666666715,-0.18111111111111114,7.039699999988073],[0.02052083333333338,-0.22722222222222221,7.056400000005965],[0.0015625,-0.15703703703703706,7.072999999999993],[-0.010000000000000024,-0.11722222222222224,7.093099999994038],[-0.015208333333333357,-0.10407407407407405,7.106400000005962],[-0.025416666666666643,-0.1346296296296296,7.122900000005956],[-0.024583333333333356,-0.15555555555555556,7.139699999988082],[-0.0296875,-0.16277777777777774,7.156199999988075],[-0.016666666666666666,-0.1411111111111111,7.172900000005953],[-0.022604166666666713,-0.1175925925925926,7.189599999994044],[-0.017812500000000023,-0.09037037037037039,7.20659999999404],[-0.01083333333333331,-0.10648148148148148,7.225499999999997],[-0.01885416666666669,-0.15796296296296297,7.2395999999940415],[-0.028854166666666715,-0.17759259259259255,7.256299999982119],[-0.028125,-0.21814814814814817,7.272900000005961],[-0.02781250000000005,-0.2161111111111111,7.289599999994039],[-0.023958333333333335,-0.20185185185185187,7.307400000005956],[-0.011874999999999976,-0.17629629629629628,7.323199999988077],[-0.018333333333333358,-0.17462962962962966,7.339699999988085],[-0.0006250000000000236,-0.20925925925925926,7.356199999988078],[-0.007187499999999976,-0.20259259259259255,7.372900000005956],[-0.01593749999999995,-0.18629629629629635,7.389599999994033],[-0.003854166666666714,-0.17851851851851847,7.406299999982124],[0.00635416666666669,-0.1955555555555556,7.423099999994037],[0.021354166666666667,-0.19074074074074074,7.439599999994044],[0.026979166666666644,-0.18981481481481483,7.456299999982122],[0.02520833333333338,-0.18703703703703703,7.472999999999999],[0.024270833333333287,-0.19425925925925921,7.4894999999999925],[0.0375,-0.20259259259259255,7.506299999982119],[0.034062500000000044,-0.15777777777777777,7.52319999998808],[0.036145833333333384,-0.1742592592592593,7.539599999994039],[0.029166666666666667,-0.14648148148148152,7.556199999988081],[0.04729166666666664,-0.14870370370370373,7.5729000000059585],[0.05510416666666664,-0.09259259259259259,7.589500000000001],[0.044479166666666715,-0.10666666666666672,7.606400000005962],[0.03218749999999997,-0.08925925925925923,7.622900000005956],[0.029791666666666692,-0.09444444444444444,7.639599999994033],[0.034166666666666616,-0.07703703703703708,7.656199999988075],[0.013333333333333286,-0.08259259259259263,7.67329999998212],[-0.00302083333333331,-0.05740740740740741,7.693299999982116],[-0.00302083333333331,-0.05740740740740741,7.711199999988082],[-0.013645833333333357,-0.02629629629629638,7.722999999999999],[-0.006666666666666643,-0.01055555555555564,7.7394999999999925],[-0.01604166666666664,-0.0242592592592593,7.756299999982119],[-0.01864583333333331,-0.07296296296296292,7.772900000005961],[-0.019479166666666714,-0.05018518518518523,7.789699999988073],[-0.005937500000000048,-0.06481481481481481,7.812900000005953],[-0.005937500000000048,-0.06481481481481481,7.822999999999993],[-0.016145833333333335,-0.0448148148148149,7.839599999994036],[-0.024687500000000046,-0.05388888888888893,7.858099999994039],[-0.024687500000000046,-0.05388888888888893,7.872900000005956],[-0.016145833333333335,-0.02907407407407416,7.889599999994033],[-0.01229166666666662,-0.046296296296296294,7.906299999982124],[-0.008229166666666643,-0.04944444444444453,7.9254999999999995],[-0.01864583333333331,-0.06555555555555552,7.939699999988079],[-0.03427083333333331,-0.0455555555555556,7.956199999988073],[-0.030208333333333334,0.002962962962963005,7.973099999994034],[-0.029062499999999977,0.05648148148148148,7.989699999988076],[-0.02947916666666662,0.08314814814814811,8.006400000005954],[-0.022395833333333334,0.13148148148148148,8.027500000000003],[-0.027395833333333286,0.18851851851851845,8.042699999988074],[-0.04135416666666671,0.22370370370370363,8.056799999982118],[-0.049687500000000044,0.1883333333333334,8.072900000005959],[-0.05552083333333328,0.1881481481481482,8.091099999994043],[-0.06083333333333331,0.19648148148148153,8.106299999982113],[-0.06687500000000005,0.1992592592592593,8.12609999999404],[-0.09260416666666664,0.1735185185185186,8.142599999994033],[-0.08947916666666664,0.12314814814814815,8.156199999988075],[-0.09750000000000002,0.10555555555555556,8.172900000005953],[-0.1,0.0418518518518519,8.189599999994044],[-0.09885416666666665,-0.024074074074074074,8.208699999988085],[-0.09885416666666665,-0.024074074074074074,8.222900000005964],[-0.09104166666666665,-0.09611111111111106,8.239599999994041]]","[0.0002999999821184929,0.0426999999880735,0.05840000000596035,0.06490000000596297,0.09159999999404533,0.09869999998807089,0.12490000000596524,0.13140000000595364,0.15819999998808498,0.16579999998211292,0.1915000000000049,0.19819999998807702,0.22490000000595955,0.23209999999403408,0.25829999998211406,0.2649000000059658,0.2930999999940411,0.29909999999404135,0.32500000000000284,0.33129999998212156,0.3589000000059599,0.3664000000059531,0.3929000000059659,0.39909999999403567,0.4250999999940319,0.4314999999999998,0.4594000000059566,0.4654000000059568,0.4915999999940368,0.49869999998807657,0.5289000000059616,0.535499999999999,0.5582999999821112,0.5655999999940349,0.5935999999940407,0.6009000000059643,0.6252999999821185,0.6339000000059656,0.660499999999999,0.6680999999940411,0.6732999999821203,0.6909000000059535,0.726699999988071,0.7340999999940436,0.7582999999821141,0.7649000000059658,0.7925999999940387,0.7991999999880761,0.8254000000059563,0.8329999999999984,0.8605000000000018,0.867199999988074,0.8730999999940394,0.8909000000059564,0.9270999999940415,0.9334000000059604,0.9396999999880791,0.9771999999880734,0.9839999999999947,0.9896999999880762,1.0074000000059584,1.0444999999999993,1.0519000000059577,1.0752999999821213,1.0824000000059613,1.1109000000059552,1.118900000005965,1.1414999999999935,1.1509999999999962,1.1770999999940415,1.1846999999880836,1.2095000000000056,1.2179000000059546,1.2434999999999974,1.2507999999821209,1.2752999999821242,1.282400000005964,1.3125999999940348,1.3200999999940422,1.3424000000059664,1.3491999999880733,1.3761999999880743,1.383299999982114,1.4094000000059594,1.4191999999880807,1.4470000000000027,1.4552999999821168,1.478299999982113,1.4865999999940414,1.5212999999821193,1.5290999999940453,1.5397999999821224,1.5564999999999998,1.5795999999940449,1.5897999999821195,1.6069000000059646,1.6320999999940398,1.6397999999821167,1.656499999999994,1.673599999994039,1.694299999982121,1.710599999994045,1.7260999999940339,1.740699999988081,1.759099999994035,1.7754999999999939,1.790799999982113,1.8114999999999952,1.8230999999940423,1.8397999999821195,1.8596999999880808,1.8755999999940371,1.8915999999940425,1.907299999982115,1.9290999999940368,1.939699999988079,1.9565999999940402,1.9731999999880827,1.9944000000059532,2.0102999999821236,2.0262999999821147,2.0399000000059573,2.060099999994037,2.07559999999404,2.090500000000006,2.1069000000059646,2.127299999982114,2.1430000000000007,2.159499999999994,2.1732999999821203,2.1934000000059655,2.2074000000059613,2.2249000000059596,2.239799999982111,2.2587999999821164,2.2734999999999985,2.2897999999821224,2.3096999999880836,2.324799999982119,2.3396999999880848,2.3599000000059647,2.3736999999880766,2.3897999999821167,2.406699999988078,2.4269999999999925,2.439799999982114,2.45659999999404,2.4730999999940337,2.4934000000059626,2.5104999999999933,2.52619999998808,2.5411999999880805,2.5589999999999975,2.5730999999940423,2.5900000000000034,2.606499999999997,2.6267999999821114,2.6422999999821144,2.6562999999821244,2.6747999999821133,2.693699999988084,2.70659999999404,2.7230999999940337,2.7395999999940415,2.7586999999880817,2.773900000005966,2.7897999999821224,2.8112999999821113,2.8230999999940423,2.8399000000059544,2.856400000005962,2.8769999999999953,2.889900000005966,2.9069999999999965,2.9270999999940415,2.939799999982114,2.9565000000000055,2.9770999999940386,2.991400000005953,3.0065000000000026,3.024000000000001,3.042999999999992,3.057799999982123,3.0730999999940423,3.089599999994036,3.106299999982113,3.1230000000000047,3.139599999994033,3.1562999999821244,3.172900000005953,3.189699999988079,3.2062999999821216,3.222999999999999,3.2396999999880762,3.2562999999821187,3.273099999994045,3.2895999999940386,3.306400000005965,3.323400000005961,3.3396999999880848,3.356299999982113,3.3730000000000047,3.389599999994033,3.4064000000059593,3.423000000000002,3.4464000000059656,3.4562999999821216,3.472999999999999,3.4896999999880762,3.5065000000000026,3.522999999999996,3.5395999999940386,3.556299999982116,3.5729999999999933,3.589599999994036,3.6065999999940317,3.6230999999940394,3.639599999994033,3.6592999999821245,3.673000000000002,3.689699999988079,3.7065000000000055,3.724499999999992,3.7396999999880762,3.7562999999821187,3.772999999999996,3.7896999999880734,3.806400000005965,3.8229999999999933,3.8396999999880848,3.856299999982113,3.8730000000000047,3.889599999994033,3.9062999999821244,3.923000000000002,3.939699999988079,3.9562999999821216,3.972900000005964,3.9896999999880762,4.006299999982119,4.022999999999996,4.039599999994039,4.056299999982116,4.072999999999993,4.089699999988085,4.106400000005962,4.123099999994039,4.139599999994033,4.156299999982124,4.173099999994037,4.189699999988079,4.2064000000059565,4.225299999982113,4.2395999999940415,4.256299999982119,4.272999999999996,4.290099999994041,4.306400000005965,4.324599999994035,4.339599999994036,4.356400000005962,4.372900000005956,4.389599999994033,4.406400000005959,4.423000000000002,4.439599999994044,4.456299999982122,4.472900000005964,4.4895999999940415,4.506500000000003,4.523099999994045,4.539599999994039,4.556299999982116,4.572999999999993,4.589599999994036,4.606299999982113,4.622900000005956,4.639599999994033,4.656299999982124,4.673099999994037,4.694000000000003,4.710799999982115,4.727199999988073,4.740900000005965,4.756299999982119,4.772999999999996,4.789699999988073,4.806299999982116,4.824299999982117,4.839599999994036,4.856299999982113,4.873000000000005,4.889599999994033,4.906499999999994,4.923099999994037,4.939599999994044,4.956199999988073,4.972999999999999,4.9895999999940415,5.006400000005954,5.022999999999996,5.039599999994039,5.056299999982116,5.072999999999993,5.089599999994036,5.106299999982113,5.124299999982114,5.139699999988082,5.156299999982124,5.172900000005953,5.189599999994044,5.206299999982122,5.2255999999940315,5.239699999988076,5.256599999994037,5.273099999994045,5.292999999999992,5.309799999982118,5.326499999999996,5.340500000000006,5.356199999988078,5.375599999994037,5.389599999994033,5.410099999994031,5.423000000000002,5.439599999994044,5.456299999982122,5.473099999994034,5.490199999988079,5.506400000005954,5.522999999999996,5.539599999994039,5.556299999982116,5.576299999982112,5.59169999998808,5.606599999994032,5.627799999982116,5.642699999988082,5.658400000005955,5.677299999982111,5.689699999988079,5.7064000000059565,5.726900000005955,5.742599999994042,5.756400000005954,5.774699999988073,5.79229999998212,5.809900000005953,5.823099999994042,5.839900000005954,5.856400000005962,5.877199999988079,5.895799999982117,5.906900000005962,5.928900000005953,5.939699999988079,5.9565000000000055,5.98090000000596,5.9895999999940415,6.006799999982121,6.023099999994045,6.042599999994039,6.059099999994032,6.073900000005963,6.093199999988073,6.110099999994034,6.131900000005956,6.1461999999880845,6.156299999982124,6.173000000000002,6.191699999988074,6.206299999982122,6.224599999994041,6.2395999999940415,6.256199999988084,6.272900000005961,6.289599999994039,6.3065,6.32559999999404,6.339699999988085,6.356199999988078,6.372900000005956,6.389599999994033,6.406299999982124,6.422900000005953,6.439599999994044,6.456299999982122,6.472900000005964,6.4894999999999925,6.506400000005954,6.524299999982119,6.539699999988073,6.556199999988081,6.5729000000059585,6.589599999994036,6.606400000005962,6.623000000000005,6.639699999988082,6.656199999988075,6.672900000005953,6.689699999988079,6.7064000000059565,6.72479999998211,6.7395999999940415,6.756199999988084,6.772900000005961,6.790199999988076,6.809199999988081,6.826299999982112,6.842500000000001,6.86079999998212,6.873699999988077,6.889699999988082,6.906599999994043,6.92629999998212,6.939699999988079,6.9564000000059565,6.975199999988078,6.989799999982111,7.006500000000003,7.025299999982124,7.039699999988073,7.056400000005965,7.072999999999993,7.093099999994038,7.106400000005962,7.122900000005956,7.139699999988082,7.156199999988075,7.172900000005953,7.189599999994044,7.20659999999404,7.225499999999997,7.2395999999940415,7.256299999982119,7.272900000005961,7.289599999994039,7.307400000005956,7.323199999988077,7.339699999988085,7.356199999988078,7.372900000005956,7.389599999994033,7.406299999982124,7.423099999994037,7.439599999994044,7.456299999982122,7.472999999999999,7.4894999999999925,7.506299999982119,7.52319999998808,7.539599999994039,7.556199999988081,7.5729000000059585,7.589500000000001,7.606400000005962,7.622900000005956,7.639599999994033,7.656199999988075,7.67329999998212,7.693299999982116,7.711199999988082,7.722999999999999,7.7394999999999925,7.756299999982119,7.772900000005961,7.789699999988073,7.812900000005953,7.822999999999993,7.839599999994036,7.858099999994039,7.872900000005956,7.889599999994033,7.906299999982124,7.9254999999999995,7.939699999988079,7.956199999988073,7.973099999994034,7.989699999988076,8.006400000005954,8.027500000000003,8.042699999988074,8.056799999982118,8.072900000005959,8.091099999994043,8.106299999982113,8.12609999999404,8.142599999994033,8.156199999988075,8.172900000005953,8.189599999994044,8.208699999988085,8.222900000005964,8.239599999994041]","[1733380759573,1733380759609,1733380759624,1733380759631,1733380759658,1733380759665,1733380759691,1733380759697,1733380759724,1733380759732,1733380759758,1733380759764,1733380759791,1733380759798,1733380759824,1733380759831,1733380759859,1733380759865,1733380759891,1733380759897,1733380759925,1733380759932,1733380759959,1733380759965,1733380759991,1733380759997,1733380760025,1733380760031,1733380760058,1733380760065,1733380760095,1733380760102,1733380760124,1733380760132,1733380760160,1733380760167,1733380760191,1733380760200,1733380760226,1733380760234,1733380760239,1733380760257,1733380760293,1733380760300,1733380760324,1733380760331,1733380760359,1733380760365,1733380760391,1733380760399,1733380760427,1733380760433,1733380760439,1733380760457,1733380760493,1733380760499,1733380760506,1733380760543,1733380760550,1733380760556,1733380760573,1733380760611,1733380760618,1733380760641,1733380760648,1733380760677,1733380760685,1733380760707,1733380760717,1733380760743,1733380760751,1733380760776,1733380760784,1733380760810,1733380760817,1733380760841,1733380760848,1733380760879,1733380760886,1733380760908,1733380760915,1733380760942,1733380760949,1733380760976,1733380760985,1733380761013,1733380761021,1733380761044,1733380761053,1733380761087,1733380761095,1733380761106,1733380761123,1733380761146,1733380761156,1733380761173,1733380761198,1733380761206,1733380761223,1733380761240,1733380761260,1733380761277,1733380761292,1733380761307,1733380761325,1733380761342,1733380761357,1733380761378,1733380761389,1733380761406,1733380761426,1733380761442,1733380761458,1733380761473,1733380761495,1733380761506,1733380761523,1733380761539,1733380761560,1733380761576,1733380761592,1733380761606,1733380761626,1733380761642,1733380761657,1733380761673,1733380761693,1733380761709,1733380761726,1733380761739,1733380761759,1733380761773,1733380761791,1733380761806,1733380761825,1733380761840,1733380761856,1733380761876,1733380761891,1733380761906,1733380761926,1733380761940,1733380761956,1733380761973,1733380761993,1733380762006,1733380762023,1733380762039,1733380762059,1733380762077,1733380762092,1733380762107,1733380762125,1733380762139,1733380762156,1733380762173,1733380762193,1733380762208,1733380762222,1733380762241,1733380762260,1733380762273,1733380762289,1733380762306,1733380762325,1733380762340,1733380762356,1733380762377,1733380762389,1733380762406,1733380762423,1733380762443,1733380762456,1733380762473,1733380762493,1733380762506,1733380762522,1733380762543,1733380762557,1733380762573,1733380762590,1733380762609,1733380762624,1733380762639,1733380762656,1733380762672,1733380762689,1733380762706,1733380762722,1733380762739,1733380762756,1733380762772,1733380762789,1733380762806,1733380762822,1733380762839,1733380762856,1733380762872,1733380762889,1733380762906,1733380762922,1733380762939,1733380762956,1733380762972,1733380762989,1733380763012,1733380763022,1733380763039,1733380763056,1733380763073,1733380763089,1733380763106,1733380763122,1733380763139,1733380763156,1733380763173,1733380763189,1733380763206,1733380763225,1733380763239,1733380763256,1733380763273,1733380763291,1733380763306,1733380763322,1733380763339,1733380763356,1733380763372,1733380763389,1733380763406,1733380763422,1733380763439,1733380763456,1733380763472,1733380763489,1733380763506,1733380763522,1733380763539,1733380763556,1733380763572,1733380763589,1733380763606,1733380763622,1733380763639,1733380763656,1733380763672,1733380763689,1733380763706,1733380763722,1733380763739,1733380763756,1733380763772,1733380763791,1733380763806,1733380763822,1733380763839,1733380763856,1733380763872,1733380763891,1733380763906,1733380763922,1733380763939,1733380763956,1733380763972,1733380763989,1733380764006,1733380764022,1733380764039,1733380764056,1733380764072,1733380764089,1733380764106,1733380764122,1733380764139,1733380764156,1733380764172,1733380764189,1733380764206,1733380764222,1733380764239,1733380764260,1733380764277,1733380764293,1733380764307,1733380764322,1733380764339,1733380764356,1733380764372,1733380764390,1733380764406,1733380764422,1733380764439,1733380764456,1733380764472,1733380764489,1733380764506,1733380764522,1733380764539,1733380764556,1733380764572,1733380764589,1733380764606,1733380764622,1733380764639,1733380764656,1733380764672,1733380764690,1733380764706,1733380764722,1733380764739,1733380764756,1733380764772,1733380764792,1733380764806,1733380764823,1733380764839,1733380764859,1733380764876,1733380764892,1733380764907,1733380764922,1733380764942,1733380764956,1733380764976,1733380764989,1733380765006,1733380765022,1733380765039,1733380765056,1733380765072,1733380765089,1733380765106,1733380765122,1733380765142,1733380765158,1733380765173,1733380765194,1733380765209,1733380765224,1733380765243,1733380765256,1733380765272,1733380765293,1733380765309,1733380765322,1733380765341,1733380765358,1733380765376,1733380765389,1733380765406,1733380765422,1733380765443,1733380765462,1733380765473,1733380765495,1733380765506,1733380765522,1733380765547,1733380765556,1733380765573,1733380765589,1733380765609,1733380765625,1733380765640,1733380765659,1733380765676,1733380765698,1733380765712,1733380765722,1733380765739,1733380765758,1733380765772,1733380765791,1733380765806,1733380765822,1733380765839,1733380765856,1733380765873,1733380765892,1733380765906,1733380765922,1733380765939,1733380765956,1733380765972,1733380765989,1733380766006,1733380766022,1733380766039,1733380766056,1733380766072,1733380766090,1733380766106,1733380766122,1733380766139,1733380766156,1733380766172,1733380766189,1733380766206,1733380766222,1733380766239,1733380766256,1733380766272,1733380766291,1733380766306,1733380766322,1733380766339,1733380766356,1733380766375,1733380766392,1733380766409,1733380766427,1733380766440,1733380766456,1733380766473,1733380766492,1733380766506,1733380766522,1733380766541,1733380766556,1733380766573,1733380766591,1733380766606,1733380766622,1733380766639,1733380766659,1733380766672,1733380766689,1733380766706,1733380766722,1733380766739,1733380766756,1733380766773,1733380766792,1733380766806,1733380766822,1733380766839,1733380766856,1733380766874,1733380766889,1733380766906,1733380766922,1733380766939,1733380766956,1733380766972,1733380766989,1733380767006,1733380767022,1733380767039,1733380767056,1733380767072,1733380767089,1733380767106,1733380767122,1733380767139,1733380767156,1733380767172,1733380767189,1733380767206,1733380767222,1733380767239,1733380767259,1733380767277,1733380767289,1733380767306,1733380767322,1733380767339,1733380767356,1733380767379,1733380767389,1733380767406,1733380767424,1733380767439,1733380767456,1733380767472,1733380767492,1733380767506,1733380767522,1733380767539,1733380767556,1733380767572,1733380767594,1733380767609,1733380767623,1733380767639,1733380767657,1733380767672,1733380767692,1733380767709,1733380767722,1733380767739,1733380767756,1733380767775,1733380767789,1733380767806]","[[929,677.6],[929,677.6],[915.9,681.8],[915.9,681.8],[909.6,678.8],[909.6,678.8],[907.5,666.8],[907.5,666.8],[906.8,675.5],[906.8,675.5],[901,674.7],[901,674.7],[916.5,675.8],[916.5,675.8],[897,673.6],[897,673.6],[882.5,681.4],[882.5,681.4],[882.1,680.3],[882.1,680.3],[881.3,679.1],[881.3,679.1],[891.2,679.9],[891.2,679.9],[906.2,692.4],[906.2,692.4],[909.7,701.5],[909.7,701.5],[932.4,725.9],[932.4,725.9],[939.7,732.3],[939.7,732.3],[930.4,736.6],[930.4,736.6],[941.6,739.9],[941.6,739.9],[948.6,738.8],[948.6,738.8],[945.9,748.5],[945.9,748.5],[945.9,748.5],[945.9,748.5],[954.1,760.4],[954.1,760.4],[938.8,769.5],[938.8,769.5],[925.5,774.5],[925.5,774.5],[910.9,763.9],[910.9,763.9],[890.6,724.3],[890.6,724.3],[890.6,724.3],[890.6,724.3],[898.3,732.8],[898.3,732.8],[898.3,732.8],[902.5,728.5],[902.5,728.5],[902.5,728.5],[902.5,728.5],[888.3,743.2],[888.3,743.2],[867.2,720],[867.2,720],[862.4,731.9],[862.4,731.9],[850.7,739.3],[850.7,739.3],[860.7,748.9],[860.7,748.9],[856.5,743.2],[856.5,743.2],[879.3,779.6],[879.3,779.6],[873.8,794.5],[873.8,794.5],[868.7,811.2],[868.7,811.2],[863.4,822.6],[863.4,822.6],[878.1,815.4],[878.1,815.4],[873.8,832.9],[873.8,832.9],[870.4,819.1],[870.4,819.1],[860.1,786.6],[860.1,786.6],[852.1,757.2],[852.1,757.2],[861.2,754.7],[861.2,754.7],[850.8,726],[850.8,726],[866.5,759.1],[866.5,759.1],[859.1,734.4],[856.4,707.9],[856.4,697.2],[871.8,677.6],[885.8,668.8],[894,684.4],[886.5,697.1],[896.9,715.3],[913.1,722.6],[906.5,679.6],[889.3,688],[889.3,688],[897.8,688.1],[889.5,687.5],[890.1,708.3],[879.2,711.5],[894.9,711.1],[914.8,707.6],[914.8,707.6],[906.6,696.4],[910.5,703.4],[927.3,726.5],[972.1,728.7],[990.6,741.4],[1013.5,753.3],[1031.5,754.7],[1038.7,762],[1040.5,777.3],[1053.7,797.6],[1068.4,815.2],[1069.4,801.7],[1069.1,801.1],[1055.1,803],[1054.6,806],[1050.4,787.3],[1053.1,774.5],[1053.3,755.6],[1048.8,730.3],[1051.7,708.9],[1060.8,685.9],[1067.9,690.7],[1077.5,676],[1081.7,671.5],[1078.8,659.9],[1085.9,670.5],[1085.9,670.5],[1085.6,669.2],[1088.1,660],[1088.1,660],[1091.7,646.3],[1095.6,642.8],[1100.9,637.8],[1091.3,625.5],[1091,632.5],[1099.4,619],[1099.9,599.1],[1112.8,593.6],[1105.7,569.3],[1113.6,563.2],[1114.4,553.5],[1104,558.5],[1092.8,568.6],[1098.5,562.7],[1091.3,552.1],[1091.3,552.1],[1082,538.3],[1063.1,556.3],[1048,551.4],[1030.9,568.9],[1033.6,569],[1028.4,580.4],[1028.4,580.4],[1027.6,550.7],[999.2,497.3],[995.7,493.3],[995.7,493.3],[963.5,463.7],[963.5,463.7],[964.8,455.8],[986.3,433.7],[989.9,417.4],[1002.7,402.8],[994.4,397.2],[990.3,386],[996.8,389.4],[1009,413.5],[994.5,421.2],[1003.6,432.3],[987.3,444.6],[961.2,440.7],[944.7,427.9],[933.4,427],[921.5,435.1],[910.3,440.2],[894.4,433.7],[892.5,424.9],[892.6,408.5],[891.1,413.4],[896.8,410.2],[897,414.3],[885,429.4],[881.4,425.6],[878.1,411.1],[879.5,398],[883.7,396.9],[872.8,407.7],[864,408.4],[866.7,407.3],[859.4,394.1],[859.4,394.1],[863.3,391.8],[863.3,391.8],[877.3,406.2],[877.3,406.2],[876.2,426.4],[876.2,426.4],[881.4,436.5],[881.4,436.5],[875,465.3],[875,465.3],[868.8,472],[876.8,476.1],[922.2,460.7],[922.2,460.7],[978.3,451.1],[1006.8,447.5],[1055.8,439.5],[1057.9,429.5],[1079.8,431.6],[1071.1,446.5],[1071.8,446],[1063,464.6],[1065.2,477.6],[1023.5,514.1],[974,533.6],[947.1,546.1],[883,578.7],[871.5,567.8],[853.5,549.9],[856.9,529.3],[867.7,514.7],[870.6,498.5],[865.5,483.8],[863,460.8],[862,484.1],[847.5,483.4],[852.2,464.8],[846.7,467.2],[842.5,474.7],[833.1,486.9],[820.1,488.5],[811.3,496],[803.5,501.8],[792.9,516],[777.9,495.1],[778.2,499.7],[780.7,511.5],[780.2,529],[778.1,536.7],[781.9,541],[780.1,541.7],[781.7,538.4],[771.6,551.8],[761.7,565.1],[760.4,564.7],[760.1,561.6],[755.2,543.8],[746,536.6],[743.2,537.5],[756.9,535.8],[770.6,552.8],[785.4,549.5],[811.9,529.5],[843.1,506.5],[865.7,497.2],[883.1,486.7],[885.8,496.1],[906,491.3],[921.6,479.9],[920,469.8],[908.3,452.3],[919.2,474.4],[918.1,467.2],[913.1,473.7],[893.8,493.3],[893.8,518.1],[896.5,534.5],[903.5,545.4],[890.4,551.1],[890.8,547.5],[901.2,540.8],[897.9,522],[905.6,529.4],[912.5,526.1],[930.3,514.6],[915.6,518],[931.1,513.3],[917.4,499],[934.1,485.1],[922.7,501.8],[924.6,517.2],[922.6,504.3],[924.8,497.1],[925.3,489.1],[922.1,486.2],[931.9,456.1],[931.9,451.9],[946.1,457.2],[958.5,469.4],[985.9,454.9],[986.3,451.7],[980.6,469.6],[954.6,489.2],[948,502.6],[946.5,498.3],[949.4,505],[948.8,496.8],[951,503.6],[946.1,510.6],[940.8,523],[945.8,532.6],[954.9,534],[981.1,531.1],[982.2,537.6],[979.1,560.6],[971.9,576.4],[975.2,582.7],[975.2,582.7],[967,586.3],[967,586.3],[963.1,564],[949.4,555.5],[949.4,555.5],[962.9,548.3],[950.3,545.3],[940.8,542.8],[941.8,539.5],[955.7,535.4],[972.9,534.1],[966.6,536.3],[961.5,528.3],[961.9,543.2],[965.8,549.8],[965.8,549.8],[939.5,559.2],[933.8,569],[933.8,569],[940,571.5],[936.4,566.8],[926.5,558.6],[927.3,556.6],[927.3,556.6],[923.2,553.9],[923.2,553.9],[935,564.8],[927.6,568.7],[927.6,568.7],[922,567.5],[922,567.5],[929.4,557.9],[941.7,547.7],[941.7,547.7],[945,557.7],[945,557.7],[948.8,561],[949.3,563.5],[949.8,566],[960.8,569.2],[960.5,549.7],[960.5,549.7],[970.9,554.7],[970.9,554.7],[999.7,548.6],[1008.2,551.7],[1031.3,557.6],[1026.8,550.7],[1040,570.9],[1038.3,585.9],[1042.3,587.1],[1045.5,587.2],[1061.8,610.5],[1048.9,627.3],[1036.7,620.2],[1037.4,605.4],[1021.6,600.4],[1034.3,589.5],[1039.5,556.7],[1057.5,545.3],[1053.1,533],[1050.2,517.4],[1038.4,502],[1052.8,471.5],[1052.6,475.6],[1054.2,479.3],[1054.2,474.6],[1040.9,476.1],[1023.6,484.7],[1012.6,481.2],[1017.1,480.5],[1014.6,495.6],[1023.7,477.6],[1028.8,484.7],[1017.8,501.5],[1017.8,501.5],[1007.4,513.2],[1004.8,517.3],[1012.1,513.8],[1018.6,509.7],[1023.4,492.4],[1019.5,485.2],[1034.7,484.7],[1027.5,495.5],[1028.2,494.8],[1030.3,497.1],[1039.5,501],[1046.6,486],[1050.2,477.7],[1050.2,477.7],[1042.2,487.4],[1048.8,505.2],[1041.4,511.2],[1020.6,492.3],[1001.7,489.6],[984.8,471.8],[983.2,442.2],[979.7,417.3],[961.5,455.2],[950.4,476.7],[945.4,483.8],[935.6,467.3],[936.4,456],[931.5,452.1],[944,463.8],[938.3,476.5],[942.9,491.2],[949.6,482.5],[941.9,454.7],[932.3,444.1],[933,422.2],[933.3,423.3],[937,431],[948.6,444.8],[942.4,445.7],[959.4,427],[953.1,430.6],[944.7,439.4],[956.3,443.6],[966.1,434.4],[980.5,437],[985.9,437.5],[984.2,439],[983.3,435.1],[996,430.6],[992.7,454.8],[994.7,445.9],[988,460.9],[1005.4,459.7],[1012.9,490],[1002.7,482.4],[990.9,491.8],[988.6,489],[992.8,498.4],[972.8,495.4],[957.1,509],[957.1,509],[946.9,525.8],[953.6,534.3],[944.6,526.9],[942.1,500.6],[941.3,512.9],[954.3,505],[954.3,505],[944.5,515.8],[936.3,510.9],[936.3,510.9],[944.5,524.3],[948.2,515],[952.1,513.3],[942.1,504.6],[927.1,515.4],[931,541.6],[932.1,570.5],[931.7,584.9],[938.5,611],[933.7,641.8],[920.3,660.8],[912.3,641.7],[906.7,641.6],[901.6,646.1],[895.8,647.6],[871.1,633.7],[874.1,606.5],[866.4,597],[864,562.6],[865.1,527],[865.1,527],[872.6,488.1]]","[0,0.151169218]","[0.151169218,0.151169218]","[-0.151169218,-0.151169218]","[-0.151169218,0]","[0,-0.151169218]","[0.151169218,-0.151169218]","[0,0]","[0.151169218,0]",0,0,0,0,1,3,Smartphone,11,9,9,1
