inst1_resp.keys,inst1_resp.rt,calibrationMouse.x,calibrationMouse.y,calibrationMouse.leftButton,calibrationMouse.midButton,calibrationMouse.rightButton,calibrationClick.x,calibrationClick.y,calibrationClick.leftButton,calibrationClick.midButton,calibrationClick.rightButton,trialsc.thisRepN,trialsc.thisTrialN,trialsc.thisN,trialsc.thisIndex,trialsc.ran,calibration_x,calibration_y,participant,session,date,expName,psychopyVersion,OS,frameRate,calibrationClick.clicked_name,ScreenRes_pixels,Camera_pixels,mouse_2.x,mouse_2.y,mouse_2.leftButton,mouse_2.midButton,mouse_2.rightButton,mouse_2.time,mouse_2.clicked_name,mouse.x,mouse.y,mouse.leftButton,mouse.midButton,mouse.rightButton,mouse.time,mouse.clicked_name,Choice,Trial,TrialDuration,MOUSE_GAZE,ET_GAZE,ET_GAZE_x_T,time,unixTime,ET_GAZE_NF,Loc_Option1_label,Loc_Option2_label,Loc_Cost_label,Loc_Qual_label,Loc_Option1_cost,Loc_Option2_cost,Loc_Option1_quality,Loc_Option2_quality,trials.thisRepN,trials.thisTrialN,trials.thisN,trials.thisIndex,trials.ran,Block,Device,cost1,qual1,cost2,qual2
space,2.5126,-0.182291667,0.059259259,1,0,0,-0.676041667,0.342592593,1,0,0,0,0,0,3,1,-0.67,0.33,34,001,2024-12-04_11h15.08.572,Attention_exp_legacy,2023.1.0,Win32,60.24096386,,,,,,,,,,,,,,,,,,,,,,,,,,,,,,,,,,,,,,,,,,,,,
,,,,,,,-0.332291667,-0.333333333,1,0,0,0,1,1,5,1,-0.33,-0.33,34,001,2024-12-04_11h15.08.572,Attention_exp_legacy,2023.1.0,Win32,60.24096386,calibration_square,,,,,,,,,,,,,,,,,,,,,,,,,,,,,,,,,,,,,,,,,,,,
,,,,,,,0.005208333,-0.322222222,1,0,0,0,2,2,10,1,0,-0.33,34,001,2024-12-04_11h15.08.572,Attention_exp_legacy,2023.1.0,Win32,60.24096386,calibration_square,,,,,,,,,,,,,,,,,,,,,,,,,,,,,,,,,,,,,,,,,,,,
,,,,,,,-0.002083333,0.351851852,1,0,0,0,3,3,12,1,0,0.33,34,001,2024-12-04_11h15.08.572,Attention_exp_legacy,2023.1.0,Win32,60.24096386,,,,,,,,,,,,,,,,,,,,,,,,,,,,,,,,,,,,,,,,,,,,,
,,,,,,,-0.667708333,-0.661111111,1,0,0,0,4,4,0,1,-0.67,-0.67,34,001,2024-12-04_11h15.08.572,Attention_exp_legacy,2023.1.0,Win32,60.24096386,calibration_square,,,,,,,,,,,,,,,,,,,,,,,,,,,,,,,,,,,,,,,,,,,,
,,,,,,,0.675,0.67037037,1,0,0,0,5,5,19,1,0.67,0.67,34,001,2024-12-04_11h15.08.572,Attention_exp_legacy,2023.1.0,Win32,60.24096386,calibration_square,,,,,,,,,,,,,,,,,,,,,,,,,,,,,,,,,,,,,,,,,,,,
,,,,,,,-0.666666667,-0.001851852,1,0,0,0,6,6,2,1,-0.67,0,34,001,2024-12-04_11h15.08.572,Attention_exp_legacy,2023.1.0,Win32,60.24096386,calibration_square,,,,,,,,,,,,,,,,,,,,,,,,,,,,,,,,,,,,,,,,,,,,
,,,,,,,0.328125,0.677777778,1,0,0,0,7,7,18,1,0.33,0.67,34,001,2024-12-04_11h15.08.572,Attention_exp_legacy,2023.1.0,Win32,60.24096386,calibration_square,,,,,,,,,,,,,,,,,,,,,,,,,,,,,,,,,,,,,,,,,,,,
,,,,,,,-0.00625,0,1,0,0,0,8,8,11,1,0,0,34,001,2024-12-04_11h15.08.572,Attention_exp_legacy,2023.1.0,Win32,60.24096386,calibration_square,,,,,,,,,,,,,,,,,,,,,,,,,,,,,,,,,,,,,,,,,,,,
,,,,,,,-0.339583333,-0.014814815,1,0,0,0,9,9,6,1,-0.33,0,34,001,2024-12-04_11h15.08.572,Attention_exp_legacy,2023.1.0,Win32,60.24096386,,,,,,,,,,,,,,,,,,,,,,,,,,,,,,,,,,,,,,,,,,,,,
,,,,,,,-0.344791667,-0.653703704,1,0,0,0,10,10,4,1,-0.33,-0.67,34,001,2024-12-04_11h15.08.572,Attention_exp_legacy,2023.1.0,Win32,60.24096386,,,,,,,,,,,,,,,,,,,,,,,,,,,,,,,,,,,,,,,,,,,,,
,,,,,,,-0.334375,0.335185185,1,0,0,0,11,11,7,1,-0.33,0.33,34,001,2024-12-04_11h15.08.572,Attention_exp_legacy,2023.1.0,Win32,60.24096386,calibration_square,,,,,,,,,,,,,,,,,,,,,,,,,,,,,,,,,,,,,,,,,,,,
,,,,,,,0.338541667,0.325925926,1,0,0,0,12,12,17,1,0.33,0.33,34,001,2024-12-04_11h15.08.572,Attention_exp_legacy,2023.1.0,Win32,60.24096386,calibration_square,,,,,,,,,,,,,,,,,,,,,,,,,,,,,,,,,,,,,,,,,,,,
,,,,,,,-0.678125,-0.32962963,1,0,0,0,13,13,1,1,-0.67,-0.33,34,001,2024-12-04_11h15.08.572,Attention_exp_legacy,2023.1.0,Win32,60.24096386,calibration_square,,,,,,,,,,,,,,,,,,,,,,,,,,,,,,,,,,,,,,,,,,,,
,,,,,,,-0.022916667,-0.675925926,1,0,0,0,14,14,9,1,0,-0.67,34,001,2024-12-04_11h15.08.572,Attention_exp_legacy,2023.1.0,Win32,60.24096386,,,,,,,,,,,,,,,,,,,,,,,,,,,,,,,,,,,,,,,,,,,,,
,,,,,,,0.339583333,-0.324074074,1,0,0,0,15,15,15,1,0.33,-0.33,34,001,2024-12-04_11h15.08.572,Attention_exp_legacy,2023.1.0,Win32,60.24096386,calibration_square,,,,,,,,,,,,,,,,,,,,,,,,,,,,,,,,,,,,,,,,,,,,
,,,,,,,0,0.657407407,1,0,0,0,16,16,13,1,0,0.67,34,001,2024-12-04_11h15.08.572,Attention_exp_legacy,2023.1.0,Win32,60.24096386,,,,,,,,,,,,,,,,,,,,,,,,,,,,,,,,,,,,,,,,,,,,,
,,,,,,,0.322916667,0.001851852,1,0,0,0,17,17,16,1,0.33,0,34,001,2024-12-04_11h15.08.572,Attention_exp_legacy,2023.1.0,Win32,60.24096386,calibration_square,,,,,,,,,,,,,,,,,,,,,,,,,,,,,,,,,,,,,,,,,,,,
,,,,,,,0.667708333,-0.67037037,1,0,0,0,18,18,20,1,0.67,-0.67,34,001,2024-12-04_11h15.08.572,Attention_exp_legacy,2023.1.0,Win32,60.24096386,calibration_square,,,,,,,,,,,,,,,,,,,,,,,,,,,,,,,,,,,,,,,,,,,,
,,,,,,,-0.33125,0.674074074,1,0,0,0,19,19,8,1,-0.33,0.67,34,001,2024-12-04_11h15.08.572,Attention_exp_legacy,2023.1.0,Win32,60.24096386,calibration_square,,,,,,,,,,,,,,,,,,,,,,,,,,,,,,,,,,,,,,,,,,,,
,,,,,,,0.332291667,-0.67037037,1,0,0,0,20,20,14,1,0.33,-0.67,34,001,2024-12-04_11h15.08.572,Attention_exp_legacy,2023.1.0,Win32,60.24096386,calibration_square,,,,,,,,,,,,,,,,,,,,,,,,,,,,,,,,,,,,,,,,,,,,
,,,,,,,,,,,,,,,,,,,34,001,2024-12-04_11h15.08.572,Attention_exp_legacy,2023.1.0,Win32,60.24096386,,"[1920,1080]","[640,480]",[0.03229166666666667],[-0.5148148148148148],[1],[0],[0],[1.0137000000029772],"[""StartButton""]",[0.5635416666666667],[0.4222222222222222],[1],[0],[0],[6.2034000000059635],"[""Option2_label""]",Option2_label,1,7.2144,"[[0.01875,-0.4166666666666667],[0.01875,-0.4166666666666667],[0.01875,-0.4166666666666667],[0.01875,-0.4166666666666667],[0.01875,-0.4166666666666667],[0.01875,-0.4166666666666667],[0.01875,-0.4166666666666667],[0.01875,-0.4166666666666667],[0.01875,-0.4166666666666667],[0.01875,-0.4166666666666667],[0.01875,-0.4166666666666667],[0.01875,-0.4166666666666667],[0.01875,-0.4166666666666667],[0.01875,-0.4166666666666667],[0.01875,-0.4166666666666667],[0.01875,-0.4166666666666667],[0.01875,-0.4166666666666667],[0.01875,-0.4166666666666667],[0.01875,-0.4166666666666667],[0.01875,-0.4166666666666667],[0.01875,-0.4166666666666667],[0.01875,-0.4166666666666667],[0.01875,-0.4166666666666667],[0.01875,-0.4166666666666667],[0.01875,-0.4166666666666667],[0.01875,-0.4166666666666667],[0.01875,-0.4166666666666667],[0.01875,-0.4166666666666667],[0.01875,-0.4166666666666667],[0.01875,-0.4166666666666667],[0.01875,-0.4166666666666667],[0.01875,-0.4166666666666667],[0.01875,-0.4166666666666667],[0.01875,-0.4166666666666667],[0.01875,-0.4166666666666667],[0.01875,-0.4166666666666667],[0.01875,-0.4166666666666667],[0.01875,-0.4166666666666667],[0.01875,-0.4166666666666667],[0.01875,-0.4166666666666667],[0.01875,-0.4166666666666667],[0.01875,-0.4166666666666667],[0.01875,-0.4166666666666667],[0.01875,-0.4166666666666667],[0.01875,-0.4166666666666667],[0.01875,-0.4166666666666667],[0.01875,-0.4166666666666667],[0.01875,-0.4166666666666667],[0.01875,-0.4166666666666667],[0.01875,-0.4166666666666667],[0.01875,-0.4166666666666667],[0.01875,-0.4166666666666667],[0.01875,-0.4166666666666667],[0.01875,-0.4166666666666667],[0.01875,-0.4166666666666667],[0.01875,-0.4166666666666667],[0.01875,-0.4166666666666667],[0.01875,-0.4166666666666667],[0.01875,-0.4166666666666667],[0.01875,-0.4166666666666667],[0.01875,-0.4166666666666667],[0.01875,-0.4166666666666667],[0.01875,-0.4166666666666667],[0.01875,-0.4166666666666667],[0.01875,-0.4166666666666667],[0.01875,-0.4166666666666667],[0.01875,-0.4166666666666667],[0.01875,-0.4166666666666667],[0.01875,-0.4166666666666667],[0.01875,-0.4166666666666667],[0.01875,-0.4166666666666667],[0.01875,-0.4166666666666667],[0.01875,-0.4166666666666667],[0.01875,-0.4166666666666667],[0.01875,-0.4166666666666667],[0.01875,-0.4166666666666667],[0.01875,-0.4166666666666667],[0.01875,-0.4166666666666667],[0.01875,-0.4166666666666667],[0.01875,-0.4166666666666667],[0.01875,-0.4166666666666667],[0.01875,-0.4166666666666667],[0.01875,-0.4166666666666667],[0.01875,-0.4166666666666667],[0.01875,-0.4166666666666667],[0.01875,-0.4166666666666667],[0.01875,-0.4166666666666667],[0.01875,-0.4166666666666667],[0.01875,-0.4166666666666667],[0.01875,-0.4166666666666667],[0.01875,-0.4166666666666667],[0.01875,-0.4166666666666667],[0.01875,-0.4166666666666667],[0.01875,-0.4166666666666667],[0.01875,-0.4166666666666667],[0.01875,-0.4166666666666667],[0.01875,-0.4166666666666667],[0.01875,-0.4166666666666667],[0.01875,-0.4166666666666667],[0.01875,-0.4166666666666667],[0.01875,-0.4166666666666667],[0.01875,-0.4166666666666667],[0.01875,-0.4166666666666667],[0.01875,-0.4166666666666667],[0.01875,-0.4166666666666667],[0.01875,-0.4166666666666667],[0.01875,-0.4166666666666667],[0.01875,-0.4166666666666667],[0.01875,-0.4166666666666667],[0.01875,-0.4166666666666667],[0.01875,-0.4166666666666667],[0.01875,-0.4166666666666667],[0.01875,-0.4166666666666667],[0.01875,-0.4166666666666667],[0.01875,-0.4166666666666667],[0.01875,-0.4166666666666667],[0.01875,-0.4166666666666667],[0.01875,-0.4166666666666667],[0.01875,-0.4166666666666667],[0.01875,-0.4166666666666667],[0.01875,-0.4166666666666667],[0.01875,-0.4166666666666667],[0.01875,-0.4166666666666667],[0.01875,-0.4166666666666667],[0.01875,-0.4166666666666667],[0.01875,-0.4166666666666667],[0.01875,-0.4166666666666667],[0.01875,-0.4166666666666667],[0.01875,-0.4166666666666667],[0.01875,-0.4166666666666667],[0.01875,-0.4166666666666667],[0.01875,-0.4166666666666667],[0.01875,-0.4166666666666667],[0.01875,-0.4166666666666667],[0.01875,-0.4166666666666667],[0.01875,-0.4166666666666667],[0.01875,-0.4166666666666667],[0.01875,-0.4166666666666667],[0.01875,-0.4166666666666667],[0.01875,-0.4166666666666667],[0.01875,-0.4166666666666667],[0.01875,-0.4166666666666667],[0.01875,-0.4166666666666667],[0.01875,-0.4166666666666667],[0.01875,-0.4166666666666667],[0.01875,-0.4166666666666667],[0.01875,-0.4166666666666667],[0.01875,-0.4166666666666667],[0.01875,-0.4166666666666667],[0.01875,-0.4166666666666667],[0.01875,-0.4166666666666667],[0.01875,-0.4166666666666667],[0.01875,-0.4166666666666667],[0.01875,-0.4166666666666667],[0.01875,-0.4166666666666667],[0.01875,-0.4166666666666667],[0.01875,-0.4166666666666667],[0.01875,-0.4166666666666667],[0.01875,-0.4166666666666667],[0.01875,-0.4166666666666667],[0.01875,-0.4166666666666667],[0.01875,-0.4166666666666667],[0.01875,-0.4166666666666667],[0.01875,-0.4166666666666667],[0.01875,-0.4166666666666667],[0.01875,-0.4166666666666667],[0.01875,-0.4166666666666667],[0.01875,-0.4166666666666667],[0.01875,-0.4166666666666667],[0.01875,-0.4166666666666667],[0.01875,-0.4166666666666667],[0.01875,-0.4166666666666667],[0.01875,-0.4166666666666667],[0.01875,-0.4166666666666667],[0.01875,-0.4166666666666667],[0.01875,-0.4166666666666667],[0.01875,-0.4166666666666667],[0.01875,-0.4166666666666667],[0.01875,-0.4166666666666667],[0.01875,-0.4166666666666667],[0.01875,-0.4166666666666667],[0.01875,-0.4166666666666667],[0.01875,-0.4166666666666667],[0.01875,-0.4166666666666667],[0.01875,-0.4166666666666667],[0.01875,-0.4166666666666667],[0.01875,-0.4166666666666667],[0.01875,-0.4166666666666667],[0.01875,-0.4166666666666667],[0.01875,-0.4166666666666667],[0.01875,-0.4166666666666667],[0.01875,-0.4166666666666667],[0.01875,-0.4166666666666667],[0.01875,-0.4166666666666667],[0.01875,-0.4166666666666667],[0.01875,-0.4166666666666667],[0.01875,-0.4166666666666667],[0.01875,-0.4166666666666667],[0.01875,-0.4166666666666667],[0.01875,-0.4166666666666667],[0.01875,-0.4166666666666667],[0.01875,-0.4166666666666667],[0.01875,-0.4166666666666667],[0.01875,-0.4166666666666667],[0.01875,-0.4166666666666667],[0.01875,-0.4166666666666667],[0.01875,-0.4166666666666667],[0.01875,-0.4166666666666667],[0.01875,-0.4166666666666667],[0.01875,-0.4166666666666667],[0.01875,-0.4166666666666667],[0.01875,-0.4166666666666667],[0.01875,-0.4166666666666667],[0.01875,-0.4166666666666667],[0.01875,-0.4166666666666667],[0.01875,-0.4166666666666667],[0.01875,-0.4166666666666667],[0.01875,-0.4166666666666667],[0.01875,-0.4166666666666667],[0.01875,-0.4166666666666667],[0.01875,-0.4166666666666667],[0.01875,-0.4166666666666667],[0.01875,-0.4166666666666667],[0.01875,-0.4166666666666667],[0.01875,-0.4166666666666667],[0.01875,-0.4166666666666667],[0.01875,-0.4166666666666667],[0.01875,-0.4166666666666667],[0.01875,-0.4166666666666667],[0.01875,-0.4166666666666667],[0.01875,-0.4166666666666667],[0.01875,-0.4166666666666667],[0.01875,-0.4166666666666667],[0.01875,-0.4166666666666667],[0.01875,-0.4166666666666667],[0.01875,-0.4166666666666667],[0.01875,-0.4166666666666667],[0.01875,-0.4166666666666667],[0.01875,-0.4166666666666667],[0.01875,-0.4166666666666667],[0.01875,-0.4166666666666667],[0.01875,-0.4166666666666667],[0.01875,-0.4166666666666667],[0.01875,-0.4166666666666667],[0.01875,-0.4166666666666667],[0.01875,-0.4166666666666667],[0.01875,-0.4166666666666667],[0.01875,-0.4166666666666667],[0.01875,-0.4166666666666667],[0.01875,-0.4166666666666667],[0.01875,-0.4166666666666667],[0.01875,-0.4166666666666667],[0.01875,-0.4166666666666667],[0.01875,-0.4166666666666667],[0.01875,-0.4166666666666667],[0.01875,-0.4166666666666667],[0.01875,-0.4166666666666667],[0.01875,-0.4166666666666667],[0.01875,-0.4166666666666667],[0.01875,-0.4166666666666667],[0.01875,-0.4166666666666667],[0.01875,-0.4166666666666667],[0.01875,-0.4166666666666667],[0.01875,-0.4166666666666667],[0.01875,-0.4166666666666667],[0.01875,-0.4166666666666667],[0.01875,-0.4166666666666667],[0.01875,-0.4166666666666667],[0.01875,-0.4166666666666667],[0.01875,-0.4166666666666667],[0.01875,-0.4166666666666667],[0.01875,-0.4166666666666667],[0.01875,-0.4166666666666667],[0.01875,-0.4166666666666667],[0.01875,-0.4166666666666667],[0.01875,-0.4166666666666667],[0.01875,-0.4166666666666667],[0.01875,-0.4166666666666667],[0.01875,-0.4166666666666667],[0.01875,-0.4166666666666667],[0.01875,-0.4166666666666667],[0.01875,-0.4166666666666667],[0.01875,-0.4166666666666667],[0.01875,-0.4166666666666667],[0.01875,-0.4166666666666667],[0.01875,-0.4166666666666667],[0.01875,-0.4166666666666667],[0.01875,-0.4166666666666667],[0.01875,-0.4166666666666667],[0.01875,-0.4166666666666667],[0.01875,-0.4166666666666667],[0.01875,-0.4166666666666667],[0.01875,-0.4166666666666667],[0.01875,-0.4166666666666667],[0.01875,-0.4166666666666667],[0.01875,-0.4166666666666667],[0.01875,-0.4166666666666667],[0.01875,-0.4166666666666667],[0.01875,-0.4166666666666667],[0.01875,-0.4166666666666667],[0.01875,-0.4166666666666667],[0.01875,-0.4166666666666667],[0.01875,-0.4166666666666667],[0.01875,-0.4166666666666667],[0.01875,-0.4166666666666667],[0.01875,-0.4166666666666667],[0.01875,-0.4166666666666667],[0.01875,-0.4166666666666667],[0.01875,-0.4166666666666667],[0.01875,-0.4166666666666667],[0.01875,-0.4166666666666667],[0.01875,-0.4166666666666667],[0.01875,-0.4166666666666667],[0.01875,-0.4166666666666667],[0.04375,-0.3907407407407407],[0.06666666666666667,-0.37407407407407406],[0.090625,-0.3574074074074074],[0.15208333333333332,-0.31666666666666665],[0.2552083333333333,-0.2574074074074074],[0.2677083333333333,-0.24814814814814815],[0.30520833333333336,-0.22592592592592592],[0.3145833333333333,-0.22037037037037038],[0.33645833333333336,-0.20925925925925926],[0.35,-0.2037037037037037],[0.36666666666666664,-0.1925925925925926],[0.36875,-0.19074074074074074],[0.38645833333333335,-0.18333333333333332],[0.390625,-0.17962962962962964],[0.40729166666666666,-0.17037037037037037],[0.4125,-0.1685185185185185],[0.43020833333333336,-0.16111111111111112],[0.4375,-0.1574074074074074],[0.46145833333333336,-0.14814814814814814],[0.46979166666666666,-0.14444444444444443],[0.4947916666666667,-0.12777777777777777],[0.5125,-0.11851851851851852],[0.525,-0.10740740740740741],[0.5302083333333333,-0.1037037037037037],[0.5416666666666666,-0.08148148148148149],[0.546875,-0.07037037037037037],[0.5614583333333333,-0.024074074074074074],[0.571875,0.022222222222222223],[0.5802083333333333,0.07037037037037037],[0.5854166666666667,0.12407407407407407],[0.5875,0.17592592592592593],[0.5875,0.22407407407407406],[0.5875,0.26666666666666666],[0.5875,0.3055555555555556],[0.5875,0.3314814814814815],[0.5854166666666667,0.3574074074074074],[0.58125,0.37407407407407406],[0.5791666666666667,0.3814814814814815],[0.5791666666666667,0.38333333333333336],[0.578125,0.387037037037037],[0.575,0.3907407407407407],[0.5739583333333333,0.3925925925925926],[0.5729166666666666,0.39814814814814814],[0.571875,0.40555555555555556],[0.56875,0.40925925925925927],[0.565625,0.4166666666666667],[0.565625,0.4185185185185185],[0.5645833333333333,0.4203703703703704],[0.5645833333333333,0.4222222222222222],[0.5635416666666667,0.4222222222222222],[0.5635416666666667,0.4222222222222222],[0.5635416666666667,0.4222222222222222],[0.5635416666666667,0.4222222222222222],[0.5635416666666667,0.4222222222222222],[0.5635416666666667,0.4222222222222222],[0.5635416666666667,0.4222222222222222],[0.5635416666666667,0.4222222222222222],[0.5635416666666667,0.4222222222222222],[0.5635416666666667,0.4222222222222222],[0.5635416666666667,0.4222222222222222],[0.5635416666666667,0.4222222222222222],[0.5635416666666667,0.4222222222222222],[0.5635416666666667,0.4222222222222222],[0.5635416666666667,0.4222222222222222],[0.5635416666666667,0.4222222222222222],[0.5635416666666667,0.4222222222222222],[0.5635416666666667,0.4222222222222222],[0.5635416666666667,0.4222222222222222],[0.5635416666666667,0.4222222222222222],[0.5635416666666667,0.4222222222222222],[0.5635416666666667,0.4222222222222222],[0.5635416666666667,0.4222222222222222],[0.5635416666666667,0.4222222222222222],[0.5635416666666667,0.4222222222222222],[0.5635416666666667,0.4222222222222222],[0.5635416666666667,0.4222222222222222],[0.5635416666666667,0.4222222222222222],[0.5635416666666667,0.4222222222222222],[0.5635416666666667,0.4222222222222222],[0.5635416666666667,0.4222222222222222],[0.5635416666666667,0.4222222222222222],[0.5635416666666667,0.4222222222222222],[0.5635416666666667,0.4222222222222222],[0.5635416666666667,0.4222222222222222],[0.5635416666666667,0.4222222222222222],[0.5635416666666667,0.4222222222222222],[0.5635416666666667,0.4222222222222222],[0.5635416666666667,0.4222222222222222],[0.5635416666666667,0.4222222222222222],[0.5635416666666667,0.4222222222222222],[0.5635416666666667,0.4222222222222222],[0.5635416666666667,0.4222222222222222],[0.5635416666666667,0.4222222222222222],[0.5635416666666667,0.4222222222222222],[0.5635416666666667,0.4222222222222222],[0.5635416666666667,0.4222222222222222],[0.5635416666666667,0.4222222222222222],[0.5635416666666667,0.4222222222222222],[0.5635416666666667,0.4222222222222222],[0.5635416666666667,0.4222222222222222],[0.5635416666666667,0.4222222222222222],[0.5635416666666667,0.4222222222222222],[0.5635416666666667,0.4222222222222222],[0.5635416666666667,0.4222222222222222],[0.5635416666666667,0.4222222222222222],[0.5625,0.4222222222222222],[0.5614583333333333,0.4222222222222222],[0.559375,0.4148148148148148],[0.559375,0.40555555555555556],[0.5583333333333333,0.3962962962962963],[0.55625,0.3907407407407407],[0.55625,0.3888888888888889],[0.55625,0.3851851851851852],[0.5552083333333333,0.37962962962962965],[0.5541666666666667,0.37407407407407406],[0.553125,0.37222222222222223],[0.5520833333333334,0.3648148148148148],[0.5489583333333333,0.35185185185185186]]","[[-0.02781250000000005,0.024814814814814772],[-0.02781250000000005,0.024814814814814772],[-0.02781250000000005,0.024814814814814772],[-0.02781250000000005,0.024814814814814772],[-0.002291666666666714,0.012592592592592508],[-0.002291666666666714,0.012592592592592508],[-0.022395833333333334,0.017592592592592594],[-0.022395833333333334,0.017592592592592594],[-0.022500000000000023,-0.0022222222222223064],[-0.022500000000000023,-0.0022222222222223064],[0.01583333333333338,-0.01962962962962967],[0.01583333333333338,-0.01962962962962967],[0.04770833333333328,-0.044444444444444446],[0.04770833333333328,-0.044444444444444446],[0.05697916666666671,-0.06462962962962959],[0.05697916666666671,-0.06462962962962959],[0.07052083333333338,-0.09425925925925922],[0.07052083333333338,-0.09425925925925922],[0.059687499999999956,-0.12925925925925927],[0.059687499999999956,-0.12925925925925927],[0.04364583333333331,-0.14296296296296293],[0.04364583333333331,-0.14296296296296293],[0.036249999999999956,-0.16888888888888887],[0.036249999999999956,-0.16888888888888887],[0.011666666666666714,-0.1955555555555556],[0.011666666666666714,-0.1955555555555556],[-0.001145833333333357,-0.22166666666666665],[-0.001145833333333357,-0.22166666666666665],[0.01416666666666669,-0.21333333333333332],[0.01416666666666669,-0.21333333333333332],[0.021458333333333357,-0.20203703703703707],[0.021458333333333357,-0.20203703703703707],[0.021458333333333357,-0.20203703703703707],[0.021458333333333357,-0.20203703703703707],[0.01260416666666669,-0.1955555555555556],[0.01260416666666669,-0.1955555555555556],[0.012916666666666642,-0.16129629629629633],[0.012916666666666642,-0.16129629629629633],[-0.000833333333333286,-0.11962962962962967],[-0.000833333333333286,-0.11962962962962967],[0.02791666666666662,-0.0301851851851851],[0.02791666666666662,-0.0301851851851851],[0.05499999999999995,0.04333333333333329],[0.05499999999999995,0.04333333333333329],[0.07666666666666658,0.14944444444444452],[0.07666666666666658,0.14944444444444452],[0.05135416666666662,0.21425925925925934],[0.05135416666666662,0.21425925925925934],[0.03677083333333329,0.3146296296296296],[0.03677083333333329,0.3146296296296296],[-0.041875000000000044,0.3827777777777779],[-0.041875000000000044,0.3827777777777779],[-0.06197916666666667,0.40981481481481474],[-0.06197916666666667,0.40981481481481474],[-0.08645833333333333,0.422037037037037],[-0.08645833333333333,0.422037037037037],[-0.11041666666666666,0.4300000000000001],[-0.11041666666666666,0.4300000000000001],[-0.14010416666666667,0.431111111111111],[-0.14010416666666667,0.431111111111111],[-0.14010416666666667,0.431111111111111],[-0.14010416666666667,0.431111111111111],[-0.17354166666666668,0.38851851851851843],[-0.17354166666666668,0.38851851851851843],[-0.24177083333333335,0.40925925925925927],[-0.24177083333333335,0.40925925925925927],[-0.24885416666666665,0.3425925925925926],[-0.24885416666666665,0.3425925925925926],[-0.215625,0.3170370370370371],[-0.215625,0.3170370370370371],[-0.19406249999999994,0.2418518518518519],[-0.19406249999999994,0.2418518518518519],[-0.14260416666666664,0.19611111111111107],[-0.14260416666666664,0.19611111111111107],[-0.12427083333333329,0.21055555555555563],[-0.12427083333333329,0.21055555555555563],[-0.06427083333333337,0.2551851851851851],[-0.06427083333333337,0.2551851851851851],[-0.05677083333333333,0.2490740740740741],[-0.05677083333333333,0.2490740740740741],[0.0002083333333333807,0.2737037037037036],[0.0002083333333333807,0.2737037037037036],[0.0002083333333333807,0.2737037037037036],[0.0002083333333333807,0.2737037037037036],[0.049374999999999974,0.31370370370370365],[0.049374999999999974,0.31370370370370365],[0.13604166666666656,0.2818518518518519],[0.13604166666666656,0.2818518518518519],[0.15104166666666666,0.30166666666666664],[0.15104166666666666,0.30166666666666664],[0.17083333333333334,0.3368518518518518],[0.17083333333333334,0.3368518518518518],[0.19333333333333325,0.36944444444444446],[0.19333333333333325,0.36944444444444446],[0.22395833333333334,0.3787037037037037],[0.22395833333333334,0.3787037037037037],[0.23541666666666666,0.3661111111111112],[0.23541666666666666,0.3661111111111112],[0.2163541666666667,0.347037037037037],[0.2163541666666667,0.347037037037037],[0.2361458333333334,0.3396296296296296],[0.2361458333333334,0.3396296296296296],[0.20343749999999997,0.3257407407407407],[0.20343749999999997,0.3257407407407407],[0.20208333333333334,0.33666666666666656],[0.20208333333333334,0.33666666666666656],[0.20562500000000009,0.3381481481481482],[0.20562500000000009,0.3381481481481482],[0.18864583333333323,0.35351851851851845],[0.18864583333333323,0.35351851851851845],[0.16833333333333325,0.3609259259259259],[0.16833333333333325,0.3609259259259259],[0.1544791666666666,0.3709259259259258],[0.1544791666666666,0.3709259259259258],[0.13947916666666677,0.3942592592592592],[0.13947916666666677,0.3942592592592592],[0.14072916666666657,0.4275925925925925],[0.14072916666666657,0.4275925925925925],[0.12104166666666671,0.44537037037037036],[0.12104166666666671,0.44537037037037036],[0.10843749999999991,0.48203703703703693],[0.10843749999999991,0.48203703703703693],[0.1234375,0.4951851851851851],[0.1234375,0.4951851851851851],[0.0921875,0.4962962962962963],[0.0921875,0.4962962962962963],[0.042812500000000024,0.5046296296296297],[0.042812500000000024,0.5046296296296297],[0.014999999999999977,0.5161111111111112],[0.014999999999999977,0.5161111111111112],[-0.01604166666666664,0.5261111111111112],[-0.01604166666666664,0.5261111111111112],[-0.024479166666666666,0.5187037037037038],[-0.024479166666666666,0.5187037037037038],[-0.05249999999999998,0.5120370370370371],[-0.05249999999999998,0.5120370370370371],[-0.09395833333333338,0.4948148148148149],[-0.09395833333333338,0.4948148148148149],[-0.11656249999999997,0.5098148148148147],[-0.11656249999999997,0.5098148148148147],[-0.11958333333333329,0.49833333333333335],[-0.11958333333333329,0.49833333333333335],[-0.19083333333333338,0.5133333333333334],[-0.19083333333333338,0.5133333333333334],[-0.2358333333333333,0.49370370370370376],[-0.2358333333333333,0.49370370370370376],[-0.22552083333333334,0.47851851851851845],[-0.22552083333333334,0.47851851851851845],[-0.1977083333333333,0.4607407407407407],[-0.1977083333333333,0.4607407407407407],[-0.17177083333333332,0.452962962962963],[-0.17177083333333332,0.452962962962963],[-0.17062499999999994,0.42314814814814816],[-0.17062499999999994,0.42314814814814816],[-0.14468749999999997,0.3912962962962962],[-0.14468749999999997,0.3912962962962962],[-0.12458333333333335,0.37111111111111106],[-0.12458333333333335,0.37111111111111106],[-0.10187499999999995,0.3333333333333333],[-0.10187499999999995,0.3333333333333333],[-0.08250000000000005,0.3235185185185186],[-0.08250000000000005,0.3235185185185186],[-0.013333333333333286,0.30574074074074076],[-0.013333333333333286,0.30574074074074076],[-0.013333333333333286,0.30574074074074076],[-0.013333333333333286,0.30574074074074076],[0.04083333333333338,0.2933333333333333],[0.04083333333333338,0.2933333333333333],[0.058124999999999954,0.26296296296296295],[0.058124999999999954,0.26296296296296295],[0.058124999999999954,0.26296296296296295],[0.058124999999999954,0.26296296296296295],[0.09135416666666671,0.24944444444444452],[0.09135416666666671,0.24944444444444452],[0.10343749999999995,0.23425925925925925],[0.10343749999999995,0.23425925925925925],[0.11833333333333323,0.25870370370370377],[0.11833333333333323,0.25870370370370377],[0.08010416666666677,0.2616666666666666],[0.08010416666666677,0.2616666666666666],[0.1,0.2449999999999999],[0.1,0.2449999999999999],[0.1203125,0.2537037037037037],[0.1203125,0.2537037037037037],[0.11541666666666663,0.21185185185185182],[0.11541666666666663,0.21185185185185182],[0.10041666666666677,0.21203703703703702],[0.10041666666666677,0.21203703703703702],[0.065625,0.17537037037037045],[0.065625,0.17537037037037045],[0.025937499999999978,0.1737037037037036],[0.025937499999999978,0.1737037037037036],[-0.024270833333333287,0.19666666666666674],[-0.024270833333333287,0.19666666666666674],[-0.04677083333333331,0.19648148148148153],[-0.04677083333333331,0.19648148148148153],[-0.08875000000000005,0.1594444444444445],[-0.08875000000000005,0.1594444444444445],[-0.08875000000000005,0.1594444444444445],[-0.08875000000000005,0.1594444444444445],[-0.0967708333333333,0.15759259259259265],[-0.0967708333333333,0.15759259259259265],[-0.1375,0.16777777777777783],[-0.1375,0.16777777777777783],[-0.1827083333333333,0.15388888888888894],[-0.1827083333333333,0.15388888888888894],[-0.20645833333333338,0.22111111111111106],[-0.20645833333333338,0.22111111111111106],[-0.17250000000000001,0.20203703703703707],[-0.17250000000000001,0.20203703703703707],[-0.12052083333333338,0.2270370370370371],[-0.12052083333333338,0.2270370370370371],[-0.08833333333333329,0.27388888888888885],[-0.08833333333333329,0.27388888888888885],[-0.06333333333333328,0.25037037037037047],[-0.06333333333333328,0.25037037037037047],[-0.04125000000000002,0.25833333333333336],[-0.04125000000000002,0.25833333333333336],[-0.03093750000000005,0.2566666666666667],[-0.03093750000000005,0.2566666666666667],[0.0010416666666666667,0.27388888888888885],[0.0010416666666666667,0.27388888888888885],[0.02781250000000005,0.21425925925925934],[0.02781250000000005,0.21425925925925934],[0.06916666666666677,0.20833333333333334],[0.06916666666666677,0.20833333333333334],[0.06916666666666677,0.20833333333333334],[0.06916666666666677,0.20833333333333334],[0.07625000000000005,0.15629629629629627],[0.07625000000000005,0.15629629629629627],[0.05291666666666662,0.14888888888888885],[0.05291666666666662,0.14888888888888885],[0.05291666666666662,0.14888888888888885],[0.05291666666666662,0.14888888888888885],[0.06479166666666672,0.09814814814814815],[0.06479166666666672,0.09814814814814815],[0.1040625000000001,0.0198148148148149],[0.1040625000000001,0.0198148148148149],[0.12281250000000009,-0.006111111111111027],[0.12281250000000009,-0.006111111111111027],[0.11083333333333342,-0.07981481481481485],[0.11083333333333342,-0.07981481481481485],[0.07125000000000009,-0.10555555555555556],[0.07125000000000009,-0.10555555555555556],[0.03729166666666662,-0.15333333333333335],[0.03729166666666662,-0.15333333333333335],[-0.0020833333333333333,-0.13407407407407404],[-0.0020833333333333333,-0.13407407407407404],[-0.06614583333333333,-0.16425925925925924],[-0.06614583333333333,-0.16425925925925924],[-0.09604166666666672,-0.18222222222222217],[-0.09604166666666672,-0.18222222222222217],[-0.1453125,-0.22240740740740744],[-0.1453125,-0.22240740740740744],[-0.1453125,-0.22240740740740744],[-0.1453125,-0.22240740740740744],[-0.2055208333333333,-0.22722222222222221],[-0.2055208333333333,-0.22722222222222221],[-0.2768749999999999,-0.25685185185185183],[-0.2768749999999999,-0.25685185185185183],[-0.33052083333333326,-0.30037037037037034],[-0.33052083333333326,-0.30037037037037034],[-0.3577083333333333,-0.29314814814814816],[-0.3577083333333333,-0.29314814814814816],[-0.3373958333333333,-0.30277777777777776],[-0.3373958333333333,-0.30277777777777776],[-0.3490625,-0.30648148148148147],[-0.3490625,-0.30648148148148147],[-0.3366666666666667,-0.29370370370370374],[-0.3366666666666667,-0.29370370370370374],[-0.2508333333333333,-0.25999999999999995],[-0.2508333333333333,-0.25999999999999995],[-0.1632291666666667,-0.2757407407407407],[-0.1632291666666667,-0.2757407407407407],[-0.0938541666666667,-0.247037037037037],[-0.0938541666666667,-0.247037037037037],[-0.02781250000000005,-0.2294444444444444],[-0.02781250000000005,-0.2294444444444444],[0.06812500000000009,-0.18203703703703705],[0.06812500000000009,-0.18203703703703705],[0.12531249999999997,-0.14907407407407408],[0.12531249999999997,-0.14907407407407408],[0.23885416666666662,-0.11388888888888889],[0.23885416666666662,-0.11388888888888889],[0.3238541666666668,-0.08333333333333333],[0.3238541666666668,-0.08333333333333333],[0.45437500000000003,-0.08814814814814818],[0.45437500000000003,-0.08814814814814818],[0.5590625,-0.07703703703703708],[0.5590625,-0.07703703703703708],[0.5984375,-0.08462962962962961],[0.5984375,-0.08462962962962961],[0.6086458333333333,-0.03537037037037041],[0.6086458333333333,-0.03537037037037041],[0.6310416666666666,-0.014259259259259343],[0.6310416666666666,-0.014259259259259343],[0.6040625000000001,0.034444444444444486],[0.6040625000000001,0.034444444444444486],[0.5736458333333334,0.0772222222222223],[0.5736458333333334,0.0772222222222223],[0.5857291666666666,0.08259259259259263],[0.5857291666666666,0.08259259259259263],[0.5471874999999999,0.06759259259259259],[0.5471874999999999,0.06759259259259259],[0.5289583333333333,0.07833333333333325],[0.5289583333333333,0.07833333333333325],[0.4895833333333333,0.09592592592592585],[0.4895833333333333,0.09592592592592585],[0.43302083333333335,0.1361111111111111],[0.43302083333333335,0.1361111111111111],[0.35614583333333344,0.15611111111111103],[0.35614583333333344,0.15611111111111103],[0.3229166666666667,0.13740740740740748],[0.3229166666666667,0.13740740740740748],[0.29968750000000005,0.15037037037037046],[0.29968750000000005,0.15037037037037046],[0.29968750000000005,0.15037037037037046],[0.29968750000000005,0.15037037037037046],[0.2663541666666667,0.14444444444444443],[0.2663541666666667,0.14444444444444443],[0.25052083333333336,0.1359259259259259],[0.25052083333333336,0.1359259259259259],[0.20802083333333338,0.14944444444444452],[0.20802083333333338,0.14944444444444452],[0.22645833333333343,0.1772222222222223],[0.22645833333333343,0.1772222222222223],[0.23697916666666666,0.18777777777777774],[0.23697916666666666,0.18777777777777774],[0.22000000000000006,0.22611111111111115],[0.22000000000000006,0.22611111111111115],[0.22291666666666668,0.21500000000000005],[0.22291666666666668,0.21500000000000005],[0.2642708333333334,0.2007407407407407],[0.2642708333333334,0.2007407407407407],[0.28322916666666675,0.22240740740740744],[0.28322916666666675,0.22240740740740744],[0.2872916666666666,0.20500000000000007],[0.2872916666666666,0.20500000000000007],[0.3571875000000001,0.19018518518518526],[0.3571875000000001,0.19018518518518526],[0.4080208333333334,0.15851851851851856],[0.4080208333333334,0.15851851851851856],[0.47416666666666674,0.11907407407407399],[0.4817708333333333,0.11351851851851844],[0.5104166666666666,0.10925925925925926],[0.5548958333333334,0.05907407407407403],[0.5794791666666667,-0.01648148148148144],[0.5916666666666667,-0.02092592592592584],[0.5747916666666666,-0.05851851851851856],[0.5942708333333333,-0.07092592592592595],[0.583125,-0.09759259259259258],[0.5744791666666667,-0.10129629629629627],[0.5775000000000001,-0.12685185185185185],[0.5576041666666666,-0.1618518518518518],[0.5404166666666667,-0.18629629629629635],[0.5184375,-0.17851851851851847],[0.5246875000000001,-0.1655555555555555],[0.53125,-0.2081481481481481],[0.5429166666666667,-0.24259259259259258],[0.5366666666666667,-0.2881481481481482],[0.5366666666666667,-0.2881481481481482],[0.5359375,-0.32037037037037036],[0.5442708333333334,-0.334074074074074],[0.5451041666666666,-0.3133333333333333],[0.5559375000000001,-0.29666666666666663],[0.5627083333333334,-0.31740740740740736],[0.5806250000000001,-0.28648148148148145],[0.5818749999999999,-0.2044444444444444],[0.5864583333333333,-0.12481481481481477],[0.5900000000000001,-0.051111111111111156],[0.5878125,0.009074074074074031],[0.6173958333333334,0.10962962962962972],[0.6174999999999999,0.16500000000000004],[0.6196875000000001,0.23962962962962958],[0.6148958333333333,0.26703703703703713],[0.6114583333333333,0.3212962962962963],[0.5965625,0.31666666666666665],[0.5921875,0.2831481481481481],[0.5782291666666666,0.262037037037037],[0.5960416666666667,0.20407407407407416],[0.6140625,0.18333333333333332],[0.6009375000000001,0.13055555555555556],[0.5760416666666667,0.08111111111111102],[0.5633333333333332,0.011666666666666582],[0.5542708333333333,-0.01777777777777782],[0.5413541666666667,-0.04592592592592584],[0.5388541666666666,-0.09944444444444442],[0.5308333333333333,-0.12481481481481477],[0.5484375,-0.15499999999999997],[0.5446875000000001,-0.14500000000000002],[0.5440625,-0.1427777777777778],[0.5263541666666666,-0.1594444444444445],[0.5314583333333334,-0.1955555555555556],[0.5314583333333334,-0.1955555555555556],[0.5078125,-0.14962962962962964],[0.5078125,-0.14962962962962964],[0.4953125,-0.11870370370370374],[0.4953125,-0.11870370370370374],[0.5040625000000001,-0.09185185185185189],[0.5040625000000001,-0.09185185185185189],[0.45583333333333326,-0.05240740740740743],[0.45583333333333326,-0.05240740740740743],[0.41916666666666674,-0.04203703703703712],[0.41916666666666674,-0.04203703703703712],[0.3844791666666666,-0.060555555555555536],[0.3271874999999999,-0.026111111111111154],[0.30458333333333343,-0.058333333333333334],[0.28364583333333326,-0.0544444444444444],[0.2648958333333333,-0.01703703703703712],[0.24427083333333333,-0.022592592592592678],[0.2127083333333334,-0.06148148148148146],[0.16708333333333342,-0.06407407407407412],[0.1921875,-0.062407407407407384],[0.23052083333333329,-0.07148148148148152],[0.24749999999999991,-0.056851851851851834],[0.2851041666666667,-0.07444444444444442],[0.25322916666666656,-0.0418518518518519],[0.27760416666666665,-0.030000000000000086],[0.28802083333333334,-0.01592592592592597],[0.2985416666666666,-0.021296296296296296],[0.3529166666666666,-0.0485185185185186],[0.4039583333333333,-0.10925925925925926],[0.40125000000000005,-0.14962962962962964],[0.3787499999999999,-0.16518518518518516],[0.3803124999999999,-0.1977777777777778],[0.3803124999999999,-0.1977777777777778],[0.3889583333333334,-0.2361111111111111],[0.4196875000000001,-0.267037037037037],[0.4319791666666667,-0.2929629629629629],[0.45041666666666674,-0.3416666666666667],[0.4627083333333334,-0.3675925925925926],[0.4864583333333333,-0.36444444444444446]]","[[-0.02781250000000005,0.024814814814814772,0.00030000000447216735],[-0.02781250000000005,0.024814814814814772,0.041400000005964444],[-0.02781250000000005,0.024814814814814772,0.04510000000149006],[-0.02781250000000005,0.024814814814814772,0.06360000000149313],[-0.002291666666666714,0.012592592592592508,0.09730000000447347],[-0.002291666666666714,0.012592592592592508,0.10690000000596456],[-0.022395833333333334,0.017592592592592594,0.13090000000595836],[-0.022395833333333334,0.017592592592592594,0.13840000000595865],[-0.022500000000000023,-0.0022222222222223064,0.16810000000149472],[-0.022500000000000023,-0.0022222222222223064,0.17530000000446933],[0.01583333333333338,-0.01962962962962967,0.19930000000447023],[0.01583333333333338,-0.01962962962962967,0.20690000000595887],[0.04770833333333328,-0.044444444444444446,0.23240000000595984],[0.04770833333333328,-0.044444444444444446,0.23920000000298103],[0.05697916666666671,-0.06462962962962959,0.26690000000596115],[0.05697916666666671,-0.06462962962962959,0.27620000000298006],[0.07052083333333338,-0.09425925925925922,0.29940000000596],[0.07052083333333338,-0.09425925925925922,0.30720000000297887],[0.059687499999999956,-0.12925925925925927,0.3328000000044682],[0.059687499999999956,-0.12925925925925927,0.34010000000149176],[0.04364583333333331,-0.14296296296296293,0.3640000000000043],[0.04364583333333331,-0.14296296296296293,0.37090000000596035],[0.036249999999999956,-0.16888888888888887,0.3960000000000008],[0.036249999999999956,-0.16888888888888887,0.4039000000059616],[0.011666666666666714,-0.1955555555555556,0.43060000000149046],[0.011666666666666714,-0.1955555555555556,0.43760000000148835],[-0.001145833333333357,-0.22166666666666665,0.4639000000059639],[-0.001145833333333357,-0.22166666666666665,0.47120000000298035],[0.01416666666666669,-0.21333333333333332,0.49730000000447205],[0.01416666666666669,-0.21333333333333332,0.5041000000014932],[0.021458333333333357,-0.20203703703703707,0.5321000000014919],[0.021458333333333357,-0.20203703703703707,0.5393000000044736],[0.021458333333333357,-0.20203703703703707,0.5451000000014901],[0.021458333333333357,-0.20203703703703707,0.5642000000029839],[0.01260416666666669,-0.1955555555555556,0.5959000000059618],[0.01260416666666669,-0.1955555555555556,0.6035000000000039],[0.012916666666666642,-0.16129629629629633,0.6294000000059583],[0.012916666666666642,-0.16129629629629633,0.6375000000000028],[-0.000833333333333286,-0.11962962962962967,0.6639000000059596],[-0.000833333333333286,-0.11962962962962967,0.6709999999999994],[0.02791666666666662,-0.0301851851851851,0.695999999999998],[0.02791666666666662,-0.0301851851851851,0.7049999999999983],[0.05499999999999995,0.04333333333333329,0.729200000002983],[0.05499999999999995,0.04333333333333329,0.7372000000029786],[0.07666666666666658,0.14944444444444452,0.7627000000029796],[0.07666666666666658,0.14944444444444452,0.7704999999999984],[0.05135416666666662,0.21425925925925934,0.7972000000029809],[0.05135416666666662,0.21425925925925934,0.804000000000002],[0.03677083333333329,0.3146296296296296,0.8308000000044728],[0.03677083333333329,0.3146296296296296,0.837600000001494],[-0.041875000000000044,0.3827777777777779,0.8640000000000043],[-0.041875000000000044,0.3827777777777779,0.8725000000000023],[-0.06197916666666667,0.40981481481481474,0.8972000000029823],[-0.06197916666666667,0.40981481481481474,0.9043000000044685],[-0.08645833333333333,0.422037037037037,0.9309000000059626],[-0.08645833333333333,0.422037037037037,0.9380000000000024],[-0.11041666666666666,0.4300000000000001,0.962600000001494],[-0.11041666666666666,0.4300000000000001,0.9704000000059594],[-0.14010416666666667,0.431111111111111,0.9972000000029837],[-0.14010416666666667,0.431111111111111,1.0052000000029793],[-0.14010416666666667,0.431111111111111,1.0118000000044702],[-0.14010416666666667,0.431111111111111,1.0302000000029778],[-0.17354166666666668,0.38851851851851843,1.0627000000029838],[-0.17354166666666668,0.38851851851851843,1.0700000000000003],[-0.24177083333333335,0.40925925925925927,1.097200000002978],[-0.24177083333333335,0.40925925925925927,1.1041000000014947],[-0.24885416666666665,0.3425925925925926,1.1307000000029817],[-0.24885416666666665,0.3425925925925926,1.1379000000059634],[-0.215625,0.3170370370370371,1.1641000000014898],[-0.215625,0.3170370370370371,1.1719000000059623],[-0.19406249999999994,0.2418518518518519,1.1974000000059632],[-0.19406249999999994,0.2418518518518519,1.204800000004468],[-0.14260416666666664,0.19611111111111107,1.229200000002983],[-0.14260416666666664,0.19611111111111107,1.2364000000059647],[-0.12427083333333329,0.21055555555555563,1.2625000000000028],[-0.12427083333333329,0.21055555555555563,1.2702000000029798],[-0.06427083333333337,0.2551851851851851,1.2973000000044692],[-0.06427083333333337,0.2551851851851851,1.3071000000014905],[-0.05677083333333333,0.2490740740740741,1.3309000000059612],[-0.05677083333333333,0.2490740740740741,1.3385000000000034],[0.0002083333333333807,0.2737037037037036,1.3656000000014927],[0.0002083333333333807,0.2737037037037036,1.3726000000014906],[0.0002083333333333807,0.2737037037037036,1.3786000000014909],[0.0002083333333333807,0.2737037037037036,1.3969999999999985],[0.049374999999999974,0.31370370370370365,1.4308000000044743],[0.049374999999999974,0.31370370370370365,1.4379000000059605],[0.13604166666666656,0.2818518518518519,1.4639999999999986],[0.13604166666666656,0.2818518518518519,1.4716000000014944],[0.15104166666666666,0.30166666666666664,1.495800000004472],[0.15104166666666666,0.30166666666666664,1.503200000002984],[0.17083333333333334,0.3368518518518518,1.5307000000029802],[0.17083333333333334,0.3368518518518518,1.5374000000059596],[0.19333333333333325,0.36944444444444446,1.5625],[0.19333333333333325,0.36944444444444446,1.5709000000059632],[0.22395833333333334,0.3787037037037037,1.597200000002978],[0.22395833333333334,0.3787037037037037,1.6044000000059597],[0.23541666666666666,0.3661111111111112,1.6306000000014933],[0.23541666666666666,0.3661111111111112,1.637800000004475],[0.2163541666666667,0.347037037037037,1.6625000000000014],[0.2163541666666667,0.347037037037037,1.6707000000029808],[0.2361458333333334,0.3396296296296296,1.697300000004475],[0.2361458333333334,0.3396296296296296,1.704500000000003],[0.20343749999999997,0.3257407407407407,1.7308000000044714],[0.20343749999999997,0.3257407407407407,1.7379000000059648],[0.20208333333333334,0.33666666666666656,1.7638000000044727],[0.20208333333333334,0.33666666666666656,1.7707000000029822],[0.20562500000000009,0.3381481481481482,1.7972000000029809],[0.20562500000000009,0.3381481481481482,1.8041000000014904],[0.18864583333333323,0.35351851851851845,1.8307000000029845],[0.18864583333333323,0.35351851851851845,1.8378000000044707],[0.16833333333333325,0.3609259259259259,1.8641000000014927],[0.16833333333333325,0.3609259259259259,1.8717000000029813],[0.1544791666666666,0.3709259259259258,1.897400000005959],[0.1544791666666666,0.3709259259259258,1.9040000000000035],[0.13947916666666677,0.3942592592592592,1.9292000000029788],[0.13947916666666677,0.3942592592592592,1.9369000000059629],[0.14072916666666657,0.4275925925925925,1.9639000000059639],[0.14072916666666657,0.4275925925925925,1.9710000000000036],[0.12104166666666671,0.44537037037037036,1.9959000000059604],[0.12104166666666671,0.44537037037037036,2.0031000000014885],[0.10843749999999991,0.48203703703703693,2.02920000000298],[0.10843749999999991,0.48203703703703693,2.037900000005962],[0.1234375,0.4951851851851851,2.063900000005958],[0.1234375,0.4951851851851851,2.070900000005963],[0.0921875,0.4962962962962963,2.0959000000059618],[0.0921875,0.4962962962962963,2.1043000000044714],[0.042812500000000024,0.5046296296296297,2.1310000000000002],[0.042812500000000024,0.5046296296296297,2.137999999999998],[0.014999999999999977,0.5161111111111112,2.167500000000004],[0.014999999999999977,0.5161111111111112,2.1751000000014926],[-0.01604166666666664,0.5261111111111112,2.2009000000059586],[-0.01604166666666664,0.5261111111111112,2.208400000005959],[-0.024479166666666666,0.5187037037037038,2.233200000002981],[-0.024479166666666666,0.5187037037037038,2.2401000000014903],[-0.05249999999999998,0.5120370370370371,2.2661000000014937],[-0.05249999999999998,0.5120370370370371,2.2738000000044707],[-0.09395833333333338,0.4948148148148149,2.2996000000014902],[-0.09395833333333338,0.4948148148148149,2.3093000000044697],[-0.11656249999999997,0.5098148148148147,2.3329999999999984],[-0.11656249999999997,0.5098148148148147,2.3407000000029825],[-0.11958333333333329,0.49833333333333335,2.3673000000044695],[-0.11958333333333329,0.49833333333333335,2.375900000005963],[-0.19083333333333338,0.5133333333333334,2.3994000000059614],[-0.19083333333333338,0.5133333333333334,2.407499999999999],[-0.2358333333333333,0.49370370370370376,2.433100000001488],[-0.2358333333333333,0.49370370370370376,2.440700000002984],[-0.22552083333333334,0.47851851851851845,2.4676000000014895],[-0.22552083333333334,0.47851851851851845,2.475200000002978],[-0.1977083333333333,0.4607407407407407,2.5008000000044746],[-0.1977083333333333,0.4607407407407407,2.508499999999998],[-0.17177083333333332,0.452962962962963,2.534300000004471],[-0.17177083333333332,0.452962962962963,2.541700000002983],[-0.17062499999999994,0.42314814814814816,2.564],[-0.17062499999999994,0.42314814814814816,2.5711000000014934],[-0.14468749999999997,0.3912962962962962,2.5960000000000036],[-0.14468749999999997,0.3912962962962962,2.603500000000004],[-0.12458333333333335,0.37111111111111106,2.6292000000029816],[-0.12458333333333335,0.37111111111111106,2.6366000000014935],[-0.10187499999999995,0.3333333333333333,2.6626000000014898],[-0.10187499999999995,0.3333333333333333,2.6711000000014877],[-0.08250000000000005,0.3235185185185186,2.697300000004475],[-0.08250000000000005,0.3235185185185186,2.7051000000014938],[-0.013333333333333286,0.30574074074074076,2.730700000002983],[-0.013333333333333286,0.30574074074074076,2.7389000000059625],[-0.013333333333333286,0.30574074074074076,2.7452000000029813],[-0.013333333333333286,0.30574074074074076,2.7634000000059586],[0.04083333333333338,0.2933333333333333,2.7959999999999994],[0.04083333333333338,0.2933333333333333,2.804300000004474],[0.058124999999999954,0.26296296296296295,2.832300000004473],[0.058124999999999954,0.26296296296296295,2.840400000005964],[0.058124999999999954,0.26296296296296295,2.8451000000014943],[0.058124999999999954,0.26296296296296295,2.8636000000014903],[0.09135416666666671,0.24944444444444452,2.896000000000001],[0.09135416666666671,0.24944444444444452,2.9043000000044685],[0.10343749999999995,0.23425925925925925,2.9292000000029788],[0.10343749999999995,0.23425925925925925,2.9376000000014884],[0.11833333333333323,0.25870370370370377,2.964100000001494],[0.11833333333333323,0.25870370370370377,2.971499999999999],[0.08010416666666677,0.2616666666666666,2.997300000004472],[0.08010416666666677,0.2616666666666666,3.0041000000014932],[0.1,0.2449999999999999,3.0293000000044685],[0.1,0.2449999999999999,3.038499999999999],[0.1203125,0.2537037037037037,3.0626000000014884],[0.1203125,0.2537037037037037,3.070200000002984],[0.11541666666666663,0.21185185185185182,3.0959000000059618],[0.11541666666666663,0.21185185185185182,3.1041000000014947],[0.10041666666666677,0.21203703703703702,3.1307000000029817],[0.10041666666666677,0.21203703703703702,3.1387000000029843],[0.065625,0.17537037037037045,3.1639000000059596],[0.065625,0.17537037037037045,3.1717000000029785],[0.025937499999999978,0.1737037037037036,3.195800000004475],[0.025937499999999978,0.1737037037037036,3.2034999999999982],[-0.024270833333333287,0.19666666666666674,3.23090000000596],[-0.024270833333333287,0.19666666666666674,3.237900000005965],[-0.04677083333333331,0.19648148148148153,3.264000000000003],[-0.04677083333333331,0.19648148148148153,3.271100000001489],[-0.08875000000000005,0.1594444444444445,3.3000000000000043],[-0.08875000000000005,0.1594444444444445,3.3069000000059603],[-0.08875000000000005,0.1594444444444445,3.3118000000044745],[-0.08875000000000005,0.1594444444444445,3.331300000004468],[-0.0967708333333333,0.15759259259259265,3.364200000002981],[-0.0967708333333333,0.15759259259259265,3.3713000000044744],[-0.1375,0.16777777777777783,3.3972000000029823],[-0.1375,0.16777777777777783,3.404100000001492],[-0.1827083333333333,0.15388888888888894,3.4292000000029788],[-0.1827083333333333,0.15388888888888894,3.4366000000014907],[-0.20645833333333338,0.22111111111111106,3.4624999999999986],[-0.20645833333333338,0.22111111111111106,3.4705000000000013],[-0.17250000000000001,0.20203703703703707,3.4975000000000023],[-0.17250000000000001,0.20203703703703707,3.504700000002984],[-0.12052083333333338,0.2270370370370371,3.5293000000044685],[-0.12052083333333338,0.2270370370370371,3.536800000004469],[-0.08833333333333329,0.27388888888888885,3.5626000000014884],[-0.08833333333333329,0.27388888888888885,3.5707000000029794],[-0.06333333333333328,0.25037037037037047,3.5973000000044735],[-0.06333333333333328,0.25037037037037047,3.603999999999999],[-0.04125000000000002,0.25833333333333336,3.6292000000029816],[-0.04125000000000002,0.25833333333333336,3.636499999999998],[-0.03093750000000005,0.2566666666666667,3.6625000000000014],[-0.03093750000000005,0.2566666666666667,3.67010000000149],[0.0010416666666666667,0.27388888888888885,3.695900000005963],[0.0010416666666666667,0.27388888888888885,3.7034999999999982],[0.02781250000000005,0.21425925925925934,3.729200000002983],[0.02781250000000005,0.21425925925925934,3.738100000001488],[0.06916666666666677,0.20833333333333334,3.7661000000014937],[0.06916666666666677,0.20833333333333334,3.7729000000059614],[0.06916666666666677,0.20833333333333334,3.778500000000001],[0.06916666666666677,0.20833333333333334,3.796800000004474],[0.07625000000000005,0.15629629629629627,3.8307000000029845],[0.07625000000000005,0.15629629629629627,3.838300000004473],[0.05291666666666662,0.14888888888888885,3.8641000000014927],[0.05291666666666662,0.14888888888888885,3.8732000000029814],[0.05291666666666662,0.14888888888888885,3.878700000002979],[0.05291666666666662,0.14888888888888885,3.8968000000044682],[0.06479166666666672,0.09814814814814815,3.930700000002979],[0.06479166666666672,0.09814814814814815,3.937800000004472],[0.1040625000000001,0.0198148148148149,3.964100000001494],[0.1040625000000001,0.0198148148148149,3.971100000001492],[0.12281250000000009,-0.006111111111111027,3.9975000000000023],[0.12281250000000009,-0.006111111111111027,4.004900000005961],[0.11083333333333342,-0.07981481481481485,4.03070000000298],[0.11083333333333342,-0.07981481481481485,4.038400000005964],[0.07125000000000009,-0.10555555555555556,4.064],[0.07125000000000009,-0.10555555555555556,4.071200000002982],[0.03729166666666662,-0.15333333333333335,4.097600000001492],[0.03729166666666662,-0.15333333333333335,4.104700000002978],[-0.0020833333333333333,-0.13407407407407404,4.13080000000447],[-0.0020833333333333333,-0.13407407407407404,4.137800000004475],[-0.06614583333333333,-0.16425925925925924,4.16410000000149],[-0.06614583333333333,-0.16425925925925924,4.170900000005965],[-0.09604166666666672,-0.18222222222222217,4.197300000004475],[-0.09604166666666672,-0.18222222222222217,4.204999999999998],[-0.1453125,-0.22240740740740744,4.231800000004469],[-0.1453125,-0.22240740740740744,4.23860000000149],[-0.1453125,-0.22240740740740744,4.245100000001493],[-0.1453125,-0.22240740740740744,4.263400000005959],[-0.2055208333333333,-0.22722222222222221,4.297200000002981],[-0.2055208333333333,-0.22722222222222221,4.30390000000596],[-0.2768749999999999,-0.25685185185185183,4.329200000002984],[-0.2768749999999999,-0.25685185185185183,4.336500000000001],[-0.33052083333333326,-0.30037037037037034,4.364300000004469],[-0.33052083333333326,-0.30037037037037034,4.372600000001491],[-0.3577083333333333,-0.29314814814814816,4.397600000001489],[-0.3577083333333333,-0.29314814814814816,4.405300000004473],[-0.3373958333333333,-0.30277777777777776,4.4310000000000045],[-0.3373958333333333,-0.30277777777777776,4.439300000004472],[-0.3490625,-0.30648148148148147,4.466999999999999],[-0.3490625,-0.30648148148148147,4.474499999999999],[-0.3366666666666667,-0.29370370370370374,4.5012000000029815],[-0.3366666666666667,-0.29370370370370374,4.50880000000447],[-0.2508333333333333,-0.25999999999999995,4.534400000005959],[-0.2508333333333333,-0.25999999999999995,4.54210000000149],[-0.1632291666666667,-0.2757407407407407,4.568100000001493],[-0.1632291666666667,-0.2757407407407407,4.5760000000000005],[-0.0938541666666667,-0.247037037037037,4.599800000004471],[-0.0938541666666667,-0.247037037037037,4.608700000002983],[-0.02781250000000005,-0.2294444444444444,4.632900000005961],[-0.02781250000000005,-0.2294444444444444,4.639900000005959],[0.06812500000000009,-0.18203703703703705,4.666100000001492],[0.06812500000000009,-0.18203703703703705,4.673600000001493],[0.12531249999999997,-0.14907407407407408,4.7010000000000005],[0.12531249999999997,-0.14907407407407408,4.708700000002985],[0.23885416666666662,-0.11388888888888889,4.732800000004474],[0.23885416666666662,-0.11388888888888889,4.740500000000004],[0.3238541666666668,-0.08333333333333333,4.763900000005961],[0.3238541666666668,-0.08333333333333333,4.771200000002985],[0.45437500000000003,-0.08814814814814818,4.797600000001488],[0.45437500000000003,-0.08814814814814818,4.804600000001493],[0.5590625,-0.07703703703703708,4.829300000004473],[0.5590625,-0.07703703703703708,4.837000000000003],[0.5984375,-0.08462962962962961,4.865300000004474],[0.5984375,-0.08462962962962961,4.873600000001488],[0.6086458333333333,-0.03537037037037041,4.897400000005959],[0.6086458333333333,-0.03537037037037041,4.904800000004471],[0.6310416666666666,-0.014259259259259343,4.931400000005965],[0.6310416666666666,-0.014259259259259343,4.93880000000447],[0.6040625000000001,0.034444444444444486,4.962800000004471],[0.6040625000000001,0.034444444444444486,4.970300000004471],[0.5736458333333334,0.0772222222222223,4.997200000002984],[0.5736458333333334,0.0772222222222223,5.004200000002982],[0.5857291666666666,0.08259259259259263,5.030999999999999],[0.5857291666666666,0.08259259259259263,5.037700000002978],[0.5471874999999999,0.06759259259259259,5.0625],[0.5471874999999999,0.06759259259259259,5.06980000000447],[0.5289583333333333,0.07833333333333325,5.095800000004473],[0.5289583333333333,0.07833333333333325,5.103500000000004],[0.4895833333333333,0.09592592592592585,5.129200000002982],[0.4895833333333333,0.09592592592592585,5.1366000000014935],[0.43302083333333335,0.1361111111111111,5.162700000002978],[0.43302083333333335,0.1361111111111111,5.170700000002981],[0.35614583333333344,0.15611111111111103,5.197200000002979],[0.35614583333333344,0.15611111111111103,5.204600000001491],[0.3229166666666667,0.13740740740740748,5.230600000001495],[0.3229166666666667,0.13740740740740748,5.238500000000002],[0.29968750000000005,0.15037037037037046,5.266500000000001],[0.29968750000000005,0.15037037037037046,5.273700000002982],[0.29968750000000005,0.15037037037037046,5.278700000002985],[0.29968750000000005,0.15037037037037046,5.296900000005962],[0.2663541666666667,0.14444444444444443,5.333400000005959],[0.2663541666666667,0.14444444444444443,5.340400000005964],[0.25052083333333336,0.1359259259259259,5.364200000002981],[0.25052083333333336,0.1359259259259259,5.371600000001493],[0.20802083333333338,0.14944444444444452,5.400100000001494],[0.20802083333333338,0.14944444444444452,5.40720000000298],[0.22645833333333343,0.1772222222222223,5.430900000005963],[0.22645833333333343,0.1772222222222223,5.438600000001493],[0.23697916666666666,0.18777777777777774,5.466300000004473],[0.23697916666666666,0.18777777777777774,5.47360000000149],[0.22000000000000006,0.22611111111111115,5.497500000000002],[0.22000000000000006,0.22611111111111115,5.504700000002984],[0.22291666666666668,0.21500000000000005,5.53310000000149],[0.22291666666666668,0.21500000000000005,5.54060000000149],[0.2642708333333334,0.2007407407407407,5.564],[0.2642708333333334,0.2007407407407407,5.57130000000447],[0.28322916666666675,0.22240740740740744,5.599800000004471],[0.28322916666666675,0.22240740740740744,5.608000000000004],[0.2872916666666666,0.20500000000000007,5.63080000000447],[0.2872916666666666,0.20500000000000007,5.63830000000447],[0.3571875000000001,0.19018518518518526,5.666400000005964],[0.3571875000000001,0.19018518518518526,5.673900000005965],[0.4080208333333334,0.15851851851851856,5.697300000004475],[0.4080208333333334,0.15851851851851856,5.727700000002983],[0.47416666666666674,0.11907407407407399,5.734000000000002],[0.4817708333333333,0.11351851851851844,5.748700000002984],[0.5104166666666666,0.10925925925925926,5.761900000005959],[0.5548958333333334,0.05907407407407403,5.780800000004469],[0.5794791666666667,-0.01648148148148144,5.795200000002978],[0.5916666666666667,-0.02092592592592584,5.811900000005963],[0.5747916666666666,-0.05851851851851856,5.8303000000044705],[0.5942708333333333,-0.07092592592592595,5.845300000004471],[0.583125,-0.09759259259259258,5.862500000000004],[0.5744791666666667,-0.10129629629629627,5.880700000002982],[0.5775000000000001,-0.12685185185185185,5.895300000004468],[0.5576041666666666,-0.1618518518518518,5.911900000005964],[0.5404166666666667,-0.18629629629629635,5.928600000001488],[0.5184375,-0.17851851851851847,5.948100000001489],[0.5246875000000001,-0.1655555555555555,5.963000000000001],[0.53125,-0.2081481481481481,5.978500000000004],[0.5429166666666667,-0.24259259259259258,5.995200000002981],[0.5366666666666667,-0.2881481481481482,6.016800000004473],[0.5366666666666667,-0.2881481481481482,6.028600000001489],[0.5359375,-0.32037037037037036,6.045400000005962],[0.5442708333333334,-0.334074074074074,6.061999999999998],[0.5451041666666666,-0.3133333333333333,6.081300000004468],[0.5559375000000001,-0.29666666666666663,6.095100000001494],[0.5627083333333334,-0.31740740740740736,6.111800000004472],[0.5806250000000001,-0.28648148148148145,6.132200000002982],[0.5818749999999999,-0.2044444444444444,6.145300000004468],[0.5864583333333333,-0.12481481481481477,6.161800000004469],[0.5900000000000001,-0.051111111111111156,6.178400000005965],[0.5878125,0.009074074074074031,6.195],[0.6173958333333334,0.10962962962962972,6.211700000002985],[0.6174999999999999,0.16500000000000004,6.230600000001495],[0.6196875000000001,0.23962962962962958,6.245100000001493],[0.6148958333333333,0.26703703703703713,6.261900000005959],[0.6114583333333333,0.3212962962962963,6.278500000000001],[0.5965625,0.31666666666666665,6.29510000000149],[0.5921875,0.2831481481481481,6.311700000002979],[0.5782291666666666,0.262037037037037,6.3284000000059635],[0.5960416666666667,0.20407407407407416,6.345100000001494],[0.6140625,0.18333333333333332,6.361800000004472],[0.6009375000000001,0.13055555555555556,6.378400000005961],[0.5760416666666667,0.08111111111111102,6.3951000000014915],[0.5633333333333332,0.011666666666666582,6.411800000004469],[0.5542708333333333,-0.01777777777777782,6.428400000005965],[0.5413541666666667,-0.04592592592592584,6.445],[0.5388541666666666,-0.09944444444444442,6.461800000004473],[0.5308333333333333,-0.12481481481481477,6.478400000005962],[0.5484375,-0.15499999999999997,6.495100000001493],[0.5446875000000001,-0.14500000000000002,6.51180000000447],[0.5440625,-0.1427777777777778,6.528500000000001],[0.5263541666666666,-0.1594444444444445,6.54510000000149],[0.5314583333333334,-0.1955555555555556,6.561700000002979],[0.5314583333333334,-0.1955555555555556,6.578499999999998],[0.5078125,-0.14962962962962964,6.595100000001494],[0.5078125,-0.14962962962962964,6.611800000004472],[0.4953125,-0.11870370370370374,6.628400000005961],[0.4953125,-0.11870370370370374,6.6451000000014915],[0.5040625000000001,-0.09185185185185189,6.661900000005964],[0.5040625000000001,-0.09185185185185189,6.678400000005965],[0.45583333333333326,-0.05240740740740743,6.695],[0.45583333333333326,-0.05240740740740743,6.711800000004473],[0.41916666666666674,-0.04203703703703712,6.728500000000004],[0.41916666666666674,-0.04203703703703712,6.745100000001493],[0.3844791666666666,-0.060555555555555536,6.761700000002982],[0.3271874999999999,-0.026111111111111154,6.778400000005959],[0.30458333333333343,-0.058333333333333334,6.79510000000149],[0.28364583333333326,-0.0544444444444444,6.8118000000044745],[0.2648958333333333,-0.01703703703703712,6.8284000000059635],[0.24427083333333333,-0.022592592592592678,6.845100000001494],[0.2127083333333334,-0.06148148148148146,6.862500000000004],[0.16708333333333342,-0.06407407407407412,6.879700000002984],[0.1921875,-0.062407407407407384,6.8951000000014915],[0.23052083333333329,-0.07148148148148152,6.9117000000029805],[0.24749999999999991,-0.056851851851851834,6.9285],[0.2851041666666667,-0.07444444444444442,6.946200000002982],[0.25322916666666656,-0.0418518518518519,6.961800000004473],[0.27760416666666665,-0.030000000000000086,6.978400000005962],[0.28802083333333334,-0.01592592592592597,6.995100000001493],[0.2985416666666666,-0.021296296296296296,7.01480000000447],[0.3529166666666666,-0.0485185185185186,7.028600000001489],[0.4039583333333333,-0.10925925925925926,7.045300000004474],[0.40125000000000005,-0.14962962962962964,7.061900000005963],[0.3787499999999999,-0.16518518518518516,7.080500000000001],[0.3803124999999999,-0.1977777777777778,7.095200000002983],[0.3803124999999999,-0.1977777777777778,7.11190000000596],[0.3889583333333334,-0.2361111111111111,7.131900000005963],[0.4196875000000001,-0.267037037037037,7.147200000002982],[0.4319791666666667,-0.2929629629629629,7.161900000005964],[0.45041666666666674,-0.3416666666666667,7.1785],[0.4627083333333334,-0.3675925925925926,7.198600000001491],[0.4864583333333333,-0.36444444444444446,7.214400000005959]]","[0.00030000000447216735,0.041400000005964444,0.04510000000149006,0.06360000000149313,0.09730000000447347,0.10690000000596456,0.13090000000595836,0.13840000000595865,0.16810000000149472,0.17530000000446933,0.19930000000447023,0.20690000000595887,0.23240000000595984,0.23920000000298103,0.26690000000596115,0.27620000000298006,0.29940000000596,0.30720000000297887,0.3328000000044682,0.34010000000149176,0.3640000000000043,0.37090000000596035,0.3960000000000008,0.4039000000059616,0.43060000000149046,0.43760000000148835,0.4639000000059639,0.47120000000298035,0.49730000000447205,0.5041000000014932,0.5321000000014919,0.5393000000044736,0.5451000000014901,0.5642000000029839,0.5959000000059618,0.6035000000000039,0.6294000000059583,0.6375000000000028,0.6639000000059596,0.6709999999999994,0.695999999999998,0.7049999999999983,0.729200000002983,0.7372000000029786,0.7627000000029796,0.7704999999999984,0.7972000000029809,0.804000000000002,0.8308000000044728,0.837600000001494,0.8640000000000043,0.8725000000000023,0.8972000000029823,0.9043000000044685,0.9309000000059626,0.9380000000000024,0.962600000001494,0.9704000000059594,0.9972000000029837,1.0052000000029793,1.0118000000044702,1.0302000000029778,1.0627000000029838,1.0700000000000003,1.097200000002978,1.1041000000014947,1.1307000000029817,1.1379000000059634,1.1641000000014898,1.1719000000059623,1.1974000000059632,1.204800000004468,1.229200000002983,1.2364000000059647,1.2625000000000028,1.2702000000029798,1.2973000000044692,1.3071000000014905,1.3309000000059612,1.3385000000000034,1.3656000000014927,1.3726000000014906,1.3786000000014909,1.3969999999999985,1.4308000000044743,1.4379000000059605,1.4639999999999986,1.4716000000014944,1.495800000004472,1.503200000002984,1.5307000000029802,1.5374000000059596,1.5625,1.5709000000059632,1.597200000002978,1.6044000000059597,1.6306000000014933,1.637800000004475,1.6625000000000014,1.6707000000029808,1.697300000004475,1.704500000000003,1.7308000000044714,1.7379000000059648,1.7638000000044727,1.7707000000029822,1.7972000000029809,1.8041000000014904,1.8307000000029845,1.8378000000044707,1.8641000000014927,1.8717000000029813,1.897400000005959,1.9040000000000035,1.9292000000029788,1.9369000000059629,1.9639000000059639,1.9710000000000036,1.9959000000059604,2.0031000000014885,2.02920000000298,2.037900000005962,2.063900000005958,2.070900000005963,2.0959000000059618,2.1043000000044714,2.1310000000000002,2.137999999999998,2.167500000000004,2.1751000000014926,2.2009000000059586,2.208400000005959,2.233200000002981,2.2401000000014903,2.2661000000014937,2.2738000000044707,2.2996000000014902,2.3093000000044697,2.3329999999999984,2.3407000000029825,2.3673000000044695,2.375900000005963,2.3994000000059614,2.407499999999999,2.433100000001488,2.440700000002984,2.4676000000014895,2.475200000002978,2.5008000000044746,2.508499999999998,2.534300000004471,2.541700000002983,2.564,2.5711000000014934,2.5960000000000036,2.603500000000004,2.6292000000029816,2.6366000000014935,2.6626000000014898,2.6711000000014877,2.697300000004475,2.7051000000014938,2.730700000002983,2.7389000000059625,2.7452000000029813,2.7634000000059586,2.7959999999999994,2.804300000004474,2.832300000004473,2.840400000005964,2.8451000000014943,2.8636000000014903,2.896000000000001,2.9043000000044685,2.9292000000029788,2.9376000000014884,2.964100000001494,2.971499999999999,2.997300000004472,3.0041000000014932,3.0293000000044685,3.038499999999999,3.0626000000014884,3.070200000002984,3.0959000000059618,3.1041000000014947,3.1307000000029817,3.1387000000029843,3.1639000000059596,3.1717000000029785,3.195800000004475,3.2034999999999982,3.23090000000596,3.237900000005965,3.264000000000003,3.271100000001489,3.3000000000000043,3.3069000000059603,3.3118000000044745,3.331300000004468,3.364200000002981,3.3713000000044744,3.3972000000029823,3.404100000001492,3.4292000000029788,3.4366000000014907,3.4624999999999986,3.4705000000000013,3.4975000000000023,3.504700000002984,3.5293000000044685,3.536800000004469,3.5626000000014884,3.5707000000029794,3.5973000000044735,3.603999999999999,3.6292000000029816,3.636499999999998,3.6625000000000014,3.67010000000149,3.695900000005963,3.7034999999999982,3.729200000002983,3.738100000001488,3.7661000000014937,3.7729000000059614,3.778500000000001,3.796800000004474,3.8307000000029845,3.838300000004473,3.8641000000014927,3.8732000000029814,3.878700000002979,3.8968000000044682,3.930700000002979,3.937800000004472,3.964100000001494,3.971100000001492,3.9975000000000023,4.004900000005961,4.03070000000298,4.038400000005964,4.064,4.071200000002982,4.097600000001492,4.104700000002978,4.13080000000447,4.137800000004475,4.16410000000149,4.170900000005965,4.197300000004475,4.204999999999998,4.231800000004469,4.23860000000149,4.245100000001493,4.263400000005959,4.297200000002981,4.30390000000596,4.329200000002984,4.336500000000001,4.364300000004469,4.372600000001491,4.397600000001489,4.405300000004473,4.4310000000000045,4.439300000004472,4.466999999999999,4.474499999999999,4.5012000000029815,4.50880000000447,4.534400000005959,4.54210000000149,4.568100000001493,4.5760000000000005,4.599800000004471,4.608700000002983,4.632900000005961,4.639900000005959,4.666100000001492,4.673600000001493,4.7010000000000005,4.708700000002985,4.732800000004474,4.740500000000004,4.763900000005961,4.771200000002985,4.797600000001488,4.804600000001493,4.829300000004473,4.837000000000003,4.865300000004474,4.873600000001488,4.897400000005959,4.904800000004471,4.931400000005965,4.93880000000447,4.962800000004471,4.970300000004471,4.997200000002984,5.004200000002982,5.030999999999999,5.037700000002978,5.0625,5.06980000000447,5.095800000004473,5.103500000000004,5.129200000002982,5.1366000000014935,5.162700000002978,5.170700000002981,5.197200000002979,5.204600000001491,5.230600000001495,5.238500000000002,5.266500000000001,5.273700000002982,5.278700000002985,5.296900000005962,5.333400000005959,5.340400000005964,5.364200000002981,5.371600000001493,5.400100000001494,5.40720000000298,5.430900000005963,5.438600000001493,5.466300000004473,5.47360000000149,5.497500000000002,5.504700000002984,5.53310000000149,5.54060000000149,5.564,5.57130000000447,5.599800000004471,5.608000000000004,5.63080000000447,5.63830000000447,5.666400000005964,5.673900000005965,5.697300000004475,5.727700000002983,5.734000000000002,5.748700000002984,5.761900000005959,5.780800000004469,5.795200000002978,5.811900000005963,5.8303000000044705,5.845300000004471,5.862500000000004,5.880700000002982,5.895300000004468,5.911900000005964,5.928600000001488,5.948100000001489,5.963000000000001,5.978500000000004,5.995200000002981,6.016800000004473,6.028600000001489,6.045400000005962,6.061999999999998,6.081300000004468,6.095100000001494,6.111800000004472,6.132200000002982,6.145300000004468,6.161800000004469,6.178400000005965,6.195,6.211700000002985,6.230600000001495,6.245100000001493,6.261900000005959,6.278500000000001,6.29510000000149,6.311700000002979,6.3284000000059635,6.345100000001494,6.361800000004472,6.378400000005961,6.3951000000014915,6.411800000004469,6.428400000005965,6.445,6.461800000004473,6.478400000005962,6.495100000001493,6.51180000000447,6.528500000000001,6.54510000000149,6.561700000002979,6.578499999999998,6.595100000001494,6.611800000004472,6.628400000005961,6.6451000000014915,6.661900000005964,6.678400000005965,6.695,6.711800000004473,6.728500000000004,6.745100000001493,6.761700000002982,6.778400000005959,6.79510000000149,6.8118000000044745,6.8284000000059635,6.845100000001494,6.862500000000004,6.879700000002984,6.8951000000014915,6.9117000000029805,6.9285,6.946200000002982,6.961800000004473,6.978400000005962,6.995100000001493,7.01480000000447,7.028600000001489,7.045300000004474,7.061900000005963,7.080500000000001,7.095200000002983,7.11190000000596,7.131900000005963,7.147200000002982,7.161900000005964,7.1785,7.198600000001491,7.214400000005959]","[1733282151887,1733282151920,1733282151924,1733282151942,1733282151976,1733282151985,1733282152009,1733282152017,1733282152047,1733282152054,1733282152078,1733282152085,1733282152111,1733282152118,1733282152145,1733282152155,1733282152178,1733282152186,1733282152211,1733282152219,1733282152243,1733282152250,1733282152275,1733282152283,1733282152309,1733282152316,1733282152343,1733282152350,1733282152376,1733282152383,1733282152411,1733282152418,1733282152424,1733282152443,1733282152475,1733282152482,1733282152508,1733282152516,1733282152542,1733282152550,1733282152575,1733282152584,1733282152608,1733282152616,1733282152641,1733282152649,1733282152676,1733282152683,1733282152709,1733282152716,1733282152743,1733282152751,1733282152776,1733282152783,1733282152809,1733282152817,1733282152841,1733282152849,1733282152876,1733282152884,1733282152890,1733282152909,1733282152941,1733282152949,1733282152976,1733282152983,1733282153009,1733282153016,1733282153043,1733282153050,1733282153076,1733282153083,1733282153108,1733282153115,1733282153141,1733282153149,1733282153176,1733282153186,1733282153209,1733282153217,1733282153244,1733282153251,1733282153257,1733282153276,1733282153309,1733282153317,1733282153343,1733282153350,1733282153374,1733282153382,1733282153409,1733282153416,1733282153441,1733282153450,1733282153476,1733282153483,1733282153509,1733282153516,1733282153541,1733282153549,1733282153576,1733282153583,1733282153609,1733282153616,1733282153642,1733282153649,1733282153676,1733282153683,1733282153709,1733282153716,1733282153743,1733282153750,1733282153776,1733282153783,1733282153808,1733282153815,1733282153843,1733282153850,1733282153874,1733282153882,1733282153908,1733282153916,1733282153942,1733282153949,1733282153975,1733282153983,1733282154010,1733282154017,1733282154046,1733282154054,1733282154079,1733282154087,1733282154112,1733282154119,1733282154145,1733282154152,1733282154178,1733282154188,1733282154212,1733282154219,1733282154246,1733282154255,1733282154278,1733282154286,1733282154312,1733282154319,1733282154346,1733282154354,1733282154379,1733282154387,1733282154413,1733282154420,1733282154443,1733282154450,1733282154475,1733282154482,1733282154508,1733282154515,1733282154541,1733282154550,1733282154576,1733282154584,1733282154609,1733282154618,1733282154624,1733282154642,1733282154675,1733282154683,1733282154711,1733282154719,1733282154724,1733282154742,1733282154775,1733282154783,1733282154808,1733282154816,1733282154843,1733282154850,1733282154876,1733282154883,1733282154908,1733282154917,1733282154941,1733282154949,1733282154974,1733282154983,1733282155009,1733282155017,1733282155042,1733282155050,1733282155074,1733282155082,1733282155109,1733282155116,1733282155143,1733282155150,1733282155179,1733282155185,1733282155190,1733282155210,1733282155243,1733282155250,1733282155276,1733282155283,1733282155308,1733282155315,1733282155341,1733282155349,1733282155376,1733282155383,1733282155408,1733282155415,1733282155441,1733282155449,1733282155476,1733282155483,1733282155508,1733282155515,1733282155541,1733282155549,1733282155574,1733282155582,1733282155608,1733282155617,1733282155645,1733282155651,1733282155657,1733282155675,1733282155709,1733282155717,1733282155743,1733282155752,1733282155757,1733282155775,1733282155809,1733282155816,1733282155843,1733282155850,1733282155876,1733282155883,1733282155909,1733282155917,1733282155943,1733282155950,1733282155976,1733282155983,1733282156009,1733282156016,1733282156043,1733282156050,1733282156076,1733282156084,1733282156110,1733282156117,1733282156124,1733282156142,1733282156176,1733282156183,1733282156208,1733282156215,1733282156243,1733282156251,1733282156276,1733282156284,1733282156310,1733282156318,1733282156346,1733282156353,1733282156380,1733282156387,1733282156413,1733282156421,1733282156447,1733282156455,1733282156478,1733282156487,1733282156511,1733282156518,1733282156545,1733282156552,1733282156580,1733282156587,1733282156611,1733282156619,1733282156642,1733282156650,1733282156676,1733282156683,1733282156708,1733282156716,1733282156744,1733282156752,1733282156776,1733282156783,1733282156810,1733282156817,1733282156841,1733282156849,1733282156876,1733282156883,1733282156910,1733282156916,1733282156941,1733282156948,1733282156974,1733282156982,1733282157008,1733282157015,1733282157041,1733282157049,1733282157076,1733282157083,1733282157109,1733282157117,1733282157145,1733282157152,1733282157157,1733282157175,1733282157212,1733282157219,1733282157243,1733282157250,1733282157279,1733282157286,1733282157310,1733282157317,1733282157345,1733282157352,1733282157376,1733282157383,1733282157412,1733282157419,1733282157443,1733282157450,1733282157478,1733282157487,1733282157509,1733282157517,1733282157545,1733282157552,1733282157576,1733282157606,1733282157613,1733282157627,1733282157640,1733282157659,1733282157674,1733282157690,1733282157709,1733282157724,1733282157741,1733282157759,1733282157774,1733282157791,1733282157807,1733282157827,1733282157842,1733282157857,1733282157874,1733282157895,1733282157907,1733282157924,1733282157941,1733282157960,1733282157974,1733282157990,1733282158011,1733282158024,1733282158040,1733282158057,1733282158074,1733282158090,1733282158109,1733282158124,1733282158140,1733282158157,1733282158174,1733282158190,1733282158207,1733282158224,1733282158240,1733282158257,1733282158274,1733282158290,1733282158307,1733282158324,1733282158340,1733282158357,1733282158374,1733282158390,1733282158407,1733282158424,1733282158440,1733282158457,1733282158474,1733282158490,1733282158507,1733282158524,1733282158540,1733282158557,1733282158574,1733282158590,1733282158607,1733282158624,1733282158640,1733282158657,1733282158674,1733282158690,1733282158707,1733282158724,1733282158741,1733282158758,1733282158774,1733282158790,1733282158807,1733282158825,1733282158840,1733282158857,1733282158874,1733282158893,1733282158907,1733282158924,1733282158940,1733282158959,1733282158974,1733282158990,1733282159011,1733282159026,1733282159040,1733282159057,1733282159077,1733282159093]","[[933.3,553.4],[933.3,553.4],[933.3,553.4],[933.3,553.4],[957.8,546.8],[957.8,546.8],[938.5,549.5],[938.5,549.5],[938.4,538.8],[938.4,538.8],[975.2,529.4],[975.2,529.4],[1005.8,516],[1005.8,516],[1014.7,505.1],[1014.7,505.1],[1027.7,489.1],[1027.7,489.1],[1017.3,470.2],[1017.3,470.2],[1001.9,462.8],[1001.9,462.8],[994.8,448.8],[994.8,448.8],[971.2,434.4],[971.2,434.4],[958.9,420.3],[958.9,420.3],[973.6,424.8],[973.6,424.8],[980.6,430.9],[980.6,430.9],[980.6,430.9],[980.6,430.9],[972.1,434.4],[972.1,434.4],[972.4,452.9],[972.4,452.9],[959.2,475.4],[959.2,475.4],[986.8,523.7],[986.8,523.7],[1012.8,563.4],[1012.8,563.4],[1033.6,620.7],[1033.6,620.7],[1009.3,655.7],[1009.3,655.7],[995.3,709.9],[995.3,709.9],[919.8,746.7],[919.8,746.7],[900.5,761.3],[900.5,761.3],[877,767.9],[877,767.9],[854,772.2],[854,772.2],[825.5,772.8],[825.5,772.8],[825.5,772.8],[825.5,772.8],[793.4,749.8],[793.4,749.8],[727.9,761],[727.9,761],[721.1,725],[721.1,725],[753,711.2],[753,711.2],[773.7,670.6],[773.7,670.6],[823.1,645.9],[823.1,645.9],[840.7,653.7],[840.7,653.7],[898.3,677.8],[898.3,677.8],[905.5,674.5],[905.5,674.5],[960.2,687.8],[960.2,687.8],[960.2,687.8],[960.2,687.8],[1007.4,709.4],[1007.4,709.4],[1090.6,692.2],[1090.6,692.2],[1105,702.9],[1105,702.9],[1124,721.9],[1124,721.9],[1145.6,739.5],[1145.6,739.5],[1175,744.5],[1175,744.5],[1186,737.7],[1186,737.7],[1167.7,727.4],[1167.7,727.4],[1186.7,723.4],[1186.7,723.4],[1155.3,715.9],[1155.3,715.9],[1154,721.8],[1154,721.8],[1157.4,722.6],[1157.4,722.6],[1141.1,730.9],[1141.1,730.9],[1121.6,734.9],[1121.6,734.9],[1108.3,740.3],[1108.3,740.3],[1093.9,752.9],[1093.9,752.9],[1095.1,770.9],[1095.1,770.9],[1076.2,780.5],[1076.2,780.5],[1064.1,800.3],[1064.1,800.3],[1078.5,807.4],[1078.5,807.4],[1048.5,808],[1048.5,808],[1001.1,812.5],[1001.1,812.5],[974.4,818.7],[974.4,818.7],[944.6,824.1],[944.6,824.1],[936.5,820.1],[936.5,820.1],[909.6,816.5],[909.6,816.5],[869.8,807.2],[869.8,807.2],[848.1,815.3],[848.1,815.3],[845.2,809.1],[845.2,809.1],[776.8,817.2],[776.8,817.2],[733.6,806.6],[733.6,806.6],[743.5,798.4],[743.5,798.4],[770.2,788.8],[770.2,788.8],[795.1,784.6],[795.1,784.6],[796.2,768.5],[796.2,768.5],[821.1,751.3],[821.1,751.3],[840.4,740.4],[840.4,740.4],[862.2,720],[862.2,720],[880.8,714.7],[880.8,714.7],[947.2,705.1],[947.2,705.1],[947.2,705.1],[947.2,705.1],[999.2,698.4],[999.2,698.4],[1015.8,682],[1015.8,682],[1015.8,682],[1015.8,682],[1047.7,674.7],[1047.7,674.7],[1059.3,666.5],[1059.3,666.5],[1073.6,679.7],[1073.6,679.7],[1036.9,681.3],[1036.9,681.3],[1056,672.3],[1056,672.3],[1075.5,677],[1075.5,677],[1070.8,654.4],[1070.8,654.4],[1056.4,654.5],[1056.4,654.5],[1023,634.7],[1023,634.7],[984.9,633.8],[984.9,633.8],[936.7,646.2],[936.7,646.2],[915.1,646.1],[915.1,646.1],[874.8,626.1],[874.8,626.1],[874.8,626.1],[874.8,626.1],[867.1,625.1],[867.1,625.1],[828,630.6],[828,630.6],[784.6,623.1],[784.6,623.1],[761.8,659.4],[761.8,659.4],[794.4,649.1],[794.4,649.1],[844.3,662.6],[844.3,662.6],[875.2,687.9],[875.2,687.9],[899.2,675.2],[899.2,675.2],[920.4,679.5],[920.4,679.5],[930.3,678.6],[930.3,678.6],[961,687.9],[961,687.9],[986.7,655.7],[986.7,655.7],[1026.4,652.5],[1026.4,652.5],[1026.4,652.5],[1026.4,652.5],[1033.2,624.4],[1033.2,624.4],[1010.8,620.4],[1010.8,620.4],[1010.8,620.4],[1010.8,620.4],[1022.2,593],[1022.2,593],[1059.9,550.7],[1059.9,550.7],[1077.9,536.7],[1077.9,536.7],[1066.4,496.9],[1066.4,496.9],[1028.4,483],[1028.4,483],[995.8,457.2],[995.8,457.2],[958,467.6],[958,467.6],[896.5,451.3],[896.5,451.3],[867.8,441.6],[867.8,441.6],[820.5,419.9],[820.5,419.9],[820.5,419.9],[820.5,419.9],[762.7,417.3],[762.7,417.3],[694.2,401.3],[694.2,401.3],[642.7,377.8],[642.7,377.8],[616.6,381.7],[616.6,381.7],[636.1,376.5],[636.1,376.5],[624.9,374.5],[624.9,374.5],[636.8,381.4],[636.8,381.4],[719.2,399.6],[719.2,399.6],[803.3,391.1],[803.3,391.1],[869.9,406.6],[869.9,406.6],[933.3,416.1],[933.3,416.1],[1025.4,441.7],[1025.4,441.7],[1080.3,459.5],[1080.3,459.5],[1189.3,478.5],[1189.3,478.5],[1270.9,495],[1270.9,495],[1396.2,492.4],[1396.2,492.4],[1496.7,498.4],[1496.7,498.4],[1534.5,494.3],[1534.5,494.3],[1544.3,520.9],[1544.3,520.9],[1565.8,532.3],[1565.8,532.3],[1539.9,558.6],[1539.9,558.6],[1510.7,581.7],[1510.7,581.7],[1522.3,584.6],[1522.3,584.6],[1485.3,576.5],[1485.3,576.5],[1467.8,582.3],[1467.8,582.3],[1430,591.8],[1430,591.8],[1375.7,613.5],[1375.7,613.5],[1301.9,624.3],[1301.9,624.3],[1270,614.2],[1270,614.2],[1247.7,621.2],[1247.7,621.2],[1247.7,621.2],[1247.7,621.2],[1215.7,618],[1215.7,618],[1200.5,613.4],[1200.5,613.4],[1159.7,620.7],[1159.7,620.7],[1177.4,635.7],[1177.4,635.7],[1187.5,641.4],[1187.5,641.4],[1171.2,662.1],[1171.2,662.1],[1174,656.1],[1174,656.1],[1213.7,648.4],[1213.7,648.4],[1231.9,660.1],[1231.9,660.1],[1235.8,650.7],[1235.8,650.7],[1302.9,642.7],[1302.9,642.7],[1351.7,625.6],[1351.7,625.6],[1415.2,604.3],[1422.5,601.3],[1450,599],[1492.7,571.9],[1516.3,531.1],[1528,528.7],[1511.8,508.4],[1530.5,501.7],[1519.8,487.3],[1511.5,485.3],[1514.4,471.5],[1495.3,452.6],[1478.8,439.4],[1457.7,443.6],[1463.7,450.6],[1470,427.6],[1481.2,409],[1475.2,384.4],[1475.2,384.4],[1474.5,367],[1482.5,359.6],[1483.3,370.8],[1493.7,379.8],[1500.2,368.6],[1517.4,385.3],[1518.6,429.6],[1523,472.6],[1526.4,512.4],[1524.3,544.9],[1552.7,599.2],[1552.8,629.1],[1554.9,669.4],[1550.3,684.2],[1547,713.5],[1532.7,711],[1528.5,692.9],[1515.1,681.5],[1532.2,650.2],[1549.5,639],[1536.9,610.5],[1513,583.8],[1500.8,546.3],[1492.1,530.4],[1479.7,515.2],[1477.3,486.3],[1469.6,472.6],[1486.5,456.3],[1482.9,461.7],[1482.3,462.9],[1465.3,453.9],[1470.2,434.4],[1470.2,434.4],[1447.5,459.2],[1447.5,459.2],[1435.5,475.9],[1435.5,475.9],[1443.9,490.4],[1443.9,490.4],[1397.6,511.7],[1397.6,511.7],[1362.4,517.3],[1362.4,517.3],[1329.1,507.3],[1274.1,525.9],[1252.4,508.5],[1232.3,510.6],[1214.3,530.8],[1194.5,527.8],[1164.2,506.8],[1120.4,505.4],[1144.5,506.3],[1181.3,501.4],[1197.6,509.3],[1233.7,499.8],[1203.1,517.4],[1226.5,523.8],[1236.5,531.4],[1246.6,528.5],[1298.8,513.8],[1347.8,481],[1345.2,459.2],[1323.6,450.8],[1325.1,433.2],[1325.1,433.2],[1333.4,412.5],[1362.9,395.8],[1374.7,381.8],[1392.4,355.5],[1404.2,341.5],[1427,343.2]]","[0,0.5333]","[0.5333,0.5333]","[-0.5333,-0.5333]","[-0.5333,0]","[0,-0.5333]","[0.5333,-0.5333]","[0,0]","[0.5333,0]",0,0,0,0,1,4,Monitor,11,5,13,9
