inst1_resp.keys,inst1_resp.rt,calibrationMouse.x,calibrationMouse.y,calibrationMouse.leftButton,calibrationMouse.midButton,calibrationMouse.rightButton,calibrationClick.x,calibrationClick.y,calibrationClick.leftButton,calibrationClick.midButton,calibrationClick.rightButton,trialsc.thisRepN,trialsc.thisTrialN,trialsc.thisN,trialsc.thisIndex,trialsc.ran,calibration_x,calibration_y,participant,session,date,expName,psychopyVersion,OS,frameRate,calibrationClick.clicked_name,ScreenRes_pixels,Camera_pixels,mouse_2.x,mouse_2.y,mouse_2.leftButton,mouse_2.midButton,mouse_2.rightButton,mouse_2.time,mouse_2.clicked_name,mouse.x,mouse.y,mouse.leftButton,mouse.midButton,mouse.rightButton,mouse.time,mouse.clicked_name,Choice,Trial,TrialDuration,MOUSE_GAZE,ET_GAZE,ET_GAZE_x_T,time,unixTime,ET_GAZE_NF,Loc_Option1_label,Loc_Option2_label,Loc_Cost_label,Loc_Qual_label,Loc_Option1_cost,Loc_Option2_cost,Loc_Option1_quality,Loc_Option2_quality,trials.thisRepN,trials.thisTrialN,trials.thisN,trials.thisIndex,trials.ran,Block,Device,cost1,qual1,cost2,qual2
space,1.9324,0.064583333,0.277777778,1,0,0,-0.34375,0.674074074,1,0,0,0,0,0,8,1,-0.33,0.67,26,001,2024-12-04_14h07.30.120,Attention_exp_legacy,2023.1.0,Win32,59.88023952,,,,,,,,,,,,,,,,,,,,,,,,,,,,,,,,,,,,,,,,,,,,,
,,,,,,,-0.004166667,-0.32962963,1,0,0,0,1,1,10,1,0,-0.33,26,001,2024-12-04_14h07.30.120,Attention_exp_legacy,2023.1.0,Win32,59.88023952,calibration_square,,,,,,,,,,,,,,,,,,,,,,,,,,,,,,,,,,,,,,,,,,,,
,,,,,,,-0.323958333,0.011111111,1,0,0,0,2,2,6,1,-0.33,0,26,001,2024-12-04_14h07.30.120,Attention_exp_legacy,2023.1.0,Win32,59.88023952,,,,,,,,,,,,,,,,,,,,,,,,,,,,,,,,,,,,,,,,,,,,,
,,,,,,,-0.334375,-0.318518519,1,0,0,0,3,3,5,1,-0.33,-0.33,26,001,2024-12-04_14h07.30.120,Attention_exp_legacy,2023.1.0,Win32,59.88023952,,,,,,,,,,,,,,,,,,,,,,,,,,,,,,,,,,,,,,,,,,,,,
,,,,,,,-0.683333333,0.014814815,1,0,0,0,4,4,2,1,-0.67,0,26,001,2024-12-04_14h07.30.120,Attention_exp_legacy,2023.1.0,Win32,59.88023952,,,,,,,,,,,,,,,,,,,,,,,,,,,,,,,,,,,,,,,,,,,,,
,,,,,,,0.005208333,0.344444444,1,0,0,0,5,5,12,1,0,0.33,26,001,2024-12-04_14h07.30.120,Attention_exp_legacy,2023.1.0,Win32,59.88023952,,,,,,,,,,,,,,,,,,,,,,,,,,,,,,,,,,,,,,,,,,,,,
,,,,,,,-0.005208333,-0.674074074,1,0,0,0,6,6,9,1,0,-0.67,26,001,2024-12-04_14h07.30.120,Attention_exp_legacy,2023.1.0,Win32,59.88023952,calibration_square,,,,,,,,,,,,,,,,,,,,,,,,,,,,,,,,,,,,,,,,,,,,
,,,,,,,0.673958333,0.677777778,1,0,0,0,7,7,19,1,0.67,0.67,26,001,2024-12-04_14h07.30.120,Attention_exp_legacy,2023.1.0,Win32,59.88023952,calibration_square,,,,,,,,,,,,,,,,,,,,,,,,,,,,,,,,,,,,,,,,,,,,
,,,,,,,0.323958333,-0.005555556,1,0,0,0,8,8,16,1,0.33,0,26,001,2024-12-04_14h07.30.120,Attention_exp_legacy,2023.1.0,Win32,59.88023952,calibration_square,,,,,,,,,,,,,,,,,,,,,,,,,,,,,,,,,,,,,,,,,,,,
,,,,,,,-0.33125,-0.674074074,1,0,0,0,9,9,4,1,-0.33,-0.67,26,001,2024-12-04_14h07.30.120,Attention_exp_legacy,2023.1.0,Win32,59.88023952,calibration_square,,,,,,,,,,,,,,,,,,,,,,,,,,,,,,,,,,,,,,,,,,,,
,,,,,,,-0.664583333,-0.311111111,1,0,0,0,10,10,1,1,-0.67,-0.33,26,001,2024-12-04_14h07.30.120,Attention_exp_legacy,2023.1.0,Win32,59.88023952,,,,,,,,,,,,,,,,,,,,,,,,,,,,,,,,,,,,,,,,,,,,,
,,,,,,,-0.327083333,0.353703704,1,0,0,0,11,11,7,1,-0.33,0.33,26,001,2024-12-04_14h07.30.120,Attention_exp_legacy,2023.1.0,Win32,59.88023952,,,,,,,,,,,,,,,,,,,,,,,,,,,,,,,,,,,,,,,,,,,,,
,,,,,,,-0.670833333,-0.65,1,0,0,0,12,12,0,1,-0.67,-0.67,26,001,2024-12-04_14h07.30.120,Attention_exp_legacy,2023.1.0,Win32,59.88023952,,,,,,,,,,,,,,,,,,,,,,,,,,,,,,,,,,,,,,,,,,,,,
,,,,,,,-0.014583333,0.681481481,1,0,0,0,13,13,13,1,0,0.67,26,001,2024-12-04_14h07.30.120,Attention_exp_legacy,2023.1.0,Win32,59.88023952,,,,,,,,,,,,,,,,,,,,,,,,,,,,,,,,,,,,,,,,,,,,,
,,,,,,,-0.665625,0.346296296,1,0,0,0,14,14,3,1,-0.67,0.33,26,001,2024-12-04_14h07.30.120,Attention_exp_legacy,2023.1.0,Win32,59.88023952,,,,,,,,,,,,,,,,,,,,,,,,,,,,,,,,,,,,,,,,,,,,,
,,,,,,,0.330208333,-0.335185185,1,0,0,0,15,15,15,1,0.33,-0.33,26,001,2024-12-04_14h07.30.120,Attention_exp_legacy,2023.1.0,Win32,59.88023952,calibration_square,,,,,,,,,,,,,,,,,,,,,,,,,,,,,,,,,,,,,,,,,,,,
,,,,,,,0.630208333,-0.57037037,1,0,0,0,16,16,20,1,0.67,-0.67,26,001,2024-12-04_14h07.30.120,Attention_exp_legacy,2023.1.0,Win32,59.88023952,,,,,,,,,,,,,,,,,,,,,,,,,,,,,,,,,,,,,,,,,,,,,
,,,,,,,0.303125,-0.65,1,0,0,0,17,17,14,1,0.33,-0.67,26,001,2024-12-04_14h07.30.120,Attention_exp_legacy,2023.1.0,Win32,59.88023952,,,,,,,,,,,,,,,,,,,,,,,,,,,,,,,,,,,,,,,,,,,,,
,,,,,,,-0.004166667,0.024074074,1,0,0,0,18,18,11,1,0,0,26,001,2024-12-04_14h07.30.120,Attention_exp_legacy,2023.1.0,Win32,59.88023952,,,,,,,,,,,,,,,,,,,,,,,,,,,,,,,,,,,,,,,,,,,,,
,,,,,,,0.323958333,0.666666667,1,0,0,0,19,19,18,1,0.33,0.67,26,001,2024-12-04_14h07.30.120,Attention_exp_legacy,2023.1.0,Win32,59.88023952,calibration_square,,,,,,,,,,,,,,,,,,,,,,,,,,,,,,,,,,,,,,,,,,,,
,,,,,,,0.33125,0.322222222,1,0,0,0,20,20,17,1,0.33,0.33,26,001,2024-12-04_14h07.30.120,Attention_exp_legacy,2023.1.0,Win32,59.88023952,calibration_square,,,,,,,,,,,,,,,,,,,,,,,,,,,,,,,,,,,,,,,,,,,,
,,,,,,,,,,,,,,,,,,,26,001,2024-12-04_14h07.30.120,Attention_exp_legacy,2023.1.0,Win32,59.88023952,,"[1920,1080]","[640,480]",[0.019791666666666666],[-0.5037037037037037],[1],[0],[0],[1.9299999999999926],"[""StartButton""]",[0.035416666666666666],[0.15925925925925927],[1],[0],[0],[4.372399999998507],"[""Option1_label""]",Option1_label,1,5.3954,"[[0.34375,0.07592592592592592],[0.34375,0.07592592592592592],[0.34375,0.07592592592592592],[0.34375,0.07592592592592592],[0.34375,0.07592592592592592],[0.34375,0.07592592592592592],[0.34375,0.07592592592592592],[0.34375,0.07592592592592592],[0.34375,0.07592592592592592],[0.34375,0.07592592592592592],[0.34375,0.07592592592592592],[0.34375,0.07592592592592592],[0.34375,0.07592592592592592],[0.34375,0.07592592592592592],[0.34375,0.07592592592592592],[0.34375,0.07592592592592592],[0.34375,0.07592592592592592],[0.34375,0.07592592592592592],[0.34375,0.07592592592592592],[0.34375,0.07592592592592592],[0.34375,0.07592592592592592],[0.34375,0.07592592592592592],[0.34375,0.07592592592592592],[0.34375,0.07592592592592592],[0.34375,0.07592592592592592],[0.34375,0.07592592592592592],[0.34375,0.07592592592592592],[0.34375,0.07592592592592592],[0.34375,0.07592592592592592],[0.34375,0.07592592592592592],[0.34375,0.07592592592592592],[0.34375,0.07592592592592592],[0.34375,0.07592592592592592],[0.34375,0.07592592592592592],[0.34375,0.07592592592592592],[0.34375,0.07592592592592592],[0.34375,0.07592592592592592],[0.34375,0.07592592592592592],[0.34375,0.07592592592592592],[0.34375,0.07592592592592592],[0.34375,0.07592592592592592],[0.34375,0.07592592592592592],[0.34375,0.07592592592592592],[0.34375,0.07592592592592592],[0.34375,0.07592592592592592],[0.34375,0.07592592592592592],[0.34375,0.07592592592592592],[0.34375,0.07592592592592592],[0.34375,0.07592592592592592],[0.34375,0.07592592592592592],[0.34375,0.07592592592592592],[0.34375,0.07592592592592592],[0.34375,0.07592592592592592],[0.34375,0.07592592592592592],[0.34375,0.07592592592592592],[0.34375,0.07592592592592592],[0.34375,0.08518518518518518],[0.34375,0.09074074074074075],[0.3416666666666667,0.10185185185185185],[0.3385416666666667,0.11481481481481481],[0.33229166666666665,0.12777777777777777],[0.32395833333333335,0.13333333333333333],[0.31145833333333334,0.1388888888888889],[0.29583333333333334,0.14444444444444443],[0.271875,0.14629629629629629],[0.253125,0.14629629629629629],[0.234375,0.14629629629629629],[0.21354166666666666,0.14629629629629629],[0.196875,0.14629629629629629],[0.18125,0.14629629629629629],[0.165625,0.14629629629629629],[0.153125,0.14629629629629629],[0.14166666666666666,0.14629629629629629],[0.128125,0.14629629629629629],[0.11875,0.14629629629629629],[0.11145833333333334,0.15185185185185185],[0.10729166666666666,0.1537037037037037],[0.10416666666666667,0.15555555555555556],[0.103125,0.15925925925925927],[0.10208333333333333,0.16296296296296298],[0.10104166666666667,0.1648148148148148],[0.10104166666666667,0.17037037037037037],[0.10104166666666667,0.17407407407407408],[0.103125,0.17777777777777778],[0.10833333333333334,0.18333333333333332],[0.11666666666666667,0.18518518518518517],[0.12395833333333334,0.19074074074074074],[0.12604166666666666,0.19074074074074074],[0.128125,0.19074074074074074],[0.13020833333333334,0.18888888888888888],[0.13229166666666667,0.18703703703703703],[0.13229166666666667,0.18703703703703703],[0.13333333333333333,0.18518518518518517],[0.134375,0.18333333333333332],[0.134375,0.18333333333333332],[0.13541666666666666,0.1814814814814815],[0.13541666666666666,0.1814814814814815],[0.13645833333333332,0.17962962962962964],[0.13645833333333332,0.17592592592592593],[0.1375,0.17592592592592593],[0.1375,0.17407407407407408],[0.13854166666666667,0.17407407407407408],[0.13854166666666667,0.17407407407407408],[0.13854166666666667,0.17407407407407408],[0.13958333333333334,0.17222222222222222],[0.13958333333333334,0.17222222222222222],[0.140625,0.17222222222222222],[0.140625,0.17222222222222222],[0.14166666666666666,0.17222222222222222],[0.14166666666666666,0.17222222222222222],[0.14166666666666666,0.17037037037037037],[0.14166666666666666,0.17037037037037037],[0.14166666666666666,0.17037037037037037],[0.14166666666666666,0.17037037037037037],[0.14166666666666666,0.17037037037037037],[0.14166666666666666,0.17037037037037037],[0.14166666666666666,0.17037037037037037],[0.14166666666666666,0.17037037037037037],[0.14166666666666666,0.17037037037037037],[0.14166666666666666,0.17037037037037037],[0.14166666666666666,0.17037037037037037],[0.14166666666666666,0.17037037037037037],[0.14166666666666666,0.17037037037037037],[0.14166666666666666,0.17037037037037037],[0.14166666666666666,0.17037037037037037],[0.14166666666666666,0.17037037037037037],[0.14166666666666666,0.17037037037037037],[0.14166666666666666,0.17037037037037037],[0.14166666666666666,0.17037037037037037],[0.14166666666666666,0.17037037037037037],[0.14166666666666666,0.17037037037037037],[0.14166666666666666,0.17037037037037037],[0.14166666666666666,0.17037037037037037],[0.14166666666666666,0.17037037037037037],[0.14166666666666666,0.17037037037037037],[0.14166666666666666,0.17037037037037037],[0.14166666666666666,0.17037037037037037],[0.14166666666666666,0.17037037037037037],[0.14166666666666666,0.17037037037037037],[0.14166666666666666,0.17037037037037037],[0.14166666666666666,0.17037037037037037],[0.14166666666666666,0.17037037037037037],[0.14166666666666666,0.17037037037037037],[0.14166666666666666,0.17037037037037037],[0.14166666666666666,0.17037037037037037],[0.14166666666666666,0.17037037037037037],[0.14166666666666666,0.17037037037037037],[0.14166666666666666,0.17037037037037037],[0.14166666666666666,0.17037037037037037],[0.14166666666666666,0.17037037037037037],[0.14166666666666666,0.17037037037037037],[0.14166666666666666,0.17037037037037037],[0.14166666666666666,0.17037037037037037],[0.13958333333333334,0.17037037037037037],[0.1375,0.17037037037037037],[0.13645833333333332,0.17037037037037037],[0.134375,0.17222222222222222],[0.134375,0.17222222222222222],[0.134375,0.17222222222222222],[0.134375,0.17222222222222222],[0.134375,0.17222222222222222],[0.134375,0.17222222222222222],[0.134375,0.17222222222222222],[0.134375,0.17222222222222222],[0.134375,0.17222222222222222],[0.134375,0.17222222222222222],[0.134375,0.17222222222222222],[0.134375,0.17222222222222222],[0.134375,0.17222222222222222],[0.134375,0.17222222222222222],[0.134375,0.17222222222222222],[0.134375,0.17222222222222222],[0.134375,0.17222222222222222],[0.134375,0.17222222222222222],[0.134375,0.17222222222222222],[0.134375,0.17222222222222222],[0.134375,0.17222222222222222],[0.134375,0.17222222222222222],[0.134375,0.17222222222222222],[0.134375,0.17222222222222222],[0.134375,0.17222222222222222],[0.134375,0.17222222222222222],[0.134375,0.17222222222222222],[0.134375,0.17222222222222222],[0.134375,0.17222222222222222],[0.134375,0.17222222222222222],[0.134375,0.17222222222222222],[0.134375,0.17222222222222222],[0.134375,0.17222222222222222],[0.134375,0.17222222222222222],[0.134375,0.17222222222222222],[0.134375,0.17222222222222222],[0.134375,0.17222222222222222],[0.134375,0.17222222222222222],[0.134375,0.17222222222222222],[0.134375,0.17222222222222222],[0.134375,0.17222222222222222],[0.134375,0.17222222222222222],[0.134375,0.17222222222222222],[0.134375,0.17222222222222222],[0.134375,0.17222222222222222],[0.134375,0.17222222222222222],[0.134375,0.17222222222222222],[0.134375,0.17222222222222222],[0.134375,0.17222222222222222],[0.134375,0.17222222222222222],[0.134375,0.17222222222222222],[0.134375,0.17222222222222222],[0.134375,0.17222222222222222],[0.134375,0.17222222222222222],[0.134375,0.17222222222222222],[0.134375,0.17222222222222222],[0.134375,0.17222222222222222],[0.134375,0.17222222222222222],[0.134375,0.17222222222222222],[0.134375,0.17222222222222222],[0.134375,0.17222222222222222],[0.134375,0.17222222222222222],[0.134375,0.17222222222222222],[0.134375,0.17222222222222222],[0.134375,0.17222222222222222],[0.134375,0.17222222222222222],[0.13229166666666667,0.17222222222222222],[0.13020833333333334,0.17222222222222222],[0.125,0.17222222222222222],[0.115625,0.17037037037037037],[0.09791666666666667,0.1685185185185185],[0.075,0.16296296296296298],[0.03854166666666667,0.1537037037037037],[0.036458333333333336,0.1537037037037037],[0.036458333333333336,0.15185185185185185],[0.036458333333333336,0.15185185185185185],[0.036458333333333336,0.15185185185185185],[0.036458333333333336,0.15185185185185185],[0.036458333333333336,0.15185185185185185],[0.036458333333333336,0.15185185185185185],[0.036458333333333336,0.15185185185185185],[0.036458333333333336,0.15185185185185185],[0.036458333333333336,0.15185185185185185],[0.036458333333333336,0.15185185185185185],[0.04375,0.1537037037037037],[0.0625,0.16296296296296298],[0.065625,0.16296296296296298],[0.065625,0.16296296296296298],[0.065625,0.16296296296296298],[0.065625,0.16296296296296298],[0.065625,0.16296296296296298],[0.065625,0.16296296296296298],[0.065625,0.16296296296296298],[0.06458333333333334,0.16296296296296298],[0.057291666666666664,0.16111111111111112],[0.051041666666666666,0.16111111111111112],[0.04375,0.15925925925925927],[0.03854166666666667,0.15925925925925927],[0.0375,0.15925925925925927],[0.036458333333333336,0.15925925925925927],[0.036458333333333336,0.15925925925925927],[0.036458333333333336,0.15925925925925927],[0.035416666666666666,0.15925925925925927],[0.035416666666666666,0.15925925925925927],[0.035416666666666666,0.15925925925925927],[0.035416666666666666,0.15925925925925927],[0.035416666666666666,0.15925925925925927],[0.035416666666666666,0.15925925925925927],[0.035416666666666666,0.15925925925925927],[0.035416666666666666,0.15925925925925927],[0.035416666666666666,0.15925925925925927],[0.035416666666666666,0.15925925925925927],[0.035416666666666666,0.15925925925925927],[0.035416666666666666,0.15925925925925927],[0.035416666666666666,0.15925925925925927],[0.035416666666666666,0.15925925925925927],[0.035416666666666666,0.15925925925925927],[0.035416666666666666,0.15925925925925927],[0.035416666666666666,0.15925925925925927],[0.035416666666666666,0.15925925925925927],[0.035416666666666666,0.15925925925925927],[0.035416666666666666,0.15925925925925927],[0.035416666666666666,0.15925925925925927],[0.035416666666666666,0.15925925925925927],[0.035416666666666666,0.15925925925925927],[0.035416666666666666,0.15925925925925927],[0.035416666666666666,0.15925925925925927],[0.035416666666666666,0.15925925925925927],[0.035416666666666666,0.15925925925925927],[0.035416666666666666,0.15925925925925927],[0.035416666666666666,0.15925925925925927],[0.035416666666666666,0.15925925925925927],[0.035416666666666666,0.15925925925925927],[0.035416666666666666,0.15925925925925927],[0.035416666666666666,0.15925925925925927],[0.035416666666666666,0.15925925925925927],[0.035416666666666666,0.15925925925925927],[0.035416666666666666,0.15925925925925927],[0.035416666666666666,0.15925925925925927],[0.035416666666666666,0.15925925925925927],[0.035416666666666666,0.15925925925925927],[0.035416666666666666,0.15925925925925927],[0.035416666666666666,0.15925925925925927],[0.035416666666666666,0.15925925925925927],[0.035416666666666666,0.15925925925925927],[0.035416666666666666,0.15925925925925927],[0.035416666666666666,0.15925925925925927],[0.035416666666666666,0.15925925925925927],[0.035416666666666666,0.15925925925925927],[0.035416666666666666,0.15925925925925927],[0.035416666666666666,0.15925925925925927],[0.035416666666666666,0.15925925925925927],[0.035416666666666666,0.15925925925925927],[0.035416666666666666,0.15925925925925927],[0.035416666666666666,0.15925925925925927],[0.035416666666666666,0.15925925925925927],[0.035416666666666666,0.15925925925925927],[0.035416666666666666,0.15925925925925927],[0.035416666666666666,0.15925925925925927],[0.035416666666666666,0.15925925925925927],[0.035416666666666666,0.15925925925925927],[0.035416666666666666,0.15925925925925927],[0.035416666666666666,0.15925925925925927],[0.035416666666666666,0.15925925925925927],[0.035416666666666666,0.15925925925925927],[0.035416666666666666,0.15925925925925927],[0.035416666666666666,0.15925925925925927]]","[[0.11864583333333342,-0.006481481481481481],[0.11864583333333342,-0.006481481481481481],[0.12416666666666672,-0.022592592592592678],[0.1078125,-0.012037037037037037],[0.08031249999999991,0.0035185185185184764],[0.08572916666666662,-0.00592592592592601],[0.09114583333333333,-0.015370370370370286],[0.07333333333333343,-0.01444444444444436],[0.050625000000000024,-0.016851851851851896],[0.008645833333333287,0.01185185185185181],[-0.025416666666666643,0.07462962962962955],[-0.04635416666666667,0.13259259259259262],[-0.0703125,0.15648148148148147],[-0.08364583333333328,0.18222222222222217],[-0.08864583333333335,0.16925925925925922],[-0.09468749999999998,0.15703703703703695],[-0.0702083333333333,0.12666666666666662],[-0.06062500000000005,0.0955555555555556],[-0.07395833333333333,0.08111111111111102],[-0.07156250000000004,0.043703703703703745],[-0.06468750000000002,-0.006111111111111027],[-0.05,-0.028518518518518478],[-0.0109375,-0.04000000000000004],[0.014999999999999977,-0.06592592592592597],[0.03218749999999997,-0.04537037037037037],[0.034062500000000044,-0.06111111111111111],[0.005416666666666714,-0.05870370370370368],[-0.007604166666666619,-0.0477777777777777],[0.002291666666666714,-0.05351851851851848],[0.018020833333333285,-0.04518518518518514],[0.029270833333333357,-0.02444444444444453],[0.058124999999999954,-0.06518518518518517],[0.035416666666666666,-0.09129629629629632],[0.04229166666666669,-0.08259259259259263],[0.06072916666666662,-0.08666666666666668],[0.08229166666666667,-0.10203703703703708],[0.121875,-0.11185185185185181],[0.16197916666666667,-0.12629629629629627],[0.1866666666666667,-0.1161111111111111],[0.21572916666666658,-0.12537037037037035],[0.21052083333333324,-0.15462962962962962],[0.18885416666666663,-0.13518518518518519],[0.22333333333333344,-0.09055555555555551],[0.21927083333333333,-0.1111111111111111],[0.2178124999999999,-0.11259259259259262],[0.2243750000000001,-0.08592592592592588],[0.2107291666666666,-0.04462962962962967],[0.1921875,-0.016851851851851896],[0.1890625,-0.013703703703703662],[0.1818749999999999,0.004629629629629629],[0.2127083333333334,0.0448148148148149],[0.20270833333333324,0.0824074074074074],[0.17354166666666657,0.04277777777777782],[0.17052083333333337,0.05259259259259255],[0.14791666666666667,0.043703703703703745],[0.15510416666666677,0.05185185185185185],[0.16447916666666676,0.03981481481481482],[0.18406250000000005,0.05611111111111103],[0.19947916666666668,0.06722222222222214],[0.18916666666666657,0.048333333333333374],[0.16916666666666677,0.025185185185185227],[0.1944791666666667,-0.004074074074074159],[0.19583333333333333,-0.003333333333333249],[0.1931250000000001,-0.00722222222222218],[0.23312499999999994,0.014814814814814815],[0.24749999999999991,0.03925925925925934],[0.25656249999999997,0.02833333333333325],[0.22979166666666656,0.008148148148148106],[0.2071875000000001,-0.006851851851851936],[0.22854166666666675,0.016851851851851896],[0.25583333333333325,0.04296296296296305],[0.2539583333333333,0.030555555555555555],[0.26624999999999993,0.014629629629629588],[0.2997916666666666,0.035740740740740656],[0.2997916666666666,0.035740740740740656],[0.27156250000000004,-0.0011111111111111532],[0.24541666666666656,-0.05537037037037033],[0.22666666666666657,-0.06074074074074076],[0.22666666666666657,-0.06074074074074076],[0.23187499999999991,-0.06888888888888887],[0.2548958333333334,-0.06148148148148146],[0.23895833333333344,-0.07962962962962963],[0.21531250000000005,-0.11796296296296294],[0.17958333333333343,-0.12222222222222222],[0.14385416666666656,-0.1264814814814815],[0.08687500000000009,-0.16777777777777783],[0.12416666666666672,-0.14388888888888887],[0.16520833333333323,-0.09055555555555551],[0.1772916666666667,-0.13037037037037033],[0.16010416666666671,-0.11796296296296294],[0.12510416666666657,-0.12111111111111107],[0.10052083333333334,-0.12759259259259256],[0.11218750000000005,-0.1255555555555556],[0.1662499999999999,-0.06759259259259259],[0.19864583333333338,-0.0031481481481482323],[0.23177083333333334,-0.02370370370370362],[0.20666666666666675,-0.07777777777777778],[0.20666666666666675,-0.07777777777777778],[0.1805208333333333,-0.1259259259259259],[0.1805208333333333,-0.1259259259259259],[0.18489583333333334,-0.11259259259259262],[0.18489583333333334,-0.11259259259259262],[0.22260416666666671,-0.0485185185185186],[0.22260416666666671,-0.0485185185185186],[0.28916666666666657,-0.044999999999999915],[0.28916666666666657,-0.044999999999999915],[0.3072916666666667,-0.05907407407407403],[0.296875,-0.023148148148148147],[0.296875,-0.023148148148148147],[0.26375000000000004,-0.07537037037037035],[0.26375000000000004,-0.07537037037037035],[0.2820833333333333,-0.05537037037037033],[0.2915625000000001,0.010185185185185186],[0.23864583333333325,0.11148148148148157],[0.23864583333333325,0.11148148148148157],[0.19395833333333337,0.2022222222222223],[0.19395833333333337,0.2022222222222223],[0.12291666666666666,0.26796296296296307],[0.06208333333333336,0.2905555555555555],[0.06208333333333336,0.2905555555555555],[-0.03291666666666669,0.3087037037037038],[-0.07489583333333331,0.33277777777777784],[-0.08562500000000005,0.3257407407407407],[-0.11958333333333329,0.40111111111111114],[-0.19249999999999995,0.37407407407407406],[-0.23791666666666664,0.38000000000000006],[-0.22093750000000004,0.3501851851851852],[-0.21937500000000001,0.3442592592592592],[-0.1951041666666666,0.3814814814814815],[-0.203125,0.3537037037037037],[-0.20656249999999995,0.3596296296296297],[-0.19375,0.3331481481481481],[-0.228125,0.3151851851851853],[-0.2247916666666666,0.23851851851851844],[-0.21822916666666667,0.2594444444444445],[-0.23104166666666662,0.2868518518518518],[-0.26499999999999996,0.25259259259259254],[-0.29656250000000006,0.18703703703703703],[-0.33999999999999997,0.15925925925925927],[-0.35885416666666664,0.1338888888888888],[-0.3414583333333333,0.11185185185185181],[-0.35208333333333336,0.1581481481481481],[-0.34885416666666663,0.19370370370370374],[-0.3384375,0.2094444444444445],[-0.3220833333333334,0.15129629629629637],[-0.3446875,0.11185185185185181],[-0.34739583333333335,0.1227777777777777],[-0.3315624999999999,0.16870370370370374],[-0.3038541666666667,0.17685185185185184],[-0.2553125,0.18499999999999997],[-0.24229166666666668,0.22111111111111106],[-0.25114583333333335,0.20388888888888893],[-0.24968750000000003,0.20259259259259255],[-0.26749999999999996,0.25018518518518523],[-0.25197916666666664,0.247037037037037],[-0.21020833333333327,0.24740740740740744],[-0.1671875,0.259074074074074],[-0.12479166666666662,0.2035185185185185],[-0.11010416666666671,0.17759259259259255],[-0.09010416666666667,0.15055555555555547],[-0.05302083333333331,0.09074074074074075],[0.0026041666666666665,0.05314814814814823],[0.011458333333333333,0.048333333333333374],[0.016458333333333287,0.0301851851851851],[0.01885416666666669,0.10222222222222231],[0.08197916666666671,0.14037037037037028],[0.14510416666666662,0.17851851851851847],[0.15885416666666666,0.22833333333333325],[0.20031249999999995,0.2485185185185186],[0.20697916666666671,0.2887037037037037],[0.19656250000000006,0.3616666666666666],[0.20979166666666677,0.45759259259259266],[0.26875,0.4988888888888888],[0.30833333333333335,0.4783333333333332],[0.3171875,0.4183333333333333],[0.2553124999999999,0.41333333333333344],[0.19656250000000006,0.4542592592592592],[0.18541666666666667,0.4137037037037037],[0.1742708333333333,0.3731481481481482],[0.1921875,0.3757407407407407],[0.2101041666666667,0.37833333333333324],[0.21489583333333329,0.3648148148148148],[0.19458333333333327,0.3418518518518519],[0.19364583333333343,0.38074074074074077],[0.21822916666666667,0.3888888888888889],[0.26552083333333343,0.3537037037037037],[0.3023958333333333,0.26351851851851843],[0.32312500000000005,0.27537037037037043],[0.30916666666666665,0.30092592592592593],[0.2808333333333332,0.2544444444444444],[0.23572916666666663,0.2272222222222223],[0.19645833333333323,0.18796296296296297],[0.17510416666666656,0.15907407407407403],[0.20416666666666666,0.13333333333333333],[0.20770833333333344,0.13833333333333342],[0.18604166666666658,0.1618518518518518],[0.1716666666666666,0.19444444444444445],[0.1875,0.21444444444444435],[0.23802083333333332,0.22074074074074082],[0.2539583333333333,0.2733333333333334],[0.28666666666666674,0.3066666666666667],[0.3085416666666667,0.327962962962963],[0.3298958333333334,0.3051851851851851],[0.2930208333333333,0.31259259259259253],[0.2570833333333333,0.30481481481481487],[0.25281250000000005,0.28407407407407403],[0.24854166666666658,0.2633333333333334],[0.2140625,0.2551851851851851],[0.13770833333333338,0.28425925925925927],[0.08989583333333329,0.2770370370370371],[0.06729166666666657,0.25851851851851854],[0.049687500000000044,0.2640740740740741],[0.03583333333333331,0.33259259259259266],[0.036458333333333336,0.2831481481481481],[0.025625000000000023,0.2616666666666666],[0.025312499999999953,0.27259259259259266],[0.025,0.28351851851851856],[0.021041666666666715,0.24740740740740744],[0.058958333333333356,0.17407407407407408],[0.12197916666666657,0.13240740740740742],[0.15979166666666675,0.10203703703703708],[0.1892708333333334,0.06537037037037029],[0.21343750000000009,0.008148148148148106],[0.22000000000000006,0.051111111111111156],[0.23708333333333323,0.08129629629629626],[0.25,0.051111111111111156],[0.25,0.051111111111111156],[0.2598958333333333,0.03185185185185194],[0.26541666666666663,0.09129629629629621],[0.26541666666666663,0.09129629629629621],[0.2608333333333334,0.12166666666666676],[0.23322916666666677,0.09148148148148144],[0.23322916666666677,0.09148148148148144],[0.21385416666666662,0.10740740740740741],[0.21385416666666662,0.10740740740740741],[0.20416666666666666,0.07444444444444454],[0.20416666666666666,0.07444444444444454],[0.21281249999999996,0.10351851851851848],[0.21281249999999996,0.10351851851851848],[0.1959374999999999,0.0712962962962963],[0.19260416666666677,0.041111111111111195],[0.16635416666666672,0.029259259259259176],[0.1345833333333334,0.0301851851851851],[0.11083333333333342,-0.0005555555555554713],[0.10083333333333329,-0.018148148148148063],[0.08875000000000005,-0.006851851851851936],[0.0671875,-0.01574074074074074],[0.044270833333333336,0.030555555555555555],[0.044270833333333336,0.030555555555555555],[0.002812500000000047,0.010185185185185186],[-0.003958333333333286,0.01629629629629621],[-0.024270833333333287,0.020370370370370372],[-0.006979166666666714,0.09203703703703713],[0.009895833333333333,0.06074074074074066],[0.018437500000000048,0.036481481481481566],[0.01395833333333331,0.07277777777777769],[0.00947916666666669,0.10907407407407403],[0.03833333333333329,0.08499999999999996],[0.04479166666666667,0.049629629629629544],[0.06697916666666662,0.03777777777777774],[0.09072916666666657,0.028888888888888933],[0.11447916666666676,0.019999999999999917],[0.08624999999999995,-0.0787037037037037],[0.06218750000000005,-0.07907407407407405],[0.06479166666666672,-0.05888888888888891],[0.07677083333333339,-0.08333333333333333],[0.08989583333333329,-0.12370370370370372],[0.0709374999999999,-0.12962962962962962],[0.08260416666666662,-0.09055555555555551],[0.06802083333333328,-0.10666666666666672],[0.06322916666666671,-0.09814814814814815],[0.03833333333333329,-0.09259259259259259],[0.06270833333333338,-0.024814814814814772],[0.09187500000000005,0.02388888888888885],[0.11416666666666657,0.01574074074074074],[0.13645833333333332,0.007592592592592635],[0.1538541666666667,-0.02111111111111107],[0.1712500000000001,-0.04981481481481477],[0.18041666666666673,-0.11222222222222226],[0.1892708333333334,-0.09370370370370375],[0.17802083333333343,-0.08055555555555556],[0.19562499999999997,-0.07592592592592592],[0.1961458333333333,-0.08037037037037033],[0.19249999999999995,-0.07555555555555557],[0.18635416666666677,-0.08351851851851856],[0.18624999999999994,-0.08425925925925926],[0.19104166666666675,-0.07629629629629628],[0.20729166666666668,-0.05],[0.23708333333333323,0.0301851851851851],[0.27979166666666655,0.06703703703703712],[0.3171875,0.09259259259259259],[0.3458333333333333,0.12962962962962962],[0.34520833333333345,0.09018518518518527],[0.34874999999999995,0.04148148148148144],[0.35666666666666674,0.09444444444444444],[0.3585416666666667,0.14018518518518527],[0.3441666666666668,0.1925925925925926],[0.31833333333333325,0.22666666666666663],[0.28781249999999997,0.19666666666666674],[0.25750000000000006,0.16703703703703712],[0.2631249999999999,0.15981481481481474],[0.26583333333333337,0.14740740740740746],[0.29010416666666666,0.18462962962962973],[0.29968750000000005,0.2140740740740741],[0.2959374999999999,0.1838888888888888],[0.2898958333333333,0.16296296296296298],[0.29625000000000007,0.11666666666666667],[0.2938541666666666,0.08074074074074078],[0.2943749999999999,0.05314814814814823],[0.29489583333333325,0.02555555555555547],[0.2852083333333333,-0.007407407407407408],[0.24749999999999991,-0.011666666666666582],[0.21124999999999997,-0.036481481481481566],[0.19864583333333338,-0.05259259259259255],[0.17666666666666658,-0.08259259259259263],[0.1609375,-0.12296296296296293],[0.14104166666666676,-0.11574074074074074],[0.14104166666666676,-0.11574074074074074],[0.12989583333333338,-0.11888888888888886],[0.11937499999999991,-0.12185185185185188],[0.09760416666666671,-0.08537037037037042],[0.08135416666666657,-0.06296296296296296],[0.07635416666666663,-0.06388888888888888]]","[[0.11864583333333342,-0.006481481481481481,0.00019999999553022008],[0.11864583333333342,-0.006481481481481481,0.03829999999702238],[0.12416666666666672,-0.022592592592592678,0.048500000000004206],[0.1078125,-0.012037037037037037,0.0625],[0.08031249999999991,0.0035185185185184764,0.07879999999701681],[0.08572916666666662,-0.00592592592592601,0.09539999999850579],[0.09114583333333333,-0.015370370370370286,0.11219999999552499],[0.07333333333333343,-0.01444444444444436,0.12879999999702818],[0.050625000000000024,-0.016851851851851896,0.1460000000000008],[0.008645833333333287,0.01185185185185181,0.1621000000014874],[-0.025416666666666643,0.07462962962962955,0.17879999999702534],[-0.04635416666666667,0.13259259259259262,0.19539999999851432],[-0.0703125,0.15648148148148147,0.21210000000149876],[-0.08364583333333328,0.18222222222222217,0.23099999999999454],[-0.08864583333333335,0.16925925925925922,0.2481000000014859],[-0.09468749999999998,0.15703703703703695,0.2621999999955307],[-0.0702083333333333,0.12666666666666662,0.2786999999955242],[-0.06062500000000005,0.0955555555555556,0.29539999999850863],[-0.07395833333333333,0.08111111111111102,0.31219999999552783],[-0.07156250000000004,0.043703703703703745,0.3292999999970192],[-0.06468750000000002,-0.006111111111111027,0.34550000000000125],[-0.05,-0.028518518518518478,0.3632999999970252],[-0.0109375,-0.04000000000000004,0.3787999999970282],[0.014999999999999977,-0.06592592592592597,0.39539999999851716],[0.03218749999999997,-0.04537037037037037,0.41200000000000614],[0.034062500000000044,-0.06111111111111111,0.42879999999702534],[0.005416666666666714,-0.05870370370370368,0.44769999999553534],[-0.007604166666666619,-0.0477777777777777,0.46210000000149876],[0.002291666666666714,-0.05351851851851848,0.4787999999970225],[0.018020833333333285,-0.04518518518518514,0.49550000000000693],[0.029270833333333357,-0.02444444444444453,0.5121000000014959],[0.058124999999999954,-0.06518518518518517,0.5287999999970197],[0.035416666666666666,-0.09129629629629632,0.5456999999955343],[0.04229166666666669,-0.08259259259259263,0.5621000000014931],[0.06072916666666662,-0.08666666666666668,0.5820000000000078],[0.08229166666666667,-0.10203703703703708,0.5955000000000013],[0.121875,-0.11185185185185181,0.6121000000014902],[0.16197916666666667,-0.12629629629629627,0.6287999999970282],[0.1866666666666667,-0.1161111111111111,0.6454999999999984],[0.21572916666666658,-0.12537037037037035,0.6621000000014874],[0.21052083333333324,-0.15462962962962962,0.6788999999985066],[0.18885416666666663,-0.13518518518518519,0.6954999999999956],[0.22333333333333344,-0.09055555555555551,0.7121000000014988],[0.21927083333333333,-0.1111111111111111,0.7289999999999992],[0.2178124999999999,-0.11259259259259262,0.7491999999955254],[0.2243750000000001,-0.08592592592592588,0.7632999999970167],[0.2107291666666666,-0.04462962962962967,0.7816000000014895],[0.1921875,-0.016851851851851896,0.7953999999985086],[0.1890625,-0.013703703703703662,0.8121000000014931],[0.1818749999999999,0.004629629629629629,0.8287999999970168],[0.2127083333333334,0.0448148148148149,0.8455000000000013],[0.20270833333333324,0.0824074074074074,0.8622999999970204],[0.17354166666666657,0.04277777777777782,0.8787999999970282],[0.17052083333333337,0.05259259259259255,0.8954999999999984],[0.14791666666666667,0.043703703703703745,0.9121000000014874],[0.15510416666666677,0.05185185185185185,0.9287999999970253],[0.16447916666666676,0.03981481481481482,0.9477999999970166],[0.18406250000000005,0.05611111111111103,0.9622999999970148],[0.19947916666666668,0.06722222222222214,0.9812999999970202],[0.18916666666666657,0.048333333333333374,0.9956000000014882],[0.16916666666666677,0.025185185185185227,1.0142999999970215],[0.1944791666666667,-0.004074074074074159,1.0291000000014918],[0.19583333333333333,-0.003333333333333249,1.045500000000004],[0.1931250000000001,-0.00722222222222218,1.0651000000014932],[0.23312499999999994,0.014814814814814815,1.0788999999985123],[0.24749999999999991,0.03925925925925934,1.0985000000000014],[0.25656249999999997,0.02833333333333325,1.1159999999999997],[0.22979166666666656,0.008148148148148106,1.1321000000014863],[0.2071875000000001,-0.006851851851851936,1.1471000000014868],[0.22854166666666675,0.016851851851851896,1.1622999999970176],[0.25583333333333325,0.04296296296296305,1.1821000000014976],[0.2539583333333333,0.030555555555555555,1.1976999999955353],[0.26624999999999993,0.014629629629629588,1.2122999999970148],[0.2997916666666666,0.035740740740740656,1.2358999999985087],[0.2997916666666666,0.035740740740740656,1.245500000000007],[0.27156250000000004,-0.0011111111111111532,1.2622999999970261],[0.24541666666666656,-0.05537037037037033,1.2788999999985151],[0.22666666666666657,-0.06074074074074076,1.2991000000014878],[0.22666666666666657,-0.06074074074074076,1.3138999999985117],[0.23187499999999991,-0.06888888888888887,1.3288999999985123],[0.2548958333333334,-0.06148148148148146,1.3460000000000036],[0.23895833333333344,-0.07962962962962963,1.3643999999985112],[0.21531250000000005,-0.11796296296296294,1.3788999999985094],[0.17958333333333343,-0.12222222222222222,1.3956000000014939],[0.14385416666666656,-0.1264814814814815,1.4121999999955364],[0.08687500000000009,-0.16777777777777783,1.432799999997016],[0.12416666666666672,-0.14388888888888887,1.4476000000014864],[0.16520833333333323,-0.09055555555555551,1.4622999999970148],[0.1772916666666667,-0.13037037037037033,1.4823999999985062],[0.16010416666666671,-0.11796296296296294,1.4978999999985092],[0.12510416666666657,-0.12111111111111107,1.5121999999955307],[0.10052083333333334,-0.12759259259259256,1.5287999999970197],[0.11218750000000005,-0.1255555555555556,1.5480000000000018],[0.1662499999999999,-0.06759259259259259,1.5622999999970233],[0.19864583333333338,-0.0031481481481482323,1.5787999999970168],[0.23177083333333334,-0.02370370370370362,1.5955000000000013],[0.20666666666666675,-0.07777777777777778,1.6166000000014975],[0.20666666666666675,-0.07777777777777778,1.6332999999970212],[0.1805208333333333,-0.1259259259259259,1.6456000000014939],[0.1805208333333333,-0.1259259259259259,1.6621999999955364],[0.18489583333333334,-0.11259259259259262,1.6788999999985066],[0.18489583333333334,-0.11259259259259262,1.6981000000014888],[0.22260416666666671,-0.0485185185185186,1.7121000000014988],[0.22260416666666671,-0.0485185185185186,1.728899999998518],[0.28916666666666657,-0.044999999999999915,1.7481999999955349],[0.28916666666666657,-0.044999999999999915,1.762100000001496],[0.3072916666666667,-0.05907407407407403,1.7789999999999964],[0.296875,-0.023148148148148147,1.8001000000014926],[0.296875,-0.023148148148148147,1.8156999999955303],[0.26375000000000004,-0.07537037037037035,1.8288999999985123],[0.26375000000000004,-0.07537037037037035,1.8455000000000013],[0.2820833333333333,-0.05537037037037033,1.862199999995525],[0.2915625000000001,0.010185185185185186,1.8787999999970282],[0.23864583333333325,0.11148148148148157,1.8998999999985102],[0.23864583333333325,0.11148148148148157,1.9121000000014874],[0.19395833333333337,0.2022222222222223,1.9288999999985066],[0.19395833333333337,0.2022222222222223,1.9453999999985143],[0.12291666666666666,0.26796296296296307,1.9621000000014988],[0.06208333333333336,0.2905555555555555,1.9821999999955295],[0.06208333333333336,0.2905555555555555,1.9953999999985115],[-0.03291666666666669,0.3087037037037038,2.012100000001496],[-0.07489583333333331,0.33277777777777784,2.033299999997027],[-0.08562500000000005,0.3257407407407407,2.0478999999985064],[-0.11958333333333329,0.40111111111111114,2.064000000000007],[-0.19249999999999995,0.37407407407407406,2.078799999997017],[-0.23791666666666664,0.38000000000000006,2.095399999998506],[-0.22093750000000004,0.3501851851851852,2.1119999999999948],[-0.21937500000000001,0.3442592592592592,2.1286999999955327],[-0.1951041666666666,0.3814814814814815,2.147999999999996],[-0.203125,0.3537037037037037,2.164299999997027],[-0.20656249999999995,0.3596296296296297,2.17869999999553],[-0.19375,0.3331481481481481,2.1953999999985143],[-0.228125,0.3151851851851853,2.2121000000014988],[-0.2247916666666666,0.23851851851851844,2.2287999999970225],[-0.21822916666666667,0.2594444444444445,2.2464999999999975],[-0.23104166666666662,0.2868518518518518,2.2620000000000005],[-0.26499999999999996,0.25259259259259254,2.278699999995524],[-0.29656250000000006,0.18703703703703703,2.2953999999985086],[-0.33999999999999997,0.15925925925925927,2.312100000001493],[-0.35885416666666664,0.1338888888888888,2.328799999997017],[-0.3414583333333333,0.11185185185185181,2.3488999999985083],[-0.35208333333333336,0.1581481481481481,2.3621000000014902],[-0.34885416666666663,0.19370370370370374,2.378799999997028],[-0.3384375,0.2094444444444445,2.395399999998517],[-0.3220833333333334,0.15129629629629637,2.412000000000006],[-0.3446875,0.11185185185185181,2.429000000000002],[-0.34739583333333335,0.1227777777777777,2.446600000001496],[-0.3315624999999999,0.16870370370370374,2.4620000000000033],[-0.3038541666666667,0.17685185185185184,2.4787999999970225],[-0.2553125,0.18499999999999997,2.4964999999999975],[-0.24229166666666668,0.22111111111111106,2.512100000001496],[-0.25114583333333335,0.20388888888888893,2.528699999995524],[-0.24968750000000003,0.20259259259259255,2.546999999999997],[-0.26749999999999996,0.25018518518518523,2.5641999999955374],[-0.25197916666666664,0.247037037037037,2.5788999999985123],[-0.21020833333333327,0.24740740740740744,2.5956000000014967],[-0.1671875,0.259074074074074,2.6152999999970206],[-0.12479166666666662,0.2035185185185185,2.6308999999985048],[-0.11010416666666671,0.17759259259259255,2.6466000000014986],[-0.09010416666666667,0.15055555555555547,2.6626000000014898],[-0.05302083333333331,0.09074074074074075,2.6787999999970253],[0.0026041666666666665,0.05314814814814823,2.6953999999985143],[0.011458333333333333,0.048333333333333374,2.7121000000014988],[0.016458333333333287,0.0301851851851851,2.7287999999970225],[0.01885416666666669,0.10222222222222231,2.7475000000000023],[0.08197916666666671,0.14037037037037028,2.7642999999970215],[0.14510416666666662,0.17851851851851847,2.778699999995524],[0.15885416666666666,0.22833333333333325,2.795500000000004],[0.20031249999999995,0.2485185185185186,2.812100000001493],[0.20697916666666671,0.2887037037037037,2.828799999997017],[0.19656250000000006,0.3616666666666666,2.845399999998506],[0.20979166666666677,0.45759259259259266,2.8619999999999948],[0.26875,0.4988888888888888,2.878799999997028],[0.30833333333333335,0.4783333333333332,2.895399999998517],[0.3171875,0.4183333333333333,2.912000000000006],[0.2553124999999999,0.41333333333333344,2.92869999999553],[0.19656250000000006,0.4542592592592592,2.9457999999970212],[0.18541666666666667,0.4137037037037037,2.9621999999955335],[0.1742708333333333,0.3731481481481482,2.978699999995527],[0.1921875,0.3757407407407407,2.995699999995537],[0.2101041666666667,0.37833333333333324,3.012100000001496],[0.21489583333333329,0.3648148148148148,3.0287999999970197],[0.19458333333333327,0.3418518518518519,3.0453999999985086],[0.19364583333333343,0.38074074074074077,3.062100000001493],[0.21822916666666667,0.3888888888888889,3.0786999999955356],[0.26552083333333343,0.3537037037037037,3.095399999998506],[0.3023958333333333,0.26351851851851843,3.1121000000014902],[0.32312500000000005,0.27537037037037043,3.129199999995535],[0.30916666666666665,0.30092592592592593,3.145399999998517],[0.2808333333333332,0.2544444444444444,3.1652999999970177],[0.23572916666666663,0.2272222222222223,3.179399999998509],[0.19645833333333323,0.18796296296296297,3.1954999999999956],[0.17510416666666656,0.15907407407407403,3.2121000000014988],[0.20416666666666666,0.13333333333333333,3.2287999999970225],[0.20770833333333344,0.13833333333333342,3.2453999999985115],[0.18604166666666658,0.1618518518518518,3.262100000001496],[0.1716666666666666,0.19444444444444445,3.2787999999970197],[0.1875,0.21444444444444435,3.295500000000004],[0.23802083333333332,0.22074074074074082,3.312100000001493],[0.2539583333333333,0.2733333333333334,3.3315000000000055],[0.28666666666666674,0.3066666666666667,3.346500000000006],[0.3085416666666667,0.327962962962963,3.3621000000014902],[0.3298958333333334,0.3051851851851851,3.382000000000005],[0.2930208333333333,0.31259259259259253,3.396500000000003],[0.2570833333333333,0.30481481481481487,3.4121000000014874],[0.25281250000000005,0.28407407407407403,3.4287999999970253],[0.24854166666666658,0.2633333333333334,3.446600000001496],[0.2140625,0.2551851851851851,3.4620000000000033],[0.13770833333333338,0.28425925925925927,3.4787999999970225],[0.08989583333333329,0.2770370370370371,3.4953999999985115],[0.06729166666666657,0.25851851851851854,3.512100000001496],[0.049687500000000044,0.2640740740740741,3.5287999999970197],[0.03583333333333331,0.33259259259259266,3.5453999999985086],[0.036458333333333336,0.2831481481481481,3.563600000001486],[0.025625000000000023,0.2616666666666666,3.579299999997019],[0.025312499999999953,0.27259259259259266,3.595399999998506],[0.025,0.28351851851851856,3.6119999999999948],[0.021041666666666715,0.24740740740740744,3.6288999999985094],[0.058958333333333356,0.17407407407407408,3.647899999998515],[0.12197916666666657,0.13240740740740742,3.6643999999985084],[0.15979166666666675,0.10203703703703708,3.67869999999553],[0.1892708333333334,0.06537037037037029,3.6953999999985143],[0.21343750000000009,0.008148148148148106,3.7164999999999964],[0.22000000000000006,0.051111111111111156,3.7323999999985062],[0.23708333333333323,0.08129629629629626,3.748500000000007],[0.25,0.051111111111111156,3.767799999997024],[0.25,0.051111111111111156,3.7789999999999964],[0.2598958333333333,0.03185185185185194,3.7956000000014853],[0.26541666666666663,0.09129629629629621,3.836899999998508],[0.26541666666666663,0.09129629629629621,3.846100000001485],[0.2608333333333334,0.12166666666666676,3.8622999999970204],[0.23322916666666677,0.09148148148148144,3.8821000000014863],[0.23322916666666677,0.09148148148148144,3.895399999998517],[0.21385416666666662,0.10740740740740741,3.9121000000014874],[0.21385416666666662,0.10740740740740741,3.92869999999553],[0.20416666666666666,0.07444444444444454,3.9454999999999956],[0.20416666666666666,0.07444444444444454,3.9621000000014988],[0.21281249999999996,0.10351851851851848,3.9787999999970225],[0.21281249999999996,0.10351851851851848,3.9953999999985115],[0.1959374999999999,0.0712962962962963,4.012100000001496],[0.19260416666666677,0.041111111111111195,4.032899999998506],[0.16635416666666672,0.029259259259259176,4.048699999995534],[0.1345833333333334,0.0301851851851851,4.065399999998505],[0.11083333333333342,-0.0005555555555554713,4.0811000000014985],[0.10083333333333329,-0.018148148148148063,4.096600000001487],[0.08875000000000005,-0.006851851851851936,4.114500000000007],[0.0671875,-0.01574074074074074,4.129199999995535],[0.044270833333333336,0.030555555555555555,4.159199999995536],[0.044270833333333336,0.030555555555555555,4.1684999999999945],[0.002812500000000047,0.010185185185185186,4.1806000000014905],[-0.003958333333333286,0.01629629629629621,4.195499999999996],[-0.024270833333333287,0.020370370370370372,4.2121999999955335],[-0.006979166666666714,0.09203703703703713,4.232299999997025],[0.009895833333333333,0.06074074074074066,4.246899999998504],[0.018437500000000048,0.036481481481481566,4.262299999997026],[0.01395833333333331,0.07277777777777769,4.278899999998515],[0.00947916666666669,0.10907407407407403,4.295399999998509],[0.03833333333333329,0.08499999999999996,4.311999999999998],[0.04479166666666667,0.049629629629629544,4.332299999997019],[0.06697916666666662,0.03777777777777774,4.3456999999955315],[0.09072916666666657,0.028888888888888933,4.36210000000149],[0.11447916666666676,0.019999999999999917,4.378799999997028],[0.08624999999999995,-0.0787037037037037,4.395299999997022],[0.06218750000000005,-0.07907407407407405,4.412000000000006],[0.06479166666666672,-0.05888888888888891,4.428799999997025],[0.07677083333333339,-0.08333333333333333,4.445399999998514],[0.08989583333333329,-0.12370370370370372,4.462100000001499],[0.0709374999999999,-0.12962962962962962,4.478699999995527],[0.08260416666666662,-0.09055555555555551,4.498699999995537],[0.06802083333333328,-0.10666666666666672,4.5120000000000005],[0.06322916666666671,-0.09814814814814815,4.52879999999702],[0.03833333333333329,-0.09259259259259259,4.546499999999995],[0.06270833333333338,-0.024814814814814772,4.562100000001493],[0.09187500000000005,0.02388888888888885,4.578699999995536],[0.11416666666666657,0.01574074074074074,4.598500000000001],[0.13645833333333332,0.007592592592592635,4.61210000000149],[0.1538541666666667,-0.02111111111111107,4.628699999995533],[0.1712500000000001,-0.04981481481481477,4.646699999995533],[0.18041666666666673,-0.11222222222222226,4.662100000001487],[0.1892708333333334,-0.09370370370370375,4.67869999999553],[0.17802083333333343,-0.08055555555555556,4.695399999998514],[0.19562499999999997,-0.07592592592592592,4.712000000000003],[0.1961458333333333,-0.08037037037037033,4.7287999999970225],[0.19249999999999995,-0.07555555555555557,4.745500000000007],[0.18635416666666677,-0.08351851851851856,4.7620000000000005],[0.18624999999999994,-0.08425925925925926,4.778699999995524],[0.19104166666666675,-0.07629629629629628,4.795299999997027],[0.20729166666666668,-0.05,4.811999999999998],[0.23708333333333323,0.0301851851851851,4.829600000001491],[0.27979166666666655,0.06703703703703712,4.845399999998506],[0.3171875,0.09259259259259259,4.861999999999995],[0.3458333333333333,0.12962962962962962,4.878699999995533],[0.34520833333333345,0.09018518518518527,4.895399999998517],[0.34874999999999995,0.04148148148148144,4.912100000001487],[0.35666666666666674,0.09444444444444444,4.92869999999553],[0.3585416666666667,0.14018518518518527,4.947600000001486],[0.3441666666666668,0.1925925925925926,4.962000000000003],[0.31833333333333325,0.22666666666666663,4.978699999995527],[0.28781249999999997,0.19666666666666674,4.9953999999985115],[0.25750000000000006,0.16703703703703712,5.012100000001496],[0.2631249999999999,0.15981481481481474,5.02879999999702],[0.26583333333333337,0.14740740740740746,5.045399999998509],[0.29010416666666666,0.18462962962962973,5.061999999999998],[0.29968750000000005,0.2140740740740741,5.078799999997017],[0.2959374999999999,0.1838888888888888,5.095399999998506],[0.2898958333333333,0.16296296296296298,5.111999999999995],[0.29625000000000007,0.11666666666666667,5.1311999999955304],[0.2938541666666666,0.08074074074074078,5.145399999998517],[0.2943749999999999,0.05314814814814823,5.162000000000006],[0.29489583333333325,0.02555555555555547,5.17869999999553],[0.2852083333333333,-0.007407407407407408,5.195399999998514],[0.24749999999999991,-0.011666666666666582,5.212100000001499],[0.21124999999999997,-0.036481481481481566,5.2287999999970225],[0.19864583333333338,-0.05259259259259255,5.247600000001498],[0.17666666666666658,-0.08259259259259263,5.262100000001496],[0.1609375,-0.12296296296296293,5.278699999995524],[0.14104166666666676,-0.11574074074074074,5.295399999998509],[0.14104166666666676,-0.11574074074074074,5.312100000001493],[0.12989583333333338,-0.11888888888888886,5.328799999997017],[0.11937499999999991,-0.12185185185185188,5.348100000001494],[0.09760416666666671,-0.08537037037037042,5.36319999999553],[0.08135416666666657,-0.06296296296296296,5.378699999995533],[0.07635416666666663,-0.06388888888888888,5.395399999998517]]","[0.00019999999553022008,0.03829999999702238,0.048500000000004206,0.0625,0.07879999999701681,0.09539999999850579,0.11219999999552499,0.12879999999702818,0.1460000000000008,0.1621000000014874,0.17879999999702534,0.19539999999851432,0.21210000000149876,0.23099999999999454,0.2481000000014859,0.2621999999955307,0.2786999999955242,0.29539999999850863,0.31219999999552783,0.3292999999970192,0.34550000000000125,0.3632999999970252,0.3787999999970282,0.39539999999851716,0.41200000000000614,0.42879999999702534,0.44769999999553534,0.46210000000149876,0.4787999999970225,0.49550000000000693,0.5121000000014959,0.5287999999970197,0.5456999999955343,0.5621000000014931,0.5820000000000078,0.5955000000000013,0.6121000000014902,0.6287999999970282,0.6454999999999984,0.6621000000014874,0.6788999999985066,0.6954999999999956,0.7121000000014988,0.7289999999999992,0.7491999999955254,0.7632999999970167,0.7816000000014895,0.7953999999985086,0.8121000000014931,0.8287999999970168,0.8455000000000013,0.8622999999970204,0.8787999999970282,0.8954999999999984,0.9121000000014874,0.9287999999970253,0.9477999999970166,0.9622999999970148,0.9812999999970202,0.9956000000014882,1.0142999999970215,1.0291000000014918,1.045500000000004,1.0651000000014932,1.0788999999985123,1.0985000000000014,1.1159999999999997,1.1321000000014863,1.1471000000014868,1.1622999999970176,1.1821000000014976,1.1976999999955353,1.2122999999970148,1.2358999999985087,1.245500000000007,1.2622999999970261,1.2788999999985151,1.2991000000014878,1.3138999999985117,1.3288999999985123,1.3460000000000036,1.3643999999985112,1.3788999999985094,1.3956000000014939,1.4121999999955364,1.432799999997016,1.4476000000014864,1.4622999999970148,1.4823999999985062,1.4978999999985092,1.5121999999955307,1.5287999999970197,1.5480000000000018,1.5622999999970233,1.5787999999970168,1.5955000000000013,1.6166000000014975,1.6332999999970212,1.6456000000014939,1.6621999999955364,1.6788999999985066,1.6981000000014888,1.7121000000014988,1.728899999998518,1.7481999999955349,1.762100000001496,1.7789999999999964,1.8001000000014926,1.8156999999955303,1.8288999999985123,1.8455000000000013,1.862199999995525,1.8787999999970282,1.8998999999985102,1.9121000000014874,1.9288999999985066,1.9453999999985143,1.9621000000014988,1.9821999999955295,1.9953999999985115,2.012100000001496,2.033299999997027,2.0478999999985064,2.064000000000007,2.078799999997017,2.095399999998506,2.1119999999999948,2.1286999999955327,2.147999999999996,2.164299999997027,2.17869999999553,2.1953999999985143,2.2121000000014988,2.2287999999970225,2.2464999999999975,2.2620000000000005,2.278699999995524,2.2953999999985086,2.312100000001493,2.328799999997017,2.3488999999985083,2.3621000000014902,2.378799999997028,2.395399999998517,2.412000000000006,2.429000000000002,2.446600000001496,2.4620000000000033,2.4787999999970225,2.4964999999999975,2.512100000001496,2.528699999995524,2.546999999999997,2.5641999999955374,2.5788999999985123,2.5956000000014967,2.6152999999970206,2.6308999999985048,2.6466000000014986,2.6626000000014898,2.6787999999970253,2.6953999999985143,2.7121000000014988,2.7287999999970225,2.7475000000000023,2.7642999999970215,2.778699999995524,2.795500000000004,2.812100000001493,2.828799999997017,2.845399999998506,2.8619999999999948,2.878799999997028,2.895399999998517,2.912000000000006,2.92869999999553,2.9457999999970212,2.9621999999955335,2.978699999995527,2.995699999995537,3.012100000001496,3.0287999999970197,3.0453999999985086,3.062100000001493,3.0786999999955356,3.095399999998506,3.1121000000014902,3.129199999995535,3.145399999998517,3.1652999999970177,3.179399999998509,3.1954999999999956,3.2121000000014988,3.2287999999970225,3.2453999999985115,3.262100000001496,3.2787999999970197,3.295500000000004,3.312100000001493,3.3315000000000055,3.346500000000006,3.3621000000014902,3.382000000000005,3.396500000000003,3.4121000000014874,3.4287999999970253,3.446600000001496,3.4620000000000033,3.4787999999970225,3.4953999999985115,3.512100000001496,3.5287999999970197,3.5453999999985086,3.563600000001486,3.579299999997019,3.595399999998506,3.6119999999999948,3.6288999999985094,3.647899999998515,3.6643999999985084,3.67869999999553,3.6953999999985143,3.7164999999999964,3.7323999999985062,3.748500000000007,3.767799999997024,3.7789999999999964,3.7956000000014853,3.836899999998508,3.846100000001485,3.8622999999970204,3.8821000000014863,3.895399999998517,3.9121000000014874,3.92869999999553,3.9454999999999956,3.9621000000014988,3.9787999999970225,3.9953999999985115,4.012100000001496,4.032899999998506,4.048699999995534,4.065399999998505,4.0811000000014985,4.096600000001487,4.114500000000007,4.129199999995535,4.159199999995536,4.1684999999999945,4.1806000000014905,4.195499999999996,4.2121999999955335,4.232299999997025,4.246899999998504,4.262299999997026,4.278899999998515,4.295399999998509,4.311999999999998,4.332299999997019,4.3456999999955315,4.36210000000149,4.378799999997028,4.395299999997022,4.412000000000006,4.428799999997025,4.445399999998514,4.462100000001499,4.478699999995527,4.498699999995537,4.5120000000000005,4.52879999999702,4.546499999999995,4.562100000001493,4.578699999995536,4.598500000000001,4.61210000000149,4.628699999995533,4.646699999995533,4.662100000001487,4.67869999999553,4.695399999998514,4.712000000000003,4.7287999999970225,4.745500000000007,4.7620000000000005,4.778699999995524,4.795299999997027,4.811999999999998,4.829600000001491,4.845399999998506,4.861999999999995,4.878699999995533,4.895399999998517,4.912100000001487,4.92869999999553,4.947600000001486,4.962000000000003,4.978699999995527,4.9953999999985115,5.012100000001496,5.02879999999702,5.045399999998509,5.061999999999998,5.078799999997017,5.095399999998506,5.111999999999995,5.1311999999955304,5.145399999998517,5.162000000000006,5.17869999999553,5.195399999998514,5.212100000001499,5.2287999999970225,5.247600000001498,5.262100000001496,5.278699999995524,5.295399999998509,5.312100000001493,5.328799999997017,5.348100000001494,5.36319999999553,5.378699999995533,5.395399999998517]","[1733292493395,1733292493427,1733292493437,1733292493451,1733292493467,1733292493484,1733292493501,1733292493517,1733292493535,1733292493551,1733292493567,1733292493584,1733292493601,1733292493620,1733292493637,1733292493651,1733292493667,1733292493684,1733292493702,1733292493719,1733292493736,1733292493754,1733292493769,1733292493786,1733292493802,1733292493819,1733292493838,1733292493852,1733292493869,1733292493886,1733292493902,1733292493919,1733292493936,1733292493952,1733292493972,1733292493986,1733292494002,1733292494019,1733292494036,1733292494052,1733292494069,1733292494086,1733292494102,1733292494119,1733292494139,1733292494153,1733292494172,1733292494186,1733292494202,1733292494219,1733292494236,1733292494253,1733292494269,1733292494286,1733292494302,1733292494319,1733292494338,1733292494352,1733292494372,1733292494386,1733292494405,1733292494419,1733292494436,1733292494455,1733292494469,1733292494489,1733292494506,1733292494522,1733292494537,1733292494552,1733292494572,1733292494588,1733292494602,1733292494626,1733292494636,1733292494653,1733292494669,1733292494689,1733292494704,1733292494719,1733292494736,1733292494755,1733292494769,1733292494786,1733292494802,1733292494823,1733292494838,1733292494852,1733292494873,1733292494888,1733292494902,1733292494919,1733292494938,1733292494952,1733292494969,1733292494986,1733292495007,1733292495024,1733292495036,1733292495052,1733292495069,1733292495088,1733292495102,1733292495119,1733292495138,1733292495152,1733292495169,1733292495190,1733292495206,1733292495219,1733292495236,1733292495252,1733292495269,1733292495290,1733292495302,1733292495319,1733292495336,1733292495352,1733292495372,1733292495386,1733292495402,1733292495424,1733292495438,1733292495454,1733292495469,1733292495486,1733292495502,1733292495519,1733292495538,1733292495555,1733292495569,1733292495586,1733292495602,1733292495619,1733292495637,1733292495652,1733292495669,1733292495686,1733292495702,1733292495719,1733292495739,1733292495752,1733292495769,1733292495786,1733292495802,1733292495819,1733292495837,1733292495852,1733292495869,1733292495887,1733292495902,1733292495919,1733292495937,1733292495954,1733292495969,1733292495986,1733292496006,1733292496021,1733292496037,1733292496053,1733292496069,1733292496086,1733292496102,1733292496119,1733292496138,1733292496154,1733292496169,1733292496186,1733292496202,1733292496219,1733292496236,1733292496252,1733292496269,1733292496286,1733292496302,1733292496319,1733292496336,1733292496352,1733292496369,1733292496386,1733292496402,1733292496419,1733292496436,1733292496452,1733292496469,1733292496486,1733292496502,1733292496519,1733292496536,1733292496556,1733292496570,1733292496586,1733292496602,1733292496619,1733292496636,1733292496652,1733292496669,1733292496686,1733292496702,1733292496722,1733292496737,1733292496752,1733292496772,1733292496787,1733292496802,1733292496819,1733292496837,1733292496852,1733292496869,1733292496886,1733292496902,1733292496919,1733292496936,1733292496954,1733292496969,1733292496986,1733292497002,1733292497019,1733292497038,1733292497055,1733292497069,1733292497086,1733292497107,1733292497123,1733292497139,1733292497158,1733292497169,1733292497186,1733292497227,1733292497236,1733292497253,1733292497272,1733292497286,1733292497302,1733292497319,1733292497336,1733292497352,1733292497369,1733292497386,1733292497402,1733292497423,1733292497439,1733292497456,1733292497471,1733292497487,1733292497505,1733292497519,1733292497549,1733292497559,1733292497571,1733292497586,1733292497602,1733292497623,1733292497637,1733292497652,1733292497669,1733292497686,1733292497702,1733292497722,1733292497736,1733292497752,1733292497769,1733292497786,1733292497802,1733292497819,1733292497836,1733292497852,1733292497869,1733292497889,1733292497902,1733292497919,1733292497937,1733292497952,1733292497969,1733292497989,1733292498002,1733292498019,1733292498037,1733292498052,1733292498069,1733292498086,1733292498102,1733292498119,1733292498136,1733292498152,1733292498169,1733292498186,1733292498202,1733292498220,1733292498236,1733292498252,1733292498269,1733292498286,1733292498302,1733292498319,1733292498338,1733292498352,1733292498369,1733292498386,1733292498402,1733292498419,1733292498436,1733292498452,1733292498469,1733292498486,1733292498502,1733292498521,1733292498536,1733292498552,1733292498569,1733292498586,1733292498602,1733292498619,1733292498638,1733292498652,1733292498669,1733292498686,1733292498702,1733292498719,1733292498738,1733292498753,1733292498769,1733292498786]","[[1073.9,536.5],[1073.9,536.5],[1079.2,527.8],[1063.5,533.5],[1037.1,541.9],[1042.3,536.8],[1047.5,531.7],[1030.4,532.2],[1008.6,530.9],[968.3,546.4],[935.6,580.3],[915.5,611.6],[892.5,624.5],[879.7,638.4],[874.9,631.4],[869.1,624.8],[892.6,608.4],[901.8,591.6],[889,583.8],[891.3,563.6],[897.9,536.7],[912,524.6],[949.5,518.4],[974.4,504.4],[990.9,515.5],[992.7,507],[965.2,508.3],[952.7,514.2],[962.2,511.1],[977.3,515.6],[988.1,526.8],[1015.8,504.8],[994,490.7],[1000.6,495.4],[1018.3,493.2],[1039,484.9],[1077,479.6],[1115.5,471.8],[1139.2,477.3],[1167.1,472.3],[1162.1,456.5],[1141.3,467],[1174.4,491.1],[1170.5,480],[1169.1,479.2],[1175.4,493.6],[1162.3,515.9],[1144.5,530.9],[1141.5,532.6],[1134.6,542.5],[1164.2,564.2],[1154.6,584.5],[1126.6,563.1],[1123.7,568.4],[1102,563.6],[1108.9,568],[1117.9,561.5],[1136.7,570.3],[1151.5,576.3],[1141.6,566.1],[1122.4,553.6],[1146.7,537.8],[1148,538.2],[1145.4,536.1],[1183.8,548],[1197.6,561.2],[1206.3,555.3],[1180.6,544.4],[1158.9,536.3],[1179.4,549.1],[1205.6,563.2],[1203.8,556.5],[1215.6,547.9],[1247.8,559.3],[1247.8,559.3],[1220.7,539.4],[1195.6,510.1],[1177.6,507.2],[1177.6,507.2],[1182.6,502.8],[1204.7,506.8],[1189.4,497],[1166.7,476.3],[1132.4,474],[1098.1,471.7],[1043.4,449.4],[1079.2,462.3],[1118.6,491.1],[1130.2,469.6],[1113.7,476.3],[1080.1,474.6],[1056.5,471.1],[1067.7,472.2],[1119.6,503.5],[1150.7,538.3],[1182.5,527.2],[1158.4,498],[1158.4,498],[1133.3,472],[1133.3,472],[1137.5,479.2],[1137.5,479.2],[1173.7,513.8],[1173.7,513.8],[1237.6,515.7],[1237.6,515.7],[1255,508.1],[1245,527.5],[1245,527.5],[1213.2,499.3],[1213.2,499.3],[1230.8,510.1],[1239.9,545.5],[1189.1,600.2],[1189.1,600.2],[1146.2,649.2],[1146.2,649.2],[1078,684.7],[1019.6,696.9],[1019.6,696.9],[928.4,706.7],[888.1,719.7],[877.8,715.9],[845.2,756.6],[775.2,742],[731.6,745.2],[747.9,729.1],[749.4,725.9],[772.7,746],[765,731],[761.7,734.2],[774,719.9],[741,710.2],[744.2,668.8],[750.5,680.1],[738.2,694.9],[705.6,676.4],[675.3,641],[633.6,626],[615.5,612.3],[632.2,600.4],[622,625.4],[625.1,644.6],[635.1,653.1],[650.8,621.7],[629.1,600.4],[626.5,606.3],[641.7,631.1],[668.3,635.5],[714.9,639.9],[727.4,659.4],[718.9,650.1],[720.3,649.4],[703.2,675.1],[718.1,673.4],[758.2,673.6],[799.5,679.9],[840.2,649.9],[854.3,635.9],[873.5,621.3],[909.1,589],[962.5,568.7],[971,566.1],[975.8,556.3],[978.1,595.2],[1038.7,615.8],[1099.3,636.4],[1112.5,663.3],[1152.3,674.2],[1158.7,695.9],[1148.7,735.3],[1161.4,787.1],[1218,809.4],[1256,798.3],[1264.5,765.9],[1205.1,763.2],[1148.7,785.3],[1138,763.4],[1127.3,741.5],[1144.5,742.9],[1161.7,744.3],[1166.3,737],[1146.8,724.6],[1145.9,745.6],[1169.5,750],[1214.9,731],[1250.3,682.3],[1270.2,688.7],[1256.8,702.5],[1229.6,677.4],[1186.3,662.7],[1148.6,641.5],[1128.1,625.9],[1156,612],[1159.4,614.7],[1138.6,627.4],[1124.8,645],[1140,655.8],[1188.5,659.2],[1203.8,687.6],[1235.2,705.6],[1256.2,717.1],[1276.7,704.8],[1241.3,708.8],[1206.8,704.6],[1202.7,693.4],[1198.6,682.2],[1165.5,677.8],[1092.2,693.5],[1046.3,689.6],[1024.6,679.6],[1007.7,682.6],[994.4,719.6],[995,692.9],[984.6,681.3],[984.3,687.2],[984,693.1],[980.2,673.6],[1016.6,634],[1077.1,611.5],[1113.4,595.1],[1141.7,575.3],[1164.9,544.4],[1171.2,567.6],[1187.6,583.9],[1200,567.6],[1200,567.6],[1209.5,557.2],[1214.8,589.3],[1214.8,589.3],[1210.4,605.7],[1183.9,589.4],[1183.9,589.4],[1165.3,598],[1165.3,598],[1156,580.2],[1156,580.2],[1164.3,595.9],[1164.3,595.9],[1148.1,578.5],[1144.9,562.2],[1119.7,555.8],[1089.2,556.3],[1066.4,539.7],[1056.8,530.2],[1045.2,536.3],[1024.5,531.5],[1002.5,556.5],[1002.5,556.5],[962.7,545.5],[956.2,548.8],[936.7,551],[953.3,589.7],[969.5,572.8],[977.7,559.7],[973.4,579.3],[969.1,598.9],[996.8,585.9],[1003,566.8],[1024.3,560.4],[1047.1,555.6],[1069.9,550.8],[1042.8,497.5],[1019.7,497.3],[1022.2,508.2],[1033.7,495],[1046.3,473.2],[1028.1,470],[1039.3,491.1],[1025.3,482.4],[1020.7,487],[996.8,490],[1020.2,526.6],[1048.2,552.9],[1069.6,548.5],[1091,544.1],[1107.7,528.6],[1124.4,513.1],[1133.2,479.4],[1141.7,489.4],[1130.9,496.5],[1147.8,499],[1148.3,496.6],[1144.8,499.2],[1138.9,494.9],[1138.8,494.5],[1143.4,498.8],[1159,513],[1187.6,556.3],[1228.6,576.2],[1264.5,590],[1292,610],[1291.4,588.7],[1294.8,562.4],[1302.4,591],[1304.2,615.7],[1290.4,644],[1265.6,662.4],[1236.3,646.2],[1207.2,630.2],[1212.6,626.3],[1215.2,619.6],[1238.5,639.7],[1247.7,655.6],[1244.1,639.3],[1238.3,628],[1244.4,603],[1242.1,583.6],[1242.6,568.7],[1243.1,553.8],[1233.8,536],[1197.6,533.7],[1162.8,520.3],[1150.7,511.6],[1129.6,495.4],[1114.5,473.6],[1095.4,477.5],[1095.4,477.5],[1084.7,475.8],[1074.6,474.2],[1053.7,493.9],[1038.1,506],[1033.3,505.5]]","[0,0.151169218]","[0.151169218,0.151169218]","[-0.151169218,-0.151169218]","[-0.151169218,0]","[0,-0.151169218]","[0.151169218,-0.151169218]","[0,0]","[0.151169218,0]",0,0,0,0,1,1,Smartphone,7,7,15,9
