inst1_resp.keys,inst1_resp.rt,calibrationMouse.x,calibrationMouse.y,calibrationMouse.leftButton,calibrationMouse.midButton,calibrationMouse.rightButton,calibrationClick.x,calibrationClick.y,calibrationClick.leftButton,calibrationClick.midButton,calibrationClick.rightButton,trialsc.thisRepN,trialsc.thisTrialN,trialsc.thisN,trialsc.thisIndex,trialsc.ran,calibration_x,calibration_y,participant,session,date,expName,psychopyVersion,OS,frameRate,calibrationClick.clicked_name,ScreenRes_pixels,Camera_pixels,mouse_2.x,mouse_2.y,mouse_2.leftButton,mouse_2.midButton,mouse_2.rightButton,mouse_2.time,mouse_2.clicked_name,mouse.x,mouse.y,mouse.leftButton,mouse.midButton,mouse.rightButton,mouse.time,mouse.clicked_name,Choice,Trial,TrialDuration,MOUSE_GAZE,ET_GAZE,ET_GAZE_x_T,time,unixTime,ET_GAZE_NF,Loc_Option1_label,Loc_Option2_label,Loc_Cost_label,Loc_Qual_label,Loc_Option1_cost,Loc_Option2_cost,Loc_Option1_quality,Loc_Option2_quality,trials.thisRepN,trials.thisTrialN,trials.thisN,trials.thisIndex,trials.ran,Block,Device,cost1,qual1,cost2,qual2
space,1.7027,0.026041667,-0.42962963,1,0,0,0.342708333,-0.309259259,1,0,0,0,0,0,15,1,0.33,-0.33,40,001,2024-12-04_14h00.39.913,Attention_exp_legacy,2023.1.0,Win32,59.88023952,,,,,,,,,,,,,,,,,,,,,,,,,,,,,,,,,,,,,,,,,,,,,
,,,,,,,0.31875,-0.675925926,1,0,0,0,1,1,14,1,0.33,-0.67,40,001,2024-12-04_14h00.39.913,Attention_exp_legacy,2023.1.0,Win32,59.88023952,,,,,,,,,,,,,,,,,,,,,,,,,,,,,,,,,,,,,,,,,,,,,
,,,,,,,0.329166667,0.666666667,1,0,0,0,2,2,18,1,0.33,0.67,40,001,2024-12-04_14h00.39.913,Attention_exp_legacy,2023.1.0,Win32,59.88023952,calibration_square,,,,,,,,,,,,,,,,,,,,,,,,,,,,,,,,,,,,,,,,,,,,
,,,,,,,0.33125,-0.018518519,1,0,0,0,3,3,16,1,0.33,0,40,001,2024-12-04_14h00.39.913,Attention_exp_legacy,2023.1.0,Win32,59.88023952,,,,,,,,,,,,,,,,,,,,,,,,,,,,,,,,,,,,,,,,,,,,,
,,,,,,,-0.002083333,0.335185185,1,0,0,0,4,4,12,1,0,0.33,40,001,2024-12-04_14h00.39.913,Attention_exp_legacy,2023.1.0,Win32,59.88023952,calibration_square,,,,,,,,,,,,,,,,,,,,,,,,,,,,,,,,,,,,,,,,,,,,
,,,,,,,0.676041667,0.666666667,1,0,0,0,5,5,19,1,0.67,0.67,40,001,2024-12-04_14h00.39.913,Attention_exp_legacy,2023.1.0,Win32,59.88023952,calibration_square,,,,,,,,,,,,,,,,,,,,,,,,,,,,,,,,,,,,,,,,,,,,
,,,,,,,-0.330208333,0.688888889,1,0,0,0,6,6,8,1,-0.33,0.67,40,001,2024-12-04_14h00.39.913,Attention_exp_legacy,2023.1.0,Win32,59.88023952,,,,,,,,,,,,,,,,,,,,,,,,,,,,,,,,,,,,,,,,,,,,,
,,,,,,,-0.009375,-0.67037037,1,0,0,0,7,7,9,1,0,-0.67,40,001,2024-12-04_14h00.39.913,Attention_exp_legacy,2023.1.0,Win32,59.88023952,calibration_square,,,,,,,,,,,,,,,,,,,,,,,,,,,,,,,,,,,,,,,,,,,,
,,,,,,,0.330208333,0.348148148,1,0,0,0,8,8,17,1,0.33,0.33,40,001,2024-12-04_14h00.39.913,Attention_exp_legacy,2023.1.0,Win32,59.88023952,,,,,,,,,,,,,,,,,,,,,,,,,,,,,,,,,,,,,,,,,,,,,
,,,,,,,-0.692708333,0.32037037,1,0,0,0,9,9,3,1,-0.67,0.33,40,001,2024-12-04_14h00.39.913,Attention_exp_legacy,2023.1.0,Win32,59.88023952,,,,,,,,,,,,,,,,,,,,,,,,,,,,,,,,,,,,,,,,,,,,,
,,,,,,,0.002083333,0.022222222,1,0,0,0,10,10,11,1,0,0,40,001,2024-12-04_14h00.39.913,Attention_exp_legacy,2023.1.0,Win32,59.88023952,,,,,,,,,,,,,,,,,,,,,,,,,,,,,,,,,,,,,,,,,,,,,
,,,,,,,-0.346875,-0.67037037,1,0,0,0,11,11,4,1,-0.33,-0.67,40,001,2024-12-04_14h00.39.913,Attention_exp_legacy,2023.1.0,Win32,59.88023952,,,,,,,,,,,,,,,,,,,,,,,,,,,,,,,,,,,,,,,,,,,,,
,,,,,,,-0.342708333,0.009259259,1,0,0,0,12,12,6,1,-0.33,0,40,001,2024-12-04_14h00.39.913,Attention_exp_legacy,2023.1.0,Win32,59.88023952,,,,,,,,,,,,,,,,,,,,,,,,,,,,,,,,,,,,,,,,,,,,,
,,,,,,,-0.664583333,-0.003703704,1,0,0,0,13,13,2,1,-0.67,0,40,001,2024-12-04_14h00.39.913,Attention_exp_legacy,2023.1.0,Win32,59.88023952,calibration_square,,,,,,,,,,,,,,,,,,,,,,,,,,,,,,,,,,,,,,,,,,,,
,,,,,,,-0.651041667,-0.666666667,1,0,0,0,14,14,0,1,-0.67,-0.67,40,001,2024-12-04_14h00.39.913,Attention_exp_legacy,2023.1.0,Win32,59.88023952,,,,,,,,,,,,,,,,,,,,,,,,,,,,,,,,,,,,,,,,,,,,,
,,,,,,,-0.009375,-0.327777778,1,0,0,0,15,15,10,1,0,-0.33,40,001,2024-12-04_14h00.39.913,Attention_exp_legacy,2023.1.0,Win32,59.88023952,calibration_square,,,,,,,,,,,,,,,,,,,,,,,,,,,,,,,,,,,,,,,,,,,,
,,,,,,,-0.321875,-0.331481481,1,0,0,0,16,16,5,1,-0.33,-0.33,40,001,2024-12-04_14h00.39.913,Attention_exp_legacy,2023.1.0,Win32,59.88023952,calibration_square,,,,,,,,,,,,,,,,,,,,,,,,,,,,,,,,,,,,,,,,,,,,
,,,,,,,0.679166667,-0.687037037,1,0,0,0,17,17,20,1,0.67,-0.67,40,001,2024-12-04_14h00.39.913,Attention_exp_legacy,2023.1.0,Win32,59.88023952,,,,,,,,,,,,,,,,,,,,,,,,,,,,,,,,,,,,,,,,,,,,,
,,,,,,,-0.011458333,0.666666667,1,0,0,0,18,18,13,1,0,0.67,40,001,2024-12-04_14h00.39.913,Attention_exp_legacy,2023.1.0,Win32,59.88023952,,,,,,,,,,,,,,,,,,,,,,,,,,,,,,,,,,,,,,,,,,,,,
,,,,,,,-0.667708333,-0.32037037,1,0,0,0,19,19,1,1,-0.67,-0.33,40,001,2024-12-04_14h00.39.913,Attention_exp_legacy,2023.1.0,Win32,59.88023952,calibration_square,,,,,,,,,,,,,,,,,,,,,,,,,,,,,,,,,,,,,,,,,,,,
,,,,,,,-0.336458333,0.340740741,1,0,0,0,20,20,7,1,-0.33,0.33,40,001,2024-12-04_14h00.39.913,Attention_exp_legacy,2023.1.0,Win32,59.88023952,,,,,,,,,,,,,,,,,,,,,,,,,,,,,,,,,,,,,,,,,,,,,
,,,,,,,,,,,,,,,,,,,40,001,2024-12-04_14h00.39.913,Attention_exp_legacy,2023.1.0,Win32,59.88023952,,"[1920,1080]","[640,480]",[0.08125],[-0.4925925925925926],[1],[0],[0],[1.115199999995525],"[""StartButton""]","[0.08645833333333333,-0.06354166666666666,-0.034375]","[-0.06111111111111111,0.4740740740740741,0.3888888888888889]","[1,1,1]","[0,0,0]","[0,0,0]","[2.271500000000003,2.8389999999999986,3.1718999999985087]","[""Option1_label""]",Option1_label,1,4.1948,"[[0.09375,0.053703703703703705],[0.09375,0.053703703703703705],[0.09375,0.053703703703703705],[0.09375,0.053703703703703705],[0.09375,0.053703703703703705],[0.09375,0.053703703703703705],[0.09375,0.053703703703703705],[0.09375,0.053703703703703705],[0.09375,0.053703703703703705],[0.09375,0.053703703703703705],[0.09375,0.053703703703703705],[0.09375,0.053703703703703705],[0.09375,0.053703703703703705],[0.09375,0.053703703703703705],[0.09375,0.053703703703703705],[0.09375,0.053703703703703705],[0.09375,0.053703703703703705],[0.09375,0.053703703703703705],[0.09375,0.053703703703703705],[0.09375,0.053703703703703705],[0.09375,0.053703703703703705],[0.09375,0.053703703703703705],[0.09375,0.053703703703703705],[0.09375,0.053703703703703705],[0.09375,0.053703703703703705],[0.09375,0.053703703703703705],[0.09375,0.053703703703703705],[0.09375,0.053703703703703705],[0.09375,0.053703703703703705],[0.09375,0.053703703703703705],[0.09375,0.053703703703703705],[0.09375,0.053703703703703705],[0.09375,0.053703703703703705],[0.09375,0.053703703703703705],[0.09375,0.053703703703703705],[0.09375,0.053703703703703705],[0.09375,0.053703703703703705],[0.09375,0.053703703703703705],[0.09375,0.053703703703703705],[0.09375,0.053703703703703705],[0.09375,0.053703703703703705],[0.09375,0.053703703703703705],[0.09375,0.053703703703703705],[0.09375,0.053703703703703705],[0.09375,0.053703703703703705],[0.09375,0.053703703703703705],[0.09375,0.053703703703703705],[0.09375,0.053703703703703705],[0.09375,0.053703703703703705],[0.09375,0.053703703703703705],[0.09375,0.053703703703703705],[0.09375,0.053703703703703705],[0.09375,0.053703703703703705],[0.09375,0.053703703703703705],[0.09375,0.053703703703703705],[0.09375,0.053703703703703705],[0.09375,0.053703703703703705],[0.09375,0.053703703703703705],[0.09375,0.053703703703703705],[0.09375,0.053703703703703705],[0.09375,0.053703703703703705],[0.09375,0.053703703703703705],[0.09375,0.053703703703703705],[0.09375,0.053703703703703705],[0.09375,0.053703703703703705],[0.09375,0.053703703703703705],[0.09375,0.053703703703703705],[0.09375,0.053703703703703705],[0.09375,0.053703703703703705],[0.09375,0.053703703703703705],[0.09375,0.053703703703703705],[0.09375,0.053703703703703705],[0.09375,0.053703703703703705],[0.09375,0.053703703703703705],[0.09375,0.053703703703703705],[0.09375,0.053703703703703705],[0.09375,0.053703703703703705],[0.09375,0.053703703703703705],[0.09375,0.053703703703703705],[0.09375,0.053703703703703705],[0.09375,0.053703703703703705],[0.09375,0.053703703703703705],[0.09375,0.053703703703703705],[0.09375,0.053703703703703705],[0.09375,0.053703703703703705],[0.09375,0.053703703703703705],[0.09375,0.053703703703703705],[0.09375,0.053703703703703705],[0.09375,0.053703703703703705],[0.09375,0.053703703703703705],[0.09375,0.053703703703703705],[0.09375,0.053703703703703705],[0.09375,0.053703703703703705],[0.09375,0.053703703703703705],[0.09375,0.053703703703703705],[0.09375,0.053703703703703705],[0.09375,0.053703703703703705],[0.09375,0.053703703703703705],[0.09375,0.053703703703703705],[0.09375,0.053703703703703705],[0.09479166666666666,0.05],[0.09583333333333334,0.04259259259259259],[0.09791666666666667,0.037037037037037035],[0.09895833333333333,0.03333333333333333],[0.09895833333333333,0.03148148148148148],[0.09895833333333333,0.02962962962962963],[0.1,0.025925925925925925],[0.10520833333333333,0.014814814814814815],[0.11041666666666666,0.003703703703703704],[0.11979166666666667,-0.007407407407407408],[0.1375,-0.025925925925925925],[0.15729166666666666,-0.040740740740740744],[0.17604166666666668,-0.05555555555555555],[0.18333333333333332,-0.06296296296296296],[0.184375,-0.06296296296296296],[0.184375,-0.06296296296296296],[0.184375,-0.06296296296296296],[0.184375,-0.06296296296296296],[0.18229166666666666,-0.06296296296296296],[0.16145833333333334,-0.06296296296296296],[0.13958333333333334,-0.06296296296296296],[0.11458333333333333,-0.06296296296296296],[0.1,-0.06111111111111111],[0.09270833333333334,-0.06111111111111111],[0.08958333333333333,-0.06111111111111111],[0.08854166666666667,-0.06111111111111111],[0.08854166666666667,-0.06111111111111111],[0.08645833333333333,-0.06111111111111111],[0.08645833333333333,-0.06111111111111111],[0.08645833333333333,-0.06111111111111111],[0.08645833333333333,-0.06111111111111111],[0.08645833333333333,-0.06111111111111111],[0.08645833333333333,-0.06111111111111111],[0.08645833333333333,-0.06111111111111111],[0.08645833333333333,-0.06111111111111111],[0.08645833333333333,-0.06111111111111111],[0.08645833333333333,-0.06111111111111111],[0.08645833333333333,-0.06111111111111111],[0.08645833333333333,-0.06111111111111111],[0.08645833333333333,-0.06111111111111111],[0.08645833333333333,-0.06111111111111111],[0.08645833333333333,-0.06111111111111111],[0.08645833333333333,-0.06111111111111111],[0.08645833333333333,-0.06111111111111111],[0.08645833333333333,-0.06111111111111111],[0.08645833333333333,-0.06111111111111111],[0.08645833333333333,-0.06111111111111111],[0.08645833333333333,-0.06111111111111111],[0.08645833333333333,-0.06111111111111111],[0.08645833333333333,-0.06111111111111111],[0.08645833333333333,-0.06111111111111111],[0.08645833333333333,-0.06111111111111111],[0.08645833333333333,-0.06111111111111111],[0.08645833333333333,-0.06111111111111111],[0.08645833333333333,-0.06111111111111111],[0.08645833333333333,-0.06111111111111111],[0.08125,-0.04259259259259259],[0.030208333333333334,0.15185185185185185],[-0.022916666666666665,0.32037037037037036],[-0.05,0.4074074074074074],[-0.06041666666666667,0.44814814814814813],[-0.0625,0.4648148148148148],[-0.06354166666666666,0.4722222222222222],[-0.06354166666666666,0.4740740740740741],[-0.06354166666666666,0.4740740740740741],[-0.06354166666666666,0.4740740740740741],[-0.06354166666666666,0.4740740740740741],[-0.06354166666666666,0.4740740740740741],[-0.06354166666666666,0.4740740740740741],[-0.06354166666666666,0.4740740740740741],[-0.06354166666666666,0.4740740740740741],[-0.06354166666666666,0.4740740740740741],[-0.06354166666666666,0.4740740740740741],[-0.06354166666666666,0.4740740740740741],[-0.06354166666666666,0.4740740740740741],[-0.06354166666666666,0.4740740740740741],[-0.06354166666666666,0.4722222222222222],[-0.0625,0.4666666666666667],[-0.059375,0.45925925925925926],[-0.05520833333333333,0.44814814814814813],[-0.052083333333333336,0.4351851851851852],[-0.04895833333333333,0.42407407407407405],[-0.04583333333333333,0.4166666666666667],[-0.04479166666666667,0.412962962962963],[-0.04479166666666667,0.412962962962963],[-0.042708333333333334,0.40925925925925927],[-0.041666666666666664,0.40555555555555556],[-0.040625,0.40185185185185185],[-0.0375,0.39444444444444443],[-0.036458333333333336,0.3925925925925926],[-0.034375,0.3888888888888889],[-0.034375,0.3888888888888889],[-0.034375,0.3888888888888889],[-0.034375,0.3888888888888889],[-0.034375,0.3888888888888889],[-0.034375,0.3888888888888889],[-0.034375,0.3888888888888889],[-0.034375,0.3888888888888889],[-0.034375,0.3888888888888889],[-0.034375,0.3888888888888889],[-0.034375,0.3888888888888889],[-0.034375,0.3888888888888889],[-0.034375,0.3888888888888889],[-0.034375,0.3888888888888889],[-0.034375,0.3888888888888889],[-0.034375,0.3888888888888889],[-0.034375,0.3888888888888889],[-0.034375,0.3888888888888889],[-0.034375,0.3888888888888889],[-0.034375,0.3888888888888889],[-0.03333333333333333,0.3888888888888889],[-0.03333333333333333,0.3888888888888889],[-0.03333333333333333,0.3888888888888889],[-0.03333333333333333,0.3888888888888889],[-0.03333333333333333,0.3888888888888889],[-0.03333333333333333,0.3888888888888889],[-0.03333333333333333,0.3888888888888889],[-0.03333333333333333,0.3888888888888889],[-0.03333333333333333,0.3888888888888889],[-0.03333333333333333,0.3888888888888889],[-0.03333333333333333,0.3888888888888889],[-0.03333333333333333,0.3888888888888889],[-0.03333333333333333,0.3888888888888889],[-0.03333333333333333,0.3888888888888889],[-0.03333333333333333,0.3888888888888889],[-0.03333333333333333,0.3888888888888889],[-0.03333333333333333,0.3888888888888889],[-0.03333333333333333,0.3888888888888889],[-0.03333333333333333,0.3888888888888889],[-0.03333333333333333,0.3888888888888889],[-0.03333333333333333,0.3888888888888889],[-0.03333333333333333,0.3888888888888889],[-0.03333333333333333,0.3888888888888889],[-0.03333333333333333,0.3888888888888889],[-0.03333333333333333,0.3888888888888889],[-0.030208333333333334,0.38333333333333336],[-0.029166666666666667,0.3814814814814815],[-0.028125,0.37777777777777777],[-0.022916666666666665,0.37037037037037035],[-0.020833333333333332,0.36666666666666664],[-0.017708333333333333,0.3592592592592593],[-0.016666666666666666,0.3574074074074074],[-0.015625,0.3574074074074074],[-0.014583333333333334,0.3537037037037037],[-0.013541666666666667,0.35185185185185186],[-0.013541666666666667,0.35],[-0.013541666666666667,0.35],[-0.013541666666666667,0.35],[-0.013541666666666667,0.35],[-0.013541666666666667,0.35],[-0.013541666666666667,0.35],[-0.013541666666666667,0.35]]","[[-0.22270833333333329,0.4777777777777778],[-0.22270833333333329,0.4777777777777778],[-0.23968750000000003,0.5211111111111111],[-0.23364583333333327,0.5859259259259259],[-0.23364583333333327,0.5859259259259259],[-0.2516666666666667,0.6187037037037038],[-0.27062499999999995,0.6711111111111111],[-0.2768749999999999,0.6953703703703704],[-0.29270833333333335,0.7094444444444444],[-0.30708333333333326,0.7514814814814814],[-0.284375,0.7425925925925926],[-0.26447916666666665,0.7533333333333333],[-0.2827083333333333,0.7401851851851853],[-0.2827083333333333,0.7401851851851853],[-0.3008333333333333,0.7631481481481482],[-0.32302083333333337,0.7972222222222223],[-0.32864583333333336,0.8314814814814815],[-0.3486458333333334,0.8372222222222223],[-0.3686458333333333,0.842962962962963],[-0.3686458333333333,0.842962962962963],[-0.3533333333333334,0.8462962962962963],[-0.36822916666666666,0.819074074074074],[-0.4063541666666667,0.8235185185185186],[-0.43427083333333333,0.8451851851851852],[-0.4210416666666667,0.8475925925925927],[-0.43395833333333333,0.8507407407407407],[-0.4348958333333333,0.8122222222222223],[-0.4461458333333333,0.7777777777777778],[-0.4461458333333333,0.7777777777777778],[-0.47333333333333333,0.7829629629629629],[-0.531875,0.8022222222222223],[-0.5977083333333333,0.8099999999999999],[-0.6106250000000001,0.7907407407407407],[-0.6235416666666667,0.7714814814814815],[-0.6653125000000001,0.7735185185185186],[-0.7070833333333333,0.7755555555555554],[-0.6950000000000001,0.7564814814814815],[-0.7008333333333333,0.7490740740740741],[-0.708125,0.7503703703703705],[-0.7033333333333334,0.6596296296296297],[-0.6851041666666667,0.5868518518518518],[-0.698125,0.557037037037037],[-0.7338541666666667,0.5848148148148147],[-0.7495833333333334,0.5601851851851852],[-0.7440625,0.49370370370370376],[-0.7229166666666667,0.4433333333333333],[-0.7294791666666666,0.41333333333333344],[-0.7392708333333334,0.3907407407407407],[-0.7372916666666666,0.35537037037037034],[-0.7951041666666666,0.3918518518518519],[-0.7991666666666667,0.37296296296296294],[-0.8242708333333333,0.330925925925926],[-0.849375,0.28888888888888886],[-0.8527083333333334,0.262037037037037],[-0.8145833333333333,0.21666666666666667],[-0.7920833333333334,0.1551851851851851],[-0.8079166666666667,0.14129629629629623],[-0.8340625,0.13703703703703704],[-0.8766666666666667,0.2081481481481481],[-0.875625,0.27462962962962956],[-0.9287500000000001,0.3381481481481482],[-0.9282291666666667,0.3764814814814814],[-0.9263541666666666,0.42777777777777776],[-0.9686458333333333,0.5007407407407407],[-1.0523958333333332,0.5922222222222221],[-1.1243750000000001,0.6783333333333332],[-1.1580208333333333,0.7168518518518519],[-1.1591666666666667,0.7337037037037037],[-1.1416666666666666,0.7070370370370369],[-1.1215625,0.6585185185185186],[-1.083125,0.6362962962962964],[-1.0170833333333333,0.6444444444444445],[-1.0170833333333333,0.6444444444444445],[-0.9523958333333333,0.6396296296296295],[-0.9523958333333333,0.6396296296296295],[-0.8566666666666667,0.637962962962963],[-0.8566666666666667,0.637962962962963],[-0.725,0.6712962962962963],[-0.725,0.6712962962962963],[-0.6377083333333334,0.7448148148148149],[-0.6377083333333334,0.7448148148148149],[-0.58375,0.7459259259259259],[-0.58375,0.7459259259259259],[-0.5101041666666667,0.7901851851851853],[-0.44156249999999997,0.7453703703703703],[-0.37562500000000004,0.7224074074074075],[-0.3380208333333333,0.7512962962962964],[-0.28958333333333336,0.7277777777777777],[-0.24114583333333334,0.7042592592592591],[-0.22916666666666666,0.7012962962962964],[-0.253125,0.6633333333333334],[-0.21354166666666666,0.5449999999999999],[-0.140625,0.49907407407407406],[-0.1326041666666666,0.444074074074074],[-0.12166666666666662,0.4462962962962963],[-0.1046875,0.4535185185185185],[-0.06479166666666672,0.4668518518518519],[-0.08041666666666672,0.4677777777777778],[-0.09604166666666672,0.46870370370370373],[-0.08343750000000003,0.4398148148148148],[-0.07083333333333333,0.41092592592592586],[-0.07083333333333333,0.41092592592592586],[-0.044479166666666715,0.3638888888888889],[-0.019583333333333286,0.3485185185185186],[0.046875,0.252962962962963],[0.06729166666666657,0.21722222222222215],[0.07302083333333324,0.25555555555555554],[0.07458333333333324,0.2301851851851851],[0.0787499999999999,0.15925925925925927],[0.10822916666666677,0.130925925925926],[0.11729166666666657,0.1242592592592593],[0.12843749999999995,0.039629629629629584],[0.10458333333333343,0.07333333333333338],[0.08572916666666662,0.09018518518518527],[0.04895833333333333,0.172037037037037],[0.04739583333333333,0.27870370370370373],[0.05447916666666662,0.30629629629629623],[0.07531249999999995,0.272037037037037],[0.07531249999999995,0.272037037037037],[0.11489583333333328,0.29370370370370374],[0.11552083333333343,0.2818518518518519],[0.103125,0.22629629629629638],[0.103125,0.22629629629629638],[0.10625,0.26222222222222225],[0.10625,0.26222222222222225],[0.08135416666666657,0.2727777777777777],[0.044062499999999956,0.3199999999999999],[0.0067708333333333336,0.3672222222222221],[-0.027083333333333334,0.32944444444444443],[-0.0609375,0.2916666666666667],[-0.06031249999999998,0.32888888888888895],[-0.11302083333333333,0.3787037037037037],[-0.15687500000000001,0.4044444444444444],[-0.1877083333333334,0.47388888888888886],[-0.2313541666666667,0.5222222222222223],[-0.2563541666666667,0.5183333333333333],[-0.2725,0.46296296296296297],[-0.3252083333333334,0.4866666666666666],[-0.3460416666666667,0.4170370370370371],[-0.37947916666666665,0.45481481481481484],[-0.47385416666666663,0.47129629629629627],[-0.549375,0.5011111111111112],[-0.6201041666666666,0.5459259259259258],[-0.5935416666666666,0.5455555555555556],[-0.5717708333333333,0.5527777777777778],[-0.5609375,0.5937037037037037],[-0.5501041666666667,0.6346296296296298],[-0.5417708333333333,0.6407407407407407],[-0.5579166666666667,0.7405555555555555],[-0.5365625,0.6755555555555555],[-0.49291666666666667,0.6244444444444446],[-0.4204166666666667,0.5768518518518518],[-0.3519791666666666,0.5251851851851852],[-0.38083333333333336,0.5187037037037038],[-0.3876041666666667,0.5094444444444445],[-0.38375,0.48944444444444435],[-0.3754166666666666,0.5144444444444444],[-0.3282291666666667,0.42185185185185176],[-0.28104166666666663,0.3292592592592592],[-0.25875,0.294074074074074],[-0.21479166666666671,0.26444444444444437],[-0.17697916666666663,0.1581481481481481],[-0.14020833333333335,0.11407407407407412],[-0.0889583333333333,0.0544444444444444],[-0.033749999999999974,-0.003888888888888931],[-0.00458333333333331,-0.04277777777777782],[0.02010416666666662,-0.12666666666666662],[0.005624999999999976,-0.14092592592592595],[0.00947916666666669,-0.15],[0.01729166666666669,-0.18592592592592588],[0.0034374999999999527,-0.22740740740740742],[-0.015104166666666667,-0.11388888888888889],[-0.026250000000000048,-0.06796296296296295],[-0.026250000000000048,-0.06796296296296295],[-0.05406249999999998,-0.0338888888888888],[-0.09614583333333329,-0.0544444444444444],[-0.08364583333333328,-0.125],[-0.09958333333333336,-0.16500000000000004],[-0.11031249999999998,-0.11351851851851855],[-0.13927083333333337,-0.06666666666666667],[-0.15437500000000004,-0.08907407407407411],[-0.1694791666666667,-0.11148148148148146],[-0.17229166666666665,-0.18888888888888888],[-0.17739583333333328,-0.25685185185185183],[-0.17739583333333328,-0.25685185185185183],[-0.184375,-0.2616666666666667],[-0.23166666666666663,-0.19500000000000003],[-0.2741666666666667,-0.14314814814814816],[-0.2882291666666667,-0.12185185185185188],[-0.23864583333333336,-0.15777777777777777],[-0.20187499999999994,-0.23796296296296296],[-0.2094791666666667,-0.16277777777777774],[-0.2094791666666667,-0.16277777777777774],[-0.21708333333333332,-0.08759259259259261],[-0.21708333333333332,-0.08759259259259261],[-0.21770833333333334,-0.10018518518518522],[-0.21770833333333334,-0.10018518518518522],[-0.21458333333333332,-0.1366666666666667],[-0.21458333333333332,-0.1366666666666667],[-0.1929166666666667,-0.22018518518518515],[-0.13114583333333332,-0.2707407407407407],[-0.13114583333333332,-0.2707407407407407],[-0.10270833333333336,-0.2759259259259259],[-0.08229166666666667,-0.29666666666666663],[-0.10499999999999995,-0.37351851851851847],[-0.11458333333333333,-0.41444444444444445],[-0.08406250000000005,-0.4759259259259259],[-0.04114583333333333,-0.5768518518518518],[-0.03833333333333329,-0.6164814814814814],[-0.10968749999999995,-0.615],[-0.1955208333333334,-0.6022222222222222],[-0.2202083333333333,-0.6035185185185185],[-0.24489583333333337,-0.6048148148148148],[-0.20375000000000001,-0.6088888888888889],[-0.1564583333333334,-0.5946296296296296],[-0.16458333333333333,-0.567037037037037],[-0.18624999999999994,-0.5781481481481481],[-0.2251041666666667,-0.53],[-0.23229166666666667,-0.4787037037037037],[-0.08875000000000005,-0.5572222222222222],[0.05479166666666669,-0.6357407407407407],[0.0834374999999999,-0.6837037037037037],[0.11208333333333324,-0.7316666666666667],[0.08291666666666657,-0.7612962962962964],[0.05281250000000005,-0.8233333333333334],[0.1009375000000001,-0.8794444444444444],[0.16083333333333344,-0.8216666666666667],[0.18302083333333338,-0.8344444444444444],[0.2400000000000001,-0.9098148148148149],[0.21666666666666667,-0.8725925925925926],[0.13020833333333334,-0.7948148148148148],[0.10083333333333329,-0.7851851851851852],[0.09166666666666666,-0.8190740740740741],[0.07822916666666657,-0.8146296296296296],[0.07322916666666662,-0.7705555555555555],[0.08458333333333339,-0.6381481481481482],[0.02010416666666662,-0.6724074074074075],[-0.07843749999999995,-0.7105555555555555],[-0.19520833333333332,-0.6809259259259259],[-0.19520833333333332,-0.6809259259259259],[-0.1594791666666667,-0.6412962962962964],[-0.06812499999999998,-0.6248148148148148],[0.00458333333333331,-0.6220370370370369],[-0.04739583333333333,-0.5637037037037037],[-0.059375,-0.529074074074074],[-0.059375,-0.529074074074074],[-0.044375000000000026,-0.4677777777777778],[-0.044375000000000026,-0.4677777777777778],[-0.042812500000000024,-0.5672222222222223],[0.022812499999999975,-0.6138888888888889],[0.022812499999999975,-0.6138888888888889],[0.17541666666666675,-0.5762962962962963]]","[[-0.22270833333333329,0.4777777777777778,0.00020000000298381337],[-0.22270833333333329,0.4777777777777778,0.035600000001494436],[-0.23968750000000003,0.5211111111111111,0.04680000000447393],[-0.23364583333333327,0.5859259259259259,0.06310000000149074],[-0.23364583333333327,0.5859259259259259,0.07820000000298677],[-0.2516666666666667,0.6187037037037038,0.09480000000447575],[-0.27062499999999995,0.6711111111111111,0.11189999999851352],[-0.2768749999999999,0.6953703703703704,0.12830000000447228],[-0.29270833333333335,0.7094444444444444,0.1448000000044729],[-0.30708333333333326,0.7514814814814814,0.16150000000000375],[-0.284375,0.7425925925925926,0.17849999999999966],[-0.26447916666666665,0.7533333333333333,0.1947000000029817],[-0.2827083333333333,0.7401851851851853,0.21139999999851256],[-0.2827083333333333,0.7401851851851853,0.2281000000014899],[-0.3008333333333333,0.7631481481481482,0.24480000000447433],[-0.32302083333333337,0.7972222222222223,0.2617000000029819],[-0.32864583333333336,0.8314814814814815,0.2791000000014918],[-0.3486458333333334,0.8372222222222223,0.2973000000044763],[-0.3686458333333333,0.842962962962963,0.3143000000044722],[-0.3686458333333333,0.842962962962963,0.33270000000297983],[-0.3533333333333334,0.8462962962962963,0.348399999998513],[-0.36822916666666666,0.819074074074074,0.36280000000447643],[-0.4063541666666667,0.8235185185185186,0.3781000000014956],[-0.43427083333333333,0.8451851851851852,0.3948000000044729],[-0.4210416666666667,0.8475925925925927,0.4113999999985154],[-0.43395833333333333,0.8507407407407407,0.42810000000149273],[-0.4348958333333333,0.8122222222222223,0.4447000000029817],[-0.4461458333333333,0.7777777777777778,0.46139999999851256],[-0.4461458333333333,0.7777777777777778,0.4781000000014899],[-0.47333333333333333,0.7829629629629629,0.4948000000044743],[-0.531875,0.8022222222222223,0.5113999999985097],[-0.5977083333333333,0.8099999999999999,0.5303000000044733],[-0.6106250000000001,0.7907407407407407,0.5448000000044715],[-0.6235416666666667,0.7714814814814815,0.561399999998514],[-0.6653125000000001,0.7735185185185186,0.5782000000029868],[-0.7070833333333333,0.7755555555555554,0.5948000000044757],[-0.6950000000000001,0.7564814814814815,0.6113999999985111],[-0.7008333333333333,0.7490740740740741,0.6281000000014956],[-0.708125,0.7503703703703705,0.6448000000044729],[-0.7033333333333334,0.6596296296296297,0.6613999999985154],[-0.6851041666666667,0.5868518518518518,0.6782000000029811],[-0.698125,0.557037037037037,0.6947000000029817],[-0.7338541666666667,0.5848148148148147,0.7113999999985126],[-0.7495833333333334,0.5601851851851852,0.7281000000014899],[-0.7440625,0.49370370370370376,0.7448000000044743],[-0.7229166666666667,0.4433333333333333,0.7615000000000052],[-0.7294791666666666,0.41333333333333344,0.7782000000029825],[-0.7392708333333334,0.3907407407407407,0.7947000000029831],[-0.7372916666666666,0.35537037037037034,0.811399999998514],[-0.7951041666666666,0.3918518518518519,0.8281000000014913],[-0.7991666666666667,0.37296296296296294,0.8447000000029803],[-0.8242708333333333,0.330925925925926,0.8613999999985111],[-0.849375,0.28888888888888886,0.8781000000014956],[-0.8527083333333334,0.262037037037037,0.8947000000029846],[-0.8145833333333333,0.21666666666666667,0.9113999999985154],[-0.7920833333333334,0.1551851851851851,0.9280000000000044],[-0.8079166666666667,0.14129629629629623,0.9448000000044701],[-0.8340625,0.13703703703703704,0.9613999999985126],[-0.8766666666666667,0.2081481481481481,0.9782000000029853],[-0.875625,0.27462962962962956,0.994700000002986],[-0.9287500000000001,0.3381481481481482,1.0113999999985097],[-0.9282291666666667,0.3764814814814814,1.0282000000029825],[-0.9263541666666666,0.42777777777777776,1.0447000000029831],[-0.9686458333333333,0.5007407407407407,1.0641000000014955],[-1.0523958333333332,0.5922222222222221,1.0781000000014913],[-1.1243750000000001,0.6783333333333332,1.0948000000044757],[-1.1580208333333333,0.7168518518518519,1.1113999999985111],[-1.1591666666666667,0.7337037037037037,1.1307000000029817],[-1.1416666666666666,0.7070370370370369,1.1447000000029846],[-1.1215625,0.6585185185185186,1.1613999999985154],[-1.083125,0.6362962962962964,1.178200000002981],[-1.0170833333333333,0.6444444444444445,1.1993000000044702],[-1.0170833333333333,0.6444444444444445,1.211500000000001],[-0.9523958333333333,0.6396296296296295,1.2282000000029853],[-0.9523958333333333,0.6396296296296295,1.244700000002986],[-0.8566666666666667,0.637962962962963,1.2613999999985097],[-0.8566666666666667,0.637962962962963,1.2781000000014942],[-0.725,0.6712962962962963,1.2948000000044715],[-0.725,0.6712962962962963,1.3115000000000023],[-0.6377083333333334,0.7448148148148149,1.3281000000014913],[-0.6377083333333334,0.7448148148148149,1.3448000000044757],[-0.58375,0.7459259259259259,1.3614999999999995],[-0.58375,0.7459259259259259,1.378200000002984],[-0.5101041666666667,0.7901851851851853,1.3947000000029846],[-0.44156249999999997,0.7453703703703703,1.4115000000000038],[-0.37562500000000004,0.7224074074074075,1.4281000000014927],[-0.3380208333333333,0.7512962962962964,1.44480000000447],[-0.28958333333333336,0.7277777777777777,1.461899999998515],[-0.24114583333333334,0.7042592592592591,1.4782000000029853],[-0.22916666666666666,0.7012962962962964,1.4948000000044743],[-0.253125,0.6633333333333334,1.5113999999985097],[-0.21354166666666666,0.5449999999999999,1.5280000000000058],[-0.140625,0.49907407407407406,1.5447000000029831],[-0.1326041666666666,0.444074074074074,1.561399999998514],[-0.12166666666666662,0.4462962962962963,1.5782000000029868],[-0.1046875,0.4535185185185185,1.5947000000029803],[-0.06479166666666672,0.4668518518518519,1.6113999999985111],[-0.08041666666666672,0.4677777777777778,1.6281000000014956],[-0.09604166666666672,0.46870370370370373,1.6447000000029846],[-0.08343750000000003,0.4398148148148148,1.6615000000000038],[-0.07083333333333333,0.41092592592592586,1.685200000002986],[-0.07083333333333333,0.41092592592592586,1.69480000000447],[-0.044479166666666715,0.3638888888888889,1.7116000000014964],[-0.019583333333333286,0.3485185185185186,1.72960000000149],[0.046875,0.252962962962963,1.7482000000029814],[0.06729166666666657,0.21722222222222215,1.7623000000044726],[0.07302083333333324,0.25555555555555554,1.778500000000001],[0.07458333333333324,0.2301851851851851,1.7986000000014926],[0.0787499999999999,0.15925925925925927,1.814399999998514],[0.10822916666666677,0.130925925925926,1.8293000000044728],[0.11729166666666657,0.1242592592592593,1.8448999999985105],[0.12843749999999995,0.039629629629629584,1.8637000000029857],[0.10458333333333343,0.07333333333333338,1.8783999999985141],[0.08572916666666662,0.09018518518518527,1.896300000004473],[0.04895833333333333,0.172037037037037,1.9115000000000038],[0.04739583333333333,0.27870370370370373,1.9311000000014928],[0.05447916666666662,0.30629629629629623,1.9447000000029817],[0.07531249999999995,0.272037037037037,1.964899999998515],[0.07531249999999995,0.272037037037037,1.981500000000004],[0.11489583333333328,0.29370370370370374,1.9950000000000045],[0.11552083333333343,0.2818518518518519,2.0130000000000052],[0.103125,0.22629629629629638,2.0316000000014967],[0.103125,0.22629629629629638,2.0448999999985134],[0.10625,0.26222222222222225,2.0616000000014907],[0.10625,0.26222222222222225,2.0785000000000053],[0.08135416666666657,0.2727777777777777,2.098300000004471],[0.044062499999999956,0.3199999999999999,2.1126000000014926],[0.0067708333333333336,0.3672222222222221,2.130500000000005],[-0.027083333333333334,0.32944444444444443,2.144800000004473],[-0.0609375,0.2916666666666667,2.1621000000014945],[-0.06031249999999998,0.32888888888888895,2.1781000000014927],[-0.11302083333333333,0.3787037037037037,2.1947000000029817],[-0.15687500000000001,0.4044444444444444,2.2113999999985126],[-0.1877083333333334,0.47388888888888886,2.2280000000000015],[-0.2313541666666667,0.5222222222222223,2.244700000002986],[-0.2563541666666667,0.5183333333333333,2.2630000000000052],[-0.2725,0.46296296296296297,2.278500000000001],[-0.3252083333333334,0.4866666666666666,2.297000000000004],[-0.3460416666666667,0.4170370370370371,2.3126000000014955],[-0.37947916666666665,0.45481481481481484,2.328000000000003],[-0.47385416666666663,0.47129629629629627,2.3448000000044757],[-0.549375,0.5011111111111112,2.3637000000029857],[-0.6201041666666666,0.5459259259259258,2.378600000001491],[-0.5935416666666666,0.5455555555555556,2.3947000000029846],[-0.5717708333333333,0.5527777777777778,2.4113000000044735],[-0.5609375,0.5937037037037037,2.4281000000014927],[-0.5501041666666667,0.6346296296296298,2.4447000000029817],[-0.5417708333333333,0.6407407407407407,2.4613999999985126],[-0.5579166666666667,0.7405555555555555,2.4820000000000064],[-0.5365625,0.6755555555555555,2.496600000001493],[-0.49291666666666667,0.6244444444444446,2.5113999999985097],[-0.4204166666666667,0.5768518518518518,2.5293000000044756],[-0.3519791666666666,0.5251851851851852,2.5448000000044715],[-0.38083333333333336,0.5187037037037038,2.563200000002986],[-0.3876041666666667,0.5094444444444445,2.578000000000003],[-0.38375,0.48944444444444435,2.5947000000029803],[-0.3754166666666666,0.5144444444444444,2.615300000004474],[-0.3282291666666667,0.42185185185185176,2.631200000002984],[-0.28104166666666663,0.3292592592592592,2.645000000000003],[-0.25875,0.294074074074074,2.661600000001492],[-0.21479166666666671,0.26444444444444437,2.6831000000014953],[-0.17697916666666663,0.1581481481481481,2.69780000000447],[-0.14020833333333335,0.11407407407407412,2.711899999998515],[-0.0889583333333333,0.0544444444444444,2.7282000000029853],[-0.033749999999999974,-0.003888888888888931,2.7448000000044743],[-0.00458333333333331,-0.04277777777777782,2.7613999999985097],[0.02010416666666662,-0.12666666666666662,2.7782000000029825],[0.005624999999999976,-0.14092592592592595,2.7948999999985134],[0.00947916666666669,-0.15,2.811399999998514],[0.01729166666666669,-0.18592592592592588,2.828000000000003],[0.0034374999999999527,-0.22740740740740742,2.8460000000000036],[-0.015104166666666667,-0.11388888888888889,2.8617000000029833],[-0.026250000000000048,-0.06796296296296295,2.8818999999985095],[-0.026250000000000048,-0.06796296296296295,2.8947000000029846],[-0.05406249999999998,-0.0338888888888888,2.9115000000000038],[-0.09614583333333329,-0.0544444444444444,2.9283000000044765],[-0.08364583333333328,-0.125,2.9468999999985144],[-0.09958333333333336,-0.16500000000000004,2.961500000000001],[-0.11031249999999998,-0.11351851851851855,2.9795000000000016],[-0.13927083333333337,-0.06666666666666667,2.9978999999985163],[-0.15437500000000004,-0.08907407407407411,3.0116000000014935],[-0.1694791666666667,-0.11148148148148146,3.028300000004471],[-0.17229166666666665,-0.18888888888888888,3.0448000000044715],[-0.17739583333333328,-0.25685185185185183,3.0648000000044746],[-0.17739583333333328,-0.25685185185185183,3.078300000004475],[-0.184375,-0.2616666666666667,3.095000000000006],[-0.23166666666666663,-0.19500000000000003,3.1143999999985112],[-0.2741666666666667,-0.14314814814814816,3.1302000000029864],[-0.2882291666666667,-0.12185185185185188,3.1448999999985148],[-0.23864583333333336,-0.15777777777777777,3.1638000000044713],[-0.20187499999999994,-0.23796296296296296,3.1788999999985137],[-0.2094791666666667,-0.16277777777777774,3.199399999998512],[-0.2094791666666667,-0.16277777777777774,3.2116000000014964],[-0.21708333333333332,-0.08759259259259261,3.22810000000149],[-0.21708333333333332,-0.08759259259259261,3.244700000002986],[-0.21770833333333334,-0.10018518518518522,3.2613999999985097],[-0.21770833333333334,-0.10018518518518522,3.2861000000014897],[-0.21458333333333332,-0.1366666666666667,3.294700000002983],[-0.21458333333333332,-0.1366666666666667,3.311399999998514],[-0.1929166666666667,-0.22018518518518515,3.3281000000014913],[-0.13114583333333332,-0.2707407407407407,3.348200000002983],[-0.13114583333333332,-0.2707407407407407,3.361399999998511],[-0.10270833333333336,-0.2759259259259259,3.378200000002984],[-0.08229166666666667,-0.29666666666666663,3.3947000000029846],[-0.10499999999999995,-0.37351851851851847,3.4113999999985154],[-0.11458333333333333,-0.41444444444444445,3.428200000002981],[-0.08406250000000005,-0.4759259259259259,3.445200000002984],[-0.04114583333333333,-0.5768518518518518,3.4613999999985126],[-0.03833333333333329,-0.6164814814814814,3.478899999998511],[-0.10968749999999995,-0.615,3.498100000001493],[-0.1955208333333334,-0.6022222222222222,3.515100000001496],[-0.2202083333333333,-0.6035185185185185,3.5303000000044733],[-0.24489583333333337,-0.6048148148148148,3.544700000002983],[-0.20375000000000001,-0.6088888888888889,3.561300000004472],[-0.1564583333333334,-0.5946296296296296,3.5781000000014913],[-0.16458333333333333,-0.567037037037037,3.5947000000029803],[-0.18624999999999994,-0.5781481481481481,3.611399999998511],[-0.2251041666666667,-0.53,3.628],[-0.23229166666666667,-0.4787037037037037,3.6447000000029846],[-0.08875000000000005,-0.5572222222222222,3.6613999999985154],[0.05479166666666669,-0.6357407407407407,3.678200000002981],[0.0834374999999999,-0.6837037037037037,3.6947000000029817],[0.11208333333333324,-0.7316666666666667,3.7113999999985126],[0.08291666666666657,-0.7612962962962964,3.72810000000149],[0.05281250000000005,-0.8233333333333334,3.744700000002986],[0.1009375000000001,-0.8794444444444444,3.7613999999985097],[0.16083333333333344,-0.8216666666666667,3.778500000000001],[0.18302083333333338,-0.8344444444444444,3.794700000002983],[0.2400000000000001,-0.9098148148148149,3.811399999998514],[0.21666666666666667,-0.8725925925925926,3.828000000000003],[0.13020833333333334,-0.7948148148148148,3.8447000000029803],[0.10083333333333329,-0.7851851851851852,3.8613000000044764],[0.09166666666666666,-0.8190740740740741,3.878200000002984],[0.07822916666666657,-0.8146296296296296,3.894600000001496],[0.07322916666666662,-0.7705555555555555,3.9113000000044735],[0.08458333333333339,-0.6381481481481482,3.9303999999985137],[0.02010416666666662,-0.6724074074074075,3.94480000000447],[-0.07843749999999995,-0.7105555555555555,3.9616000000014964],[-0.19520833333333332,-0.6809259259259259,3.9853000000044716],[-0.19520833333333332,-0.6809259259259259,3.9950000000000045],[-0.1594791666666667,-0.6412962962962964,4.011700000002982],[-0.06812499999999998,-0.6248148148148148,4.030000000000001],[0.00458333333333331,-0.6220370370370369,4.048399999998516],[-0.04739583333333333,-0.5637037037037037,4.063600000001493],[-0.059375,-0.529074074074074,4.079100000001496],[-0.059375,-0.529074074074074,4.111700000002983],[-0.044375000000000026,-0.4677777777777778,4.117899999998514],[-0.044375000000000026,-0.4677777777777778,4.128100000001496],[-0.042812500000000024,-0.5672222222222223,4.1447000000029846],[0.022812499999999975,-0.6138888888888889,4.1643999999985155],[0.022812499999999975,-0.6138888888888889,4.178200000002981],[0.17541666666666675,-0.5762962962962963,4.19480000000447]]","[0.00020000000298381337,0.035600000001494436,0.04680000000447393,0.06310000000149074,0.07820000000298677,0.09480000000447575,0.11189999999851352,0.12830000000447228,0.1448000000044729,0.16150000000000375,0.17849999999999966,0.1947000000029817,0.21139999999851256,0.2281000000014899,0.24480000000447433,0.2617000000029819,0.2791000000014918,0.2973000000044763,0.3143000000044722,0.33270000000297983,0.348399999998513,0.36280000000447643,0.3781000000014956,0.3948000000044729,0.4113999999985154,0.42810000000149273,0.4447000000029817,0.46139999999851256,0.4781000000014899,0.4948000000044743,0.5113999999985097,0.5303000000044733,0.5448000000044715,0.561399999998514,0.5782000000029868,0.5948000000044757,0.6113999999985111,0.6281000000014956,0.6448000000044729,0.6613999999985154,0.6782000000029811,0.6947000000029817,0.7113999999985126,0.7281000000014899,0.7448000000044743,0.7615000000000052,0.7782000000029825,0.7947000000029831,0.811399999998514,0.8281000000014913,0.8447000000029803,0.8613999999985111,0.8781000000014956,0.8947000000029846,0.9113999999985154,0.9280000000000044,0.9448000000044701,0.9613999999985126,0.9782000000029853,0.994700000002986,1.0113999999985097,1.0282000000029825,1.0447000000029831,1.0641000000014955,1.0781000000014913,1.0948000000044757,1.1113999999985111,1.1307000000029817,1.1447000000029846,1.1613999999985154,1.178200000002981,1.1993000000044702,1.211500000000001,1.2282000000029853,1.244700000002986,1.2613999999985097,1.2781000000014942,1.2948000000044715,1.3115000000000023,1.3281000000014913,1.3448000000044757,1.3614999999999995,1.378200000002984,1.3947000000029846,1.4115000000000038,1.4281000000014927,1.44480000000447,1.461899999998515,1.4782000000029853,1.4948000000044743,1.5113999999985097,1.5280000000000058,1.5447000000029831,1.561399999998514,1.5782000000029868,1.5947000000029803,1.6113999999985111,1.6281000000014956,1.6447000000029846,1.6615000000000038,1.685200000002986,1.69480000000447,1.7116000000014964,1.72960000000149,1.7482000000029814,1.7623000000044726,1.778500000000001,1.7986000000014926,1.814399999998514,1.8293000000044728,1.8448999999985105,1.8637000000029857,1.8783999999985141,1.896300000004473,1.9115000000000038,1.9311000000014928,1.9447000000029817,1.964899999998515,1.981500000000004,1.9950000000000045,2.0130000000000052,2.0316000000014967,2.0448999999985134,2.0616000000014907,2.0785000000000053,2.098300000004471,2.1126000000014926,2.130500000000005,2.144800000004473,2.1621000000014945,2.1781000000014927,2.1947000000029817,2.2113999999985126,2.2280000000000015,2.244700000002986,2.2630000000000052,2.278500000000001,2.297000000000004,2.3126000000014955,2.328000000000003,2.3448000000044757,2.3637000000029857,2.378600000001491,2.3947000000029846,2.4113000000044735,2.4281000000014927,2.4447000000029817,2.4613999999985126,2.4820000000000064,2.496600000001493,2.5113999999985097,2.5293000000044756,2.5448000000044715,2.563200000002986,2.578000000000003,2.5947000000029803,2.615300000004474,2.631200000002984,2.645000000000003,2.661600000001492,2.6831000000014953,2.69780000000447,2.711899999998515,2.7282000000029853,2.7448000000044743,2.7613999999985097,2.7782000000029825,2.7948999999985134,2.811399999998514,2.828000000000003,2.8460000000000036,2.8617000000029833,2.8818999999985095,2.8947000000029846,2.9115000000000038,2.9283000000044765,2.9468999999985144,2.961500000000001,2.9795000000000016,2.9978999999985163,3.0116000000014935,3.028300000004471,3.0448000000044715,3.0648000000044746,3.078300000004475,3.095000000000006,3.1143999999985112,3.1302000000029864,3.1448999999985148,3.1638000000044713,3.1788999999985137,3.199399999998512,3.2116000000014964,3.22810000000149,3.244700000002986,3.2613999999985097,3.2861000000014897,3.294700000002983,3.311399999998514,3.3281000000014913,3.348200000002983,3.361399999998511,3.378200000002984,3.3947000000029846,3.4113999999985154,3.428200000002981,3.445200000002984,3.4613999999985126,3.478899999998511,3.498100000001493,3.515100000001496,3.5303000000044733,3.544700000002983,3.561300000004472,3.5781000000014913,3.5947000000029803,3.611399999998511,3.628,3.6447000000029846,3.6613999999985154,3.678200000002981,3.6947000000029817,3.7113999999985126,3.72810000000149,3.744700000002986,3.7613999999985097,3.778500000000001,3.794700000002983,3.811399999998514,3.828000000000003,3.8447000000029803,3.8613000000044764,3.878200000002984,3.894600000001496,3.9113000000044735,3.9303999999985137,3.94480000000447,3.9616000000014964,3.9853000000044716,3.9950000000000045,4.011700000002982,4.030000000000001,4.048399999998516,4.063600000001493,4.079100000001496,4.111700000002983,4.117899999998514,4.128100000001496,4.1447000000029846,4.1643999999985155,4.178200000002981,4.19480000000447]","[1733292082539,1733292082568,1733292082579,1733292082595,1733292082610,1733292082627,1733292082644,1733292082660,1733292082677,1733292082693,1733292082710,1733292082727,1733292082743,1733292082760,1733292082777,1733292082794,1733292082811,1733292082829,1733292082846,1733292082865,1733292082880,1733292082895,1733292082910,1733292082927,1733292082943,1733292082960,1733292082977,1733292082993,1733292083010,1733292083027,1733292083043,1733292083062,1733292083077,1733292083093,1733292083110,1733292083127,1733292083143,1733292083160,1733292083177,1733292083193,1733292083210,1733292083227,1733292083243,1733292083260,1733292083277,1733292083293,1733292083310,1733292083327,1733292083343,1733292083360,1733292083377,1733292083393,1733292083410,1733292083427,1733292083443,1733292083460,1733292083477,1733292083493,1733292083510,1733292083527,1733292083543,1733292083560,1733292083577,1733292083596,1733292083610,1733292083627,1733292083643,1733292083663,1733292083677,1733292083693,1733292083710,1733292083731,1733292083743,1733292083760,1733292083777,1733292083793,1733292083810,1733292083827,1733292083843,1733292083860,1733292083877,1733292083893,1733292083910,1733292083927,1733292083943,1733292083960,1733292083977,1733292083994,1733292084010,1733292084027,1733292084043,1733292084060,1733292084077,1733292084093,1733292084110,1733292084127,1733292084143,1733292084160,1733292084177,1733292084193,1733292084217,1733292084227,1733292084244,1733292084262,1733292084280,1733292084294,1733292084313,1733292084333,1733292084349,1733292084364,1733292084379,1733292084398,1733292084413,1733292084430,1733292084446,1733292084465,1733292084479,1733292084499,1733292084516,1733292084529,1733292084547,1733292084566,1733292084579,1733292084596,1733292084613,1733292084632,1733292084647,1733292084665,1733292084679,1733292084696,1733292084712,1733292084729,1733292084746,1733292084762,1733292084779,1733292084797,1733292084813,1733292084831,1733292084847,1733292084862,1733292084879,1733292084898,1733292084913,1733292084929,1733292084946,1733292084962,1733292084979,1733292084996,1733292085016,1733292085031,1733292085046,1733292085063,1733292085079,1733292085097,1733292085112,1733292085129,1733292085149,1733292085165,1733292085179,1733292085196,1733292085217,1733292085232,1733292085246,1733292085262,1733292085279,1733292085296,1733292085312,1733292085329,1733292085346,1733292085362,1733292085380,1733292085396,1733292085416,1733292085429,1733292085446,1733292085463,1733292085481,1733292085496,1733292085514,1733292085532,1733292085546,1733292085562,1733292085579,1733292085599,1733292085612,1733292085629,1733292085649,1733292085664,1733292085679,1733292085698,1733292085713,1733292085734,1733292085746,1733292085762,1733292085779,1733292085796,1733292085820,1733292085829,1733292085846,1733292085862,1733292085882,1733292085896,1733292085912,1733292085929,1733292085946,1733292085962,1733292085979,1733292085996,1733292086013,1733292086032,1733292086049,1733292086064,1733292086079,1733292086096,1733292086112,1733292086129,1733292086146,1733292086162,1733292086179,1733292086196,1733292086212,1733292086229,1733292086246,1733292086262,1733292086279,1733292086296,1733292086313,1733292086329,1733292086346,1733292086362,1733292086379,1733292086396,1733292086412,1733292086429,1733292086446,1733292086465,1733292086479,1733292086496,1733292086520,1733292086529,1733292086546,1733292086564,1733292086583,1733292086598,1733292086613,1733292086646,1733292086652,1733292086662,1733292086679,1733292086699,1733292086712,1733292086729]","[[746.2,798],[746.2,798],[729.9,821.4],[735.7,856.4],[735.7,856.4],[718.4,874.1],[700.2,902.4],[694.2,915.5],[679,923.1],[665.2,945.8],[687,941],[706.1,946.8],[688.6,939.7],[688.6,939.7],[671.2,952.1],[649.9,970.5],[644.5,989],[625.3,992.1],[606.1,995.2],[606.1,995.2],[620.8,997],[606.5,982.3],[569.9,984.7],[543.1,996.4],[555.8,997.7],[543.4,999.4],[542.5,978.6],[531.7,960],[531.7,960],[505.6,962.8],[449.4,973.2],[386.2,977.4],[373.8,967],[361.4,956.6],[321.3,957.7],[281.2,958.8],[292.8,948.5],[287.2,944.5],[280.2,945.2],[284.8,896.2],[302.3,856.9],[289.8,840.8],[255.5,855.8],[240.4,842.5],[245.7,806.6],[266,779.4],[259.7,763.2],[250.3,751],[252.2,731.9],[196.7,751.6],[192.8,741.4],[168.7,718.7],[144.6,696],[141.4,681.5],[178,657],[199.6,623.8],[184.4,616.3],[159.3,614],[118.4,652.4],[119.4,688.3],[68.4,722.6],[68.9,743.3],[70.7,771],[30.1,810.4],[-50.3,859.8],[-119.4,906.3],[-151.7,927.1],[-152.8,936.2],[-136,921.8],[-116.7,895.6],[-79.8,883.6],[-16.4,888],[-16.4,888],[45.7,885.4],[45.7,885.4],[137.6,884.5],[137.6,884.5],[264,902.5],[264,902.5],[347.8,942.2],[347.8,942.2],[399.6,942.8],[399.6,942.8],[470.3,966.7],[536.1,942.5],[599.4,930.1],[635.5,945.7],[682,933],[728.5,920.3],[740,918.7],[717,898.2],[755,834.3],[825,809.5],[832.7,779.8],[843.2,781],[859.5,784.9],[897.8,792.1],[882.8,792.6],[867.8,793.1],[879.9,777.5],[892,761.9],[892,761.9],[917.3,736.5],[941.2,728.2],[1005,676.6],[1024.6,657.3],[1030.1,678],[1031.6,664.3],[1035.6,626],[1063.9,610.7],[1072.6,607.1],[1083.3,561.4],[1060.4,579.6],[1042.3,588.7],[1007,632.9],[1005.5,690.5],[1012.3,705.4],[1032.3,686.9],[1032.3,686.9],[1070.3,698.6],[1070.9,692.2],[1059,662.2],[1059,662.2],[1062,681.6],[1062,681.6],[1038.1,687.3],[1002.3,712.8],[966.5,738.3],[934,717.9],[901.5,697.5],[902.1,717.6],[851.5,744.5],[809.4,758.4],[779.8,795.9],[737.9,822],[713.9,819.9],[698.4,790],[647.8,802.8],[627.8,765.2],[595.7,785.6],[505.1,794.5],[432.6,810.6],[364.7,834.8],[390.2,834.6],[411.1,838.5],[421.5,860.6],[431.9,882.7],[439.9,886],[424.4,939.9],[444.9,904.8],[486.8,877.2],[556.4,851.5],[622.1,823.6],[594.4,820.1],[587.9,815.1],[591.6,804.3],[599.6,817.8],[644.9,767.8],[690.2,717.8],[711.6,698.8],[753.8,682.8],[790.1,625.4],[825.4,601.6],[874.6,569.4],[927.6,537.9],[955.6,516.9],[979.3,471.6],[965.4,463.9],[969.1,459],[976.6,439.6],[963.3,417.2],[945.5,478.5],[934.8,503.3],[934.8,503.3],[908.1,521.7],[867.7,510.6],[879.7,472.5],[864.4,450.9],[854.1,478.7],[826.3,504],[811.8,491.9],[797.3,479.8],[794.6,438],[789.7,401.3],[789.7,401.3],[783,398.7],[737.6,434.7],[696.8,462.7],[683.3,474.2],[730.9,454.8],[766.2,411.5],[758.9,452.1],[758.9,452.1],[751.6,492.7],[751.6,492.7],[751,485.9],[751,485.9],[754,466.2],[754,466.2],[774.8,421.1],[834.1,393.8],[834.1,393.8],[861.4,391],[881,379.8],[859.2,338.3],[850,316.2],[879.3,283],[920.5,228.5],[923.2,207.1],[854.7,207.9],[772.3,214.8],[748.6,214.1],[724.9,213.4],[764.4,211.2],[809.8,218.9],[802,233.8],[781.2,227.8],[743.9,253.8],[737,281.5],[874.8,239.1],[1012.6,196.7],[1040.1,170.8],[1067.6,144.9],[1039.6,128.9],[1010.7,95.4],[1056.9,65.1],[1114.4,96.3],[1135.7,89.4],[1190.4,48.7],[1168,68.8],[1085,110.8],[1056.8,116],[1048,97.7],[1035.1,100.1],[1030.3,123.9],[1041.2,195.4],[979.3,176.9],[884.7,156.3],[772.6,172.3],[772.6,172.3],[806.9,193.7],[894.6,202.6],[964.4,204.1],[914.5,235.6],[903,254.3],[903,254.3],[917.4,287.4],[917.4,287.4],[918.9,233.7],[981.9,208.5],[981.9,208.5],[1128.4,228.8]]","[0,0.3527331528]","[0.3527331528,0.3527331528]","[-0.3527331528,-0.3527331528]","[-0.3527331528,0]","[0,-0.3527331528]","[0.3527331528,-0.3527331528]","[0,0]","[0.3527331528,0]",0,0,0,0,1,3,Tablet,11,9,9,1
,,,,,,,,,,,,,,,,,,,40,001,2024-12-04_14h00.39.913,Attention_exp_legacy,2023.1.0,Win32,59.88023952,,,,,,,,,,,[0.0625],[0.35185185185185186],[1],[0],[0],[3.0625999999940348],"[""Option1_label""]",Option1_label,2,4.0804,"[[-0.013541666666666667,0.35],[-0.013541666666666667,0.35],[-0.013541666666666667,0.35],[-0.013541666666666667,0.35],[-0.013541666666666667,0.35],[-0.013541666666666667,0.35],[-0.013541666666666667,0.35],[-0.013541666666666667,0.35],[-0.013541666666666667,0.35],[-0.013541666666666667,0.35],[-0.013541666666666667,0.35],[-0.013541666666666667,0.35],[-0.013541666666666667,0.35],[-0.013541666666666667,0.35],[-0.013541666666666667,0.35],[-0.013541666666666667,0.35],[-0.013541666666666667,0.35],[-0.013541666666666667,0.35],[-0.013541666666666667,0.35],[-0.013541666666666667,0.35],[-0.013541666666666667,0.35],[-0.013541666666666667,0.35],[-0.013541666666666667,0.35],[-0.013541666666666667,0.35],[-0.013541666666666667,0.35],[-0.013541666666666667,0.35],[-0.013541666666666667,0.35],[-0.013541666666666667,0.35],[-0.013541666666666667,0.35],[-0.013541666666666667,0.35],[-0.013541666666666667,0.35],[-0.013541666666666667,0.35],[-0.013541666666666667,0.35],[-0.013541666666666667,0.35],[-0.013541666666666667,0.35],[-0.013541666666666667,0.35],[-0.013541666666666667,0.35],[-0.013541666666666667,0.35],[-0.013541666666666667,0.35],[-0.013541666666666667,0.35],[-0.013541666666666667,0.35],[-0.013541666666666667,0.35],[-0.013541666666666667,0.35],[-0.013541666666666667,0.35],[-0.013541666666666667,0.35],[-0.013541666666666667,0.35],[-0.013541666666666667,0.35],[-0.013541666666666667,0.35],[-0.013541666666666667,0.35],[-0.013541666666666667,0.35],[-0.013541666666666667,0.35],[-0.013541666666666667,0.35],[-0.013541666666666667,0.35],[-0.013541666666666667,0.35],[-0.013541666666666667,0.35],[-0.013541666666666667,0.35],[-0.013541666666666667,0.35],[-0.013541666666666667,0.35],[-0.013541666666666667,0.35],[-0.013541666666666667,0.35],[-0.013541666666666667,0.35],[-0.013541666666666667,0.35],[-0.013541666666666667,0.35],[-0.013541666666666667,0.35],[-0.013541666666666667,0.35],[-0.013541666666666667,0.35],[-0.013541666666666667,0.35],[-0.013541666666666667,0.35],[-0.013541666666666667,0.35],[-0.013541666666666667,0.35],[-0.013541666666666667,0.35],[-0.013541666666666667,0.35],[-0.013541666666666667,0.35],[-0.013541666666666667,0.35],[-0.013541666666666667,0.35],[-0.013541666666666667,0.35],[-0.013541666666666667,0.35],[-0.013541666666666667,0.35],[-0.013541666666666667,0.35],[-0.013541666666666667,0.35],[-0.013541666666666667,0.35],[-0.013541666666666667,0.35],[-0.013541666666666667,0.35],[-0.013541666666666667,0.35],[-0.013541666666666667,0.35],[-0.013541666666666667,0.35],[-0.013541666666666667,0.35],[-0.013541666666666667,0.35],[-0.013541666666666667,0.35],[-0.013541666666666667,0.35],[-0.013541666666666667,0.35],[-0.013541666666666667,0.35],[-0.013541666666666667,0.35],[-0.013541666666666667,0.35],[-0.013541666666666667,0.35],[-0.013541666666666667,0.35],[-0.013541666666666667,0.35],[-0.013541666666666667,0.35],[-0.013541666666666667,0.35],[-0.013541666666666667,0.35],[-0.013541666666666667,0.35],[-0.013541666666666667,0.35],[-0.013541666666666667,0.35],[-0.013541666666666667,0.35],[-0.013541666666666667,0.35],[-0.013541666666666667,0.35],[-0.013541666666666667,0.35],[-0.013541666666666667,0.35],[-0.013541666666666667,0.35],[-0.013541666666666667,0.35],[-0.013541666666666667,0.35],[-0.013541666666666667,0.35],[-0.013541666666666667,0.35],[-0.013541666666666667,0.35],[-0.013541666666666667,0.35],[-0.013541666666666667,0.35],[-0.013541666666666667,0.35],[-0.013541666666666667,0.35],[-0.013541666666666667,0.35],[-0.013541666666666667,0.35],[-0.013541666666666667,0.35],[-0.013541666666666667,0.35],[-0.013541666666666667,0.35],[-0.010416666666666666,0.35],[0.011458333333333333,0.35185185185185186],[0.04479166666666667,0.3611111111111111],[0.09583333333333334,0.3611111111111111],[0.13854166666666667,0.3611111111111111],[0.17708333333333334,0.3611111111111111],[0.21770833333333334,0.3611111111111111],[0.22708333333333333,0.3611111111111111],[0.23854166666666668,0.3611111111111111],[0.25,0.3592592592592593],[0.2552083333333333,0.3574074074074074],[0.25833333333333336,0.3574074074074074],[0.2625,0.3537037037037037],[0.26875,0.35],[0.275,0.34444444444444444],[0.28229166666666666,0.3388888888888889],[0.2875,0.3351851851851852],[0.28958333333333336,0.3333333333333333],[0.290625,0.3333333333333333],[0.2916666666666667,0.3333333333333333],[0.29270833333333335,0.3333333333333333],[0.29375,0.3314814814814815],[0.29375,0.3314814814814815],[0.29375,0.3314814814814815],[0.29375,0.3314814814814815],[0.29375,0.3314814814814815],[0.29375,0.3314814814814815],[0.29375,0.3314814814814815],[0.29375,0.3314814814814815],[0.29375,0.3314814814814815],[0.29375,0.3314814814814815],[0.29375,0.3314814814814815],[0.29375,0.3314814814814815],[0.29375,0.3314814814814815],[0.29375,0.3314814814814815],[0.29270833333333335,0.3333333333333333],[0.2708333333333333,0.3425925925925926],[0.24791666666666667,0.34814814814814815],[0.22708333333333333,0.34814814814814815],[0.21041666666666667,0.34814814814814815],[0.20208333333333334,0.34814814814814815],[0.2,0.34814814814814815],[0.196875,0.34814814814814815],[0.19270833333333334,0.34814814814814815],[0.175,0.34814814814814815],[0.13645833333333332,0.34814814814814815],[0.109375,0.34814814814814815],[0.08854166666666667,0.34814814814814815],[0.078125,0.34814814814814815],[0.06979166666666667,0.35],[0.06770833333333333,0.35],[0.06666666666666667,0.35],[0.065625,0.35],[0.06458333333333334,0.35185185185185186],[0.06354166666666666,0.35185185185185186],[0.0625,0.35185185185185186],[0.0625,0.35185185185185186],[0.0625,0.35185185185185186],[0.0625,0.35185185185185186],[0.0625,0.35185185185185186],[0.0625,0.35185185185185186],[0.0625,0.35185185185185186],[0.0625,0.35185185185185186],[0.0625,0.35185185185185186],[0.0625,0.35185185185185186],[0.0625,0.35185185185185186],[0.0625,0.35185185185185186],[0.0625,0.35185185185185186],[0.0625,0.35185185185185186],[0.0625,0.35185185185185186],[0.0625,0.35185185185185186],[0.0625,0.35185185185185186],[0.0625,0.35185185185185186],[0.0625,0.35185185185185186],[0.0625,0.35185185185185186],[0.0625,0.35185185185185186],[0.0625,0.35185185185185186],[0.0625,0.35185185185185186],[0.0625,0.35185185185185186],[0.0625,0.35185185185185186],[0.0625,0.35185185185185186],[0.0625,0.35185185185185186],[0.0625,0.35185185185185186],[0.0625,0.35185185185185186],[0.0625,0.35185185185185186],[0.0625,0.35185185185185186],[0.0625,0.35185185185185186],[0.0625,0.35185185185185186],[0.0625,0.35185185185185186],[0.0625,0.35185185185185186],[0.0625,0.35185185185185186],[0.0625,0.35185185185185186],[0.0625,0.35185185185185186],[0.0625,0.35185185185185186],[0.0625,0.35185185185185186],[0.0625,0.35185185185185186],[0.0625,0.35185185185185186],[0.0625,0.35185185185185186],[0.0625,0.35185185185185186],[0.0625,0.35185185185185186],[0.0625,0.35185185185185186],[0.0625,0.35185185185185186],[0.0625,0.35185185185185186],[0.0625,0.35185185185185186],[0.0625,0.35185185185185186],[0.0625,0.35185185185185186],[0.0625,0.35185185185185186],[0.0625,0.35185185185185186],[0.0625,0.35185185185185186],[0.0625,0.35185185185185186],[0.0625,0.35185185185185186],[0.0625,0.35185185185185186],[0.0625,0.35185185185185186],[0.0625,0.35185185185185186],[0.0625,0.35185185185185186],[0.0625,0.35185185185185186],[0.0625,0.35185185185185186],[0.0625,0.35185185185185186],[0.0625,0.35185185185185186],[0.0625,0.35185185185185186],[0.0625,0.35185185185185186],[0.0625,0.35185185185185186],[0.0625,0.35185185185185186]]","[[-0.18614583333333337,0.02388888888888885],[-0.18614583333333337,0.02388888888888885],[-0.2045833333333333,-0.03129629629629625],[-0.2045833333333333,-0.03129629629629625],[-0.234375,-0.03333333333333333],[-0.234375,-0.03333333333333333],[-0.26187499999999997,0.00722222222222218],[-0.26187499999999997,0.00722222222222218],[-0.2423958333333334,-0.05555555555555555],[-0.2423958333333334,-0.05555555555555555],[-0.25885416666666666,-0.08148148148148149],[-0.25885416666666666,-0.08148148148148149],[-0.29750000000000004,-0.0507407407407407],[-0.3116666666666667,-0.049629629629629544],[-0.3139583333333333,-0.09685185185185187],[-0.2726041666666667,-0.2212962962962963],[-0.2663541666666667,-0.20870370370370367],[-0.2594791666666667,-0.17740740740740743],[-0.24833333333333332,-0.21944444444444444],[-0.24010416666666667,-0.3127777777777777],[-0.3408333333333334,-0.2687037037037037],[-0.3977083333333333,-0.22259259259259256],[-0.36218750000000005,-0.27462962962962967],[-0.3580208333333334,-0.29740740740740745],[-0.38250000000000006,-0.29740740740740745],[-0.450625,-0.22018518518518515],[-0.4360416666666667,-0.2918518518518519],[-0.46458333333333335,-0.33722222222222226],[-0.49104166666666665,-0.3190740740740741],[-0.49104166666666665,-0.3190740740740741],[-0.5456249999999999,-0.2705555555555556],[-0.5053125,-0.3103703703703704],[-0.46499999999999997,-0.3501851851851852],[-0.4715625,-0.3987037037037037],[-0.47125,-0.4468518518518519],[-0.4575000000000001,-0.4607407407407408],[-0.4532291666666667,-0.4844444444444445],[-0.48520833333333335,-0.42314814814814816],[-0.4746875,-0.40685185185185185],[-0.4435416666666666,-0.45037037037037037],[-0.41427083333333337,-0.47981481481481486],[-0.4170833333333333,-0.4705555555555556],[-0.40593750000000006,-0.44351851851851853],[-0.42291666666666666,-0.3757407407407407],[-0.4236458333333334,-0.2742592592592593],[-0.4091666666666666,-0.22981481481481486],[-0.4197916666666667,-0.2022222222222222],[-0.42239583333333336,-0.18648148148148147],[-0.44375,-0.11259259259259262],[-0.4786458333333333,-0.01962962962962967],[-0.46697916666666667,0.005185185185185101],[-0.4454166666666667,0.034074074074074034],[-0.42218749999999994,0.03759259259259251],[-0.39895833333333336,0.041111111111111195],[-0.34343750000000006,-0.05388888888888893],[-0.28791666666666665,-0.14888888888888885],[-0.22552083333333334,-0.15722222222222218],[-0.19895833333333332,-0.18666666666666668],[-0.15364583333333334,-0.2742592592592593],[-0.11937500000000002,-0.3453703703703704],[-0.1297916666666667,-0.3624074074074074],[-0.13166666666666665,-0.3646296296296296],[-0.14916666666666673,-0.3592592592592593],[-0.16906249999999995,-0.392037037037037],[-0.22989583333333338,-0.3742592592592593],[-0.2907291666666667,-0.35648148148148145],[-0.30708333333333326,-0.40499999999999997],[-0.2876041666666667,-0.4324074074074074],[-0.2752083333333334,-0.43555555555555553],[-0.2517708333333334,-0.4551851851851852],[-0.2604166666666667,-0.3957407407407407],[-0.27760416666666665,-0.35111111111111115],[-0.25968749999999996,-0.3405555555555555],[-0.23927083333333338,-0.29370370370370374],[-0.22708333333333333,-0.2175925925925926],[-0.21489583333333329,-0.14148148148148143],[-0.22218749999999995,-0.1037037037037037],[-0.22218749999999995,-0.1037037037037037],[-0.22947916666666662,-0.06592592592592597],[-0.20281250000000003,-0.00592592592592601],[-0.17614583333333336,0.054074074074074156],[-0.19822916666666662,0.069074074074074],[-0.2203125,0.08407407407407404],[-0.2061458333333333,0.12092592592592584],[-0.17625000000000005,0.14129629629629623],[-0.15677083333333333,0.16629629629629622],[-0.20708333333333329,0.222037037037037],[-0.19406249999999994,0.23722222222222225],[-0.17052083333333337,0.3292592592592592],[-0.17385416666666664,0.37481481481481477],[-0.17593749999999997,0.43796296296296294],[-0.07135416666666666,0.4812962962962963],[0.06124999999999995,0.4607407407407407],[0.13864583333333325,0.46277777777777773],[0.21666666666666667,0.44296296296296306],[0.3351041666666667,0.3675925925925926],[0.51125,0.2953703703703704],[0.6267708333333334,0.30833333333333335],[0.7542708333333332,0.19685185185185178],[0.8983333333333334,0.06666666666666667],[0.9888541666666666,-0.06222222222222226],[0.9888541666666666,-0.06222222222222226],[1.0535416666666668,-0.20537037037037034],[1.0515625,-0.23925925925925923],[1.0334375,-0.28351851851851856],[1.0088541666666666,-0.31351851851851853],[0.9548958333333334,-0.30759259259259264],[0.8965625,-0.3638888888888889],[0.8382291666666667,-0.42018518518518516],[0.7421875,-0.37537037037037035],[0.6295833333333334,-0.3118518518518518],[0.6099999999999999,-0.2855555555555555],[0.615625,-0.27092592592592596],[0.6598958333333333,-0.30166666666666664],[0.6570833333333332,-0.3327777777777778],[0.6442708333333333,-0.33796296296296297],[0.6611458333333334,-0.3562962962962963],[0.6944791666666668,-0.34629629629629627],[0.7125,-0.2992592592592593],[0.7457291666666668,-0.30574074074074076],[0.7457291666666668,-0.30574074074074076],[0.7672916666666666,-0.35611111111111116],[0.7672916666666666,-0.35611111111111116],[0.7472916666666668,-0.3264814814814815],[0.7472916666666668,-0.3264814814814815],[0.6580208333333334,-0.3424074074074074],[0.5553124999999999,-0.40666666666666673],[0.5553124999999999,-0.40666666666666673],[0.5087500000000001,-0.4059259259259259],[0.4887500000000001,-0.4137037037037037],[0.4887500000000001,-0.4137037037037037],[0.4247916666666666,-0.3998148148148148],[0.3770833333333333,-0.36148148148148146],[0.2943749999999999,-0.33537037037037043],[0.2493750000000001,-0.357962962962963],[0.19177083333333325,-0.31425925925925924],[0.1349999999999999,-0.3322222222222222],[0.10333333333333337,-0.2322222222222222],[0.10708333333333328,-0.10185185185185185],[0.10177083333333338,-0.03611111111111111],[0.06520833333333335,0.002407407407407323],[0.042916666666666714,0.032407407407407406],[-0.016250000000000025,0.006666666666666709],[-0.02510416666666669,-0.04388888888888897],[-0.003854166666666714,-0.06185185185185181],[0.002916666666666619,-0.06351851851851854],[0.03302083333333338,-0.06370370370370367],[0.08208333333333329,-0.12462962962962965],[0.07614583333333323,-0.15314814814814812],[0.07614583333333323,-0.15314814814814812],[0.07270833333333329,-0.20851851851851855],[0.11500000000000009,-0.2548148148148149],[0.1556250000000001,-0.31500000000000006],[0.196875,-0.3118518518518518],[0.2381249999999999,-0.3087037037037037],[0.23104166666666662,-0.182962962962963],[0.2627083333333334,-0.09592592592592594],[0.2652083333333332,-0.021296296296296296],[0.2677083333333333,0.05333333333333325],[0.29177083333333326,0.010925925925925884],[0.30499999999999994,0.013333333333333417],[0.2771874999999999,0.042407407407407366],[0.2730208333333332,0.07759259259259255],[0.28312499999999996,0.12240740740740745],[0.2730208333333332,0.054074074074074156],[0.26416666666666655,-0.12833333333333335],[0.22062499999999996,-0.28481481481481485],[0.18937499999999996,-0.37759259259259254],[0.13270833333333343,-0.5281481481481481],[0.12395833333333334,-0.5216666666666666],[0.09249999999999996,-0.5427777777777778],[0.06104166666666669,-0.5638888888888889],[0.06104166666666669,-0.5638888888888889],[-0.012187500000000047,-0.5801851851851852],[-0.012187500000000047,-0.5801851851851852],[-0.04552083333333338,-0.6175925925925926],[-0.04812500000000005,-0.5485185185185185],[-0.07645833333333331,-0.447037037037037],[-0.07010416666666662,-0.3714814814814815],[-0.043020833333333286,-0.3785185185185185],[0.00947916666666669,-0.3277777777777778],[-0.003958333333333286,-0.3242592592592593],[0.013645833333333357,-0.3111111111111111],[0.05333333333333338,-0.31370370370370365],[0.11281249999999995,-0.3133333333333333],[0.11416666666666657,-0.31851851851851853],[0.1165625000000001,-0.33796296296296297],[0.12395833333333334,-0.3822222222222222],[0.11124999999999995,-0.37537037037037035],[0.0875,-0.37],[0.0818749999999999,-0.3861111111111111],[0.10572916666666667,-0.4094444444444445],[0.1318749999999999,-0.4624074074074074],[0.11593749999999996,-0.4505555555555556],[0.08104166666666662,-0.4044444444444444],[0.07010416666666662,-0.37333333333333335],[0.03572916666666662,-0.29240740740740734],[-0.0003124999999999526,-0.21944444444444444],[0.04468749999999998,-0.31592592592592594],[0.07354166666666657,-0.3811111111111111],[0.0818749999999999,-0.4242592592592593],[0.02364583333333338,-0.4287037037037037],[-0.03687499999999998,-0.4035185185185185],[-0.05010416666666669,-0.40259259259259256],[-0.0703125,-0.4111111111111111],[-0.08197916666666671,-0.4148148148148148],[-0.06968749999999997,-0.4564814814814815],[-0.050520833333333334,-0.5253703703703704],[-0.12270833333333328,-0.46148148148148144],[-0.19489583333333335,-0.39759259259259255],[-0.24624999999999997,-0.2742592592592593],[-0.23104166666666662,-0.1896296296296296],[-0.18708333333333335,-0.2270370370370371],[-0.17864583333333334,-0.27685185185185185],[-0.1508333333333333,-0.24277777777777781],[-0.13156249999999994,-0.21351851851851855],[-0.12364583333333339,-0.2644444444444445],[-0.13937499999999994,-0.2844444444444445],[-0.12124999999999998,-0.3020370370370371],[-0.10260416666666666,-0.31148148148148147],[-0.13322916666666665,-0.3598148148148148],[-0.13156249999999994,-0.4301851851851852],[-0.17302083333333335,-0.3527777777777778],[-0.20625,-0.28777777777777774],[-0.2329166666666667,-0.3314814814814815],[-0.27708333333333335,-0.36500000000000005],[-0.31052083333333336,-0.32629629629629625],[-0.3195833333333333,-0.297037037037037],[-0.3320833333333333,-0.2846296296296296],[-0.36343749999999997,-0.2794444444444444],[-0.3601041666666667,-0.2559259259259259],[-0.3890625,-0.2103703703703704],[-0.37093750000000003,-0.2442592592592592],[-0.37093750000000003,-0.2442592592592592],[-0.35281250000000003,-0.27814814814814814],[-0.35093749999999996,-0.2957407407407407],[-0.32843749999999994,-0.32018518518518513],[-0.3173958333333334,-0.32759259259259255],[-0.33406250000000004,-0.34333333333333327],[-0.36781250000000004,-0.32388888888888884],[-0.36781250000000004,-0.32388888888888884],[-0.3763541666666666,-0.287962962962963],[-0.3763541666666666,-0.287962962962963],[-0.3975,-0.2881481481481482],[-0.3975,-0.2881481481481482],[-0.4234375,-0.2740740740740741]]","[[-0.18614583333333337,0.02388888888888885,0],[-0.18614583333333337,0.02388888888888885,0.013699999995530732],[-0.2045833333333333,-0.03129629629629625,0.03029999999701971],[-0.2045833333333333,-0.03129629629629625,0.047100000001492504],[-0.234375,-0.03333333333333333,0.06369999999552789],[-0.234375,-0.03333333333333333,0.08039999999851233],[-0.26187499999999997,0.00722222222222218,0.09700000000000131],[-0.26187499999999997,0.00722222222222218,0.11369999999553215],[-0.2423958333333334,-0.05555555555555555,0.13050000000000495],[-0.2423958333333334,-0.05555555555555555,0.14710000000149392],[-0.25885416666666666,-0.08148148148148149,0.16360000000149455],[-0.25885416666666666,-0.08148148148148149,0.18089999999850903],[-0.29750000000000004,-0.0507407407407407,0.19700000000000273],[-0.3116666666666667,-0.049629629629629544,0.2136000000014917],[-0.3139583333333333,-0.09685185185185187,0.23029999999702255],[-0.2726041666666667,-0.2212962962962963,0.24710000000148824],[-0.2663541666666667,-0.20870370370370367,0.2648999999985122],[-0.2594791666666667,-0.17740740740740743,0.28139999999851284],[-0.24833333333333332,-0.21944444444444444,0.29719999999553437],[-0.24010416666666667,-0.3127777777777777,0.3136999999955279],[-0.3408333333333334,-0.2687037037037037,0.330299999997024],[-0.3977083333333333,-0.22259259259259256,0.3470000000000013],[-0.36218750000000005,-0.27462962962962967,0.3641000000014927],[-0.3580208333333334,-0.29740740740740745,0.3803999999985095],[-0.38250000000000006,-0.29740740740740745,0.3971999999955287],[-0.450625,-0.22018518518518515,0.4136999999955293],[-0.4360416666666667,-0.2918518518518519,0.4302999999970183],[-0.46458333333333335,-0.33722222222222226,0.44700000000000273],[-0.49104166666666665,-0.3190740740740741,0.4666000000014918],[-0.49104166666666665,-0.3190740740740741,0.48049999999999926],[-0.5456249999999999,-0.2705555555555556,0.49710000000148824],[-0.5053125,-0.3103703703703704,0.5136999999955307],[-0.46499999999999997,-0.3501851851851852,0.5303999999985081],[-0.4715625,-0.3987037037037037,0.5470000000000041],[-0.47125,-0.4468518518518519,0.5636999999955279],[-0.4575000000000001,-0.4607407407407408,0.5803999999985123],[-0.4532291666666667,-0.4844444444444445,0.6005000000000038],[-0.48520833333333335,-0.42314814814814816,0.615799999997023],[-0.4746875,-0.40685185185185185,0.6302999999970211],[-0.4435416666666666,-0.45037037037037037,0.6471000000014939],[-0.41427083333333337,-0.47981481481481486,0.6641999999955317],[-0.4170833333333333,-0.4705555555555556,0.6805000000000021],[-0.40593750000000006,-0.44351851851851853,0.6971000000014911],[-0.42291666666666666,-0.3757407407407407,0.7136999999955336],[-0.4236458333333334,-0.2742592592592593,0.7302999999970226],[-0.4091666666666666,-0.22981481481481486,0.7468999999985115],[-0.4197916666666667,-0.2022222222222222,0.7636000000014889],[-0.42239583333333336,-0.18648148148148147,0.7803999999985081],[-0.44375,-0.11259259259259262,0.7970000000000041],[-0.4786458333333333,-0.01962962962962967,0.8136999999955279],[-0.46697916666666667,0.005185185185185101,0.8303999999985123],[-0.4454166666666667,0.034074074074074034,0.8470000000000013],[-0.42218749999999994,0.03759259259259251,0.8636999999955322],[-0.39895833333333336,0.041111111111111195,0.880500000000005],[-0.34343750000000006,-0.05388888888888893,0.8969999999999985],[-0.28791666666666665,-0.14888888888888885,0.9136999999955293],[-0.22552083333333334,-0.15722222222222218,0.9303999999985137],[-0.19895833333333332,-0.18666666666666668,0.9470000000000027],[-0.15364583333333334,-0.2742592592592593,0.9636999999955336],[-0.11937500000000002,-0.3453703703703704,0.9803999999985109],[-0.1297916666666667,-0.3624074074074074,0.9969999999999999],[-0.13166666666666665,-0.3646296296296296,1.0136000000014889],[-0.14916666666666673,-0.3592592592592593,1.0302999999970197],[-0.16906249999999995,-0.392037037037037,1.0470000000000041],[-0.22989583333333338,-0.3742592592592593,1.0648999999985094],[-0.2907291666666667,-0.35648148148148145,1.0805000000000007],[-0.30708333333333326,-0.40499999999999997,1.0970000000000013],[-0.2876041666666667,-0.4324074074074074,1.1136000000014903],[-0.2752083333333334,-0.43555555555555553,1.1302999999970211],[-0.2517708333333334,-0.4551851851851852,1.1469999999999985],[-0.2604166666666667,-0.3957407407407407,1.1636999999955293],[-0.27760416666666665,-0.35111111111111115,1.1803999999985137],[-0.25968749999999996,-0.3405555555555555,1.1968999999985144],[-0.23927083333333338,-0.29370370370370374,1.2142999999970243],[-0.22708333333333333,-0.2175925925925926,1.2302999999970226],[-0.21489583333333329,-0.14148148148148143,1.2469999999999999],[-0.22218749999999995,-0.1037037037037037,1.2636000000014889],[-0.22218749999999995,-0.1037037037037037,1.280399999998508],[-0.22947916666666662,-0.06592592592592597,1.2971000000014925],[-0.20281250000000003,-0.00592592592592601,1.3136000000014931],[-0.17614583333333336,0.054074074074074156,1.330299999997024],[-0.19822916666666662,0.069074074074074,1.3470000000000013],[-0.2203125,0.08407407407407404,1.3636000000014903],[-0.2061458333333333,0.12092592592592584,1.3803999999985095],[-0.17625000000000005,0.14129629629629623,1.3969999999999985],[-0.15677083333333333,0.16629629629629622,1.4136999999955293],[-0.20708333333333329,0.222037037037037,1.4302999999970183],[-0.19406249999999994,0.23722222222222225,1.4470000000000027],[-0.17052083333333337,0.3292592592592592,1.4636999999955336],[-0.17385416666666664,0.37481481481481477,1.4806000000014947],[-0.17593749999999997,0.43796296296296294,1.4968999999985115],[-0.07135416666666666,0.4812962962962963,1.5136999999955307],[0.06124999999999995,0.4607407407407407,1.5302999999970197],[0.13864583333333325,0.46277777777777773,1.5468999999985087],[0.21666666666666667,0.44296296296296306,1.5636000000014931],[0.3351041666666667,0.3675925925925926,1.580600000001489],[0.51125,0.2953703703703704,1.596899999998513],[0.6267708333333334,0.30833333333333335,1.6136999999955322],[0.7542708333333332,0.19685185185185178,1.6302999999970211],[0.8983333333333334,0.06666666666666667,1.6469999999999985],[0.9888541666666666,-0.06222222222222226,1.6636000000014945],[0.9888541666666666,-0.06222222222222226,1.6806000000014905],[1.0535416666666668,-0.20537037037037034,1.6970000000000027],[1.0515625,-0.23925925925925923,1.7136999999955336],[1.0334375,-0.28351851851851856,1.7302999999970226],[1.0088541666666666,-0.31351851851851853,1.7469999999999999],[0.9548958333333334,-0.30759259259259264,1.7636999999955307],[0.8965625,-0.3638888888888889,1.780399999998508],[0.8382291666666667,-0.42018518518518516,1.7968999999985087],[0.7421875,-0.37537037037037035,1.813699999995528],[0.6295833333333334,-0.3118518518518518,1.830299999997024],[0.6099999999999999,-0.2855555555555555,1.8470000000000013],[0.615625,-0.27092592592592596,1.8636000000014903],[0.6598958333333333,-0.30166666666666664,1.880500000000005],[0.6570833333333332,-0.3327777777777778,1.8973999999985125],[0.6442708333333333,-0.33796296296296297,1.9136999999955293],[0.6611458333333334,-0.3562962962962963,1.9302999999970183],[0.6944791666666668,-0.34629629629629627,1.9468999999985144],[0.7125,-0.2992592592592593,1.9636000000014917],[0.7457291666666668,-0.30574074074074076,1.9812999999970202],[0.7457291666666668,-0.30574074074074076,1.9969999999999999],[0.7672916666666666,-0.35611111111111116,2.013600000001489],[0.7672916666666666,-0.35611111111111116,2.0301999999955314],[0.7472916666666668,-0.3264814814814815,2.050299999997023],[0.7472916666666668,-0.3264814814814815,2.063699999995528],[0.6580208333333334,-0.3424074074074074,2.080600000001489],[0.5553124999999999,-0.40666666666666673,2.103999999999999],[0.5553124999999999,-0.40666666666666673,2.1137999999970205],[0.5087500000000001,-0.4059259259259259,2.130500000000005],[0.4887500000000001,-0.4137037037037037,2.1513999999985103],[0.4887500000000001,-0.4137037037037037,2.1637999999970177],[0.4247916666666666,-0.3998148148148148,2.1806999999955323],[0.3770833333333333,-0.36148148148148146,2.197100000001491],[0.2943749999999999,-0.33537037037037043,2.215699999995529],[0.2493750000000001,-0.357962962962963,2.230399999998511],[0.19177083333333325,-0.31425925925925924,2.2472999999970185],[0.1349999999999999,-0.3322222222222222,2.2671000000014914],[0.10333333333333337,-0.2322222222222222,2.283699999995534],[0.10708333333333328,-0.10185185185185185,2.2974999999999994],[0.10177083333333338,-0.03611111111111111,2.3156999999955303],[0.06520833333333335,0.002407407407407323,2.3305000000000007],[0.042916666666666714,0.032407407407407406,2.3478999999985106],[-0.016250000000000025,0.006666666666666709,2.3637999999970205],[-0.02510416666666669,-0.04388888888888897,2.383100000001491],[-0.003854166666666714,-0.06185185185185181,2.397699999995531],[0.002916666666666619,-0.06351851851851854,2.4136000000014945],[0.03302083333333338,-0.06370370370370367,2.4303999999985137],[0.08208333333333329,-0.12462962962962965,2.4470000000000027],[0.07614583333333323,-0.15314814814814812,2.4636000000014917],[0.07614583333333323,-0.15314814814814812,2.4802999999970226],[0.07270833333333329,-0.20851851851851855,2.497],[0.11500000000000009,-0.2548148148148149,2.513600000001489],[0.1556250000000001,-0.31500000000000006,2.5302999999970197],[0.196875,-0.3118518518518518,2.5468999999985087],[0.2381249999999999,-0.3087037037037037,2.563600000001493],[0.23104166666666662,-0.182962962962963,2.5803999999985123],[0.2627083333333334,-0.09592592592592594,2.5970000000000013],[0.2652083333333332,-0.021296296296296296,2.613699999995532],[0.2677083333333333,0.05333333333333325,2.632799999997019],[0.29177083333333326,0.010925925925925884,2.647699999995531],[0.30499999999999994,0.013333333333333417,2.66410000000149],[0.2771874999999999,0.042407407407407366,2.683799999997021],[0.2730208333333332,0.07759259259259255,2.6983999999985144],[0.28312499999999996,0.12240740740740745,2.713799999997022],[0.2730208333333332,0.054074074074074156,2.730399999998511],[0.26416666666666655,-0.12833333333333335,2.750399999998514],[0.22062499999999996,-0.28481481481481485,2.7642999999970215],[0.18937499999999996,-0.37759259259259254,2.780799999997022],[0.13270833333333343,-0.5281481481481481,2.7991999999955297],[0.12395833333333334,-0.5216666666666666,2.8137999999970233],[0.09249999999999996,-0.5427777777777778,2.832199999995531],[0.06104166666666669,-0.5638888888888889,2.8552999999970226],[0.06104166666666669,-0.5638888888888889,2.880100000001491],[-0.012187500000000047,-0.5801851851851852,2.897699999995531],[-0.012187500000000047,-0.5801851851851852,2.9110000000000014],[-0.04552083333333338,-0.6175925925925926,2.914999999999999],[-0.04812500000000005,-0.5485185185185185,2.9303999999985137],[-0.07645833333333331,-0.447037037037037,2.947199999995533],[-0.07010416666666662,-0.3714814814814815,2.9651999999955336],[-0.043020833333333286,-0.3785185185185185,2.980399999998511],[0.00947916666666669,-0.3277777777777778,2.9968999999985115],[-0.003958333333333286,-0.3242592592592593,3.013600000001489],[0.013645833333333357,-0.3111111111111111,3.033399999998508],[0.05333333333333338,-0.31370370370370365,3.047000000000004],[0.11281249999999995,-0.3133333333333333,3.063699999995528],[0.11416666666666657,-0.31851851851851853,3.080600000001489],[0.1165625000000001,-0.33796296296296297,3.0970000000000013],[0.12395833333333334,-0.3822222222222222,3.1136000000014903],[0.11124999999999995,-0.37537037037037035,3.130199999995533],[0.0875,-0.37,3.1469999999999985],[0.0818749999999999,-0.3861111111111111,3.1636000000014945],[0.10572916666666667,-0.4094444444444445,3.1802999999970183],[0.1318749999999999,-0.4624074074074074,3.199399999998512],[0.11593749999999996,-0.4505555555555556,3.2136000000014917],[0.08104166666666662,-0.4044444444444444,3.2302999999970226],[0.07010416666666662,-0.37333333333333335,3.2468999999985115],[0.03572916666666662,-0.29240740740740734,3.2636999999955307],[-0.0003124999999999526,-0.21944444444444444,3.280399999998508],[0.04468749999999998,-0.31592592592592594,3.297000000000004],[0.07354166666666657,-0.3811111111111111,3.313600000001493],[0.0818749999999999,-0.4242592592592593,3.330299999997024],[0.02364583333333338,-0.4287037037037037,3.346899999998513],[-0.03687499999999998,-0.4035185185185185,3.3636000000014903],[-0.05010416666666669,-0.40259259259259256,3.3803999999985095],[-0.0703125,-0.4111111111111111,3.39689999999851],[-0.08197916666666671,-0.4148148148148148,3.4136000000014945],[-0.06968749999999997,-0.4564814814814815,3.4302999999970183],[-0.050520833333333334,-0.5253703703703704,3.4470000000000027],[-0.12270833333333328,-0.46148148148148144,3.4636000000014917],[-0.19489583333333335,-0.39759259259259255,3.480399999998511],[-0.24624999999999997,-0.2742592592592593,3.4968999999985115],[-0.23104166666666662,-0.1896296296296296,3.5135000000000005],[-0.18708333333333335,-0.2270370370370371,3.5302999999970197],[-0.17864583333333334,-0.27685185185185185,3.5468999999985087],[-0.1508333333333333,-0.24277777777777781,3.5646999999955327],[-0.13156249999999994,-0.21351851851851855,3.580299999997024],[-0.12364583333333339,-0.2644444444444445,3.596899999998513],[-0.13937499999999994,-0.2844444444444445,3.6136000000014903],[-0.12124999999999998,-0.3020370370370371,3.6303999999985095],[-0.10260416666666666,-0.31148148148148147,3.64689999999851],[-0.13322916666666665,-0.3598148148148148,3.6636000000014945],[-0.13156249999999994,-0.4301851851851852,3.6803999999985137],[-0.17302083333333335,-0.3527777777777778,3.6968999999985144],[-0.20625,-0.28777777777777774,3.7136000000014917],[-0.2329166666666667,-0.3314814814814815,3.7302999999970226],[-0.27708333333333335,-0.36500000000000005,3.7468999999985115],[-0.31052083333333336,-0.32629629629629625,3.7636999999955307],[-0.3195833333333333,-0.297037037037037,3.780399999998508],[-0.3320833333333333,-0.2846296296296296,3.797000000000004],[-0.36343749999999997,-0.2794444444444444,3.813699999995528],[-0.3601041666666667,-0.2559259259259259,3.8305000000000007],[-0.3890625,-0.2103703703703704,3.846899999998513],[-0.37093750000000003,-0.2442592592592592,3.8636000000014903],[-0.37093750000000003,-0.2442592592592592,3.8806000000014933],[-0.35281250000000003,-0.27814814814814814,3.8969999999999985],[-0.35093749999999996,-0.2957407407407407,3.9136000000014945],[-0.32843749999999994,-0.32018518518518513,3.9302999999970183],[-0.3173958333333334,-0.32759259259259255,3.9468999999985144],[-0.33406250000000004,-0.34333333333333327,3.9636000000014917],[-0.36781250000000004,-0.32388888888888884,3.9810000000000016],[-0.36781250000000004,-0.32388888888888884,3.997],[-0.3763541666666666,-0.287962962962963,4.013600000001489],[-0.3763541666666666,-0.287962962962963,4.03029999999702],[-0.3975,-0.2881481481481482,4.047000000000004],[-0.3975,-0.2881481481481482,4.063600000001493],[-0.4234375,-0.2740740740740741,4.080399999998512]]","[0,0.013699999995530732,0.03029999999701971,0.047100000001492504,0.06369999999552789,0.08039999999851233,0.09700000000000131,0.11369999999553215,0.13050000000000495,0.14710000000149392,0.16360000000149455,0.18089999999850903,0.19700000000000273,0.2136000000014917,0.23029999999702255,0.24710000000148824,0.2648999999985122,0.28139999999851284,0.29719999999553437,0.3136999999955279,0.330299999997024,0.3470000000000013,0.3641000000014927,0.3803999999985095,0.3971999999955287,0.4136999999955293,0.4302999999970183,0.44700000000000273,0.4666000000014918,0.48049999999999926,0.49710000000148824,0.5136999999955307,0.5303999999985081,0.5470000000000041,0.5636999999955279,0.5803999999985123,0.6005000000000038,0.615799999997023,0.6302999999970211,0.6471000000014939,0.6641999999955317,0.6805000000000021,0.6971000000014911,0.7136999999955336,0.7302999999970226,0.7468999999985115,0.7636000000014889,0.7803999999985081,0.7970000000000041,0.8136999999955279,0.8303999999985123,0.8470000000000013,0.8636999999955322,0.880500000000005,0.8969999999999985,0.9136999999955293,0.9303999999985137,0.9470000000000027,0.9636999999955336,0.9803999999985109,0.9969999999999999,1.0136000000014889,1.0302999999970197,1.0470000000000041,1.0648999999985094,1.0805000000000007,1.0970000000000013,1.1136000000014903,1.1302999999970211,1.1469999999999985,1.1636999999955293,1.1803999999985137,1.1968999999985144,1.2142999999970243,1.2302999999970226,1.2469999999999999,1.2636000000014889,1.280399999998508,1.2971000000014925,1.3136000000014931,1.330299999997024,1.3470000000000013,1.3636000000014903,1.3803999999985095,1.3969999999999985,1.4136999999955293,1.4302999999970183,1.4470000000000027,1.4636999999955336,1.4806000000014947,1.4968999999985115,1.5136999999955307,1.5302999999970197,1.5468999999985087,1.5636000000014931,1.580600000001489,1.596899999998513,1.6136999999955322,1.6302999999970211,1.6469999999999985,1.6636000000014945,1.6806000000014905,1.6970000000000027,1.7136999999955336,1.7302999999970226,1.7469999999999999,1.7636999999955307,1.780399999998508,1.7968999999985087,1.813699999995528,1.830299999997024,1.8470000000000013,1.8636000000014903,1.880500000000005,1.8973999999985125,1.9136999999955293,1.9302999999970183,1.9468999999985144,1.9636000000014917,1.9812999999970202,1.9969999999999999,2.013600000001489,2.0301999999955314,2.050299999997023,2.063699999995528,2.080600000001489,2.103999999999999,2.1137999999970205,2.130500000000005,2.1513999999985103,2.1637999999970177,2.1806999999955323,2.197100000001491,2.215699999995529,2.230399999998511,2.2472999999970185,2.2671000000014914,2.283699999995534,2.2974999999999994,2.3156999999955303,2.3305000000000007,2.3478999999985106,2.3637999999970205,2.383100000001491,2.397699999995531,2.4136000000014945,2.4303999999985137,2.4470000000000027,2.4636000000014917,2.4802999999970226,2.497,2.513600000001489,2.5302999999970197,2.5468999999985087,2.563600000001493,2.5803999999985123,2.5970000000000013,2.613699999995532,2.632799999997019,2.647699999995531,2.66410000000149,2.683799999997021,2.6983999999985144,2.713799999997022,2.730399999998511,2.750399999998514,2.7642999999970215,2.780799999997022,2.7991999999955297,2.8137999999970233,2.832199999995531,2.8552999999970226,2.880100000001491,2.897699999995531,2.9110000000000014,2.914999999999999,2.9303999999985137,2.947199999995533,2.9651999999955336,2.980399999998511,2.9968999999985115,3.013600000001489,3.033399999998508,3.047000000000004,3.063699999995528,3.080600000001489,3.0970000000000013,3.1136000000014903,3.130199999995533,3.1469999999999985,3.1636000000014945,3.1802999999970183,3.199399999998512,3.2136000000014917,3.2302999999970226,3.2468999999985115,3.2636999999955307,3.280399999998508,3.297000000000004,3.313600000001493,3.330299999997024,3.346899999998513,3.3636000000014903,3.3803999999985095,3.39689999999851,3.4136000000014945,3.4302999999970183,3.4470000000000027,3.4636000000014917,3.480399999998511,3.4968999999985115,3.5135000000000005,3.5302999999970197,3.5468999999985087,3.5646999999955327,3.580299999997024,3.596899999998513,3.6136000000014903,3.6303999999985095,3.64689999999851,3.6636000000014945,3.6803999999985137,3.6968999999985144,3.7136000000014917,3.7302999999970226,3.7468999999985115,3.7636999999955307,3.780399999998508,3.797000000000004,3.813699999995528,3.8305000000000007,3.846899999998513,3.8636000000014903,3.8806000000014933,3.8969999999999985,3.9136000000014945,3.9302999999970183,3.9468999999985144,3.9636000000014917,3.9810000000000016,3.997,4.013600000001489,4.03029999999702,4.047000000000004,4.063600000001493,4.080399999998512]","[1733292087733,1733292087746,1733292087762,1733292087779,1733292087796,1733292087812,1733292087829,1733292087846,1733292087862,1733292087879,1733292087896,1733292087913,1733292087929,1733292087946,1733292087962,1733292087979,1733292087997,1733292088013,1733292088029,1733292088046,1733292088062,1733292088079,1733292088096,1733292088112,1733292088129,1733292088146,1733292088162,1733292088179,1733292088198,1733292088212,1733292088229,1733292088246,1733292088262,1733292088279,1733292088296,1733292088312,1733292088332,1733292088348,1733292088362,1733292088379,1733292088396,1733292088412,1733292088429,1733292088446,1733292088462,1733292088479,1733292088496,1733292088512,1733292088529,1733292088546,1733292088562,1733292088579,1733292088596,1733292088612,1733292088629,1733292088646,1733292088662,1733292088679,1733292088696,1733292088712,1733292088729,1733292088745,1733292088762,1733292088779,1733292088797,1733292088812,1733292088829,1733292088845,1733292088862,1733292088879,1733292088896,1733292088912,1733292088929,1733292088946,1733292088962,1733292088979,1733292088996,1733292089012,1733292089029,1733292089045,1733292089062,1733292089079,1733292089095,1733292089112,1733292089129,1733292089146,1733292089162,1733292089179,1733292089196,1733292089212,1733292089229,1733292089245,1733292089262,1733292089279,1733292089296,1733292089312,1733292089329,1733292089346,1733292089362,1733292089379,1733292089395,1733292089412,1733292089429,1733292089446,1733292089462,1733292089479,1733292089495,1733292089512,1733292089529,1733292089545,1733292089562,1733292089579,1733292089595,1733292089612,1733292089629,1733292089646,1733292089662,1733292089679,1733292089696,1733292089713,1733292089729,1733292089745,1733292089762,1733292089782,1733292089796,1733292089812,1733292089836,1733292089846,1733292089862,1733292089883,1733292089896,1733292089913,1733292089929,1733292089948,1733292089962,1733292089979,1733292089999,1733292090016,1733292090029,1733292090048,1733292090062,1733292090080,1733292090096,1733292090115,1733292090130,1733292090145,1733292090162,1733292090179,1733292090195,1733292090212,1733292090229,1733292090245,1733292090262,1733292090279,1733292090295,1733292090312,1733292090329,1733292090346,1733292090365,1733292090379,1733292090396,1733292090416,1733292090430,1733292090446,1733292090462,1733292090482,1733292090496,1733292090513,1733292090531,1733292090546,1733292090564,1733292090587,1733292090612,1733292090630,1733292090643,1733292090647,1733292090662,1733292090679,1733292090697,1733292090712,1733292090729,1733292090745,1733292090765,1733292090779,1733292090796,1733292090812,1733292090829,1733292090845,1733292090862,1733292090879,1733292090895,1733292090912,1733292090931,1733292090945,1733292090962,1733292090979,1733292090996,1733292091012,1733292091029,1733292091045,1733292091062,1733292091079,1733292091095,1733292091112,1733292091129,1733292091145,1733292091162,1733292091179,1733292091195,1733292091212,1733292091229,1733292091245,1733292091262,1733292091279,1733292091297,1733292091312,1733292091329,1733292091345,1733292091362,1733292091379,1733292091395,1733292091412,1733292091429,1733292091445,1733292091462,1733292091479,1733292091496,1733292091512,1733292091529,1733292091546,1733292091562,1733292091579,1733292091595,1733292091612,1733292091629,1733292091645,1733292091662,1733292091679,1733292091695,1733292091713,1733292091729,1733292091745,1733292091762,1733292091779,1733292091795,1733292091812]","[[781.3,552.9],[781.3,552.9],[763.6,523.1],[763.6,523.1],[735,522],[735,522],[708.6,543.9],[708.6,543.9],[727.3,510],[727.3,510],[711.5,496],[711.5,496],[674.4,512.6],[660.8,513.2],[658.6,487.7],[698.3,420.5],[704.3,427.3],[710.9,444.2],[721.6,421.5],[729.5,371.1],[632.8,394.9],[578.2,419.8],[612.3,391.7],[616.3,379.4],[592.8,379.4],[527.4,421.1],[541.4,382.4],[514,357.9],[488.6,367.7],[488.6,367.7],[436.2,393.9],[474.9,372.4],[513.6,350.9],[507.3,324.7],[507.6,298.7],[520.8,291.2],[524.9,278.4],[494.2,311.5],[504.3,320.3],[534.2,296.8],[562.3,280.9],[559.6,285.9],[570.3,300.5],[554,337.1],[553.3,391.9],[567.2,415.9],[557,430.8],[554.5,439.3],[534,479.2],[500.5,529.4],[511.7,542.8],[532.4,558.4],[554.7,560.3],[577,562.2],[630.3,510.9],[683.6,459.6],[743.5,455.1],[769,439.2],[812.5,391.9],[845.4,353.5],[835.4,344.3],[833.6,343.1],[816.8,346],[797.7,328.3],[739.3,337.9],[680.9,347.5],[665.2,321.3],[683.9,306.5],[695.8,304.8],[718.3,294.2],[710,326.3],[693.5,350.4],[710.7,356.1],[730.3,381.4],[742,422.5],[753.7,463.6],[746.7,484],[746.7,484],[739.7,504.4],[765.3,536.8],[790.9,569.2],[769.7,577.3],[748.5,585.4],[762.1,605.3],[790.8,616.3],[809.5,629.8],[761.2,659.9],[773.7,668.1],[796.3,717.8],[793.1,742.4],[791.1,776.5],[891.5,799.9],[1018.8,788.8],[1093.1,789.9],[1168,779.2],[1281.7,738.5],[1450.8,699.5],[1561.7,706.5],[1684.1,646.3],[1822.4,576],[1909.3,506.4],[1909.3,506.4],[1971.4,429.1],[1969.5,410.8],[1952.1,386.9],[1928.5,370.7],[1876.7,373.9],[1820.7,343.5],[1764.7,313.1],[1672.5,337.3],[1564.4,371.6],[1545.6,385.8],[1551,393.7],[1593.5,377.1],[1590.8,360.3],[1578.5,357.5],[1594.7,347.6],[1626.7,353],[1644,378.4],[1675.9,374.9],[1675.9,374.9],[1696.6,347.7],[1696.6,347.7],[1677.4,363.7],[1677.4,363.7],[1591.7,355.1],[1493.1,320.4],[1493.1,320.4],[1448.4,320.8],[1429.2,316.6],[1429.2,316.6],[1367.8,324.1],[1322,344.8],[1242.6,358.9],[1199.4,346.7],[1144.1,370.3],[1089.6,360.6],[1059.2,414.6],[1062.8,485],[1057.7,520.5],[1022.6,541.3],[1001.2,557.5],[944.4,543.6],[935.9,516.3],[956.3,506.6],[962.8,505.7],[991.7,505.6],[1038.8,472.7],[1033.1,457.3],[1033.1,457.3],[1029.8,427.4],[1070.4,402.4],[1109.4,369.9],[1149,371.6],[1188.6,373.3],[1181.8,441.2],[1212.2,488.2],[1214.6,528.5],[1217,568.8],[1240.1,545.9],[1252.8,547.2],[1226.1,562.9],[1222.1,581.9],[1231.8,606.1],[1222.1,569.2],[1213.6,470.7],[1171.8,386.2],[1141.8,336.1],[1087.4,254.8],[1079,258.3],[1048.8,246.9],[1018.6,235.5],[1018.6,235.5],[948.3,226.7],[948.3,226.7],[916.3,206.5],[913.8,243.8],[886.6,298.6],[892.7,339.4],[918.7,335.6],[969.1,363],[956.2,364.9],[973.1,372],[1011.2,370.6],[1068.3,370.8],[1069.6,368],[1071.9,357.5],[1079,333.6],[1066.8,337.3],[1044,340.2],[1038.6,331.5],[1061.5,318.9],[1086.6,290.3],[1071.3,296.7],[1037.8,321.6],[1027.3,338.4],[994.3,382.1],[959.7,421.5],[1002.9,369.4],[1030.6,334.2],[1038.6,310.9],[982.7,308.5],[924.6,322.1],[911.9,322.6],[892.5,318],[881.3,316],[893.1,293.5],[911.5,256.3],[842.2,290.8],[772.9,325.3],[723.6,391.9],[738.2,437.6],[780.4,417.4],[788.5,390.5],[815.2,408.9],[833.7,424.7],[841.3,397.2],[826.2,386.4],[843.6,376.9],[861.5,371.8],[832.1,345.7],[833.7,307.7],[793.9,349.5],[762,384.6],[736.4,361],[694,342.9],[661.9,363.8],[653.2,379.6],[641.2,386.3],[611.1,389.1],[614.3,401.8],[586.5,426.4],[603.9,408.1],[603.9,408.1],[621.3,389.8],[623.1,380.3],[644.7,367.1],[655.3,363.1],[639.3,354.6],[606.9,365.1],[606.9,365.1],[598.7,384.5],[598.7,384.5],[578.4,384.4],[578.4,384.4],[553.5,392]]","[0,0.3527331528]","[0.3527331528,0.3527331528]","[-0.3527331528,-0.3527331528]","[-0.3527331528,0]","[0,-0.3527331528]","[0.3527331528,-0.3527331528]","[0,0]","[0.3527331528,0]",0,1,1,1,1,3,Tablet,5,5,13,7
