inst1_resp.keys,inst1_resp.rt,calibrationMouse.x,calibrationMouse.y,calibrationMouse.leftButton,calibrationMouse.midButton,calibrationMouse.rightButton,calibrationClick.x,calibrationClick.y,calibrationClick.leftButton,calibrationClick.midButton,calibrationClick.rightButton,trialsc.thisRepN,trialsc.thisTrialN,trialsc.thisN,trialsc.thisIndex,trialsc.ran,calibration_x,calibration_y,participant,session,date,expName,psychopyVersion,OS,frameRate,calibrationClick.clicked_name,ScreenRes_pixels,Camera_pixels,mouse_2.x,mouse_2.y,mouse_2.leftButton,mouse_2.midButton,mouse_2.rightButton,mouse_2.time,mouse_2.clicked_name,mouse.x,mouse.y,mouse.leftButton,mouse.midButton,mouse.rightButton,mouse.time,mouse.clicked_name,Choice,Trial,TrialDuration,MOUSE_GAZE,ET_GAZE,ET_GAZE_x_T,time,unixTime,ET_GAZE_NF,Loc_Option1_label,Loc_Option2_label,Loc_Cost_label,Loc_Qual_label,Loc_Option1_cost,Loc_Option2_cost,Loc_Option1_quality,Loc_Option2_quality,trials.thisRepN,trials.thisTrialN,trials.thisN,trials.thisIndex,trials.ran,Block,Device,cost1,qual1,cost2,qual2
space,6.2914,0.110416667,0.125925926,1,0,0,-0.327083333,0.681481481,1,0,0,0,0,0,8,1,-0.33,0.67,18,001,2024-11-28_14h27.34.171,Attention_exp_legacy,2023.1.0,Win32,59.88023952,,,,,,,,,,,,,,,,,,,,,,,,,,,,,,,,,,,,,,,,,,,,,
,,,,,,,0.330208333,-0.346296296,1,0,0,0,1,1,15,1,0.33,-0.33,18,001,2024-11-28_14h27.34.171,Attention_exp_legacy,2023.1.0,Win32,59.88023952,,,,,,,,,,,,,,,,,,,,,,,,,,,,,,,,,,,,,,,,,,,,,
,,,,,,,-0.358333333,-0.653703704,1,0,0,0,2,2,4,1,-0.33,-0.67,18,001,2024-11-28_14h27.34.171,Attention_exp_legacy,2023.1.0,Win32,59.88023952,,,,,,,,,,,,,,,,,,,,,,,,,,,,,,,,,,,,,,,,,,,,,
,,,,,,,-0.003125,0.677777778,1,0,0,0,3,3,13,1,0,0.67,18,001,2024-11-28_14h27.34.171,Attention_exp_legacy,2023.1.0,Win32,59.88023952,calibration_square,,,,,,,,,,,,,,,,,,,,,,,,,,,,,,,,,,,,,,,,,,,,
,,,,,,,0.325,-0.675925926,1,0,0,0,4,4,14,1,0.33,-0.67,18,001,2024-11-28_14h27.34.171,Attention_exp_legacy,2023.1.0,Win32,59.88023952,calibration_square,,,,,,,,,,,,,,,,,,,,,,,,,,,,,,,,,,,,,,,,,,,,
,,,,,,,-0.004166667,0.022222222,1,0,0,0,5,5,11,1,0,0,18,001,2024-11-28_14h27.34.171,Attention_exp_legacy,2023.1.0,Win32,59.88023952,,,,,,,,,,,,,,,,,,,,,,,,,,,,,,,,,,,,,,,,,,,,,
,,,,,,,-0.301041667,-0.011111111,1,0,0,0,6,6,6,1,-0.33,0,18,001,2024-11-28_14h27.34.171,Attention_exp_legacy,2023.1.0,Win32,59.88023952,,,,,,,,,,,,,,,,,,,,,,,,,,,,,,,,,,,,,,,,,,,,,
,,,,,,,-0.684375,-0.618518519,1,0,0,0,7,7,0,1,-0.67,-0.67,18,001,2024-11-28_14h27.34.171,Attention_exp_legacy,2023.1.0,Win32,59.88023952,,,,,,,,,,,,,,,,,,,,,,,,,,,,,,,,,,,,,,,,,,,,,
,,,,,,,0.653125,0.674074074,1,0,0,0,8,8,19,1,0.67,0.67,18,001,2024-11-28_14h27.34.171,Attention_exp_legacy,2023.1.0,Win32,59.88023952,,,,,,,,,,,,,,,,,,,,,,,,,,,,,,,,,,,,,,,,,,,,,
,,,,,,,-0.684375,0.018518519,1,0,0,0,9,9,2,1,-0.67,0,18,001,2024-11-28_14h27.34.171,Attention_exp_legacy,2023.1.0,Win32,59.88023952,,,,,,,,,,,,,,,,,,,,,,,,,,,,,,,,,,,,,,,,,,,,,
,,,,,,,-0.323958333,0.32962963,1,0,0,0,10,10,7,1,-0.33,0.33,18,001,2024-11-28_14h27.34.171,Attention_exp_legacy,2023.1.0,Win32,59.88023952,calibration_square,,,,,,,,,,,,,,,,,,,,,,,,,,,,,,,,,,,,,,,,,,,,
,,,,,,,0.35,0.001851852,1,0,0,0,11,11,16,1,0.33,0,18,001,2024-11-28_14h27.34.171,Attention_exp_legacy,2023.1.0,Win32,59.88023952,,,,,,,,,,,,,,,,,,,,,,,,,,,,,,,,,,,,,,,,,,,,,
,,,,,,,-0.3375,-0.307407407,1,0,0,0,12,12,5,1,-0.33,-0.33,18,001,2024-11-28_14h27.34.171,Attention_exp_legacy,2023.1.0,Win32,59.88023952,,,,,,,,,,,,,,,,,,,,,,,,,,,,,,,,,,,,,,,,,,,,,
,,,,,,,-0.659375,0.32037037,1,0,0,0,13,13,3,1,-0.67,0.33,18,001,2024-11-28_14h27.34.171,Attention_exp_legacy,2023.1.0,Win32,59.88023952,,,,,,,,,,,,,,,,,,,,,,,,,,,,,,,,,,,,,,,,,,,,,
,,,,,,,0.330208333,0.657407407,1,0,0,0,14,14,18,1,0.33,0.67,18,001,2024-11-28_14h27.34.171,Attention_exp_legacy,2023.1.0,Win32,59.88023952,,,,,,,,,,,,,,,,,,,,,,,,,,,,,,,,,,,,,,,,,,,,,
,,,,,,,0.005208333,-0.694444444,1,0,0,0,15,15,9,1,0,-0.67,18,001,2024-11-28_14h27.34.171,Attention_exp_legacy,2023.1.0,Win32,59.88023952,,,,,,,,,,,,,,,,,,,,,,,,,,,,,,,,,,,,,,,,,,,,,
,,,,,,,0.002083333,-0.333333333,1,0,0,0,16,16,10,1,0,-0.33,18,001,2024-11-28_14h27.34.171,Attention_exp_legacy,2023.1.0,Win32,59.88023952,calibration_square,,,,,,,,,,,,,,,,,,,,,,,,,,,,,,,,,,,,,,,,,,,,
,,,,,,,0.31875,0.316666667,1,0,0,0,17,17,17,1,0.33,0.33,18,001,2024-11-28_14h27.34.171,Attention_exp_legacy,2023.1.0,Win32,59.88023952,,,,,,,,,,,,,,,,,,,,,,,,,,,,,,,,,,,,,,,,,,,,,
,,,,,,,0.009375,0.316666667,1,0,0,0,18,18,12,1,0,0.33,18,001,2024-11-28_14h27.34.171,Attention_exp_legacy,2023.1.0,Win32,59.88023952,,,,,,,,,,,,,,,,,,,,,,,,,,,,,,,,,,,,,,,,,,,,,
,,,,,,,-0.673958333,-0.355555556,1,0,0,0,19,19,1,1,-0.67,-0.33,18,001,2024-11-28_14h27.34.171,Attention_exp_legacy,2023.1.0,Win32,59.88023952,,,,,,,,,,,,,,,,,,,,,,,,,,,,,,,,,,,,,,,,,,,,,
,,,,,,,0.653125,-0.640740741,1,0,0,0,20,20,20,1,0.67,-0.67,18,001,2024-11-28_14h27.34.171,Attention_exp_legacy,2023.1.0,Win32,59.88023952,,,,,,,,,,,,,,,,,,,,,,,,,,,,,,,,,,,,,,,,,,,,,
,,,,,,,,,,,,,,,,,,,18,001,2024-11-28_14h27.34.171,Attention_exp_legacy,2023.1.0,Win32,59.88023952,,"[1920,1080]","[640,480]",[-0.013541666666666667],[-0.5074074074074074],[1],[0],[0],[4.832799999982122],"[""StartButton""]",[0.340625],[0.3611111111111111],[1],[0],[0],[2.896700000017887],"[""Option2_label""]",Option2_label,1,3.9168,"[[0.07083333333333333,0.1425925925925926],[0.07083333333333333,0.1425925925925926],[0.07083333333333333,0.1425925925925926],[0.07083333333333333,0.1425925925925926],[0.07083333333333333,0.1425925925925926],[0.07083333333333333,0.1425925925925926],[0.07083333333333333,0.1425925925925926],[0.07083333333333333,0.1425925925925926],[0.07083333333333333,0.1425925925925926],[0.07083333333333333,0.1425925925925926],[0.07083333333333333,0.1425925925925926],[0.07083333333333333,0.1425925925925926],[0.07083333333333333,0.1425925925925926],[0.07083333333333333,0.1425925925925926],[0.07083333333333333,0.1425925925925926],[0.07083333333333333,0.1425925925925926],[0.07083333333333333,0.1425925925925926],[0.07083333333333333,0.1425925925925926],[0.07083333333333333,0.1425925925925926],[0.07083333333333333,0.1425925925925926],[0.07083333333333333,0.1425925925925926],[0.07083333333333333,0.1425925925925926],[0.07083333333333333,0.1425925925925926],[0.07083333333333333,0.1425925925925926],[0.07083333333333333,0.1425925925925926],[0.07083333333333333,0.1425925925925926],[0.071875,0.1425925925925926],[0.07291666666666667,0.1425925925925926],[0.07291666666666667,0.1425925925925926],[0.07291666666666667,0.16666666666666666],[0.07291666666666667,0.18518518518518517],[0.065625,0.2518518518518518],[0.06458333333333334,0.2740740740740741],[0.052083333333333336,0.3574074074074074],[0.04791666666666667,0.37222222222222223],[0.036458333333333336,0.4],[0.034375,0.40370370370370373],[0.030208333333333334,0.40925925925925927],[0.028125,0.4111111111111111],[0.023958333333333335,0.4111111111111111],[0.022916666666666665,0.4111111111111111],[0.017708333333333333,0.4111111111111111],[0.016666666666666666,0.4111111111111111],[0.016666666666666666,0.4111111111111111],[0.015625,0.4111111111111111],[0.015625,0.4111111111111111],[0.015625,0.4111111111111111],[0.015625,0.4111111111111111],[0.015625,0.4111111111111111],[0.015625,0.4111111111111111],[0.015625,0.4148148148148148],[0.015625,0.4185185185185185],[0.017708333333333333,0.4351851851851852],[0.019791666666666666,0.4425925925925926],[0.028125,0.4722222222222222],[0.030208333333333334,0.48148148148148145],[0.0375,0.512962962962963],[0.03958333333333333,0.524074074074074],[0.05,0.5611111111111111],[0.051041666666666666,0.5685185185185185],[0.05625,0.5888888888888889],[0.057291666666666664,0.5944444444444444],[0.058333333333333334,0.6018518518518519],[0.058333333333333334,0.6018518518518519],[0.058333333333333334,0.6018518518518519],[0.058333333333333334,0.6018518518518519],[0.058333333333333334,0.6018518518518519],[0.058333333333333334,0.6018518518518519],[0.058333333333333334,0.6018518518518519],[0.058333333333333334,0.6018518518518519],[0.058333333333333334,0.5962962962962963],[0.05416666666666667,0.5777777777777777],[0.051041666666666666,0.5666666666666667],[0.040625,0.5166666666666667],[0.03125,0.4722222222222222],[0.020833333333333332,0.4111111111111111],[0.013541666666666667,0.34814814814814815],[0.005208333333333333,0.27037037037037037],[-0.0010416666666666667,0.19444444444444445],[-0.0020833333333333333,0.13703703703703704],[-0.0020833333333333333,0.09259259259259259],[-0.0020833333333333333,0.05],[-0.0020833333333333333,0.044444444444444446],[-0.0020833333333333333,0.037037037037037035],[-0.0020833333333333333,0.03518518518518519],[-0.0020833333333333333,0.03148148148148148],[-0.0020833333333333333,0.025925925925925925],[-0.0020833333333333333,0.020370370370370372],[-0.004166666666666667,0.012962962962962963],[-0.007291666666666667,0.003703703703703704],[-0.010416666666666666,-0.011111111111111112],[-0.011458333333333333,-0.018518518518518517],[-0.0125,-0.024074074074074074],[-0.0125,-0.024074074074074074],[-0.0125,-0.025925925925925925],[-0.0125,-0.027777777777777776],[0.007291666666666667,-0.04259259259259259],[0.036458333333333336,-0.053703703703703705],[0.09583333333333334,-0.06851851851851852],[0.19166666666666668,-0.08888888888888889],[0.28229166666666666,-0.11296296296296296],[0.35833333333333334,-0.13333333333333333],[0.42083333333333334,-0.15185185185185185],[0.4635416666666667,-0.16111111111111112],[0.490625,-0.16296296296296298],[0.49895833333333334,-0.16296296296296298],[0.49895833333333334,-0.16296296296296298],[0.5,-0.16296296296296298],[0.496875,-0.15185185185185185],[0.4822916666666667,-0.13333333333333333],[0.46875,-0.12407407407407407],[0.46041666666666664,-0.12037037037037036],[0.45625,-0.11851851851851852],[0.45416666666666666,-0.11666666666666667],[0.45416666666666666,-0.11666666666666667],[0.45729166666666665,-0.10185185185185185],[0.46458333333333335,-0.09259259259259259],[0.4864583333333333,-0.07592592592592592],[0.5239583333333333,-0.040740740740740744],[0.546875,-0.009259259259259259],[0.5604166666666667,0.022222222222222223],[0.565625,0.06851851851851852],[0.565625,0.12962962962962962],[0.5447916666666667,0.2222222222222222],[0.5125,0.31666666666666665],[0.465625,0.4166666666666667],[0.42291666666666666,0.48703703703703705],[0.390625,0.5314814814814814],[0.3697916666666667,0.5537037037037037],[0.359375,0.562962962962963],[0.3572916666666667,0.562962962962963],[0.35104166666666664,0.562962962962963],[0.340625,0.55],[0.32916666666666666,0.5296296296296297],[0.32916666666666666,0.524074074074074],[0.32916666666666666,0.524074074074074],[0.32916666666666666,0.5222222222222223],[0.3416666666666667,0.5185185185185185],[0.34479166666666666,0.512962962962963],[0.353125,0.5037037037037037],[0.35625,0.48703703703703705],[0.35625,0.4648148148148148],[0.35625,0.45],[0.353125,0.4185185185185185],[0.34791666666666665,0.39444444444444443],[0.34375,0.37407407407407406],[0.34270833333333334,0.36666666666666664],[0.340625,0.3611111111111111],[0.340625,0.3611111111111111],[0.340625,0.3611111111111111],[0.340625,0.3611111111111111],[0.340625,0.3611111111111111],[0.340625,0.3611111111111111],[0.340625,0.3611111111111111],[0.340625,0.3611111111111111],[0.340625,0.3611111111111111],[0.340625,0.3611111111111111],[0.340625,0.3611111111111111],[0.340625,0.3611111111111111],[0.340625,0.3611111111111111],[0.340625,0.3611111111111111],[0.340625,0.3611111111111111],[0.340625,0.3611111111111111],[0.340625,0.3611111111111111],[0.340625,0.3611111111111111],[0.340625,0.3611111111111111],[0.340625,0.3611111111111111],[0.340625,0.3611111111111111],[0.340625,0.3611111111111111],[0.340625,0.3611111111111111],[0.340625,0.3611111111111111],[0.340625,0.3611111111111111],[0.340625,0.3611111111111111],[0.340625,0.3611111111111111],[0.340625,0.3611111111111111],[0.340625,0.3611111111111111],[0.340625,0.3611111111111111],[0.340625,0.3611111111111111],[0.340625,0.3611111111111111],[0.340625,0.3611111111111111],[0.340625,0.3611111111111111],[0.340625,0.3611111111111111],[0.340625,0.3611111111111111],[0.340625,0.3611111111111111],[0.340625,0.3611111111111111],[0.340625,0.3611111111111111],[0.340625,0.3611111111111111],[0.340625,0.3611111111111111],[0.340625,0.3611111111111111],[0.340625,0.3611111111111111],[0.340625,0.3611111111111111],[0.340625,0.3611111111111111],[0.340625,0.3611111111111111],[0.340625,0.3611111111111111],[0.340625,0.3611111111111111],[0.340625,0.3611111111111111],[0.340625,0.3611111111111111],[0.340625,0.3611111111111111],[0.340625,0.3611111111111111],[0.340625,0.3611111111111111],[0.340625,0.3611111111111111],[0.340625,0.3611111111111111],[0.340625,0.3611111111111111],[0.340625,0.3611111111111111],[0.340625,0.3611111111111111],[0.340625,0.3611111111111111],[0.340625,0.3611111111111111],[0.340625,0.3611111111111111],[0.340625,0.3611111111111111],[0.340625,0.3611111111111111],[0.340625,0.3611111111111111],[0.340625,0.3611111111111111],[0.340625,0.3611111111111111],[0.340625,0.3611111111111111],[0.340625,0.3611111111111111],[0.340625,0.3611111111111111],[0.340625,0.3611111111111111],[0.340625,0.3611111111111111],[0.340625,0.3611111111111111],[0.340625,0.3611111111111111],[0.340625,0.3611111111111111],[0.340625,0.3611111111111111],[0.340625,0.3611111111111111],[0.340625,0.3611111111111111],[0.340625,0.3611111111111111],[0.340625,0.3611111111111111],[0.340625,0.3611111111111111],[0.3375,0.34629629629629627],[0.33229166666666665,0.3351851851851852],[0.32916666666666666,0.3296296296296296],[0.32708333333333334,0.32592592592592595],[0.32708333333333334,0.32222222222222224],[0.325,0.31851851851851853],[0.325,0.31851851851851853],[0.325,0.31851851851851853]]","[[0.05770833333333331,0.4609259259259259],[0.05333333333333338,0.4762962962962964],[0.05333333333333338,0.4762962962962964],[0.04239583333333338,0.4601851851851852],[0.04239583333333338,0.4601851851851852],[0.05385416666666672,0.4737037037037036],[0.05385416666666672,0.4737037037037036],[0.058437500000000024,0.4583333333333333],[0.058437500000000024,0.4583333333333333],[0.05499999999999995,0.42240740740740745],[0.05499999999999995,0.42240740740740745],[0.04854166666666669,0.419074074074074],[0.04854166666666669,0.419074074074074],[0.04906250000000002,0.39296296296296307],[0.04906250000000002,0.39296296296296307],[0.0578125,0.34388888888888897],[0.0578125,0.34388888888888897],[0.06520833333333335,0.3133333333333334],[0.06520833333333335,0.3133333333333334],[0.07000000000000005,0.3020370370370371],[0.07000000000000005,0.3020370370370371],[0.06416666666666669,0.2640740740740741],[0.06416666666666669,0.2640740740740741],[0.060104166666666715,0.2294444444444444],[0.060104166666666715,0.2294444444444444],[0.03447916666666669,0.1868518518518518],[0.03447916666666669,0.1868518518518518],[0.027291666666666714,0.130925925925926],[0.027291666666666714,0.130925925925926],[0.03312499999999995,0.1124074074074075],[0.03312499999999995,0.1124074074074075],[0.03250000000000005,0.05333333333333325],[0.03250000000000005,0.05333333333333325],[0.04114583333333333,0.028518518518518478],[0.04114583333333333,0.028518518518518478],[0.04729166666666664,-0.0294444444444444],[0.04729166666666664,-0.0294444444444444],[0.04458333333333329,-0.08777777777777773],[0.04458333333333329,-0.08777777777777773],[0.050312499999999954,-0.13962962962962958],[0.050312499999999954,-0.13962962962962958],[0.07583333333333328,-0.14814814814814814],[0.07583333333333328,-0.14814814814814814],[0.07583333333333328,-0.14814814814814814],[0.035000000000000024,-0.15685185185185183],[0.035000000000000024,-0.15685185185185183],[0.035000000000000024,-0.15685185185185183],[0.035000000000000024,-0.15685185185185183],[-0.011770833333333286,-0.16629629629629633],[-0.011770833333333286,-0.16629629629629633],[-0.05687500000000002,-0.15481481481481485],[-0.05687500000000002,-0.15481481481481485],[-0.09093749999999995,-0.16888888888888887],[-0.09093749999999995,-0.16888888888888887],[-0.11781250000000003,-0.17222222222222222],[-0.11781250000000003,-0.17222222222222222],[-0.14093749999999997,-0.19703703703703698],[-0.14093749999999997,-0.19703703703703698],[-0.17260416666666673,-0.20999999999999996],[-0.17260416666666673,-0.20999999999999996],[-0.19791666666666666,-0.19962962962962966],[-0.19791666666666666,-0.19962962962962966],[-0.21802083333333327,-0.16518518518518516],[-0.21802083333333327,-0.16518518518518516],[-0.2704166666666667,-0.17759259259259255],[-0.2704166666666667,-0.17759259259259255],[-0.2329166666666667,-0.22611111111111115],[-0.2329166666666667,-0.22611111111111115],[-0.18885416666666663,-0.22259259259259256],[-0.18885416666666663,-0.22259259259259256],[-0.1671875,-0.2338888888888889],[-0.1671875,-0.2338888888888889],[-0.14291666666666672,-0.24166666666666667],[-0.14291666666666672,-0.24166666666666667],[-0.11843750000000004,-0.2698148148148148],[-0.10427083333333335,-0.24666666666666665],[-0.0860416666666667,-0.25092592592592594],[-0.0860416666666667,-0.25092592592592594],[-0.06656249999999998,-0.23425925925925925],[-0.06656249999999998,-0.23425925925925925],[-0.05802083333333338,-0.22629629629629627],[-0.014687500000000023,-0.23407407407407405],[-0.014687500000000023,-0.23407407407407405],[0.003333333333333381,-0.20833333333333334],[0.003333333333333381,-0.20833333333333334],[0.03135416666666669,-0.21666666666666667],[0.03135416666666669,-0.21666666666666667],[0.0655208333333333,-0.21055555555555552],[0.0655208333333333,-0.21055555555555552],[0.08864583333333324,-0.2168518518518519],[0.10854166666666672,-0.202962962962963],[0.10427083333333324,-0.24166666666666667],[0.12281250000000009,-0.14685185185185187],[0.12312500000000005,-0.1242592592592593],[0.14385416666666656,-0.1287037037037037],[0.14385416666666656,-0.1287037037037037],[0.13020833333333334,-0.09759259259259258],[0.11697916666666662,-0.06870370370370374],[0.109375,-0.07574074074074069],[0.07479166666666662,-0.08333333333333333],[0.04041666666666662,-0.06962962962962967],[0.004270833333333357,-0.062407407407407384],[0.044062499999999956,0.005000000000000084],[0.044062499999999956,0.005000000000000084],[0.03927083333333338,-0.058333333333333334],[0.046875,-0.0940740740740741],[0.07541666666666676,-0.08962962962962959],[0.06375000000000004,-0.09444444444444444],[0.05281250000000005,-0.11537037037037039],[0.07010416666666662,-0.12018518518518514],[0.1349999999999999,-0.09148148148148144],[0.1349999999999999,-0.09148148148148144],[0.1397916666666667,-0.10759259259259263],[0.15395833333333328,-0.0705555555555556],[0.18020833333333333,-0.08296296296296299],[0.20239583333333327,-0.07666666666666662],[0.20239583333333327,-0.07666666666666662],[0.23250000000000004,-0.06259259259259262],[0.22458333333333325,-0.04462962962962967],[0.27666666666666656,-0.02092592592592584],[0.3710416666666667,0.002962962962963005],[0.39958333333333323,0.020555555555555598],[0.40750000000000003,0.005185185185185101],[0.46124999999999994,0.05018518518518523],[0.5073958333333333,0.0485185185185186],[0.4926041666666668,0.03685185185185181],[0.4926041666666668,0.03685185185185181],[0.49802083333333325,0.054074074074074156],[0.5189583333333334,0.056666666666666705],[0.525,0.034999999999999955],[0.5310416666666666,0.013333333333333417],[0.5310416666666666,0.013333333333333417],[0.48489583333333336,-0.008333333333333333],[0.4813541666666666,-0.02444444444444453],[0.47781250000000003,-0.04055555555555551],[0.4796875,-0.0705555555555556],[0.5012500000000001,-0.12851851851851848],[0.5173958333333334,-0.16222222222222227],[0.5173958333333334,-0.16222222222222227],[0.5002083333333334,-0.192037037037037],[0.4728125000000001,-0.2448148148148148],[0.4701041666666666,-0.2922222222222222],[0.4701041666666666,-0.2922222222222222],[0.46906249999999994,-0.3455555555555556],[0.4826041666666666,-0.4142592592592592],[0.49416666666666675,-0.43444444444444447],[0.47718749999999993,-0.4507407407407407],[0.4756249999999999,-0.5374074074074073],[0.45437500000000003,-0.596111111111111],[0.43854166666666666,-0.6103703703703705],[0.43854166666666666,-0.6103703703703705],[0.45770833333333344,-0.6324074074074074],[0.45770833333333344,-0.6324074074074074],[0.46239583333333345,-0.6657407407407407],[0.4930208333333333,-0.6625925925925926],[0.484375,-0.7177777777777778],[0.4701041666666666,-0.741111111111111],[0.43812499999999993,-0.7842592592592592],[0.43468749999999995,-0.8312962962962962],[0.42249999999999993,-0.7968518518518519],[0.40822916666666675,-0.7722222222222223],[0.3889583333333334,-0.7959259259259259],[0.36520833333333325,-0.794074074074074],[0.35343749999999996,-0.7822222222222222],[0.31375000000000003,-0.7625925925925926],[0.29406249999999995,-0.7098148148148148],[0.2686458333333334,-0.6514814814814816],[0.24666666666666662,-0.6203703703703703],[0.1984375,-0.6038888888888889],[0.16177083333333328,-0.5935185185185186],[0.1178124999999999,-0.58],[0.10604166666666662,-0.5235185185185185],[0.11031250000000009,-0.4801851851851852],[0.1125,-0.4809259259259259],[0.09166666666666666,-0.5142592592592592],[0.08375000000000009,-0.4818518518518518],[0.08302083333333338,-0.4637037037037037],[0.08499999999999991,-0.4911111111111111],[0.08499999999999991,-0.4911111111111111],[0.12083333333333333,-0.4905555555555555],[0.14458333333333329,-0.48055555555555557],[0.14197916666666663,-0.41574074074074074],[0.10677083333333333,-0.39000000000000007],[0.043958333333333384,-0.3744444444444444],[-0.028437499999999952,-0.3025925925925925],[-0.07687499999999996,-0.23129629629629625],[-0.12062499999999995,-0.19462962962962968],[-0.15822916666666664,-0.17851851851851847],[-0.19937499999999997,-0.13296296296296298],[-0.24895833333333334,-0.10388888888888893],[-0.29708333333333337,-0.04944444444444453],[-0.29708333333333337,-0.04944444444444453],[-0.3094791666666667,-0.04314814814814806],[-0.3295833333333333,-0.06388888888888888],[-0.3336458333333333,-0.0868518518518518],[-0.30135416666666665,-0.10999999999999996],[-0.26802083333333326,-0.14425925925925923],[-0.26802083333333326,-0.14425925925925923],[-0.2297916666666667,-0.15629629629629627],[-0.2297916666666667,-0.15629629629629627],[-0.2001041666666667,-0.16314814814814818],[-0.17052083333333337,-0.17907407407407405],[-0.17052083333333337,-0.17907407407407405],[-0.13291666666666668,-0.16407407407407412],[-0.13291666666666668,-0.16407407407407412],[-0.08916666666666669,-0.21074074074074076],[-0.08916666666666669,-0.21074074074074076],[-0.034166666666666616,-0.2494444444444444],[-0.034166666666666616,-0.2494444444444444],[0.03885416666666662,-0.24018518518518517],[0.10968749999999995,-0.2492592592592593],[0.1506249999999999,-0.23870370370370367],[0.1694791666666667,-0.22759259259259254],[0.18291666666666656,-0.24222222222222226],[0.2013541666666666,-0.2494444444444444],[0.22072916666666675,-0.23148148148148148],[0.24249999999999997,-0.2222222222222222],[0.2613541666666668,-0.172037037037037],[0.26552083333333343,-0.1537037037037037],[0.25812499999999994,-0.16111111111111112],[0.25125000000000003,-0.16814814814814816],[0.23854166666666668,-0.14907407407407408],[0.24791666666666667,-0.13055555555555556],[0.2599999999999999,-0.13240740740740742],[0.2599999999999999,-0.13240740740740742],[0.26802083333333326,-0.1175925925925926],[0.2830208333333334,-0.09425925925925922],[0.2741666666666667,-0.10944444444444448],[0.27614583333333326,-0.10777777777777775],[0.27937500000000004,-0.10777777777777775],[0.2838541666666667,-0.102962962962963],[0.2867708333333333,-0.10685185185185184],[0.29364583333333344,-0.14777777777777779],[0.29500000000000004,-0.19388888888888886],[0.3023958333333333,-0.21740740740740735]]","[[0.05770833333333331,0.4609259259259259,0.00019999998807662678],[0.05333333333333338,0.4762962962962964,0.035099999994038455],[0.05333333333333338,0.4762962962962964,0.04259999999403874],[0.04239583333333338,0.4601851851851852,0.06850000000000023],[0.04239583333333338,0.4601851851851852,0.07609999999404238],[0.05385416666666672,0.4737037037037036,0.10200000000000387],[0.05385416666666672,0.4737037037037036,0.10900000000000176],[0.058437500000000024,0.4583333333333333,0.13390000000595847],[0.058437500000000024,0.4583333333333333,0.14169999998807725],[0.05499999999999995,0.42240740740740745,0.16859999999404351],[0.05499999999999995,0.42240740740740745,0.1760999999940438],[0.04854166666666669,0.419074074074074,0.2024000000059587],[0.04854166666666669,0.419074074074074,0.21169999998807754],[0.04906250000000002,0.39296296296296307,0.23559999999404369],[0.04906250000000002,0.39296296296296307,0.24309999999404397],[0.0578125,0.34388888888888897,0.26719999998807964],[0.0578125,0.34388888888888897,0.2760999999940381],[0.06520833333333335,0.3133333333333334,0.30190000000596484],[0.06520833333333335,0.3133333333333334,0.3100000000000023],[0.07000000000000005,0.3020370370370371,0.3365000000000009],[0.07000000000000005,0.3020370370370371,0.34380000001192457],[0.06416666666666669,0.2640740740740741,0.37119999998807884],[0.06416666666666669,0.2640740740740741,0.3780000000000001],[0.060104166666666715,0.2294444444444444,0.40059999999404283],[0.060104166666666715,0.2294444444444444,0.40800000000000125],[0.03447916666666669,0.1868518518518518,0.4351999999880789],[0.03447916666666669,0.1868518518518518,0.45159999999403766],[0.027291666666666714,0.130925925925926,0.46880000001192457],[0.027291666666666714,0.130925925925926,0.47569999998808044],[0.03312499999999995,0.1124074074074075,0.5041999999880815],[0.03312499999999995,0.1124074074074075,0.5120000000000005],[0.03250000000000005,0.05333333333333325,0.5354000000059642],[0.03250000000000005,0.05333333333333325,0.5430999999940411],[0.04114583333333333,0.028518518518518478,0.5711999999880817],[0.04114583333333333,0.028518518518518478,0.5784000000059635],[0.04729166666666664,-0.0294444444444444,0.6021999999880805],[0.04729166666666664,-0.0294444444444444,0.611099999994039],[0.04458333333333329,-0.08777777777777773,0.6373000000119191],[0.04458333333333329,-0.08777777777777773,0.6445999999940426],[0.050312499999999954,-0.13962962962962958,0.6686999999880783],[0.050312499999999954,-0.13962962962962958,0.6761999999880786],[0.07583333333333328,-0.14814814814814814,0.7048000000119217],[0.07583333333333328,-0.14814814814814814,0.7146999999880776],[0.07583333333333328,-0.14814814814814814,0.7173000000119245],[0.035000000000000024,-0.15685185185185183,0.7520000000000024],[0.035000000000000024,-0.15685185185185183,0.7598000000119214],[0.035000000000000024,-0.15685185185185183,0.7665000000000006],[0.035000000000000024,-0.15685185185185183,0.78630000001192],[-0.011770833333333286,-0.16629629629629633,0.8174000000059607],[-0.011770833333333286,-0.16629629629629633,0.8260000000000005],[-0.05687500000000002,-0.15481481481481485,0.8538000000119226],[-0.05687500000000002,-0.15481481481481485,0.861099999994039],[-0.09093749999999995,-0.16888888888888887,0.8851999999880817],[-0.09093749999999995,-0.16888888888888887,0.8955999999940403],[-0.11781250000000003,-0.17222222222222222,0.9204000000059622],[-0.11781250000000003,-0.17222222222222222,0.9285999999940415],[-0.14093749999999997,-0.19703703703703698,0.9519999999999982],[-0.14093749999999997,-0.19703703703703698,0.9595999999940403],[-0.17260416666666673,-0.20999999999999996,0.9875000000000043],[-0.17260416666666673,-0.20999999999999996,0.9969999999999999],[-0.19791666666666666,-0.19962962962962966,1.0189999999999984],[-0.19791666666666666,-0.19962962962962966,1.0266999999880824],[-0.21802083333333327,-0.16518518518518516,1.0544000000059626],[-0.21802083333333327,-0.16518518518518516,1.0619999999999976],[-0.2704166666666667,-0.17759259259259255,1.0855000000000032],[-0.2704166666666667,-0.17759259259259255,1.0931999999880802],[-0.2329166666666667,-0.22611111111111115,1.1194000000059603],[-0.2329166666666667,-0.22611111111111115,1.127199999988079],[-0.18885416666666663,-0.22259259259259256,1.1525999999940382],[-0.18885416666666663,-0.22259259259259256,1.1605999999940408],[-0.1671875,-0.2338888888888889,1.1871999999880813],[-0.1671875,-0.2338888888888889,1.2018000000119216],[-0.14291666666666672,-0.24166666666666667,1.21669999998808],[-0.14291666666666672,-0.24166666666666667,1.2334000000059646],[-0.11843750000000004,-0.2698148148148148,1.2529000000059582],[-0.10427083333333335,-0.24666666666666665,1.2708000000119242],[-0.0860416666666667,-0.25092592592592594,1.28780000001192],[-0.0860416666666667,-0.25092592592592594,1.3086999999880788],[-0.06656249999999998,-0.23425925925925925,1.3166999999880815],[-0.06656249999999998,-0.23425925925925925,1.3333000000119242],[-0.05802083333333338,-0.22629629629629627,1.354300000011925],[-0.014687500000000023,-0.23407407407407405,1.374099999994037],[-0.014687500000000023,-0.23407407407407405,1.3833000000119213],[0.003333333333333381,-0.20833333333333334,1.4063000000119246],[0.003333333333333381,-0.20833333333333334,1.416599999994041],[0.03135416666666669,-0.21666666666666667,1.4333000000119185],[0.03135416666666669,-0.21666666666666667,1.4500999999940376],[0.0655208333333333,-0.21055555555555552,1.47080000001192],[0.0655208333333333,-0.21055555555555552,1.4834999999999994],[0.08864583333333324,-0.2168518518518519,1.5000999999940419],[0.10854166666666672,-0.202962962962963,1.5165999999940425],[0.10427083333333324,-0.24166666666666667,1.5386999999880828],[0.12281250000000009,-0.14685185185185187,1.5539000000059602],[0.12312500000000005,-0.1242592592592593,1.5713000000119237],[0.14385416666666656,-0.1287037037037037,1.588800000011922],[0.14385416666666656,-0.1287037037037037,1.6000000000000014],[0.13020833333333334,-0.09759259259259258,1.616599999994044],[0.11697916666666662,-0.06870370370370374,1.6340999999940422],[0.109375,-0.07574074074074069,1.6531999999880824],[0.07479166666666662,-0.08333333333333333,1.6695999999940412],[0.04041666666666662,-0.06962962962962967,1.6854999999999976],[0.004270833333333357,-0.062407407407407384,1.7039000000059588],[0.044062499999999956,0.005000000000000084,1.7195000000000036],[0.044062499999999956,0.005000000000000084,1.7331999999880807],[0.03927083333333338,-0.058333333333333334,1.7500999999940419],[0.046875,-0.0940740740740741,1.7719999999999985],[0.07541666666666676,-0.08962962962962959,1.7868000000119224],[0.06375000000000004,-0.09444444444444444,1.8030999999940391],[0.05281250000000005,-0.11537037037037039,1.8183000000119236],[0.07010416666666662,-0.12018518518518514,1.8376999999880823],[0.1349999999999999,-0.09148148148148144,1.8539999999999992],[0.1349999999999999,-0.09148148148148144,1.866599999994044],[0.1397916666666667,-0.10759259259259263,1.8834000000059632],[0.15395833333333328,-0.0705555555555556,1.9050000000000011],[0.18020833333333333,-0.08296296296296299,1.9203000000119204],[0.20239583333333327,-0.07666666666666662,1.939],[0.20239583333333327,-0.07666666666666662,1.9500999999940376],[0.23250000000000004,-0.06259259259259262,1.9698000000119222],[0.22458333333333325,-0.04462962962962967,1.9859000000059623],[0.27666666666666656,-0.02092592592592584,2.0035999999940373],[0.3710416666666667,0.002962962962963005,2.0214000000059613],[0.39958333333333323,0.020555555555555598,2.0360000000000014],[0.40750000000000003,0.005185185185185101,2.051599999994039],[0.46124999999999994,0.05018518518518523,2.068699999988077],[0.5073958333333333,0.0485185185185186,2.0866999999880775],[0.4926041666666668,0.03685185185185181,2.103500000000004],[0.4926041666666668,0.03685185185185181,2.116599999994044],[0.49802083333333325,0.054074074074074156,2.1333000000119213],[0.5189583333333334,0.056666666666666705,2.1536999999880777],[0.525,0.034999999999999955,2.1701999999880783],[0.5310416666666666,0.013333333333333417,2.1850000000000023],[0.5310416666666666,0.013333333333333417,2.2040999999940425],[0.48489583333333336,-0.008333333333333333,2.216800000011922],[0.4813541666666666,-0.02444444444444453,2.2346999999880808],[0.47781250000000003,-0.04055555555555551,2.2550000000000026],[0.4796875,-0.0705555555555556,2.2704000000059636],[0.5012500000000001,-0.12851851851851848,2.28630000001192],[0.5173958333333334,-0.16222222222222227,2.3075999999940393],[0.5173958333333334,-0.16222222222222227,2.3165999999940396],[0.5002083333333334,-0.192037037037037,2.333300000011924],[0.4728125000000001,-0.2448148148148148,2.3530999999940434],[0.4701041666666666,-0.2922222222222222,2.3730999999940394],[0.4701041666666666,-0.2922222222222222,2.3831999999880793],[0.46906249999999994,-0.3455555555555556,2.3999999999999986],[0.4826041666666666,-0.4142592592592592,2.416599999994041],[0.49416666666666675,-0.43444444444444447,2.4364000000059605],[0.47718749999999993,-0.4507407407407407,2.450499999999998],[0.4756249999999999,-0.5374074074074073,2.4665999999940382],[0.45437500000000003,-0.596111111111111,2.483099999994039],[0.43854166666666666,-0.6103703703703705,2.502300000011921],[0.43854166666666666,-0.6103703703703705,2.5164000000059588],[0.45770833333333344,-0.6324074074074074,2.533099999994043],[0.45770833333333344,-0.6324074074074074,2.5499000000059624],[0.46239583333333345,-0.6657407407407407,2.566499999999998],[0.4930208333333333,-0.6625925925925926,2.5830999999940403],[0.484375,-0.7177777777777778,2.601199999988083],[0.4701041666666666,-0.741111111111111,2.61640000000596],[0.43812499999999993,-0.7842592592592592,2.6330999999940374],[0.43468749999999995,-0.8312962962962962,2.64969999998808],[0.42249999999999993,-0.7968518518518519,2.6679000000059645],[0.40822916666666675,-0.7722222222222223,2.6830999999940417],[0.3889583333333334,-0.7959259259259259,2.702300000011924],[0.36520833333333325,-0.794074074074074,2.71780000001192],[0.35343749999999996,-0.7822222222222222,2.734599999994039],[0.31375000000000003,-0.7625925925925926,2.7526999999880815],[0.29406249999999995,-0.7098148148148148,2.7719000000059637],[0.2686458333333334,-0.6514814814814816,2.786999999999999],[0.24666666666666662,-0.6203703703703703,2.80240000000596],[0.1984375,-0.6038888888888889,2.8168000000119235],[0.16177083333333328,-0.5935185185185186,2.833199999988082],[0.1178124999999999,-0.58,2.851300000011925],[0.10604166666666662,-0.5235185185185185,2.8690999999940416],[0.11031250000000009,-0.4801851851851852,2.8845999999940375],[0.1125,-0.4809259259259259,2.904400000005964],[0.09166666666666666,-0.5142592592592592,2.9200999999940436],[0.08375000000000009,-0.4818518518518518,2.9355999999940394],[0.08302083333333338,-0.4637037037037037,2.9503000000119215],[0.08499999999999991,-0.4911111111111111,2.9720000000000013],[0.08499999999999991,-0.4911111111111111,2.9881999999880833],[0.12083333333333333,-0.4905555555555555,3.003699999988079],[0.14458333333333329,-0.48055555555555557,3.0165000000000006],[0.14197916666666663,-0.41574074074074074,3.033099999994043],[0.10677083333333333,-0.39000000000000007,3.0498000000119205],[0.043958333333333384,-0.3744444444444444,3.066400000005963],[-0.028437499999999952,-0.3025925925925925,3.0830999999940403],[-0.07687499999999996,-0.23129629629629625,3.1014000000059596],[-0.12062499999999995,-0.19462962962962968,3.11640000000596],[-0.15822916666666664,-0.17851851851851847,3.1331999999880793],[-0.19937499999999997,-0.13296296296296298,3.149900000005964],[-0.24895833333333334,-0.10388888888888893,3.166499999999999],[-0.29708333333333337,-0.04944444444444453,3.183],[-0.29708333333333337,-0.04944444444444453,3.199900000005961],[-0.3094791666666667,-0.04314814814814806,3.2165000000000035],[-0.3295833333333333,-0.06388888888888888,3.2349999999999994],[-0.3336458333333333,-0.0868518518518518,3.2496999999880813],[-0.30135416666666665,-0.10999999999999996,3.2664000000059588],[-0.26802083333333326,-0.14425925925925923,3.283099999994043],[-0.26802083333333326,-0.14425925925925923,3.2998000000119205],[-0.2297916666666667,-0.15629629629629627,3.316400000005963],[-0.2297916666666667,-0.15629629629629627,3.3330999999940403],[-0.2001041666666667,-0.16314814814814818,3.349800000011925],[-0.17052083333333337,-0.17907407407407405,3.3709000000059604],[-0.17052083333333337,-0.17907407407407405,3.3830999999940374],[-0.13291666666666668,-0.16407407407407412,3.399800000011922],[-0.13291666666666668,-0.16407407407407412,3.4164000000059644],[-0.08916666666666669,-0.21074074074074076,3.4331999999880836],[-0.08916666666666669,-0.21074074074074076,3.449800000011919],[-0.034166666666666616,-0.2494444444444444,3.4665000000000035],[-0.034166666666666616,-0.2494444444444444,3.4831999999880807],[0.03885416666666662,-0.24018518518518517,3.4998000000119234],[0.10968749999999995,-0.2492592592592593,3.5164000000059588],[0.1506249999999999,-0.23870370370370367,3.533099999994043],[0.1694791666666667,-0.22759259259259254,3.5496999999880785],[0.18291666666666656,-0.24222222222222226,3.566499999999998],[0.2013541666666666,-0.2494444444444444,3.5829999999999984],[0.22072916666666675,-0.23148148148148148,3.601199999988083],[0.24249999999999997,-0.2222222222222222,3.618000000000002],[0.2613541666666668,-0.172037037037037,3.6330999999940374],[0.26552083333333343,-0.1537037037037037,3.649800000011922],[0.25812499999999994,-0.16111111111111112,3.6664000000059644],[0.25125000000000003,-0.16814814814814816,3.683],[0.23854166666666668,-0.14907407407407408,3.7000999999940376],[0.24791666666666667,-0.13055555555555556,3.7164000000059616],[0.2599999999999999,-0.13240740740740742,3.733099999994039],[0.2599999999999999,-0.13240740740740742,3.7496999999880813],[0.26802083333333326,-0.1175925925925926,3.7665000000000006],[0.2830208333333334,-0.09425925925925922,3.783199999988078],[0.2741666666666667,-0.10944444444444448,3.803099999994039],[0.27614583333333326,-0.10777777777777775,3.817],[0.27937500000000004,-0.10777777777777775,3.833300000011924],[0.2838541666666667,-0.102962962962963,3.8499000000059596],[0.2867708333333333,-0.10685185185185184,3.8685999999940393],[0.29364583333333344,-0.14777777777777779,3.8831999999880793],[0.29500000000000004,-0.19388888888888886,3.8999999999999986],[0.3023958333333333,-0.21740740740740735,3.916800000011925]]","[0.00019999998807662678,0.035099999994038455,0.04259999999403874,0.06850000000000023,0.07609999999404238,0.10200000000000387,0.10900000000000176,0.13390000000595847,0.14169999998807725,0.16859999999404351,0.1760999999940438,0.2024000000059587,0.21169999998807754,0.23559999999404369,0.24309999999404397,0.26719999998807964,0.2760999999940381,0.30190000000596484,0.3100000000000023,0.3365000000000009,0.34380000001192457,0.37119999998807884,0.3780000000000001,0.40059999999404283,0.40800000000000125,0.4351999999880789,0.45159999999403766,0.46880000001192457,0.47569999998808044,0.5041999999880815,0.5120000000000005,0.5354000000059642,0.5430999999940411,0.5711999999880817,0.5784000000059635,0.6021999999880805,0.611099999994039,0.6373000000119191,0.6445999999940426,0.6686999999880783,0.6761999999880786,0.7048000000119217,0.7146999999880776,0.7173000000119245,0.7520000000000024,0.7598000000119214,0.7665000000000006,0.78630000001192,0.8174000000059607,0.8260000000000005,0.8538000000119226,0.861099999994039,0.8851999999880817,0.8955999999940403,0.9204000000059622,0.9285999999940415,0.9519999999999982,0.9595999999940403,0.9875000000000043,0.9969999999999999,1.0189999999999984,1.0266999999880824,1.0544000000059626,1.0619999999999976,1.0855000000000032,1.0931999999880802,1.1194000000059603,1.127199999988079,1.1525999999940382,1.1605999999940408,1.1871999999880813,1.2018000000119216,1.21669999998808,1.2334000000059646,1.2529000000059582,1.2708000000119242,1.28780000001192,1.3086999999880788,1.3166999999880815,1.3333000000119242,1.354300000011925,1.374099999994037,1.3833000000119213,1.4063000000119246,1.416599999994041,1.4333000000119185,1.4500999999940376,1.47080000001192,1.4834999999999994,1.5000999999940419,1.5165999999940425,1.5386999999880828,1.5539000000059602,1.5713000000119237,1.588800000011922,1.6000000000000014,1.616599999994044,1.6340999999940422,1.6531999999880824,1.6695999999940412,1.6854999999999976,1.7039000000059588,1.7195000000000036,1.7331999999880807,1.7500999999940419,1.7719999999999985,1.7868000000119224,1.8030999999940391,1.8183000000119236,1.8376999999880823,1.8539999999999992,1.866599999994044,1.8834000000059632,1.9050000000000011,1.9203000000119204,1.939,1.9500999999940376,1.9698000000119222,1.9859000000059623,2.0035999999940373,2.0214000000059613,2.0360000000000014,2.051599999994039,2.068699999988077,2.0866999999880775,2.103500000000004,2.116599999994044,2.1333000000119213,2.1536999999880777,2.1701999999880783,2.1850000000000023,2.2040999999940425,2.216800000011922,2.2346999999880808,2.2550000000000026,2.2704000000059636,2.28630000001192,2.3075999999940393,2.3165999999940396,2.333300000011924,2.3530999999940434,2.3730999999940394,2.3831999999880793,2.3999999999999986,2.416599999994041,2.4364000000059605,2.450499999999998,2.4665999999940382,2.483099999994039,2.502300000011921,2.5164000000059588,2.533099999994043,2.5499000000059624,2.566499999999998,2.5830999999940403,2.601199999988083,2.61640000000596,2.6330999999940374,2.64969999998808,2.6679000000059645,2.6830999999940417,2.702300000011924,2.71780000001192,2.734599999994039,2.7526999999880815,2.7719000000059637,2.786999999999999,2.80240000000596,2.8168000000119235,2.833199999988082,2.851300000011925,2.8690999999940416,2.8845999999940375,2.904400000005964,2.9200999999940436,2.9355999999940394,2.9503000000119215,2.9720000000000013,2.9881999999880833,3.003699999988079,3.0165000000000006,3.033099999994043,3.0498000000119205,3.066400000005963,3.0830999999940403,3.1014000000059596,3.11640000000596,3.1331999999880793,3.149900000005964,3.166499999999999,3.183,3.199900000005961,3.2165000000000035,3.2349999999999994,3.2496999999880813,3.2664000000059588,3.283099999994043,3.2998000000119205,3.316400000005963,3.3330999999940403,3.349800000011925,3.3709000000059604,3.3830999999940374,3.399800000011922,3.4164000000059644,3.4331999999880836,3.449800000011919,3.4665000000000035,3.4831999999880807,3.4998000000119234,3.5164000000059588,3.533099999994043,3.5496999999880785,3.566499999999998,3.5829999999999984,3.601199999988083,3.618000000000002,3.6330999999940374,3.649800000011922,3.6664000000059644,3.683,3.7000999999940376,3.7164000000059616,3.733099999994039,3.7496999999880813,3.7665000000000006,3.783199999988078,3.803099999994039,3.817,3.833300000011924,3.8499000000059596,3.8685999999940393,3.8831999999880793,3.8999999999999986,3.916800000011925]","[1732775300471,1732775300499,1732775300506,1732775300532,1732775300540,1732775300565,1732775300572,1732775300597,1732775300605,1732775300632,1732775300640,1732775300666,1732775300675,1732775300699,1732775300707,1732775300731,1732775300740,1732775300765,1732775300773,1732775300800,1732775300807,1732775300835,1732775300841,1732775300864,1732775300871,1732775300899,1732775300915,1732775300932,1732775300939,1732775300968,1732775300975,1732775300999,1732775301007,1732775301035,1732775301042,1732775301066,1732775301075,1732775301101,1732775301108,1732775301132,1732775301140,1732775301168,1732775301178,1732775301181,1732775301215,1732775301223,1732775301230,1732775301250,1732775301281,1732775301289,1732775301317,1732775301325,1732775301349,1732775301359,1732775301384,1732775301392,1732775301415,1732775301423,1732775301451,1732775301460,1732775301482,1732775301490,1732775301518,1732775301525,1732775301549,1732775301557,1732775301583,1732775301591,1732775301616,1732775301624,1732775301651,1732775301665,1732775301680,1732775301697,1732775301716,1732775301734,1732775301751,1732775301772,1732775301780,1732775301797,1732775301818,1732775301838,1732775301847,1732775301870,1732775301880,1732775301897,1732775301913,1732775301934,1732775301947,1732775301964,1732775301980,1732775302002,1732775302017,1732775302035,1732775302052,1732775302063,1732775302080,1732775302098,1732775302117,1732775302133,1732775302149,1732775302167,1732775302183,1732775302197,1732775302213,1732775302235,1732775302250,1732775302267,1732775302282,1732775302301,1732775302318,1732775302330,1732775302347,1732775302368,1732775302384,1732775302402,1732775302414,1732775302433,1732775302449,1732775302467,1732775302485,1732775302499,1732775302515,1732775302532,1732775302550,1732775302567,1732775302580,1732775302597,1732775302617,1732775302634,1732775302648,1732775302668,1732775302680,1732775302698,1732775302718,1732775302734,1732775302750,1732775302771,1732775302780,1732775302797,1732775302816,1732775302837,1732775302847,1732775302863,1732775302880,1732775302900,1732775302914,1732775302930,1732775302947,1732775302966,1732775302980,1732775302997,1732775303013,1732775303030,1732775303047,1732775303065,1732775303080,1732775303097,1732775303113,1732775303131,1732775303147,1732775303166,1732775303181,1732775303198,1732775303216,1732775303235,1732775303250,1732775303266,1732775303280,1732775303297,1732775303315,1732775303333,1732775303348,1732775303368,1732775303384,1732775303399,1732775303414,1732775303435,1732775303452,1732775303467,1732775303480,1732775303497,1732775303513,1732775303530,1732775303547,1732775303565,1732775303580,1732775303597,1732775303613,1732775303630,1732775303647,1732775303663,1732775303680,1732775303698,1732775303713,1732775303730,1732775303747,1732775303763,1732775303780,1732775303797,1732775303813,1732775303834,1732775303847,1732775303863,1732775303880,1732775303897,1732775303913,1732775303930,1732775303947,1732775303963,1732775303980,1732775303997,1732775304013,1732775304030,1732775304047,1732775304065,1732775304081,1732775304097,1732775304113,1732775304130,1732775304147,1732775304164,1732775304180,1732775304197,1732775304213,1732775304230,1732775304247,1732775304267,1732775304280,1732775304297,1732775304313,1732775304332,1732775304347,1732775304363,1732775304380]","[[1015.4,788.9],[1011.2,797.2],[1011.2,797.2],[1000.7,788.5],[1000.7,788.5],[1011.7,795.8],[1011.7,795.8],[1016.1,787.5],[1016.1,787.5],[1012.8,768.1],[1012.8,768.1],[1006.6,766.3],[1006.6,766.3],[1007.1,752.2],[1007.1,752.2],[1015.5,725.7],[1015.5,725.7],[1022.6,709.2],[1022.6,709.2],[1027.2,703.1],[1027.2,703.1],[1021.6,682.6],[1021.6,682.6],[1017.7,663.9],[1017.7,663.9],[993.1,640.9],[993.1,640.9],[986.2,610.7],[986.2,610.7],[991.8,600.7],[991.8,600.7],[991.2,568.8],[991.2,568.8],[999.5,555.4],[999.5,555.4],[1005.4,524.1],[1005.4,524.1],[1002.8,492.6],[1002.8,492.6],[1008.3,464.6],[1008.3,464.6],[1032.8,460],[1032.8,460],[1032.8,460],[993.6,455.3],[993.6,455.3],[993.6,455.3],[993.6,455.3],[948.7,450.2],[948.7,450.2],[905.4,456.4],[905.4,456.4],[872.7,448.8],[872.7,448.8],[846.9,447],[846.9,447],[824.7,433.6],[824.7,433.6],[794.3,426.6],[794.3,426.6],[770,432.2],[770,432.2],[750.7,450.8],[750.7,450.8],[700.4,444.1],[700.4,444.1],[736.4,417.9],[736.4,417.9],[778.7,419.8],[778.7,419.8],[799.5,413.7],[799.5,413.7],[822.8,409.5],[822.8,409.5],[846.3,394.3],[859.9,406.8],[877.4,404.5],[877.4,404.5],[896.1,413.5],[896.1,413.5],[904.3,417.8],[945.9,413.6],[945.9,413.6],[963.2,427.5],[963.2,427.5],[990.1,423],[990.1,423],[1022.9,426.3],[1022.9,426.3],[1045.1,422.9],[1064.2,430.4],[1060.1,409.5],[1077.9,460.7],[1078.2,472.9],[1098.1,470.5],[1098.1,470.5],[1085,487.3],[1072.3,502.9],[1065,499.1],[1031.8,495],[998.8,502.4],[964.1,506.3],[1002.3,542.7],[1002.3,542.7],[997.7,508.5],[1005,489.2],[1032.4,491.6],[1021.2,489],[1010.7,477.7],[1027.3,475.1],[1089.6,490.6],[1089.6,490.6],[1094.2,481.9],[1107.8,501.9],[1133,495.2],[1154.3,498.6],[1154.3,498.6],[1183.2,506.2],[1175.6,515.9],[1225.6,528.7],[1316.2,541.6],[1343.6,551.1],[1351.2,542.8],[1402.8,567.1],[1447.1,566.2],[1432.9,559.9],[1432.9,559.9],[1438.1,569.2],[1458.2,570.6],[1464,558.9],[1469.8,547.2],[1469.8,547.2],[1425.5,535.5],[1422.1,526.8],[1418.7,518.1],[1420.5,501.9],[1441.2,470.6],[1456.7,452.4],[1456.7,452.4],[1440.2,436.3],[1413.9,407.8],[1411.3,382.2],[1411.3,382.2],[1410.3,353.4],[1423.3,316.3],[1434.4,305.4],[1418.1,296.6],[1416.6,249.8],[1396.2,218.1],[1381,210.4],[1381,210.4],[1399.4,198.5],[1399.4,198.5],[1403.9,180.5],[1433.3,182.2],[1425,152.4],[1411.3,139.8],[1380.6,116.5],[1377.3,91.1],[1365.6,109.7],[1351.9,123],[1333.4,110.2],[1310.6,111.2],[1299.3,117.6],[1261.2,128.2],[1242.3,156.7],[1217.9,188.2],[1196.8,205],[1150.5,213.9],[1115.3,219.5],[1073.1,226.8],[1061.8,257.3],[1065.9,280.7],[1068,280.3],[1048,262.3],[1040.4,279.8],[1039.7,289.6],[1041.6,274.8],[1041.6,274.8],[1076,275.1],[1098.8,280.5],[1096.3,315.5],[1062.5,329.4],[1002.2,337.8],[932.7,376.6],[886.2,415.1],[844.2,434.9],[808.1,443.6],[768.6,468.2],[721,483.9],[674.8,513.3],[674.8,513.3],[662.9,516.7],[643.6,505.5],[639.7,493.1],[670.7,480.6],[702.7,462.1],[702.7,462.1],[739.4,455.6],[739.4,455.6],[767.9,451.9],[796.3,443.3],[796.3,443.3],[832.4,451.4],[832.4,451.4],[874.4,426.2],[874.4,426.2],[927.2,405.3],[927.2,405.3],[997.3,410.3],[1065.3,405.4],[1104.6,411.1],[1122.7,417.1],[1135.6,409.2],[1153.3,405.3],[1171.9,415],[1192.8,420],[1210.9,447.1],[1214.9,457],[1207.8,453],[1201.2,449.2],[1189,459.5],[1198,469.5],[1209.6,468.5],[1209.6,468.5],[1217.3,476.5],[1231.7,489.1],[1223.2,480.9],[1225.1,481.8],[1228.2,481.8],[1232.5,484.4],[1235.3,482.3],[1241.9,460.2],[1243.2,435.3],[1250.3,422.6]]","[0,0.37864299999999995]","[0.37864299999999995,0.37864299999999995]","[-0.37864299999999995,0]","[-0.37864299999999995,-0.37864299999999995]","[0,0]","[0.37864299999999995,0]","[0,-0.37864299999999995]","[0.37864299999999995,-0.37864299999999995]",0,0,0,0,1,4,Laptop,11,5,13,9
,,,,,,,,,,,,,,,,,,,18,001,2024-11-28_14h27.34.171,Attention_exp_legacy,2023.1.0,Win32,59.88023952,,,,,,,,,,,[0.06041666666666667],[0.3611111111111111],[1],[0],[0],[3.11490000000596],"[""Option1_label""]",Option1_label,2,4.1169,"[[0.325,0.31851851851851853],[0.325,0.31851851851851853],[0.325,0.31851851851851853],[0.325,0.31851851851851853],[0.325,0.31851851851851853],[0.325,0.31851851851851853],[0.325,0.31851851851851853],[0.325,0.31851851851851853],[0.325,0.31851851851851853],[0.325,0.31851851851851853],[0.325,0.31851851851851853],[0.325,0.31851851851851853],[0.325,0.31851851851851853],[0.325,0.31851851851851853],[0.325,0.31851851851851853],[0.325,0.31851851851851853],[0.325,0.31851851851851853],[0.325,0.31851851851851853],[0.325,0.31851851851851853],[0.325,0.31851851851851853],[0.325,0.31851851851851853],[0.325,0.31851851851851853],[0.3229166666666667,0.3148148148148148],[0.31979166666666664,0.30925925925925923],[0.3072916666666667,0.29814814814814816],[0.27291666666666664,0.2777777777777778],[0.16875,0.22777777777777777],[-0.00625,0.17592592592592593],[-0.20833333333333334,0.12222222222222222],[-0.40625,0.10185185185185185],[-0.5979166666666667,0.07222222222222222],[-0.6458333333333334,0.05740740740740741],[-0.6677083333333333,0.046296296296296294],[-0.6739583333333333,0.046296296296296294],[-0.675,0.046296296296296294],[-0.675,0.044444444444444446],[-0.675,0.04259259259259259],[-0.6729166666666667,0.03518518518518519],[-0.6666666666666666,0.024074074074074074],[-0.6510416666666666,0.009259259259259259],[-0.640625,0],[-0.5947916666666667,-0.025925925925925925],[-0.5208333333333334,-0.05185185185185185],[-0.43854166666666666,-0.07222222222222222],[-0.33645833333333336,-0.1],[-0.23125,-0.1111111111111111],[-0.14895833333333333,-0.12777777777777777],[-0.10520833333333333,-0.14074074074074075],[-0.07916666666666666,-0.15],[-0.05625,-0.16296296296296298],[-0.04895833333333333,-0.16666666666666666],[-0.046875,-0.1685185185185185],[-0.046875,-0.1685185185185185],[-0.046875,-0.1685185185185185],[-0.046875,-0.1685185185185185],[-0.046875,-0.1685185185185185],[-0.046875,-0.1685185185185185],[-0.04479166666666667,-0.1685185185185185],[-0.042708333333333334,-0.1685185185185185],[-0.040625,-0.1685185185185185],[-0.0375,-0.1685185185185185],[-0.017708333333333333,-0.1685185185185185],[-0.005208333333333333,-0.1685185185185185],[0.025,-0.1685185185185185],[0.07083333333333333,-0.1685185185185185],[0.10208333333333333,-0.1685185185185185],[0.12916666666666668,-0.1685185185185185],[0.165625,-0.15],[0.21458333333333332,-0.08703703703703704],[0.275,0.02962962962962963],[0.33541666666666664,0.17592592592592593],[0.36770833333333336,0.3148148148148148],[0.384375,0.4111111111111111],[0.3875,0.47962962962962963],[0.3875,0.5222222222222223],[0.384375,0.5611111111111111],[0.384375,0.575925925925926],[0.384375,0.5796296296296296],[0.3854166666666667,0.5814814814814815],[0.3854166666666667,0.5814814814814815],[0.3854166666666667,0.5814814814814815],[0.3854166666666667,0.5814814814814815],[0.3854166666666667,0.5814814814814815],[0.3854166666666667,0.5814814814814815],[0.3854166666666667,0.5814814814814815],[0.3854166666666667,0.5814814814814815],[0.3854166666666667,0.5796296296296296],[0.384375,0.5518518518518518],[0.38333333333333336,0.5296296296296297],[0.3770833333333333,0.46111111111111114],[0.37395833333333334,0.42592592592592593],[0.3729166666666667,0.4074074074074074],[0.371875,0.39814814814814814],[0.3697916666666667,0.3907407407407407],[0.3697916666666667,0.387037037037037],[0.36875,0.38333333333333336],[0.36875,0.37777777777777777],[0.36770833333333336,0.37222222222222223],[0.36666666666666664,0.3685185185185185],[0.365625,0.3648148148148148],[0.3645833333333333,0.3611111111111111],[0.3645833333333333,0.3611111111111111],[0.3645833333333333,0.3611111111111111],[0.3645833333333333,0.3611111111111111],[0.3645833333333333,0.3611111111111111],[0.3645833333333333,0.3611111111111111],[0.3645833333333333,0.3611111111111111],[0.3645833333333333,0.3611111111111111],[0.3645833333333333,0.3611111111111111],[0.3645833333333333,0.3611111111111111],[0.3645833333333333,0.3611111111111111],[0.3645833333333333,0.3611111111111111],[0.3645833333333333,0.3611111111111111],[0.3645833333333333,0.3611111111111111],[0.3645833333333333,0.3611111111111111],[0.3645833333333333,0.3611111111111111],[0.3645833333333333,0.3611111111111111],[0.3645833333333333,0.3611111111111111],[0.3645833333333333,0.3611111111111111],[0.3645833333333333,0.3611111111111111],[0.3645833333333333,0.3611111111111111],[0.3645833333333333,0.3611111111111111],[0.3645833333333333,0.3611111111111111],[0.3645833333333333,0.3611111111111111],[0.3645833333333333,0.3611111111111111],[0.3645833333333333,0.3592592592592593],[0.3645833333333333,0.3592592592592593],[0.3645833333333333,0.3592592592592593],[0.3645833333333333,0.3592592592592593],[0.3645833333333333,0.3592592592592593],[0.3645833333333333,0.3592592592592593],[0.3645833333333333,0.3592592592592593],[0.3645833333333333,0.3592592592592593],[0.3645833333333333,0.3592592592592593],[0.3645833333333333,0.3592592592592593],[0.3645833333333333,0.3592592592592593],[0.3645833333333333,0.3592592592592593],[0.3645833333333333,0.3592592592592593],[0.3614583333333333,0.35555555555555557],[0.359375,0.35],[0.3541666666666667,0.34629629629629627],[0.346875,0.3425925925925926],[0.33229166666666665,0.3296296296296296],[0.3104166666666667,0.31851851851851853],[0.28125,0.3148148148148148],[0.246875,0.3148148148148148],[0.21458333333333332,0.3148148148148148],[0.184375,0.3148148148148148],[0.15729166666666666,0.3148148148148148],[0.13229166666666667,0.3148148148148148],[0.10625,0.3148148148148148],[0.096875,0.31666666666666665],[0.08958333333333333,0.31666666666666665],[0.08645833333333333,0.31666666666666665],[0.08645833333333333,0.31666666666666665],[0.08645833333333333,0.31666666666666665],[0.08645833333333333,0.31666666666666665],[0.08645833333333333,0.31666666666666665],[0.08645833333333333,0.31666666666666665],[0.08645833333333333,0.31666666666666665],[0.084375,0.31851851851851853],[0.084375,0.31851851851851853],[0.08125,0.32407407407407407],[0.078125,0.3296296296296296],[0.07291666666666667,0.34074074074074073],[0.06979166666666667,0.34629629629629627],[0.06666666666666667,0.35185185185185186],[0.065625,0.3537037037037037],[0.06458333333333334,0.35555555555555557],[0.06458333333333334,0.35555555555555557],[0.06458333333333334,0.35555555555555557],[0.06458333333333334,0.35555555555555557],[0.06354166666666666,0.3574074074074074],[0.0625,0.3592592592592593],[0.06041666666666667,0.3611111111111111],[0.06041666666666667,0.3611111111111111],[0.06041666666666667,0.3611111111111111],[0.06041666666666667,0.3611111111111111],[0.06041666666666667,0.3611111111111111],[0.06041666666666667,0.3611111111111111],[0.06041666666666667,0.3611111111111111],[0.06041666666666667,0.3611111111111111],[0.06041666666666667,0.3611111111111111],[0.06041666666666667,0.3611111111111111],[0.06041666666666667,0.3611111111111111],[0.06041666666666667,0.3611111111111111],[0.06041666666666667,0.3611111111111111],[0.06041666666666667,0.3611111111111111],[0.06041666666666667,0.3611111111111111],[0.06041666666666667,0.3611111111111111],[0.06041666666666667,0.3611111111111111],[0.06041666666666667,0.3611111111111111],[0.06041666666666667,0.3611111111111111],[0.06041666666666667,0.3611111111111111],[0.06041666666666667,0.3611111111111111],[0.06041666666666667,0.3611111111111111],[0.06041666666666667,0.3611111111111111],[0.06041666666666667,0.3611111111111111],[0.06041666666666667,0.3611111111111111],[0.06041666666666667,0.3611111111111111],[0.06041666666666667,0.3611111111111111],[0.06041666666666667,0.3611111111111111],[0.06041666666666667,0.3611111111111111],[0.06041666666666667,0.3611111111111111],[0.06041666666666667,0.3611111111111111],[0.06041666666666667,0.3611111111111111],[0.06041666666666667,0.3611111111111111],[0.06041666666666667,0.3611111111111111],[0.06041666666666667,0.3611111111111111],[0.06041666666666667,0.3611111111111111],[0.06041666666666667,0.3611111111111111],[0.06041666666666667,0.3611111111111111],[0.06041666666666667,0.3611111111111111],[0.06041666666666667,0.3611111111111111],[0.06041666666666667,0.3611111111111111],[0.06041666666666667,0.3611111111111111],[0.06041666666666667,0.3611111111111111],[0.06041666666666667,0.3611111111111111],[0.06041666666666667,0.3611111111111111],[0.06041666666666667,0.3611111111111111],[0.06041666666666667,0.3611111111111111],[0.06041666666666667,0.3611111111111111],[0.06041666666666667,0.3611111111111111],[0.06041666666666667,0.3611111111111111],[0.06041666666666667,0.3611111111111111],[0.06041666666666667,0.3611111111111111],[0.06041666666666667,0.3611111111111111],[0.06041666666666667,0.3611111111111111],[0.06041666666666667,0.3611111111111111],[0.06041666666666667,0.3611111111111111],[0.06041666666666667,0.3611111111111111],[0.06041666666666667,0.3611111111111111],[0.06041666666666667,0.3611111111111111],[0.06041666666666667,0.3611111111111111],[0.06041666666666667,0.3611111111111111],[0.06041666666666667,0.3611111111111111],[0.06041666666666667,0.3611111111111111],[0.06041666666666667,0.3611111111111111],[0.06041666666666667,0.3611111111111111],[0.06041666666666667,0.3611111111111111],[0.06041666666666667,0.3611111111111111],[0.06041666666666667,0.3611111111111111],[0.06041666666666667,0.3611111111111111],[0.06041666666666667,0.3611111111111111],[0.06041666666666667,0.3611111111111111],[0.06041666666666667,0.3611111111111111],[0.06041666666666667,0.3611111111111111],[0.06041666666666667,0.3611111111111111]]","[[-0.03697916666666667,-0.06166666666666669],[-0.03697916666666667,-0.06166666666666669],[-0.033645833333333285,-0.060370370370370414],[-0.034687499999999954,-0.06500000000000004],[-0.03979166666666671,-0.04518518518518514],[-0.026041666666666668,-0.028703703703703703],[-0.016250000000000025,-0.014259259259259343],[-0.02322916666666662,-0.0005555555555554713],[-0.03291666666666669,-0.018148148148148063],[-0.0375,-0.04277777777777782],[-0.0375,-0.04277777777777782],[-0.057187499999999974,-0.0477777777777777],[-0.06885416666666669,-0.06314814814814819],[-0.07374999999999995,-0.06481481481481481],[-0.07395833333333333,-0.06166666666666669],[-0.09906250000000003,-0.06555555555555552],[-0.09906250000000003,-0.06555555555555552],[-0.12416666666666672,-0.06944444444444445],[-0.12416666666666672,-0.06944444444444445],[-0.1748958333333333,-0.04407407407407399],[-0.21385416666666662,-0.02555555555555547],[-0.2634375,-0.011481481481481566],[-0.3042708333333334,-0.022222222222222223],[-0.3042708333333334,-0.022222222222222223],[-0.27697916666666667,-0.03944444444444436],[-0.27697916666666667,-0.03944444444444436],[-0.3108333333333333,-0.013333333333333417],[-0.3108333333333333,-0.013333333333333417],[-0.32395833333333335,0.011296296296296339],[-0.32395833333333335,0.011296296296296339],[-0.32781250000000006,-0.018888888888888972],[-0.32781250000000006,-0.018888888888888972],[-0.35,-0.039074074074074115],[-0.35,-0.039074074074074115],[-0.31614583333333335,-0.034999999999999955],[-0.28156249999999994,-0.0455555555555556],[-0.20499999999999996,-0.07111111111111107],[-0.13927083333333337,-0.03481481481481473],[-0.08791666666666664,0.01962962962962967],[-0.10916666666666662,0.038703703703703664],[-0.10916666666666662,0.038703703703703664],[-0.1234375,0.06314814814814819],[-0.13614583333333338,0.0257407407407407],[-0.12927083333333336,0.05055555555555547],[-0.09354166666666662,0.026851851851851852],[-0.13468749999999996,0.002777777777777778],[-0.11666666666666667,0.02092592592592584],[-0.17395833333333333,0.0507407407407407],[-0.18416666666666662,0.05944444444444449],[-0.18875000000000006,0.07481481481481478],[-0.21749999999999994,0.09444444444444444],[-0.19572916666666665,0.07666666666666662],[-0.19572916666666665,0.07666666666666662],[-0.14427083333333332,0.13425925925925927],[-0.09656250000000005,0.17907407407407416],[-0.05,0.25833333333333336],[-0.05677083333333333,0.30111111111111116],[-0.07760416666666667,0.2868518518518518],[-0.04229166666666669,0.2833333333333333],[-0.033854166666666664,0.28777777777777774],[-0.030312500000000023,0.2777777777777778],[0.015208333333333357,0.27444444444444455],[0.050416666666666644,0.2581481481481481],[0.017604166666666643,0.2051851851851851],[-0.016770833333333356,0.1838888888888888],[-0.09437500000000003,0.21185185185185182],[-0.09781249999999998,0.2524074074074073],[-0.109375,0.27833333333333327],[-0.07708333333333334,0.30166666666666664],[-0.04895833333333333,0.2962962962962963],[-0.03718750000000005,0.2920370370370371],[-0.013125000000000024,0.2603703703703704],[0.035312499999999976,0.25018518518518523],[0.10395833333333329,0.2507407407407407],[0.16364583333333324,0.22870370370370371],[0.23875000000000005,0.14240740740740737],[0.23875000000000005,0.14240740740740737],[0.3111458333333334,0.06796296296296304],[0.3111458333333334,0.06796296296296304],[0.36447916666666674,0.02444444444444453],[0.33229166666666665,-0.007962962962962878],[0.30010416666666656,-0.040370370370370286],[0.31572916666666656,-0.10833333333333334],[0.30052083333333335,-0.12092592592592595],[0.28760416666666655,-0.19870370370370372],[0.25020833333333337,-0.23499999999999996],[0.21927083333333333,-0.2644444444444445],[0.23333333333333334,-0.29740740740740745],[0.23333333333333334,-0.29740740740740745],[0.25010416666666657,-0.34222222222222226],[0.2751041666666666,-0.39092592592592595],[0.3084374999999999,-0.4353703703703704],[0.3310416666666666,-0.46648148148148144],[0.3376041666666666,-0.4824074074074074],[0.3546875,-0.49129629629629634],[0.3610416666666666,-0.45092592592592595],[0.38333333333333336,-0.4455555555555556],[0.3889583333333334,-0.4487037037037037],[0.37916666666666665,-0.4433333333333333],[0.3693749999999999,-0.43796296296296294],[0.3614583333333333,-0.4324074074074074],[0.3564583333333334,-0.42907407407407405],[0.30916666666666665,-0.4242592592592593],[0.2513541666666666,-0.3857407407407408],[0.17979166666666657,-0.3490740740740741],[0.09645833333333324,-0.3125925925925926],[0.022395833333333334,-0.2727777777777778],[-0.0546875,-0.2264814814814815],[-0.0546875,-0.2264814814814815],[-0.13354166666666673,-0.17018518518518513],[-0.13354166666666673,-0.17018518518518513],[-0.19458333333333327,-0.14962962962962964],[-0.19458333333333327,-0.14962962962962964],[-0.278125,-0.08481481481481483],[-0.3667708333333334,-0.028518518518518478],[-0.38708333333333333,-0.008703703703703788],[-0.4013541666666666,0.009629629629629714],[-0.4,0.005740740740740783],[-0.3877083333333334,0.026666666666666623],[-0.3889583333333333,0.03944444444444436],[-0.40677083333333336,0.03925925925925934],[-0.42458333333333337,0.039074074074074115],[-0.44427083333333334,0.0772222222222223],[-0.46041666666666664,0.08925925925925934],[-0.44854166666666667,0.09648148148148153],[-0.45875,0.10444444444444441],[-0.46062500000000006,0.10796296296296289],[-0.4625,0.11148148148148157],[-0.4418750000000001,0.09740740740740746],[-0.4084375,0.0816666666666667],[-0.37052083333333335,0.11462962962962958],[-0.325625,0.12518518518518523],[-0.31916666666666665,0.10611111111111103],[-0.23031250000000003,0.05648148148148148],[-0.15906250000000005,0.022037037037036994],[-0.06510416666666667,0.008148148148148106],[-0.06510416666666667,0.008148148148148106],[0.014479166666666644,0.0001851851851852273],[0.10697916666666671,0.011296296296296339],[0.16177083333333328,-0.01777777777777782],[0.21729166666666658,-0.03888888888888889],[0.2835416666666667,-0.10425925925925927],[0.2835416666666667,-0.10425925925925927],[0.34791666666666665,-0.1557407407407408],[0.34791666666666665,-0.1557407407407408],[0.4578125,-0.19462962962962968],[0.4578125,-0.19462962962962968],[0.4553124999999999,-0.20759259259259263],[0.4553124999999999,-0.20759259259259263],[0.43302083333333335,-0.24055555555555552],[0.42072916666666677,-0.2770370370370371],[0.42072916666666677,-0.2770370370370371],[0.4083333333333333,-0.3131481481481482],[0.3685416666666666,-0.36925925925925923],[0.3389583333333334,-0.3846296296296296],[0.3086458333333333,-0.40796296296296297],[0.2829166666666666,-0.4044444444444444],[0.26458333333333334,-0.4059259259259259],[0.22322916666666662,-0.39296296296296296],[0.21739583333333337,-0.3866666666666667],[0.23489583333333333,-0.35648148148148145],[0.18218750000000009,-0.34870370370370374],[0.12958333333333344,-0.3412962962962963],[0.09145833333333328,-0.33296296296296296],[0.07062499999999995,-0.3314814814814815],[0.059062500000000046,-0.3194444444444444],[0.05656249999999995,-0.3072222222222222],[0.041562499999999974,-0.2814814814814815],[0.004479166666666619,-0.27629629629629626],[-0.024374999999999977,-0.2757407407407407],[-0.04874999999999995,-0.30703703703703705],[-0.028854166666666715,-0.31203703703703706],[-0.011770833333333286,-0.31444444444444447],[0.016666666666666666,-0.3109259259259259],[0.003541666666666643,-0.3146296296296296],[-0.01885416666666669,-0.32888888888888895],[-0.06145833333333333,-0.3418518518518519],[-0.10406249999999997,-0.35481481481481486],[-0.10270833333333336,-0.36074074074074075],[-0.0953125,-0.3792592592592593],[-0.1326041666666666,-0.35185185185185186],[-0.16989583333333336,-0.3244444444444444],[-0.17770833333333336,-0.29203703703703704],[-0.19437500000000002,-0.27314814814814814],[-0.18656250000000002,-0.2403703703703704],[-0.2485416666666667,-0.18759259259259262],[-0.2804166666666667,-0.172037037037037],[-0.3177083333333333,-0.16129629629629633],[-0.3923958333333334,-0.14166666666666666],[-0.48010416666666667,-0.1111111111111111],[-0.5220833333333333,-0.09666666666666665],[-0.5605208333333334,-0.07462962962962966],[-0.6227083333333333,-0.05407407407407405],[-0.6227083333333333,-0.05407407407407405],[-0.6873958333333333,-0.025925925925925925],[-0.7403125,0.01703703703703712],[-0.7066666666666667,0.03537037037037041],[-0.7066666666666667,0.03537037037037041],[-0.6479166666666667,0.018148148148148063],[-0.6011458333333334,0.019259259259259216],[-0.5601041666666667,0.027407407407407325],[-0.5060416666666667,0.024629629629629547],[-0.4496875000000001,-0.0003703703703704546],[-0.3645833333333333,-0.002777777777777778],[-0.28239583333333335,-0.011296296296296339],[-0.20020833333333338,-0.0198148148148149],[-0.1469791666666667,-0.02111111111111107],[-0.084375,-0.04537037037037037],[-0.084375,-0.04537037037037037],[-0.06468750000000002,-0.028518518518518478],[-0.04656250000000005,-0.026111111111111154],[-0.012083333333333357,-0.019999999999999917],[0.007291666666666667,-0.041666666666666664],[0.027083333333333334,-0.018703703703703747],[0.027083333333333334,-0.018703703703703747],[0.01906249999999995,-0.008888888888888804],[0.015312500000000047,-0.021296296296296296],[0.011562500000000024,-0.03370370370370379],[0.035312499999999976,-0.09018518518518516],[0.013333333333333286,-0.08907407407407411],[0.0032291666666666905,-0.10111111111111115],[0.024062500000000025,-0.0883333333333333],[0.06124999999999995,-0.09851851851851849],[0.10666666666666676,-0.08333333333333333],[0.15520833333333334,-0.06833333333333329],[0.19635416666666666,-0.07462962962962966],[0.23572916666666663,-0.0492592592592593],[0.2751041666666666,-0.02388888888888885],[0.28541666666666665,0.02111111111111107],[0.3102083333333333,0.040740740740740744],[0.31583333333333335,0.05259259259259255],[0.3056250000000001,0.00851851851851856],[0.28395833333333326,-0.018703703703703747],[0.2540625000000001,-0.046481481481481526],[0.23187499999999991,-0.09833333333333337],[0.21260416666666657,-0.14592592592592596],[0.1796875,-0.19129629629629633],[0.14677083333333343,-0.2366666666666667],[0.13020833333333334,-0.29148148148148145],[0.11875,-0.3509259259259259],[0.09947916666666666,-0.3844444444444445],[0.08333333333333333,-0.3861111111111111],[0.07739583333333329,-0.3972222222222222],[0.09333333333333324,-0.41388888888888886],[0.07416666666666671,-0.42314814814814816],[0.06749999999999995,-0.4324074074074074],[0.07156250000000004,-0.44722222222222224],[0.07302083333333324,-0.4631481481481482]]","[[-0.03697916666666667,-0.06166666666666669,0.0001999999880837322],[-0.03697916666666667,-0.06166666666666669,0.016500000000000625],[-0.033645833333333285,-0.060370370370370414,0.03309999999404312],[-0.034687499999999954,-0.06500000000000004,0.04979999998212037],[-0.03979166666666671,-0.04518518518518514,0.06900000000000261],[-0.026041666666666668,-0.028703703703703703,0.08359999999404266],[-0.016250000000000025,-0.014259259259259343,0.10259999999404101],[-0.02322916666666662,-0.0005555555555554713,0.11779999998212531],[-0.03291666666666669,-0.018148148148148063,0.13309999999404454],[-0.0375,-0.04277777777777782,0.1497999999821218],[-0.0375,-0.04277777777777782,0.16639999997616428],[-0.057187499999999974,-0.0477777777777777,0.1830999999940417],[-0.06885416666666669,-0.06314814814814819,0.19979999998211895],[-0.07374999999999995,-0.06481481481481481,0.21639999997616144],[-0.07395833333333333,-0.06166666666666669,0.23329999998212259],[-0.09906250000000003,-0.06555555555555552,0.2511999999880814],[-0.09906250000000003,-0.06555555555555552,0.2665000000000006],[-0.12416666666666672,-0.06944444444444445,0.2830999999940431],[-0.12416666666666672,-0.06944444444444445,0.29989999997616223],[-0.1748958333333333,-0.04407407407407399,0.31639999997616286],[-0.21385416666666662,-0.02555555555555547,0.3330999999940403],[-0.2634375,-0.011481481481481566,0.3498999999761594],[-0.3042708333333334,-0.022222222222222223,0.3755000000000024],[-0.3042708333333334,-0.022222222222222223,0.3831999999880793],[-0.27697916666666667,-0.03944444444444436,0.39989999997616366],[-0.27697916666666667,-0.03944444444444436,0.41659999999404107],[-0.3108333333333333,-0.013333333333333417,0.43950000000000244],[-0.3108333333333333,-0.013333333333333417,0.4498999999761608],[-0.32395833333333335,0.011296296296296339,0.4666999999880801],[-0.32395833333333335,0.011296296296296339,0.4831999999880807],[-0.32781250000000006,-0.018888888888888972,0.505500000000005],[-0.32781250000000006,-0.018888888888888972,0.5165999999940425],[-0.35,-0.039074074074074115,0.5333999999761616],[-0.35,-0.039074074074074115,0.5526999999880857],[-0.31614583333333335,-0.034999999999999955,0.5668999999761581],[-0.28156249999999994,-0.0455555555555556,0.5831999999880821],[-0.20499999999999996,-0.07111111111111107,0.6058999999761596],[-0.13927083333333337,-0.03481481481481473,0.6200000000000045],[-0.08791666666666664,0.01962962962962967,0.6360999999940447],[-0.10916666666666662,0.038703703703703664,0.6543999999761638],[-0.10916666666666662,0.038703703703703664,0.6665999999940411],[-0.1234375,0.06314814814814819,0.6832999999821254],[-0.13614583333333338,0.0257407407407407,0.6998999999761608],[-0.12927083333333336,0.05055555555555547,0.7190000000000012],[-0.09354166666666662,0.026851851851851852,0.7335000000000065],[-0.13468749999999996,0.002777777777777778,0.7498999999761651],[-0.11666666666666667,0.02092592592592584,0.7700000000000031],[-0.17395833333333333,0.0507407407407407,0.7857999999821246],[-0.18416666666666662,0.05944444444444449,0.8015000000000043],[-0.18875000000000006,0.07481481481481478,0.8217999999821188],[-0.21749999999999994,0.09444444444444444,0.8368999999761613],[-0.19572916666666665,0.07666666666666662,0.8515999999940433],[-0.19572916666666665,0.07666666666666662,0.866500000000002],[-0.14427083333333332,0.13425925925925927,0.8830999999940445],[-0.09656250000000005,0.17907407407407416,0.8997999999821218],[-0.05,0.25833333333333336,0.9163999999761643],[-0.05677083333333333,0.30111111111111116,0.9330999999940417],[-0.07760416666666667,0.2868518518518518,0.9523999999761585],[-0.04229166666666669,0.2833333333333333,0.9691999999880849],[-0.033854166666666664,0.28777777777777774,0.984599999994046],[-0.030312500000000023,0.2777777777777778,1.0038999999761629],[0.015208333333333357,0.27444444444444455,1.0197999999821192],[0.050416666666666644,0.2581481481481481,1.0350999999940456],[0.017604166666666643,0.2051851851851851,1.0526999999880857],[-0.016770833333333356,0.1838888888888888,1.0703999999761606],[-0.09437500000000003,0.21185185185185182,1.0846999999880822],[-0.09781249999999998,0.2524074074074073,1.0998999999761594],[-0.109375,0.27833333333333327,1.1190000000000069],[-0.07708333333333334,0.30166666666666664,1.135799999982119],[-0.04895833333333333,0.2962962962962963,1.1498999999761637],[-0.03718750000000005,0.2920370370370371,1.1700999999940436],[-0.013125000000000024,0.2603703703703704,1.186],[0.035312499999999976,0.25018518518518523,1.20059999999404],[0.10395833333333329,0.2507407407407407,1.2165000000000035],[0.16364583333333324,0.22870370370370371,1.2366999999880832],[0.23875000000000005,0.14240740740740737,1.2526999999880815],[0.23875000000000005,0.14240740740740737,1.267699999988082],[0.3111458333333334,0.06796296296296304,1.2872999999821246],[0.3111458333333334,0.06796296296296304,1.3000000000000043],[0.36447916666666674,0.02444444444444453,1.3163999999761629],[0.33229166666666665,-0.007962962962962878,1.3335000000000008],[0.30010416666666656,-0.040370370370370286,1.3496999999880828],[0.31572916666666656,-0.10833333333333334,1.3668999999761624],[0.30052083333333335,-0.12092592592592595,1.3830999999940445],[0.28760416666666655,-0.19870370370370372,1.39969999998808],[0.25020833333333337,-0.23499999999999996,1.4183999999761596],[0.21927083333333333,-0.2644444444444445,1.439099999994042],[0.23333333333333334,-0.29740740740740745,1.4537999999821238],[0.23333333333333334,-0.29740740740740745,1.4665999999940453],[0.25010416666666657,-0.34222222222222226,1.4835000000000065],[0.2751041666666666,-0.39092592592592595,1.5032999999821186],[0.3084374999999999,-0.4353703703703704,1.518599999994045],[0.3310416666666666,-0.46648148148148144,1.5370000000000061],[0.3376041666666666,-0.4824074074074074,1.5532999999821229],[0.3546875,-0.49129629629629634,1.5705000000000027],[0.3610416666666666,-0.45092592592592595,1.5858999999761636],[0.38333333333333336,-0.4455555555555556,1.603500000000004],[0.3889583333333334,-0.4487037037037037,1.618000000000002],[0.37916666666666665,-0.4433333333333333,1.6332999999821212],[0.3693749999999999,-0.43796296296296294,1.6498999999761637],[0.3614583333333333,-0.4324074074074074,1.6693999999761644],[0.3564583333333334,-0.42907407407407405,1.6833999999761602],[0.30916666666666665,-0.4242592592592593,1.7000000000000028],[0.2513541666666666,-0.3857407407407408,1.7163999999761614],[0.17979166666666657,-0.3490740740740741,1.7335000000000065],[0.09645833333333324,-0.3125925925925926,1.7497999999821232],[0.022395833333333334,-0.2727777777777778,1.7690999999940402],[-0.0546875,-0.2264814814814815,1.7847999999821198],[-0.0546875,-0.2264814814814815,1.8095999999940418],[-0.13354166666666673,-0.17018518518518513,1.8267999999821214],[-0.13354166666666673,-0.17018518518518513,1.8333999999761588],[-0.19458333333333327,-0.14962962962962964,1.8497999999821246],[-0.19458333333333327,-0.14962962962962964,1.86639999997616],[-0.278125,-0.08481481481481483,1.8830999999940445],[-0.3667708333333334,-0.028518518518518478,1.89969999998808],[-0.38708333333333333,-0.008703703703703788,1.9163999999761643],[-0.4013541666666666,0.009629629629629714,1.9330999999940417],[-0.4,0.005740740740740783,1.949799999982119],[-0.3877083333333334,0.026666666666666623,1.9668999999761638],[-0.3889583333333333,0.03944444444444436,1.983099999994046],[-0.40677083333333336,0.03925925925925934,1.9997999999821232],[-0.42458333333333337,0.039074074074074115,2.0165999999940425],[-0.44427083333333334,0.0772222222222223,2.033099999994043],[-0.46041666666666664,0.08925925925925934,2.0527999999821205],[-0.44854166666666667,0.09648148148148153,2.069500000000005],[-0.45875,0.10444444444444441,2.085000000000001],[-0.46062500000000006,0.10796296296296289,2.0997999999821246],[-0.4625,0.11148148148148157,2.11639999997616],[-0.4418750000000001,0.09740740740740746,2.1330999999940445],[-0.4084375,0.0816666666666667,2.14969999998808],[-0.37052083333333335,0.11462962962962958,2.1677999999821225],[-0.325625,0.12518518518518523,2.183000000000007],[-0.31916666666666665,0.10611111111111103,2.199699999988084],[-0.23031250000000003,0.05648148148148148,2.2163999999761614],[-0.15906250000000005,0.022037037037036994,2.233099999994046],[-0.06510416666666667,0.008148148148148106,2.2496999999880813],[-0.06510416666666667,0.008148148148148106,2.2665000000000006],[0.014479166666666644,0.0001851851851852273,2.283099999994043],[0.10697916666666671,0.011296296296296339,2.301599999994046],[0.16177083333333328,-0.01777777777777782,2.316500000000005],[0.21729166666666658,-0.03888888888888889,2.333199999988082],[0.2835416666666667,-0.10425925925925927,2.3552999999821225],[0.2835416666666667,-0.10425925925925927,2.368099999994044],[0.34791666666666665,-0.1557407407407408,2.3831999999880793],[0.34791666666666665,-0.1557407407407408,2.3998999999761637],[0.4578125,-0.19462962962962968,2.4253999999761646],[0.4578125,-0.19462962962962968,2.4331999999880836],[0.4553124999999999,-0.20759259259259263,2.4500999999940447],[0.4553124999999999,-0.20759259259259263,2.4703999999761592],[0.43302083333333335,-0.24055555555555552,2.4832999999821226],[0.42072916666666677,-0.2770370370370371,2.5035000000000025],[0.42072916666666677,-0.2770370370370371,2.5165000000000006],[0.4083333333333333,-0.3131481481481482,2.5367999999821222],[0.3685416666666666,-0.36925925925925923,2.552500000000002],[0.3389583333333334,-0.3846296296296296,2.5681999999880816],[0.3086458333333333,-0.40796296296296297,2.5830000000000055],[0.2829166666666666,-0.4044444444444444,2.5997999999821246],[0.26458333333333334,-0.4059259259259259,2.61639999997616],[0.22322916666666662,-0.39296296296296296,2.6330999999940445],[0.21739583333333337,-0.3866666666666667,2.649799999982122],[0.23489583333333333,-0.35648148148148145,2.6685999999940435],[0.18218750000000009,-0.34870370370370374,2.683000000000007],[0.12958333333333344,-0.3412962962962963,2.701500000000003],[0.09145833333333328,-0.33296296296296296,2.7165999999940453],[0.07062499999999995,-0.3314814814814815,2.735899999976162],[0.059062500000000046,-0.3194444444444444,2.749799999982123],[0.05656249999999995,-0.3072222222222222,2.7665000000000006],[0.041562499999999974,-0.2814814814814815,2.786899999976164],[0.004479166666666619,-0.27629629629629626,2.8020999999940415],[-0.024374999999999977,-0.2757407407407407,2.816299999982121],[-0.04874999999999995,-0.30703703703703705,2.8330999999940403],[-0.028854166666666715,-0.31203703703703706,2.8496999999880828],[-0.011770833333333286,-0.31444444444444447,2.8685000000000045],[0.016666666666666666,-0.3109259259259259,2.8831999999880793],[0.003541666666666643,-0.3146296296296296,2.899799999982122],[-0.01885416666666669,-0.32888888888888895,2.9163999999761643],[-0.06145833333333333,-0.3418518518518519,2.933000000000007],[-0.10406249999999997,-0.35481481481481486,2.949699999988084],[-0.10270833333333336,-0.36074074074074075,2.9665000000000035],[-0.0953125,-0.3792592592592593,2.983000000000004],[-0.1326041666666666,-0.35185185185185186,2.9996999999880813],[-0.16989583333333336,-0.3244444444444444,3.016299999982124],[-0.17770833333333336,-0.29203703703703704,3.033099999994043],[-0.19437500000000002,-0.27314814814814814,3.0496999999880856],[-0.18656250000000002,-0.2403703703703704,3.066399999976163],[-0.2485416666666667,-0.18759259259259262,3.0830999999940403],[-0.2804166666666667,-0.172037037037037,3.0997999999821246],[-0.3177083333333333,-0.16129629629629633,3.116500000000002],[-0.3923958333333334,-0.14166666666666666,3.1330000000000027],[-0.48010416666666667,-0.1111111111111111,3.14969999998808],[-0.5220833333333333,-0.09666666666666665,3.1678999999761643],[-0.5605208333333334,-0.07462962962962966,3.1830999999940417],[-0.6227083333333333,-0.05407407407407405,3.199699999988084],[-0.6227083333333333,-0.05407407407407405,3.2165000000000035],[-0.6873958333333333,-0.025925925925925925,3.233099999994046],[-0.7403125,0.01703703703703712,3.249799999982123],[-0.7066666666666667,0.03537037037037041,3.2705000000000055],[-0.7066666666666667,0.03537037037037041,3.283199999988078],[-0.6479166666666667,0.018148148148148063,3.2997999999821204],[-0.6011458333333334,0.019259259259259216,3.316399999976163],[-0.5601041666666667,0.027407407407407325,3.3330000000000055],[-0.5060416666666667,0.024629629629629547,3.3496999999880828],[-0.4496875000000001,-0.0003703703703704546,3.3688999999761577],[-0.3645833333333333,-0.002777777777777778,3.383399999976156],[-0.28239583333333335,-0.011296296296296339,3.399799999982129],[-0.20020833333333338,-0.0198148148148149,3.4162999999821224],[-0.1469791666666667,-0.02111111111111107,3.4332999999821183],[-0.084375,-0.04537037037037037,3.449699999988077],[-0.084375,-0.04537037037037037,3.4663999999761685],[-0.06468750000000002,-0.028518518518518478,3.482999999999997],[-0.04656250000000005,-0.026111111111111154,3.5011999999880814],[-0.012083333333333357,-0.019999999999999917,3.5165000000000006],[0.007291666666666667,-0.041666666666666664,3.536299999982127],[0.027083333333333334,-0.018703703703703747,3.553299999982123],[0.027083333333333334,-0.018703703703703747,3.566499999999998],[0.01906249999999995,-0.008888888888888804,3.5830999999940403],[0.015312500000000047,-0.021296296296296296,3.5997999999821175],[0.011562500000000024,-0.03370370370370379,3.61639999997616],[0.035312499999999976,-0.09018518518518516,3.6330999999940374],[0.013333333333333286,-0.08907407407407411,3.64969999998808],[0.0032291666666666905,-0.10111111111111115,3.6668999999761596],[0.024062500000000025,-0.0883333333333333,3.685899999976165],[0.06124999999999995,-0.09851851851851849,3.699799999982126],[0.10666666666666676,-0.08333333333333333,3.7163999999761685],[0.15520833333333334,-0.06833333333333329,3.732999999999997],[0.19635416666666666,-0.07462962962962966,3.749799999982123],[0.23572916666666663,-0.0492592592592593,3.7681999999880773],[0.2751041666666666,-0.02388888888888885,3.7830000000000084],[0.28541666666666665,0.02111111111111107,3.7996999999880856],[0.3102083333333333,0.040740740740740744,3.816299999982128],[0.31583333333333335,0.05259259259259255,3.8330999999940403],[0.3056250000000001,0.00851851851851856,3.8496999999880828],[0.28395833333333326,-0.018703703703703747,3.8698999999761625],[0.2540625000000001,-0.046481481481481526,3.883299999982121],[0.23187499999999991,-0.09833333333333337,3.89969999998808],[0.21260416666666657,-0.14592592592592596,3.9162999999821224],[0.1796875,-0.19129629629629633,3.933],[0.14677083333333343,-0.2366666666666667,3.949799999982126],[0.13020833333333334,-0.29148148148148145,3.967000000000006],[0.11875,-0.3509259259259259,3.982999999999997],[0.09947916666666666,-0.3844444444444445,3.9996999999880885],[0.08333333333333333,-0.3861111111111111,4.016399999976166],[0.07739583333333329,-0.3972222222222222,4.033099999994043],[0.09333333333333324,-0.41388888888888886,4.04979999998212],[0.07416666666666671,-0.42314814814814816,4.066599999994047],[0.06749999999999995,-0.4324074074074074,4.0830000000000055],[0.07156250000000004,-0.44722222222222224,4.1021999999880805],[0.07302083333333324,-0.4631481481481482,4.116899999976162]]","[0.0001999999880837322,0.016500000000000625,0.03309999999404312,0.04979999998212037,0.06900000000000261,0.08359999999404266,0.10259999999404101,0.11779999998212531,0.13309999999404454,0.1497999999821218,0.16639999997616428,0.1830999999940417,0.19979999998211895,0.21639999997616144,0.23329999998212259,0.2511999999880814,0.2665000000000006,0.2830999999940431,0.29989999997616223,0.31639999997616286,0.3330999999940403,0.3498999999761594,0.3755000000000024,0.3831999999880793,0.39989999997616366,0.41659999999404107,0.43950000000000244,0.4498999999761608,0.4666999999880801,0.4831999999880807,0.505500000000005,0.5165999999940425,0.5333999999761616,0.5526999999880857,0.5668999999761581,0.5831999999880821,0.6058999999761596,0.6200000000000045,0.6360999999940447,0.6543999999761638,0.6665999999940411,0.6832999999821254,0.6998999999761608,0.7190000000000012,0.7335000000000065,0.7498999999761651,0.7700000000000031,0.7857999999821246,0.8015000000000043,0.8217999999821188,0.8368999999761613,0.8515999999940433,0.866500000000002,0.8830999999940445,0.8997999999821218,0.9163999999761643,0.9330999999940417,0.9523999999761585,0.9691999999880849,0.984599999994046,1.0038999999761629,1.0197999999821192,1.0350999999940456,1.0526999999880857,1.0703999999761606,1.0846999999880822,1.0998999999761594,1.1190000000000069,1.135799999982119,1.1498999999761637,1.1700999999940436,1.186,1.20059999999404,1.2165000000000035,1.2366999999880832,1.2526999999880815,1.267699999988082,1.2872999999821246,1.3000000000000043,1.3163999999761629,1.3335000000000008,1.3496999999880828,1.3668999999761624,1.3830999999940445,1.39969999998808,1.4183999999761596,1.439099999994042,1.4537999999821238,1.4665999999940453,1.4835000000000065,1.5032999999821186,1.518599999994045,1.5370000000000061,1.5532999999821229,1.5705000000000027,1.5858999999761636,1.603500000000004,1.618000000000002,1.6332999999821212,1.6498999999761637,1.6693999999761644,1.6833999999761602,1.7000000000000028,1.7163999999761614,1.7335000000000065,1.7497999999821232,1.7690999999940402,1.7847999999821198,1.8095999999940418,1.8267999999821214,1.8333999999761588,1.8497999999821246,1.86639999997616,1.8830999999940445,1.89969999998808,1.9163999999761643,1.9330999999940417,1.949799999982119,1.9668999999761638,1.983099999994046,1.9997999999821232,2.0165999999940425,2.033099999994043,2.0527999999821205,2.069500000000005,2.085000000000001,2.0997999999821246,2.11639999997616,2.1330999999940445,2.14969999998808,2.1677999999821225,2.183000000000007,2.199699999988084,2.2163999999761614,2.233099999994046,2.2496999999880813,2.2665000000000006,2.283099999994043,2.301599999994046,2.316500000000005,2.333199999988082,2.3552999999821225,2.368099999994044,2.3831999999880793,2.3998999999761637,2.4253999999761646,2.4331999999880836,2.4500999999940447,2.4703999999761592,2.4832999999821226,2.5035000000000025,2.5165000000000006,2.5367999999821222,2.552500000000002,2.5681999999880816,2.5830000000000055,2.5997999999821246,2.61639999997616,2.6330999999940445,2.649799999982122,2.6685999999940435,2.683000000000007,2.701500000000003,2.7165999999940453,2.735899999976162,2.749799999982123,2.7665000000000006,2.786899999976164,2.8020999999940415,2.816299999982121,2.8330999999940403,2.8496999999880828,2.8685000000000045,2.8831999999880793,2.899799999982122,2.9163999999761643,2.933000000000007,2.949699999988084,2.9665000000000035,2.983000000000004,2.9996999999880813,3.016299999982124,3.033099999994043,3.0496999999880856,3.066399999976163,3.0830999999940403,3.0997999999821246,3.116500000000002,3.1330000000000027,3.14969999998808,3.1678999999761643,3.1830999999940417,3.199699999988084,3.2165000000000035,3.233099999994046,3.249799999982123,3.2705000000000055,3.283199999988078,3.2997999999821204,3.316399999976163,3.3330000000000055,3.3496999999880828,3.3688999999761577,3.383399999976156,3.399799999982129,3.4162999999821224,3.4332999999821183,3.449699999988077,3.4663999999761685,3.482999999999997,3.5011999999880814,3.5165000000000006,3.536299999982127,3.553299999982123,3.566499999999998,3.5830999999940403,3.5997999999821175,3.61639999997616,3.6330999999940374,3.64969999998808,3.6668999999761596,3.685899999976165,3.699799999982126,3.7163999999761685,3.732999999999997,3.749799999982123,3.7681999999880773,3.7830000000000084,3.7996999999880856,3.816299999982128,3.8330999999940403,3.8496999999880828,3.8698999999761625,3.883299999982121,3.89969999998808,3.9162999999821224,3.933,3.949799999982126,3.967000000000006,3.982999999999997,3.9996999999880885,4.016399999976166,4.033099999994043,4.04979999998212,4.066599999994047,4.0830000000000055,4.1021999999880805,4.116899999976162]","[1732775305398,1732775305413,1732775305430,1732775305447,1732775305466,1732775305480,1732775305499,1732775305515,1732775305530,1732775305547,1732775305563,1732775305580,1732775305597,1732775305613,1732775305630,1732775305648,1732775305663,1732775305680,1732775305697,1732775305713,1732775305730,1732775305747,1732775305772,1732775305780,1732775305797,1732775305813,1732775305836,1732775305847,1732775305863,1732775305880,1732775305902,1732775305913,1732775305930,1732775305949,1732775305964,1732775305980,1732775306003,1732775306017,1732775306033,1732775306051,1732775306063,1732775306080,1732775306097,1732775306116,1732775306130,1732775306147,1732775306167,1732775306182,1732775306198,1732775306219,1732775306234,1732775306248,1732775306263,1732775306280,1732775306296,1732775306313,1732775306330,1732775306349,1732775306366,1732775306381,1732775306401,1732775306417,1732775306432,1732775306449,1732775306467,1732775306481,1732775306497,1732775306516,1732775306533,1732775306547,1732775306567,1732775306583,1732775306597,1732775306613,1732775306634,1732775306649,1732775306666,1732775306684,1732775306697,1732775306713,1732775306730,1732775306746,1732775306764,1732775306780,1732775306796,1732775306815,1732775306836,1732775306851,1732775306863,1732775306880,1732775306900,1732775306915,1732775306934,1732775306950,1732775306967,1732775306983,1732775307000,1732775307015,1732775307030,1732775307047,1732775307066,1732775307080,1732775307097,1732775307113,1732775307130,1732775307146,1732775307166,1732775307182,1732775307206,1732775307224,1732775307230,1732775307247,1732775307263,1732775307280,1732775307296,1732775307313,1732775307330,1732775307347,1732775307364,1732775307380,1732775307396,1732775307413,1732775307430,1732775307450,1732775307466,1732775307482,1732775307497,1732775307513,1732775307530,1732775307546,1732775307565,1732775307580,1732775307596,1732775307613,1732775307630,1732775307646,1732775307663,1732775307680,1732775307698,1732775307713,1732775307730,1732775307752,1732775307765,1732775307780,1732775307797,1732775307822,1732775307830,1732775307847,1732775307867,1732775307880,1732775307900,1732775307913,1732775307934,1732775307949,1732775307965,1732775307980,1732775307996,1732775308013,1732775308030,1732775308046,1732775308065,1732775308080,1732775308098,1732775308113,1732775308133,1732775308147,1732775308163,1732775308184,1732775308199,1732775308213,1732775308230,1732775308246,1732775308265,1732775308280,1732775308297,1732775308313,1732775308330,1732775308346,1732775308363,1732775308380,1732775308396,1732775308413,1732775308430,1732775308446,1732775308463,1732775308480,1732775308496,1732775308513,1732775308530,1732775308546,1732775308565,1732775308580,1732775308596,1732775308613,1732775308630,1732775308647,1732775308667,1732775308680,1732775308697,1732775308713,1732775308730,1732775308746,1732775308766,1732775308780,1732775308797,1732775308813,1732775308830,1732775308846,1732775308863,1732775308880,1732775308898,1732775308913,1732775308933,1732775308950,1732775308963,1732775308980,1732775308997,1732775309013,1732775309030,1732775309046,1732775309064,1732775309083,1732775309097,1732775309113,1732775309130,1732775309146,1732775309165,1732775309180,1732775309196,1732775309213,1732775309230,1732775309246,1732775309267,1732775309280,1732775309296,1732775309313,1732775309330,1732775309347,1732775309364,1732775309380,1732775309396,1732775309413,1732775309430,1732775309446,1732775309463,1732775309480,1732775309499,1732775309514]","[[924.5,506.7],[924.5,506.7],[927.7,507.4],[926.7,504.9],[921.8,515.6],[935,524.5],[944.4,532.3],[937.7,539.7],[928.4,530.2],[924,516.9],[924,516.9],[905.1,514.2],[893.9,505.9],[889.2,505],[889,506.7],[864.9,504.6],[864.9,504.6],[840.8,502.5],[840.8,502.5],[792.1,516.2],[754.7,526.2],[707.1,533.8],[667.9,528],[667.9,528],[694.1,518.7],[694.1,518.7],[661.6,532.8],[661.6,532.8],[649,546.1],[649,546.1],[645.3,529.8],[645.3,529.8],[624,518.9],[624,518.9],[656.5,521.1],[689.7,515.4],[763.2,501.6],[826.3,521.2],[875.6,550.6],[855.2,560.9],[855.2,560.9],[841.5,574.1],[829.3,553.9],[835.9,567.3],[870.2,554.5],[830.7,541.5],[848,551.3],[793,567.4],[783.2,572.1],[778.8,580.4],[751.2,591],[772.1,581.4],[772.1,581.4],[821.5,612.5],[867.3,636.7],[912,679.5],[905.5,702.6],[885.5,694.9],[919.4,693],[927.5,695.4],[930.9,690],[974.6,688.2],[1008.4,679.4],[976.9,650.8],[943.9,639.3],[869.4,654.4],[866.1,676.3],[855,690.3],[886,702.9],[913,700],[924.3,697.7],[947.4,680.6],[993.9,675.1],[1059.8,675.4],[1117.1,663.5],[1189.2,616.9],[1189.2,616.9],[1258.7,576.7],[1258.7,576.7],[1309.9,553.2],[1279,535.7],[1248.1,518.2],[1263.1,481.5],[1248.5,474.7],[1236.1,432.7],[1200.2,413.1],[1170.5,397.2],[1184,379.4],[1184,379.4],[1200.1,355.2],[1224.1,328.9],[1256.1,304.9],[1277.8,288.1],[1284.1,279.5],[1300.5,274.7],[1306.6,296.5],[1328,299.4],[1333.4,297.7],[1324,300.6],[1314.6,303.5],[1307,306.5],[1302.2,308.3],[1256.8,310.9],[1201.3,331.7],[1132.6,351.5],[1052.6,371.2],[981.5,392.7],[907.5,417.7],[907.5,417.7],[831.8,448.1],[831.8,448.1],[773.2,459.2],[773.2,459.2],[693,494.2],[607.9,524.6],[588.4,535.3],[574.7,545.2],[576,543.1],[587.8,554.4],[586.6,561.3],[569.5,561.2],[552.4,561.1],[533.5,581.7],[518,588.2],[529.4,592.1],[519.6,596.4],[517.8,598.3],[516,600.2],[535.8,592.6],[567.9,584.1],[604.3,601.9],[647.4,607.6],[653.6,597.3],[738.9,570.5],[807.3,551.9],[897.5,544.4],[897.5,544.4],[973.9,540.1],[1062.7,546.1],[1115.3,530.4],[1168.6,519],[1232.2,483.7],[1232.2,483.7],[1294,455.9],[1294,455.9],[1399.5,434.9],[1399.5,434.9],[1397.1,427.9],[1397.1,427.9],[1375.7,410.1],[1363.9,390.4],[1363.9,390.4],[1352,370.9],[1313.8,340.6],[1285.4,332.3],[1256.3,319.7],[1231.6,321.6],[1214,320.8],[1174.3,327.8],[1168.7,331.2],[1185.5,347.5],[1134.9,351.7],[1084.4,355.7],[1047.8,360.2],[1027.8,361],[1016.7,367.5],[1014.3,374.1],[999.9,388],[964.3,390.8],[936.6,391.1],[913.2,374.2],[932.3,371.5],[948.7,370.2],[976,372.1],[963.4,370.1],[941.9,362.4],[901,355.4],[860.1,348.4],[861.4,345.2],[868.5,335.2],[832.7,350],[796.9,364.8],[789.4,382.3],[773.4,392.5],[780.9,410.2],[721.4,438.7],[690.8,447.1],[655,452.9],[583.3,463.5],[499.1,480],[458.8,487.8],[421.9,499.7],[362.2,510.8],[362.2,510.8],[300.1,526],[249.3,549.2],[281.6,559.1],[281.6,559.1],[338,549.8],[382.9,550.4],[422.3,554.8],[474.2,553.3],[528.3,539.8],[610,538.5],[688.9,533.9],[767.8,529.3],[818.9,528.6],[879,515.5],[879,515.5],[897.9,524.6],[915.3,525.9],[948.4,529.2],[967,517.5],[986,529.9],[986,529.9],[978.3,535.2],[974.7,528.5],[971.1,521.8],[993.9,491.3],[972.8,491.9],[963.1,485.4],[983.1,492.3],[1018.8,486.8],[1062.4,495],[1109,503.1],[1148.5,499.7],[1186.3,513.4],[1224.1,527.1],[1234,551.4],[1257.8,562],[1263.2,568.4],[1253.4,544.6],[1232.6,529.9],[1203.9,514.9],[1182.6,486.9],[1164.1,461.2],[1132.5,436.7],[1100.9,412.2],[1085,382.6],[1074,350.5],[1055.5,332.4],[1040,331.5],[1034.3,325.5],[1049.6,316.5],[1031.2,311.5],[1024.8,306.5],[1028.7,298.5],[1030.1,289.9]]","[0,0.37864299999999995]","[0.37864299999999995,0.37864299999999995]","[-0.37864299999999995,-0.37864299999999995]","[-0.37864299999999995,0]","[0,-0.37864299999999995]","[0.37864299999999995,-0.37864299999999995]","[0,0]","[0.37864299999999995,0]",0,1,1,1,1,4,Laptop,5,1,13,7
