inst1_resp.keys,inst1_resp.rt,calibrationMouse.x,calibrationMouse.y,calibrationMouse.leftButton,calibrationMouse.midButton,calibrationMouse.rightButton,calibrationClick.x,calibrationClick.y,calibrationClick.leftButton,calibrationClick.midButton,calibrationClick.rightButton,calibrationClick.clicked_name,trialsc.thisRepN,trialsc.thisTrialN,trialsc.thisN,trialsc.thisIndex,trialsc.ran,calibration_x,calibration_y,participant,session,date,expName,psychopyVersion,OS,frameRate,ScreenRes_pixels,Camera_pixels,mouse_2.x,mouse_2.y,mouse_2.leftButton,mouse_2.midButton,mouse_2.rightButton,mouse_2.time,mouse_2.clicked_name,mouse.x,mouse.y,mouse.leftButton,mouse.midButton,mouse.rightButton,mouse.time,mouse.clicked_name,Choice,Trial,TrialDuration,MOUSE_GAZE,ET_GAZE,ET_GAZE_x_T,time,unixTime,ET_GAZE_NF,Loc_Option1_label,Loc_Option2_label,Loc_Cost_label,Loc_Qual_label,Loc_Option1_cost,Loc_Option2_cost,Loc_Option1_quality,Loc_Option2_quality,trials.thisRepN,trials.thisTrialN,trials.thisN,trials.thisIndex,trials.ran,Block,Device,cost1,qual1,cost2,qual2
space,3.8025,0.016666667,-0.027777778,1,0,0,-0.33125,0.666666667,1,0,0,calibration_square,0,0,0,8,1,-0.33,0.67,27,001,2024-12-04_11h55.57.208,Attention_exp_legacy,2023.1.0,Win32,59.88023952,,,,,,,,,,,,,,,,,,,,,,,,,,,,,,,,,,,,,,,,,,,,
,,,,,,,0.00625,-0.003703704,1,0,0,calibration_square,0,1,1,11,1,0,0,27,001,2024-12-04_11h55.57.208,Attention_exp_legacy,2023.1.0,Win32,59.88023952,,,,,,,,,,,,,,,,,,,,,,,,,,,,,,,,,,,,,,,,,,,,
,,,,,,,-0.326041667,-0.001851852,1,0,0,calibration_square,0,2,2,6,1,-0.33,0,27,001,2024-12-04_11h55.57.208,Attention_exp_legacy,2023.1.0,Win32,59.88023952,,,,,,,,,,,,,,,,,,,,,,,,,,,,,,,,,,,,,,,,,,,,
,,,,,,,0.660416667,-0.677777778,1,0,0,calibration_square,0,3,3,20,1,0.67,-0.67,27,001,2024-12-04_11h55.57.208,Attention_exp_legacy,2023.1.0,Win32,59.88023952,,,,,,,,,,,,,,,,,,,,,,,,,,,,,,,,,,,,,,,,,,,,
,,,,,,,0.320833333,-0.662962963,1,0,0,calibration_square,0,4,4,14,1,0.33,-0.67,27,001,2024-12-04_11h55.57.208,Attention_exp_legacy,2023.1.0,Win32,59.88023952,,,,,,,,,,,,,,,,,,,,,,,,,,,,,,,,,,,,,,,,,,,,
,,,,,,,-0.335416667,-0.67037037,1,0,0,calibration_square,0,5,5,4,1,-0.33,-0.67,27,001,2024-12-04_11h55.57.208,Attention_exp_legacy,2023.1.0,Win32,59.88023952,,,,,,,,,,,,,,,,,,,,,,,,,,,,,,,,,,,,,,,,,,,,
,,,,,,,0.001041667,-0.677777778,1,0,0,calibration_square,0,6,6,9,1,0,-0.67,27,001,2024-12-04_11h55.57.208,Attention_exp_legacy,2023.1.0,Win32,59.88023952,,,,,,,,,,,,,,,,,,,,,,,,,,,,,,,,,,,,,,,,,,,,
,,,,,,,0,-0.333333333,1,0,0,calibration_square,0,7,7,10,1,0,-0.33,27,001,2024-12-04_11h55.57.208,Attention_exp_legacy,2023.1.0,Win32,59.88023952,,,,,,,,,,,,,,,,,,,,,,,,,,,,,,,,,,,,,,,,,,,,
,,,,,,,-0.672916667,-0.67037037,1,0,0,calibration_square,0,8,8,0,1,-0.67,-0.67,27,001,2024-12-04_11h55.57.208,Attention_exp_legacy,2023.1.0,Win32,59.88023952,,,,,,,,,,,,,,,,,,,,,,,,,,,,,,,,,,,,,,,,,,,,
,,,,,,,0.328125,0.327777778,1,0,0,calibration_square,0,9,9,17,1,0.33,0.33,27,001,2024-12-04_11h55.57.208,Attention_exp_legacy,2023.1.0,Win32,59.88023952,,,,,,,,,,,,,,,,,,,,,,,,,,,,,,,,,,,,,,,,,,,,
,,,,,,,-0.00625,0.324074074,1,0,0,calibration_square,0,10,10,12,1,0,0.33,27,001,2024-12-04_11h55.57.208,Attention_exp_legacy,2023.1.0,Win32,59.88023952,,,,,,,,,,,,,,,,,,,,,,,,,,,,,,,,,,,,,,,,,,,,
,,,,,,,-0.340625,-0.342592593,1,0,0,,0,11,11,5,1,-0.33,-0.33,27,001,2024-12-04_11h55.57.208,Attention_exp_legacy,2023.1.0,Win32,59.88023952,,,,,,,,,,,,,,,,,,,,,,,,,,,,,,,,,,,,,,,,,,,,
,,,,,,,-0.00625,0.657407407,1,0,0,,0,12,12,13,1,0,0.67,27,001,2024-12-04_11h55.57.208,Attention_exp_legacy,2023.1.0,Win32,59.88023952,,,,,,,,,,,,,,,,,,,,,,,,,,,,,,,,,,,,,,,,,,,,
,,,,,,,0.3375,-0.325925926,1,0,0,calibration_square,0,13,13,15,1,0.33,-0.33,27,001,2024-12-04_11h55.57.208,Attention_exp_legacy,2023.1.0,Win32,59.88023952,,,,,,,,,,,,,,,,,,,,,,,,,,,,,,,,,,,,,,,,,,,,
,,,,,,,-0.330208333,0.331481481,1,0,0,calibration_square,0,14,14,7,1,-0.33,0.33,27,001,2024-12-04_11h55.57.208,Attention_exp_legacy,2023.1.0,Win32,59.88023952,,,,,,,,,,,,,,,,,,,,,,,,,,,,,,,,,,,,,,,,,,,,
,,,,,,,-0.678125,0.340740741,1,0,0,,0,15,15,3,1,-0.67,0.33,27,001,2024-12-04_11h55.57.208,Attention_exp_legacy,2023.1.0,Win32,59.88023952,,,,,,,,,,,,,,,,,,,,,,,,,,,,,,,,,,,,,,,,,,,,
,,,,,,,-0.676041667,0.012962963,1,0,0,,0,16,16,2,1,-0.67,0,27,001,2024-12-04_11h55.57.208,Attention_exp_legacy,2023.1.0,Win32,59.88023952,,,,,,,,,,,,,,,,,,,,,,,,,,,,,,,,,,,,,,,,,,,,
,,,,,,,0.333333333,0.661111111,1,0,0,calibration_square,0,17,17,18,1,0.33,0.67,27,001,2024-12-04_11h55.57.208,Attention_exp_legacy,2023.1.0,Win32,59.88023952,,,,,,,,,,,,,,,,,,,,,,,,,,,,,,,,,,,,,,,,,,,,
,,,,,,,0.677083333,0.672222222,1,0,0,calibration_square,0,18,18,19,1,0.67,0.67,27,001,2024-12-04_11h55.57.208,Attention_exp_legacy,2023.1.0,Win32,59.88023952,,,,,,,,,,,,,,,,,,,,,,,,,,,,,,,,,,,,,,,,,,,,
,,,,,,,-0.676041667,-0.32962963,1,0,0,calibration_square,0,19,19,1,1,-0.67,-0.33,27,001,2024-12-04_11h55.57.208,Attention_exp_legacy,2023.1.0,Win32,59.88023952,,,,,,,,,,,,,,,,,,,,,,,,,,,,,,,,,,,,,,,,,,,,
,,,,,,,0.336458333,-0.001851852,1,0,0,calibration_square,0,20,20,16,1,0.33,0,27,001,2024-12-04_11h55.57.208,Attention_exp_legacy,2023.1.0,Win32,59.88023952,,,,,,,,,,,,,,,,,,,,,,,,,,,,,,,,,,,,,,,,,,,,
,,,,,,,,,,,,,,,,,,,,27,001,2024-12-04_11h55.57.208,Attention_exp_legacy,2023.1.0,Win32,59.88023952,"[1920,1080]","[640,480]",[0.0625],[-0.512962962962963],[1],[0],[0],[2.382499999999993],"[""StartButton""]",[0.46979166666666666],[0.27037037037037037],[1],[0],[0],[1.5548999999985114],"[""Option2_label""]",Option2_label,1,2.565,"[[0.052083333333333336,-0.3037037037037037],[0.052083333333333336,-0.3037037037037037],[0.052083333333333336,-0.3037037037037037],[0.052083333333333336,-0.3037037037037037],[0.052083333333333336,-0.3037037037037037],[0.052083333333333336,-0.3037037037037037],[0.052083333333333336,-0.3037037037037037],[0.052083333333333336,-0.3037037037037037],[0.052083333333333336,-0.3037037037037037],[0.052083333333333336,-0.3037037037037037],[0.052083333333333336,-0.3037037037037037],[0.052083333333333336,-0.3037037037037037],[0.052083333333333336,-0.3037037037037037],[0.052083333333333336,-0.3037037037037037],[0.052083333333333336,-0.3037037037037037],[0.052083333333333336,-0.3037037037037037],[0.052083333333333336,-0.3037037037037037],[0.052083333333333336,-0.3037037037037037],[0.052083333333333336,-0.3037037037037037],[0.052083333333333336,-0.3037037037037037],[0.052083333333333336,-0.3037037037037037],[0.052083333333333336,-0.3037037037037037],[0.052083333333333336,-0.3037037037037037],[0.052083333333333336,-0.3037037037037037],[0.052083333333333336,-0.3037037037037037],[0.052083333333333336,-0.3037037037037037],[0.052083333333333336,-0.3037037037037037],[0.052083333333333336,-0.3037037037037037],[0.052083333333333336,-0.3037037037037037],[0.052083333333333336,-0.3037037037037037],[0.052083333333333336,-0.3037037037037037],[0.052083333333333336,-0.3037037037037037],[0.052083333333333336,-0.3037037037037037],[0.052083333333333336,-0.3037037037037037],[0.052083333333333336,-0.3037037037037037],[0.052083333333333336,-0.3037037037037037],[0.052083333333333336,-0.3037037037037037],[0.052083333333333336,-0.3037037037037037],[0.052083333333333336,-0.3037037037037037],[0.052083333333333336,-0.3037037037037037],[0.052083333333333336,-0.3037037037037037],[0.052083333333333336,-0.3037037037037037],[0.052083333333333336,-0.3037037037037037],[0.052083333333333336,-0.3037037037037037],[0.052083333333333336,-0.3037037037037037],[0.052083333333333336,-0.3037037037037037],[0.052083333333333336,-0.3037037037037037],[0.052083333333333336,-0.3037037037037037],[0.052083333333333336,-0.3037037037037037],[0.052083333333333336,-0.3037037037037037],[0.052083333333333336,-0.29814814814814816],[0.05625,-0.29259259259259257],[0.065625,-0.2833333333333333],[0.07708333333333334,-0.2722222222222222],[0.090625,-0.25925925925925924],[0.10729166666666666,-0.24444444444444444],[0.125,-0.22777777777777777],[0.14375,-0.20925925925925926],[0.16145833333333334,-0.19444444444444445],[0.17708333333333334,-0.17592592592592593],[0.2,-0.1537037037037037],[0.21770833333333334,-0.13703703703703704],[0.23541666666666666,-0.11851851851851852],[0.25833333333333336,-0.08888888888888889],[0.2791666666666667,-0.06111111111111111],[0.29791666666666666,-0.037037037037037035],[0.3145833333333333,-0.016666666666666666],[0.33229166666666665,0.014814814814814815],[0.3489583333333333,0.03333333333333333],[0.3645833333333333,0.05185185185185185],[0.37916666666666665,0.07037037037037037],[0.39479166666666665,0.09814814814814815],[0.40729166666666666,0.12222222222222222],[0.4197916666666667,0.14444444444444443],[0.425,0.1537037037037037],[0.43020833333333336,0.16296296296296298],[0.4354166666666667,0.17222222222222222],[0.440625,0.18518518518518517],[0.446875,0.20555555555555555],[0.4510416666666667,0.2222222222222222],[0.4583333333333333,0.23703703703703705],[0.46041666666666664,0.2462962962962963],[0.4635416666666667,0.2537037037037037],[0.465625,0.25925925925925924],[0.4666666666666667,0.26481481481481484],[0.46770833333333334,0.26666666666666666],[0.46875,0.26851851851851855],[0.46875,0.27037037037037037],[0.46979166666666666,0.27037037037037037],[0.46979166666666666,0.27037037037037037],[0.46979166666666666,0.27037037037037037],[0.46979166666666666,0.27037037037037037],[0.46979166666666666,0.27037037037037037],[0.46979166666666666,0.27037037037037037],[0.46979166666666666,0.27037037037037037],[0.46979166666666666,0.27037037037037037],[0.46979166666666666,0.27037037037037037],[0.46979166666666666,0.27037037037037037],[0.46979166666666666,0.27037037037037037],[0.46979166666666666,0.27037037037037037],[0.46979166666666666,0.27037037037037037],[0.46979166666666666,0.27037037037037037],[0.46979166666666666,0.27037037037037037],[0.46979166666666666,0.27037037037037037],[0.46979166666666666,0.27037037037037037],[0.46979166666666666,0.27037037037037037],[0.46979166666666666,0.27037037037037037],[0.46979166666666666,0.27037037037037037],[0.46979166666666666,0.27037037037037037],[0.46979166666666666,0.27037037037037037],[0.46979166666666666,0.27037037037037037],[0.46979166666666666,0.27037037037037037],[0.46979166666666666,0.27037037037037037],[0.46979166666666666,0.27037037037037037],[0.46979166666666666,0.27037037037037037],[0.46979166666666666,0.27037037037037037],[0.46979166666666666,0.27037037037037037],[0.46979166666666666,0.27037037037037037],[0.46979166666666666,0.27037037037037037],[0.46979166666666666,0.27037037037037037],[0.46979166666666666,0.27037037037037037],[0.46979166666666666,0.27037037037037037],[0.46979166666666666,0.27037037037037037],[0.46979166666666666,0.27037037037037037],[0.46979166666666666,0.27037037037037037],[0.46979166666666666,0.27037037037037037],[0.46979166666666666,0.27037037037037037],[0.46979166666666666,0.27037037037037037],[0.46979166666666666,0.27037037037037037],[0.46979166666666666,0.27037037037037037],[0.46979166666666666,0.27037037037037037],[0.46979166666666666,0.27037037037037037],[0.46979166666666666,0.27037037037037037],[0.46979166666666666,0.27037037037037037],[0.46979166666666666,0.27037037037037037],[0.46979166666666666,0.27037037037037037],[0.46979166666666666,0.27037037037037037],[0.46979166666666666,0.27037037037037037],[0.46979166666666666,0.27037037037037037],[0.46979166666666666,0.27037037037037037],[0.46979166666666666,0.27037037037037037],[0.46979166666666666,0.27037037037037037],[0.46979166666666666,0.27037037037037037],[0.46979166666666666,0.27037037037037037],[0.46979166666666666,0.27037037037037037],[0.46979166666666666,0.27037037037037037],[0.46979166666666666,0.27037037037037037],[0.46979166666666666,0.27037037037037037],[0.46979166666666666,0.27037037037037037],[0.46979166666666666,0.27037037037037037],[0.46979166666666666,0.27037037037037037],[0.46979166666666666,0.27037037037037037],[0.46979166666666666,0.27037037037037037],[0.46979166666666666,0.27037037037037037]]","[[0.1974999999999999,0.057777777777777865],[0.1974999999999999,0.057777777777777865],[0.19635416666666666,0.06333333333333342],[0.2087500000000001,0.07111111111111107],[0.21375000000000005,0.07351851851851861],[0.1834374999999999,0.07259259259259268],[0.1834374999999999,0.07259259259259268],[0.15958333333333338,0.05388888888888893],[0.1554166666666667,0.06740740740740736],[0.17374999999999996,0.05759259259259263],[0.2025000000000001,0.07611111111111116],[0.20572916666666666,0.08851851851851844],[0.20572916666666666,0.08851851851851844],[0.20104166666666667,0.08425925925925926],[0.19500000000000003,0.09370370370370375],[0.19177083333333325,0.10129629629629638],[0.18854166666666666,0.1088888888888888],[0.19500000000000003,0.1259259259259259],[0.19500000000000003,0.1259259259259259],[0.22354166666666658,0.14833333333333337],[0.22083333333333333,0.1685185185185185],[0.2029166666666666,0.19370370370370374],[0.21229166666666663,0.21296296296296297],[0.21229166666666663,0.21296296296296297],[0.22531249999999994,0.23055555555555557],[0.2181250000000001,0.2507407407407407],[0.2037499999999999,0.2699999999999999],[0.17145833333333324,0.2733333333333334],[0.13916666666666658,0.2766666666666666],[0.12468750000000005,0.2831481481481481],[0.07854166666666676,0.2825925925925926],[0.06343749999999998,0.2668518518518519],[0.04833333333333331,0.2511111111111112],[0.020937500000000022,0.24648148148148152],[-0.006458333333333381,0.2418518518518519],[-0.0203125,0.22444444444444453],[-0.021041666666666715,0.20666666666666672],[-0.009895833333333333,0.2022222222222223],[0.0012500000000000473,0.1977777777777777],[0.02166666666666662,0.20796296296296288],[0.04208333333333331,0.21814814814814806],[0.05531250000000002,0.20537037037037034],[0.05531250000000002,0.20537037037037034],[0.0734375,0.20888888888888882],[0.08875000000000005,0.18925925925925935],[0.1040625000000001,0.16962962962962966],[0.14520833333333344,0.18074074074074079],[0.16072916666666662,0.1955555555555556],[0.18114583333333342,0.21574074074074073],[0.2015625,0.23592592592592587],[0.21083333333333343,0.23703703703703705],[0.20708333333333329,0.23648148148148157],[0.20708333333333329,0.23648148148148157],[0.21645833333333328,0.2412962962962962],[0.21645833333333328,0.2412962962962962],[0.19854166666666656,0.25500000000000006],[0.19854166666666656,0.25500000000000006],[0.22104166666666672,0.2774074074074073],[0.23322916666666677,0.31666666666666665],[0.22541666666666677,0.31796296296296306],[0.22541666666666677,0.31796296296296306],[0.21343750000000009,0.30240740740740735],[0.22145833333333323,0.3138888888888889],[0.22000000000000006,0.30240740740740735],[0.2185416666666666,0.290925925925926],[0.22916666666666666,0.2807407407407408],[0.22916666666666666,0.2807407407407408],[0.24666666666666662,0.2742592592592593],[0.3008333333333333,0.2699999999999999],[0.2911458333333333,0.23740740740740748],[0.27791666666666665,0.19148148148148145],[0.26458333333333334,0.16055555555555565],[0.26458333333333334,0.16055555555555565],[0.2826041666666666,0.1566666666666667],[0.2991666666666667,0.11796296296296305],[0.29958333333333326,0.08703703703703704],[0.3,0.05611111111111103],[0.30802083333333335,0.0477777777777777],[0.33312499999999995,0.07222222222222222],[0.3140625,0.021481481481481525],[0.3241666666666667,0.0025925925925925505],[0.32864583333333336,-0.01777777777777782],[0.3185416666666666,-0.03462962962962971],[0.32354166666666656,-0.06129629629629634],[0.32354166666666656,-0.06129629629629634],[0.32312500000000005,-0.09203703703703701],[0.3597916666666668,-0.060555555555555536],[0.3345833333333334,-0.07611111111111116],[0.3648958333333333,-0.11129629629629634],[0.36614583333333334,-0.16592592592592598],[0.3623958333333334,-0.17111111111111107],[0.3407291666666666,-0.1705555555555556],[0.37218749999999995,-0.15407407407407406],[0.4390625,-0.14981481481481476],[0.4501041666666666,-0.11888888888888886],[0.4554166666666667,-0.075],[0.4474999999999999,-0.10185185185185185],[0.4474999999999999,-0.10185185185185185],[0.5014583333333335,-0.0816666666666667],[0.5014583333333335,-0.0816666666666667],[0.4979166666666667,-0.059999999999999956],[0.4979166666666667,-0.059999999999999956],[0.5184375,-0.031111111111111027],[0.5597916666666668,0.012592592592592508],[0.5597916666666668,0.012592592592592508],[0.5946875000000001,0.05092592592592592],[0.5946875000000001,0.05092592592592592],[0.5890625,0.04055555555555551],[0.5890625,0.04055555555555551],[0.560625,0.05277777777777778],[0.5847916666666667,0.044999999999999915],[0.5851041666666668,-0.006851851851851936],[0.5871875000000001,-0.034999999999999955],[0.6048958333333334,-0.034074074074074034],[0.5884375000000001,-0.027777777777777776],[0.55125,-0.03851851851851843],[0.5160416666666667,-0.12185185185185188],[0.49333333333333323,-0.1948148148148148],[0.4827083333333334,-0.17685185185185184],[0.4670833333333334,-0.18740740740740738],[0.4392708333333334,-0.2064814814814815],[0.4265625,-0.1824074074074074],[0.4226041666666667,-0.1574074074074074],[0.42374999999999996,-0.1514814814814815],[0.45437500000000003,-0.15499999999999997],[0.4782291666666666,-0.1301851851851852],[0.5146874999999999,-0.0507407407407407],[0.5352083333333333,0.02296296296296292],[0.5505208333333333,0.036481481481481566],[0.5607291666666666,0.027407407407407325],[0.5565625,0.01648148148148144],[0.5527083333333332,-0.017407407407407365],[0.5604166666666667,0.016111111111111194],[0.566875,0.056666666666666705],[0.5733333333333335,0.09722222222222222],[0.5661458333333333,0.09166666666666666],[0.5627083333333334,0.07018518518518514],[0.5664583333333333,0.06314814814814819],[0.5702083333333334,0.05611111111111103],[0.5744791666666667,0.06796296296296304],[0.6070833333333333,0.102962962962963],[0.6434375,0.11925925925925922],[0.6410416666666667,0.07925925925925917],[0.6219791666666665,0.05277777777777778],[0.6219791666666665,0.05277777777777778],[0.6048958333333334,0.009999999999999959],[0.6048958333333334,-0.005185185185185101],[0.6022916666666667,-0.004074074074074159],[0.5790625000000001,-0.027222222222222307],[0.5708333333333333,-0.009074074074074031],[0.5708333333333333,-0.009074074074074031],[0.5696875000000001,0.024629629629629547],[0.5243750000000001,-0.0007407407407406986],[0.5226041666666668,0.050370370370370454]]","[[0.1974999999999999,0.057777777777777865,0.00020000000298381337],[0.1974999999999999,0.057777777777777865,0.03690000000596427],[0.19635416666666666,0.06333333333333342,0.04550000000000409],[0.2087500000000001,0.07111111111111107,0.06310000000149074],[0.21375000000000005,0.07351851851851861,0.07870000000298205],[0.1834374999999999,0.07259259259259268,0.0956000000014896],[0.1834374999999999,0.07259259259259268,0.11200000000000188],[0.15958333333333338,0.05388888888888893,0.12860000000149086],[0.1554166666666667,0.06740740740740736,0.14540000000596365],[0.17374999999999996,0.05759259259259263,0.16199999999999903],[0.2025000000000001,0.07611111111111116,0.17900000000000205],[0.20572916666666666,0.08851851851851844,0.1954000000059608],[0.20572916666666666,0.08851851851851844,0.21220000000298],[0.20104166666666667,0.08425925925925926,0.22870000000298063],[0.19500000000000003,0.09370370370370375,0.24540000000596507],[0.19177083333333325,0.10129629629629638,0.26200000000000045],[0.18854166666666666,0.1088888888888888,0.2787000000029849],[0.19500000000000003,0.1259259259259259,0.2953000000044739],[0.19500000000000003,0.1259259259259259,0.31210000000149307],[0.22354166666666658,0.14833333333333337,0.32870000000298205],[0.22083333333333333,0.1685185185185185,0.34530000000447103],[0.2029166666666666,0.19370370370370374,0.3620000000000019],[0.21229166666666663,0.21296296296296297,0.383100000001491],[0.21229166666666663,0.21296296296296297,0.40080000000447313],[0.22531249999999994,0.23055555555555557,0.41730000000447376],[0.2181250000000001,0.2507407407407407,0.43160000000149523],[0.2037499999999999,0.2699999999999999,0.44530000000447245],[0.17145833333333324,0.2733333333333334,0.4620000000000033],[0.13916666666666658,0.2766666666666666,0.4786000000014923],[0.12468750000000005,0.2831481481481481,0.49540000000596507],[0.07854166666666676,0.2825925925925926,0.5121000000014888],[0.06343749999999998,0.2668518518518519,0.5286000000014894],[0.04833333333333331,0.2511111111111112,0.5453000000044739],[0.020937500000000022,0.24648148148148152,0.5619000000059629],[-0.006458333333333381,0.2418518518518519,0.5786000000014937],[-0.0203125,0.22444444444444453,0.595300000004471],[-0.021041666666666715,0.20666666666666672,0.6120000000000019],[-0.009895833333333333,0.2022222222222223,0.6286000000014909],[0.0012500000000000473,0.1977777777777777,0.6453000000044753],[0.02166666666666662,0.20796296296296288,0.661999999999999],[0.04208333333333331,0.21814814814814806,0.6786000000014951],[0.05531250000000002,0.20537037037037034,0.6953000000044725],[0.05531250000000002,0.20537037037037034,0.7121000000014917],[0.0734375,0.20888888888888882,0.7287000000029806],[0.08875000000000005,0.18925925925925935,0.7454000000059651],[0.1040625000000001,0.16962962962962966,0.7621000000014888],[0.14520833333333344,0.18074074074074079,0.7786000000014894],[0.16072916666666662,0.1955555555555556,0.7953000000044739],[0.18114583333333342,0.21574074074074073,0.8120000000000047],[0.2015625,0.23592592592592587,0.8286000000014937],[0.21083333333333343,0.23703703703703705,0.8470000000000013],[0.20708333333333329,0.23648148148148157,0.8622000000029786],[0.20708333333333329,0.23648148148148157,0.8788000000044747],[0.21645833333333328,0.2412962962962962,0.8977000000029847],[0.21645833333333328,0.2412962962962962,0.9122000000029828],[0.19854166666666656,0.25500000000000006,0.9289000000059602],[0.19854166666666656,0.25500000000000006,0.9472000000029794],[0.22104166666666672,0.2774074074074073,0.96220000000298],[0.23322916666666677,0.31666666666666665,0.978800000004469],[0.22541666666666677,0.31796296296296306,0.9976000000014906],[0.22541666666666677,0.31796296296296306,1.0122000000029843],[0.21343750000000009,0.30240740740740735,1.0288000000044732],[0.22145833333333323,0.3138888888888889,1.0472000000029809],[0.22000000000000006,0.30240740740740735,1.062100000001493],[0.2185416666666666,0.290925925925926,1.0788000000044704],[0.22916666666666666,0.2807407407407408,1.0977000000029804],[0.22916666666666666,0.2807407407407408,1.112300000004474],[0.24666666666666662,0.2742592592592593,1.128900000005963],[0.3008333333333333,0.2699999999999999,1.147100000001494],[0.2911458333333333,0.23740740740740748,1.1621000000014945],[0.27791666666666665,0.19148148148148145,1.1788000000044718],[0.26458333333333334,0.16055555555555565,1.1957000000029794],[0.26458333333333334,0.16055555555555565,1.2142000000029824],[0.2826041666666666,0.1566666666666667,1.2289000000059644],[0.2991666666666667,0.11796296296296305,1.2456000000014882],[0.29958333333333326,0.08703703703703704,1.2622000000029843],[0.3,0.05611111111111103,1.2806000000014919],[0.30802083333333335,0.0477777777777777,1.2954000000059622],[0.33312499999999995,0.07222222222222222,1.3148000000044746],[0.3140625,0.021481481481481525,1.3316000000014938],[0.3241666666666667,0.0025925925925925505,1.3455000000000013],[0.32864583333333336,-0.01777777777777782,1.3621000000014902],[0.3185416666666666,-0.03462962962962971,1.3788000000044747],[0.32354166666666656,-0.06129629629629634,1.3980000000000032],[0.32354166666666656,-0.06129629629629634,1.4128000000044736],[0.32312500000000005,-0.09203703703703701,1.4288000000044718],[0.3597916666666668,-0.060555555555555536,1.4455000000000027],[0.3345833333333334,-0.07611111111111116,1.4642000000029824],[0.3648958333333333,-0.11129629629629634,1.4787000000029806],[0.36614583333333334,-0.16592592592592598,1.4953000000044696],[0.3623958333333334,-0.17111111111111107,1.514300000004475],[0.3407291666666666,-0.1705555555555556,1.5286000000014894],[0.37218749999999995,-0.15407407407407406,1.5453000000044739],[0.4390625,-0.14981481481481476,1.5619000000059629],[0.4501041666666666,-0.11888888888888886,1.5786000000014937],[0.4554166666666667,-0.075,1.5952000000029827],[0.4474999999999999,-0.10185185185185185,1.6152000000029787],[0.4474999999999999,-0.10185185185185185,1.6287000000029792],[0.5014583333333335,-0.0816666666666667,1.6453000000044753],[0.5014583333333335,-0.0816666666666667,1.6619000000059643],[0.4979166666666667,-0.059999999999999956,1.6786000000014951],[0.4979166666666667,-0.059999999999999956,1.6953000000044725],[0.5184375,-0.031111111111111027,1.7120000000000033],[0.5597916666666668,0.012592592592592508,1.7306000000014947],[0.5597916666666668,0.012592592592592508,1.7453000000044696],[0.5946875000000001,0.05092592592592592,1.7620000000000005],[0.5946875000000001,0.05092592592592592,1.7786000000014894],[0.5890625,0.04055555555555551,1.7953000000044739],[0.5890625,0.04055555555555551,1.812100000001493],[0.560625,0.05277777777777778,1.8286000000014937],[0.5847916666666667,0.044999999999999915,1.845300000004471],[0.5851041666666668,-0.006851851851851936,1.86190000000596],[0.5871875000000001,-0.034999999999999955,1.8786000000014909],[0.6048958333333334,-0.034074074074074034,1.8952000000029798],[0.5884375000000001,-0.027777777777777776,1.913700000002983],[0.55125,-0.03851851851851843,1.9287000000029835],[0.5160416666666667,-0.12185185185185188,1.945200000002984],[0.49333333333333323,-0.1948148148148148,1.9619000000059614],[0.4827083333333334,-0.17685185185185184,1.9787000000029806],[0.4670833333333334,-0.18740740740740738,1.9953000000044696],[0.4392708333333334,-0.2064814814814815,2.0119000000059586],[0.4265625,-0.1824074074074074,2.0286000000014894],[0.4226041666666667,-0.1574074074074074,2.045300000004474],[0.42374999999999996,-0.1514814814814815,2.0620000000000047],[0.45437500000000003,-0.15499999999999997,2.078700000002982],[0.4782291666666666,-0.1301851851851852,2.095300000004471],[0.5146874999999999,-0.0507407407407407,2.115700000002981],[0.5352083333333333,0.02296296296296292,2.1307000000029817],[0.5505208333333333,0.036481481481481566,2.147100000001494],[0.5607291666666666,0.027407407407407325,2.161999999999999],[0.5565625,0.01648148148148144,2.178600000001495],[0.5527083333333332,-0.017407407407407365,2.1980000000000004],[0.5604166666666667,0.016111111111111194,2.2149000000059615],[0.566875,0.056666666666666705,2.2286000000014923],[0.5733333333333335,0.09722222222222222,2.2453000000044696],[0.5661458333333333,0.09166666666666666,2.2620000000000005],[0.5627083333333334,0.07018518518518514,2.2786000000014894],[0.5664583333333333,0.06314814814814819,2.295300000004474],[0.5702083333333334,0.05611111111111103,2.312700000002984],[0.5744791666666667,0.06796296296296304,2.328700000002982],[0.6070833333333333,0.102962962962963,2.345300000004471],[0.6434375,0.11925925925925922,2.36190000000596],[0.6410416666666667,0.07925925925925917,2.378600000001491],[0.6219791666666665,0.05277777777777778,2.398600000001494],[0.6219791666666665,0.05277777777777778,2.4121000000014945],[0.6048958333333334,0.009999999999999959,2.4287000000029835],[0.6048958333333334,-0.005185185185185101,2.4453000000044725],[0.6022916666666667,-0.004074074074074159,2.4620000000000033],[0.5790625000000001,-0.027222222222222307,2.4786000000014923],[0.5708333333333333,-0.009074074074074031,2.495600000001488],[0.5708333333333333,-0.009074074074074031,2.512100000001489],[0.5696875000000001,0.024629629629629547,2.528700000002985],[0.5243750000000001,-0.0007407407407406986,2.548700000002981],[0.5226041666666668,0.050370370370370454,2.565000000000005]]","[0.00020000000298381337,0.03690000000596427,0.04550000000000409,0.06310000000149074,0.07870000000298205,0.0956000000014896,0.11200000000000188,0.12860000000149086,0.14540000000596365,0.16199999999999903,0.17900000000000205,0.1954000000059608,0.21220000000298,0.22870000000298063,0.24540000000596507,0.26200000000000045,0.2787000000029849,0.2953000000044739,0.31210000000149307,0.32870000000298205,0.34530000000447103,0.3620000000000019,0.383100000001491,0.40080000000447313,0.41730000000447376,0.43160000000149523,0.44530000000447245,0.4620000000000033,0.4786000000014923,0.49540000000596507,0.5121000000014888,0.5286000000014894,0.5453000000044739,0.5619000000059629,0.5786000000014937,0.595300000004471,0.6120000000000019,0.6286000000014909,0.6453000000044753,0.661999999999999,0.6786000000014951,0.6953000000044725,0.7121000000014917,0.7287000000029806,0.7454000000059651,0.7621000000014888,0.7786000000014894,0.7953000000044739,0.8120000000000047,0.8286000000014937,0.8470000000000013,0.8622000000029786,0.8788000000044747,0.8977000000029847,0.9122000000029828,0.9289000000059602,0.9472000000029794,0.96220000000298,0.978800000004469,0.9976000000014906,1.0122000000029843,1.0288000000044732,1.0472000000029809,1.062100000001493,1.0788000000044704,1.0977000000029804,1.112300000004474,1.128900000005963,1.147100000001494,1.1621000000014945,1.1788000000044718,1.1957000000029794,1.2142000000029824,1.2289000000059644,1.2456000000014882,1.2622000000029843,1.2806000000014919,1.2954000000059622,1.3148000000044746,1.3316000000014938,1.3455000000000013,1.3621000000014902,1.3788000000044747,1.3980000000000032,1.4128000000044736,1.4288000000044718,1.4455000000000027,1.4642000000029824,1.4787000000029806,1.4953000000044696,1.514300000004475,1.5286000000014894,1.5453000000044739,1.5619000000059629,1.5786000000014937,1.5952000000029827,1.6152000000029787,1.6287000000029792,1.6453000000044753,1.6619000000059643,1.6786000000014951,1.6953000000044725,1.7120000000000033,1.7306000000014947,1.7453000000044696,1.7620000000000005,1.7786000000014894,1.7953000000044739,1.812100000001493,1.8286000000014937,1.845300000004471,1.86190000000596,1.8786000000014909,1.8952000000029798,1.913700000002983,1.9287000000029835,1.945200000002984,1.9619000000059614,1.9787000000029806,1.9953000000044696,2.0119000000059586,2.0286000000014894,2.045300000004474,2.0620000000000047,2.078700000002982,2.095300000004471,2.115700000002981,2.1307000000029817,2.147100000001494,2.161999999999999,2.178600000001495,2.1980000000000004,2.2149000000059615,2.2286000000014923,2.2453000000044696,2.2620000000000005,2.2786000000014894,2.295300000004474,2.312700000002984,2.328700000002982,2.345300000004471,2.36190000000596,2.378600000001491,2.398600000001494,2.4121000000014945,2.4287000000029835,2.4453000000044725,2.4620000000000033,2.4786000000014923,2.495600000001488,2.512100000001489,2.528700000002985,2.548700000002981,2.565000000000005]","[1733284607466,1733284607496,1733284607505,1733284607522,1733284607538,1733284607555,1733284607571,1733284607588,1733284607605,1733284607621,1733284607638,1733284607655,1733284607671,1733284607688,1733284607705,1733284607721,1733284607738,1733284607754,1733284607771,1733284607788,1733284607805,1733284607821,1733284607842,1733284607860,1733284607876,1733284607891,1733284607904,1733284607921,1733284607938,1733284607954,1733284607971,1733284607988,1733284608004,1733284608021,1733284608038,1733284608054,1733284608071,1733284608088,1733284608104,1733284608121,1733284608138,1733284608154,1733284608171,1733284608188,1733284608205,1733284608221,1733284608238,1733284608254,1733284608271,1733284608288,1733284608306,1733284608321,1733284608338,1733284608357,1733284608371,1733284608388,1733284608406,1733284608421,1733284608438,1733284608457,1733284608471,1733284608488,1733284608506,1733284608521,1733284608538,1733284608557,1733284608571,1733284608588,1733284608606,1733284608621,1733284608638,1733284608655,1733284608673,1733284608688,1733284608705,1733284608721,1733284608740,1733284608755,1733284608774,1733284608791,1733284608805,1733284608821,1733284608838,1733284608857,1733284608872,1733284608888,1733284608905,1733284608923,1733284608938,1733284608954,1733284608973,1733284608988,1733284609004,1733284609021,1733284609038,1733284609054,1733284609074,1733284609088,1733284609104,1733284609121,1733284609138,1733284609154,1733284609171,1733284609190,1733284609204,1733284609221,1733284609238,1733284609254,1733284609271,1733284609288,1733284609304,1733284609321,1733284609338,1733284609354,1733284609373,1733284609388,1733284609404,1733284609421,1733284609438,1733284609454,1733284609471,1733284609488,1733284609504,1733284609521,1733284609538,1733284609554,1733284609575,1733284609590,1733284609606,1733284609621,1733284609638,1733284609657,1733284609674,1733284609688,1733284609704,1733284609721,1733284609738,1733284609754,1733284609772,1733284609788,1733284609804,1733284609821,1733284609838,1733284609858,1733284609871,1733284609888,1733284609904,1733284609921,1733284609938,1733284609955,1733284609971,1733284609988,1733284610008,1733284610024]","[[1149.6,571.2],[1149.6,571.2],[1148.5,574.2],[1160.4,578.4],[1165.2,579.7],[1136.1,579.2],[1136.1,579.2],[1113.2,569.1],[1109.2,576.4],[1126.8,571.1],[1154.4,581.1],[1157.5,587.8],[1157.5,587.8],[1153,585.5],[1147.2,590.6],[1144.1,594.7],[1141,598.8],[1147.2,608],[1147.2,608],[1174.6,620.1],[1172,631],[1154.8,644.6],[1163.8,655],[1163.8,655],[1176.3,664.5],[1169.4,675.4],[1155.6,685.8],[1124.6,687.6],[1093.6,689.4],[1079.7,692.9],[1035.4,692.6],[1020.9,684.1],[1006.4,675.6],[980.1,673.1],[953.8,670.6],[940.5,661.2],[939.8,651.6],[950.5,649.2],[961.2,646.8],[980.8,652.3],[1000.4,657.8],[1013.1,650.9],[1013.1,650.9],[1030.5,652.8],[1045.2,642.2],[1059.9,631.6],[1099.4,637.6],[1114.3,645.6],[1133.9,656.5],[1153.5,667.4],[1162.4,668],[1158.8,667.7],[1158.8,667.7],[1167.8,670.3],[1167.8,670.3],[1150.6,677.7],[1150.6,677.7],[1172.2,689.8],[1183.9,711],[1176.4,711.7],[1176.4,711.7],[1164.9,703.3],[1172.6,709.5],[1171.2,703.3],[1169.8,697.1],[1180,691.6],[1180,691.6],[1196.8,688.1],[1248.8,685.8],[1239.5,668.2],[1226.8,643.4],[1214,626.7],[1214,626.7],[1231.3,624.6],[1247.2,603.7],[1247.6,587],[1248,570.3],[1255.7,565.8],[1279.8,579],[1261.5,551.6],[1271.2,541.4],[1275.5,530.4],[1265.8,521.3],[1270.6,506.9],[1270.6,506.9],[1270.2,490.3],[1305.4,507.3],[1281.2,498.9],[1310.3,479.9],[1311.5,450.4],[1307.9,447.6],[1287.1,447.9],[1317.3,456.8],[1381.5,459.1],[1392.1,475.8],[1397.2,499.5],[1389.6,485],[1389.6,485],[1441.4,495.9],[1441.4,495.9],[1438,507.6],[1438,507.6],[1457.7,523.2],[1497.4,546.8],[1497.4,546.8],[1530.9,567.5],[1530.9,567.5],[1525.5,561.9],[1525.5,561.9],[1498.2,568.5],[1521.4,564.3],[1521.7,536.3],[1523.7,521.1],[1540.7,521.6],[1524.9,525],[1489.2,519.2],[1455.4,474.2],[1433.6,434.8],[1423.4,444.5],[1408.4,438.8],[1381.7,428.5],[1369.5,441.5],[1365.7,455],[1366.8,458.2],[1396.2,456.3],[1419.1,469.7],[1454.1,512.6],[1473.8,552.4],[1488.5,559.7],[1498.3,554.8],[1494.3,548.9],[1490.6,530.6],[1498,548.7],[1504.2,570.6],[1510.4,592.5],[1503.5,589.5],[1500.2,577.9],[1503.8,574.1],[1507.4,570.3],[1511.5,576.7],[1542.8,595.6],[1577.7,604.4],[1575.4,582.8],[1557.1,568.5],[1557.1,568.5],[1540.7,545.4],[1540.7,537.2],[1538.2,537.8],[1515.9,525.3],[1508,535.1],[1508,535.1],[1506.9,553.3],[1463.4,539.6],[1461.7,567.2]]","[0,0.37864299999999995]","[0.37864299999999995,0.37864299999999995]","[-0.37864299999999995,-0.37864299999999995]","[-0.37864299999999995,0]","[0,-0.37864299999999995]","[0.37864299999999995,-0.37864299999999995]","[0,0]","[0.37864299999999995,0]",0,0,0,0,1,2,Laptop,7,1,11,9
,,,,,,,,,,,,,,,,,,,,27,001,2024-12-04_11h55.57.208,Attention_exp_legacy,2023.1.0,Win32,59.88023952,,,,,,,,,,[0.14375],[0.34629629629629627],[1],[0],[0],[1.6166999999955323],"[""Option1_label""]",Option1_label,2,2.6331,"[[0.46979166666666666,0.27037037037037037],[0.46979166666666666,0.27037037037037037],[0.46979166666666666,0.27037037037037037],[0.46979166666666666,0.27037037037037037],[0.46979166666666666,0.27037037037037037],[0.46979166666666666,0.27037037037037037],[0.46979166666666666,0.27037037037037037],[0.46979166666666666,0.27037037037037037],[0.46979166666666666,0.27037037037037037],[0.46979166666666666,0.27037037037037037],[0.46979166666666666,0.27037037037037037],[0.46979166666666666,0.27037037037037037],[0.46979166666666666,0.27037037037037037],[0.46979166666666666,0.27037037037037037],[0.46979166666666666,0.27037037037037037],[0.46979166666666666,0.27037037037037037],[0.46979166666666666,0.27037037037037037],[0.46979166666666666,0.27037037037037037],[0.46979166666666666,0.27037037037037037],[0.46979166666666666,0.27037037037037037],[0.46979166666666666,0.27037037037037037],[0.46979166666666666,0.27037037037037037],[0.46979166666666666,0.27037037037037037],[0.46979166666666666,0.27037037037037037],[0.46979166666666666,0.27037037037037037],[0.46979166666666666,0.27037037037037037],[0.46979166666666666,0.27037037037037037],[0.46979166666666666,0.27037037037037037],[0.46979166666666666,0.27037037037037037],[0.46979166666666666,0.27037037037037037],[0.46979166666666666,0.27037037037037037],[0.46979166666666666,0.27037037037037037],[0.46979166666666666,0.27037037037037037],[0.46979166666666666,0.27037037037037037],[0.46979166666666666,0.27037037037037037],[0.46979166666666666,0.27037037037037037],[0.46979166666666666,0.27037037037037037],[0.46979166666666666,0.27037037037037037],[0.46979166666666666,0.27037037037037037],[0.46979166666666666,0.27037037037037037],[0.46979166666666666,0.27037037037037037],[0.46979166666666666,0.27037037037037037],[0.46979166666666666,0.27037037037037037],[0.46979166666666666,0.27037037037037037],[0.46979166666666666,0.27037037037037037],[0.46979166666666666,0.27037037037037037],[0.46979166666666666,0.27037037037037037],[0.46979166666666666,0.27037037037037037],[0.46979166666666666,0.27037037037037037],[0.46979166666666666,0.27037037037037037],[0.46979166666666666,0.27037037037037037],[0.46979166666666666,0.27037037037037037],[0.46979166666666666,0.27037037037037037],[0.46979166666666666,0.27037037037037037],[0.46979166666666666,0.27037037037037037],[0.46979166666666666,0.27037037037037037],[0.46979166666666666,0.27037037037037037],[0.46979166666666666,0.27037037037037037],[0.46875,0.27037037037037037],[0.4666666666666667,0.27037037037037037],[0.46145833333333336,0.2722222222222222],[0.45,0.2740740740740741],[0.43020833333333336,0.2796296296296296],[0.41354166666666664,0.2833333333333333],[0.4,0.2851851851851852],[0.3875,0.2851851851851852],[0.378125,0.28888888888888886],[0.36770833333333336,0.29074074074074074],[0.35520833333333335,0.29259259259259257],[0.34270833333333334,0.29814814814814816],[0.3302083333333333,0.3],[0.31979166666666664,0.30185185185185187],[0.31145833333333334,0.3055555555555556],[0.30104166666666665,0.30925925925925923],[0.28541666666666665,0.30925925925925923],[0.2760416666666667,0.31296296296296294],[0.26666666666666666,0.31666666666666665],[0.25833333333333336,0.31851851851851853],[0.24895833333333334,0.32222222222222224],[0.240625,0.32407407407407407],[0.23125,0.32407407407407407],[0.22291666666666668,0.32592592592592595],[0.2125,0.3314814814814815],[0.203125,0.3333333333333333],[0.19583333333333333,0.3351851851851852],[0.18958333333333333,0.337037037037037],[0.18020833333333333,0.3388888888888889],[0.17395833333333333,0.34074074074074073],[0.16770833333333332,0.34074074074074073],[0.159375,0.34444444444444444],[0.15416666666666667,0.34444444444444444],[0.14791666666666667,0.34444444444444444],[0.14583333333333334,0.34629629629629627],[0.14375,0.34629629629629627],[0.14375,0.34629629629629627],[0.14375,0.34629629629629627],[0.14375,0.34629629629629627],[0.14375,0.34629629629629627],[0.14375,0.34814814814814815],[0.14375,0.34814814814814815],[0.14375,0.34814814814814815],[0.14375,0.34814814814814815],[0.14375,0.34814814814814815],[0.14375,0.34814814814814815],[0.14375,0.34814814814814815],[0.14375,0.34814814814814815],[0.14375,0.34814814814814815],[0.14375,0.34814814814814815],[0.14375,0.34814814814814815],[0.14375,0.34814814814814815],[0.14375,0.34814814814814815],[0.14375,0.34814814814814815],[0.14375,0.34814814814814815],[0.14375,0.34814814814814815],[0.14375,0.34814814814814815],[0.14375,0.34814814814814815],[0.14375,0.34814814814814815],[0.14375,0.34814814814814815],[0.14375,0.34814814814814815],[0.14375,0.34814814814814815],[0.14375,0.34814814814814815],[0.14375,0.34814814814814815],[0.14375,0.34814814814814815],[0.14375,0.34814814814814815],[0.14375,0.34814814814814815],[0.14375,0.34814814814814815],[0.14375,0.34814814814814815],[0.14375,0.34814814814814815],[0.14375,0.34814814814814815],[0.14375,0.34814814814814815],[0.14375,0.34814814814814815],[0.14375,0.34814814814814815],[0.14375,0.34814814814814815],[0.14375,0.34814814814814815],[0.14375,0.34814814814814815],[0.14375,0.34814814814814815],[0.14375,0.34814814814814815],[0.14375,0.34814814814814815],[0.14375,0.34814814814814815],[0.14375,0.34814814814814815],[0.14375,0.34814814814814815],[0.14375,0.34814814814814815],[0.14375,0.34814814814814815],[0.14375,0.34814814814814815],[0.14375,0.34814814814814815],[0.14375,0.34814814814814815],[0.14375,0.34814814814814815],[0.14375,0.34814814814814815],[0.14375,0.34814814814814815],[0.14375,0.34814814814814815],[0.14375,0.34814814814814815],[0.14375,0.34814814814814815],[0.14375,0.34814814814814815],[0.14375,0.34814814814814815],[0.14375,0.34814814814814815],[0.14375,0.34814814814814815],[0.14375,0.34814814814814815],[0.14375,0.34814814814814815],[0.14375,0.34814814814814815]]","[[0.5209374999999999,-0.007777777777777862],[0.5389583333333334,0.0014814814814813973],[0.5368750000000001,-0.003888888888888931],[0.5158333333333334,-0.03722222222222227],[0.5158333333333334,-0.03722222222222227],[0.5077083333333334,-0.06740740740740736],[0.5077083333333334,-0.06740740740740736],[0.46197916666666666,-0.09037037037037039],[0.46197916666666666,-0.09037037037037039],[0.4327083333333334,-0.09666666666666665],[0.4327083333333334,-0.09666666666666665],[0.4409374999999999,-0.10462962962962963],[0.4409374999999999,-0.10462962962962963],[0.44854166666666656,-0.11888888888888886],[0.44854166666666656,-0.11888888888888886],[0.4466666666666666,-0.13277777777777774],[0.44520833333333343,-0.147037037037037],[0.4404166666666666,-0.14944444444444444],[0.4326041666666666,-0.14074074074074075],[0.43208333333333326,-0.14240740740740737],[0.44333333333333325,-0.11685185185185189],[0.4701041666666666,-0.09240740740740737],[0.4808333333333332,-0.08277777777777776],[0.48541666666666666,-0.06703703703703702],[0.4588541666666667,-0.06722222222222224],[0.4417708333333332,-0.06777777777777783],[0.4473958333333333,-0.011111111111111112],[0.45635416666666656,0.03370370370370379],[0.4735416666666666,0.06870370370370374],[0.5161458333333333,0.1507407407407407],[0.5469791666666666,0.20555555555555555],[0.5133333333333333,0.22148148148148153],[0.4514583333333334,0.22333333333333338],[0.4184375000000001,0.26055555555555565],[0.40906250000000005,0.3198148148148149],[0.37354166666666655,0.3483333333333334],[0.35041666666666677,0.3101851851851852],[0.35041666666666677,0.3101851851851852],[0.3076041666666666,0.28888888888888886],[0.2633333333333333,0.2729629629629629],[0.1935416666666666,0.2381481481481482],[0.13093750000000004,0.20962962962962972],[0.10489583333333338,0.22018518518518515],[0.09822916666666662,0.2455555555555556],[0.09197916666666663,0.22351851851851862],[0.08572916666666662,0.2014814814814814],[0.09697916666666657,0.24759259259259267],[0.06614583333333333,0.30166666666666664],[0.06614583333333333,0.30166666666666664],[0.059583333333333384,0.3337037037037038],[0.06062500000000005,0.33796296296296297],[0.06166666666666672,0.34222222222222215],[0.05552083333333328,0.34018518518518526],[0.06791666666666671,0.3477777777777777],[0.08031249999999991,0.35537037037037034],[0.05916666666666662,0.3727777777777777],[0.05916666666666662,0.3727777777777777],[0.03802083333333333,0.39018518518518525],[0.050729166666666714,0.3896296296296296],[0.11583333333333339,0.32092592592592584],[0.17635416666666662,0.2574074074074074],[0.22791666666666663,0.25333333333333324],[0.22791666666666663,0.25333333333333324],[0.2627083333333334,0.19814814814814816],[0.2986458333333334,0.1527777777777778],[0.31145833333333334,0.11370370370370367],[0.3132291666666667,0.08481481481481473],[0.32312500000000005,0.051666666666666625],[0.32312500000000005,0.051666666666666625],[0.3458333333333333,0.0485185185185186],[0.3664583333333333,0.04685185185185177],[0.33489583333333334,0.0301851851851851],[0.28114583333333343,0.013518518518518435],[0.2365624999999999,-0.06092592592592588],[0.22604166666666667,-0.10833333333333334],[0.20843749999999991,-0.12185185185185188],[0.22333333333333344,-0.1514814814814815],[0.24416666666666675,-0.14888888888888885],[0.24791666666666667,-0.15203703703703708],[0.23708333333333323,-0.15481481481481485],[0.21104166666666657,-0.22611111111111115],[0.12322916666666663,-0.15314814814814812],[0.12322916666666663,-0.15314814814814812],[0.14249999999999996,-0.19018518518518515],[0.1490624999999999,-0.19166666666666668],[0.12635416666666663,-0.13111111111111112],[0.10239583333333328,-0.12777777777777777],[0.028645833333333332,-0.13907407407407413],[0.028645833333333332,-0.13907407407407413],[-0.005729166666666666,-0.1037037037037037],[-0.01427083333333338,-0.11648148148148144],[-0.04052083333333331,-0.11055555555555553],[-0.04052083333333331,-0.11055555555555553],[-0.01854166666666662,-0.06981481481481479],[0.05249999999999998,-0.11370370370370367],[0.014791666666666713,-0.0824074074074074],[-0.01906249999999995,-0.017592592592592594],[-0.04093749999999995,0.009259259259259259],[-0.06593749999999995,0.022777777777777692],[-0.03447916666666669,0.05907407407407403],[-0.03729166666666662,0.006296296296296254],[-0.02374999999999995,0],[0.0048958333333333805,-0.030740740740740784],[-0.04697916666666669,-0.12462962962962965],[-0.07677083333333339,-0.19500000000000003],[-0.05354166666666664,-0.1624074074074074],[-0.02781250000000005,-0.17814814814814814],[0.03729166666666662,-0.21222222222222226],[0.05135416666666662,-0.1772222222222222],[0.05499999999999995,-0.14666666666666664],[0.06197916666666667,-0.12851851851851848],[0.05625,-0.15629629629629627],[0.03999999999999997,-0.19425925925925921],[0.096875,-0.1757407407407407],[0.15374999999999991,-0.15722222222222218],[0.19802083333333323,-0.24870370370370373],[0.20697916666666671,-0.29796296296296293],[0.1765625,-0.32888888888888895],[0.1681250000000001,-0.36018518518518516],[0.1961458333333333,-0.4351851851851852],[0.23552083333333323,-0.49148148148148146],[0.2586458333333333,-0.487962962962963],[0.24010416666666667,-0.465],[0.24010416666666667,-0.465],[0.21489583333333329,-0.45685185185185184],[0.21489583333333329,-0.45685185185185184],[0.1756249999999999,-0.442037037037037],[0.1756249999999999,-0.442037037037037],[0.10791666666666658,-0.3866666666666667],[0.10239583333333328,-0.39666666666666667],[0.10239583333333328,-0.39666666666666667],[0.09822916666666662,-0.402962962962963],[0.09822916666666662,-0.402962962962963],[0.1224999999999999,-0.33907407407407414],[0.1224999999999999,-0.33907407407407414],[0.0834374999999999,-0.28962962962962957],[0.041875000000000044,-0.257962962962963],[0.012083333333333357,-0.227962962962963],[0.03885416666666662,-0.23185185185185184],[0.027604166666666666,-0.17740740740740743],[0.027604166666666666,-0.17740740740740743],[0.050729166666666714,-0.14759259259259258],[0.04895833333333333,-0.1096296296296296],[0.029895833333333382,-0.05611111111111113],[0.0015625,-0.018148148148148063],[-0.015312500000000047,-0.09814814814814815],[0.0015625,-0.09370370370370375],[0.00625,-0.07777777777777778],[-0.0006250000000000236,-0.059999999999999956],[-0.024270833333333287,-0.07037037037037037],[-0.051979166666666646,-0.10481481481481486],[-0.09541666666666669,-0.1051851851851852],[-0.10354166666666664,-0.12166666666666665],[-0.09645833333333335,-0.12129629629629629],[-0.08552083333333335,-0.10499999999999998],[-0.07614583333333336,-0.09277777777777782],[-0.06989583333333335,-0.11055555555555553],[-0.06989583333333335,-0.11055555555555553],[-0.06875,-0.10499999999999998]]","[[0.5209374999999999,-0.007777777777777862,0.0000999999940418661],[0.5389583333333334,0.0014814814814813973,0.01639999999851227],[0.5368750000000001,-0.003888888888888931,0.03309999999404312],[0.5158333333333334,-0.03722222222222227,0.049699999995532096],[0.5158333333333334,-0.03722222222222227,0.06639999999851653],[0.5077083333333334,-0.06740740740740736,0.08309999999404027],[0.5077083333333334,-0.06740740740740736,0.09969999999553636],[0.46197916666666666,-0.09037037037037039,0.11629999999702534],[0.46197916666666666,-0.09037037037037039,0.13309999999404454],[0.4327083333333334,-0.09666666666666665,0.14969999999553352],[0.4327083333333334,-0.09666666666666665,0.16639999999851085],[0.4409374999999999,-0.10462962962962963,0.18319999999553005],[0.4409374999999999,-0.10462962962962963,0.19969999999553067],[0.44854166666666656,-0.11888888888888886,0.2163999999985151],[0.44854166666666656,-0.11888888888888886,0.23309999999404596],[0.4466666666666666,-0.13277777777777774,0.24969999999553494],[0.44520833333333343,-0.147037037037037,0.26639999999851227],[0.4404166666666666,-0.14944444444444444,0.28489999999851534],[0.4326041666666666,-0.14074074074074075,0.30009999999404613],[0.43208333333333326,-0.14240740740740737,0.3190999999940445],[0.44333333333333325,-0.11685185185185189,0.3362999999970242],[0.4701041666666666,-0.09240740740740737,0.35300000000000153],[0.4808333333333332,-0.08277777777777776,0.36650000000000205],[0.48541666666666666,-0.06703703703703702,0.3835999999940398],[0.4588541666666667,-0.06722222222222224,0.39959999999404516],[0.4417708333333332,-0.06777777777777783,0.41639999999851085],[0.4473958333333333,-0.011111111111111112,0.4370000000000047],[0.45635416666666656,0.03370370370370379,0.45159999999404477],[0.4735416666666666,0.06870370370370374,0.4663999999985151],[0.5161458333333333,0.1507407407407407,0.4830000000000041],[0.5469791666666666,0.20555555555555555,0.49969999999552783],[0.5133333333333333,0.22148148148148153,0.5162999999970168],[0.4514583333333334,0.22333333333333338,0.5332999999970269],[0.4184375000000001,0.26055555555555565,0.5516999999955345],[0.40906250000000005,0.3198148148148149,0.5696999999955352],[0.37354166666666655,0.3483333333333334,0.5841999999955334],[0.35041666666666677,0.3101851851851852,0.5995999999940409],[0.35041666666666677,0.3101851851851852,0.6163999999985066],[0.3076041666666666,0.28888888888888886,0.63319999999554],[0.2633333333333333,0.2729629629629629,0.6495999999940381],[0.1935416666666666,0.2381481481481482,0.666399999998518],[0.13093750000000004,0.20962962962962972,0.6830000000000069],[0.10489583333333338,0.22018518518518515,0.7025000000000006],[0.09822916666666662,0.2455555555555556,0.7185999999940407],[0.09197916666666663,0.22351851851851862,0.7353999999985064],[0.08572916666666662,0.2014814814814814,0.7496999999955278],[0.09697916666666657,0.24759259259259267,0.7662999999970168],[0.06614583333333333,0.30166666666666664,0.7856999999955292],[0.06614583333333333,0.30166666666666664,0.8027999999970206],[0.059583333333333384,0.3337037037037038,0.8201999999955376],[0.06062500000000005,0.33796296296296297,0.8335000000000008],[0.06166666666666672,0.34222222222222215,0.8495999999940409],[0.05552083333333328,0.34018518518518526,0.8663999999985066],[0.06791666666666671,0.3477777777777777,0.8830999999940445],[0.08031249999999991,0.35537037037037034,0.8995999999940381],[0.05916666666666662,0.3727777777777777,0.9193999999985181],[0.05916666666666662,0.3727777777777777,0.9330999999940417],[0.03802083333333333,0.39018518518518525,0.9496999999955307],[0.050729166666666714,0.3896296296296296,0.9680999999940383],[0.11583333333333339,0.32092592592592584,0.9831999999955343],[0.17635416666666662,0.2574074074074074,0.9998999999985188],[0.22791666666666663,0.25333333333333324,1.0187999999970287],[0.22791666666666663,0.25333333333333324,1.033299999997027],[0.2627083333333334,0.19814814814814816,1.049899999998516],[0.2986458333333334,0.1527777777777778,1.068199999995528],[0.31145833333333334,0.11370370370370367,1.0831999999955286],[0.3132291666666667,0.08481481481481473,1.099899999998513],[0.32312500000000005,0.051666666666666625,1.1193999999985067],[0.32312500000000005,0.051666666666666625,1.1332999999970212],[0.3458333333333333,0.0485185185185186,1.1500000000000057],[0.3664583333333333,0.04685185185185177,1.1694999999999993],[0.33489583333333334,0.0301851851851851,1.1839999999999975],[0.28114583333333343,0.013518518518518435,1.1998999999985074],[0.2365624999999999,-0.06092592592592588,1.2165999999940453],[0.22604166666666667,-0.10833333333333334,1.2353999999985064],[0.20843749999999991,-0.12185185185185188,1.2498999999985188],[0.22333333333333344,-0.1514814814814815,1.268500000000003],[0.24416666666666675,-0.14888888888888885,1.283099999994036],[0.24791666666666667,-0.15203703703703708,1.3015000000000043],[0.23708333333333323,-0.15481481481481485,1.3165000000000049],[0.21104166666666657,-0.22611111111111115,1.3333999999985195],[0.12322916666666663,-0.15314814814814812,1.3520999999940386],[0.12322916666666663,-0.15314814814814812,1.366500000000002],[0.14249999999999996,-0.19018518518518515,1.38319999999554],[0.1490624999999999,-0.19166666666666668,1.4016999999955289],[0.12635416666666663,-0.13111111111111112,1.4165999999940482],[0.10239583333333328,-0.12777777777777777,1.4332999999970184],[0.028645833333333332,-0.13907407407407413,1.4520999999940472],[0.028645833333333332,-0.13907407407407413,1.4664999999999964],[-0.005729166666666666,-0.1037037037037037,1.4832999999970298],[-0.01427083333333338,-0.11648148148148144,1.5020000000000095],[-0.04052083333333331,-0.11055555555555553,1.5170000000000101],[-0.04052083333333331,-0.11055555555555553,1.5333999999985082],[-0.01854166666666662,-0.06981481481481479,1.5526999999955393],[0.05249999999999998,-0.11370370370370367,1.5662999999970282],[0.014791666666666713,-0.0824074074074074,1.5831999999955286],[-0.01906249999999995,-0.017592592592592594,1.599599999994041],[-0.04093749999999995,0.009259259259259259,1.617699999995537],[-0.06593749999999995,0.022777777777777692,1.6356999999955377],[-0.03447916666666669,0.05907407407407403,1.6496999999955335],[-0.03729166666666662,0.006296296296296254,1.666399999998518],[-0.02374999999999995,0,1.6830999999940417],[0.0048958333333333805,-0.030740740740740784,1.6996999999955307],[-0.04697916666666669,-0.12462962962962965,1.7163999999985151],[-0.07677083333333339,-0.19500000000000003,1.7362999999970299],[-0.05354166666666664,-0.1624074074074074,1.750799999997028],[-0.02781250000000005,-0.17814814814814814,1.7662999999970168],[0.03729166666666662,-0.21222222222222226,1.7830000000000013],[0.05135416666666662,-0.1772222222222222,1.7995999999940437],[0.05499999999999995,-0.14666666666666664,1.818799999997026],[0.06197916666666667,-0.12851851851851848,1.8367999999970266],[0.05625,-0.15629629629629627,1.8518999999985084],[0.03999999999999997,-0.19425925925925921,1.8663999999985066],[0.096875,-0.1757407407407407,1.8830000000000098],[0.15374999999999991,-0.15722222222222218,1.899599999994038],[0.19802083333333323,-0.24870370370370373,1.9162999999970225],[0.20697916666666671,-0.29796296296296293,1.9332999999970184],[0.1765625,-0.32888888888888895,1.9496999999955307],[0.1681250000000001,-0.36018518518518516,1.9662999999970197],[0.1961458333333333,-0.4351851851851852,1.983000000000004],[0.23552083333333323,-0.49148148148148146,1.9996999999955278],[0.2586458333333333,-0.487962962962963,2.016299999997017],[0.24010416666666667,-0.465,2.037399999998513],[0.24010416666666667,-0.465,2.0497999999970204],[0.21489583333333329,-0.45685185185185184,2.066299999997028],[0.21489583333333329,-0.45685185185185184,2.0829999999999984],[0.1756249999999999,-0.442037037037037,2.0996999999955364],[0.1756249999999999,-0.442037037037037,2.1163999999985066],[0.10791666666666658,-0.3866666666666667,2.1330999999940445],[0.10239583333333328,-0.39666666666666667,2.1532999999970173],[0.10239583333333328,-0.39666666666666667,2.1662999999970225],[0.09822916666666662,-0.402962962962963,2.1895999999940443],[0.09822916666666662,-0.402962962962963,2.1995999999940494],[0.1224999999999999,-0.33907407407407414,2.216399999998515],[0.1224999999999999,-0.33907407407407414,2.233099999994039],[0.0834374999999999,-0.28962962962962957,2.2497999999970233],[0.041875000000000044,-0.257962962962963,2.266299999997017],[0.012083333333333357,-0.227962962962963,2.2830000000000013],[0.03885416666666662,-0.23185185185185184,2.299699999995539],[0.027604166666666666,-0.17740740740740743,2.3163999999985094],[0.027604166666666666,-0.17740740740740743,2.3331999999955286],[0.050729166666666714,-0.14759259259259258,2.3497999999970176],[0.04895833333333333,-0.1096296296296296,2.369799999997028],[0.029895833333333382,-0.05611111111111113,2.3851999999955353],[0.0015625,-0.018148148148148063,2.3996999999955335],[-0.015312500000000047,-0.09814814814814815,2.4162999999970225],[0.0015625,-0.09370370370370375,2.433000000000007],[0.00625,-0.07777777777777778,2.4496999999955307],[-0.0006250000000000236,-0.059999999999999956,2.4662999999970197],[-0.024270833333333287,-0.07037037037037037,2.4828999999985086],[-0.051979166666666646,-0.10481481481481486,2.499699999995528],[-0.09541666666666669,-0.1051851851851852,2.5163999999985123],[-0.10354166666666664,-0.12166666666666665,2.5330000000000013],[-0.09645833333333335,-0.12129629629629629,2.549699999995539],[-0.08552083333333335,-0.10499999999999998,2.569899999998512],[-0.07614583333333336,-0.09277777777777782,2.5859999999999985],[-0.06989583333333335,-0.11055555555555553,2.6020999999940386],[-0.06989583333333335,-0.11055555555555553,2.6163999999985066],[-0.06875,-0.10499999999999998,2.6330999999940445]]","[0.0000999999940418661,0.01639999999851227,0.03309999999404312,0.049699999995532096,0.06639999999851653,0.08309999999404027,0.09969999999553636,0.11629999999702534,0.13309999999404454,0.14969999999553352,0.16639999999851085,0.18319999999553005,0.19969999999553067,0.2163999999985151,0.23309999999404596,0.24969999999553494,0.26639999999851227,0.28489999999851534,0.30009999999404613,0.3190999999940445,0.3362999999970242,0.35300000000000153,0.36650000000000205,0.3835999999940398,0.39959999999404516,0.41639999999851085,0.4370000000000047,0.45159999999404477,0.4663999999985151,0.4830000000000041,0.49969999999552783,0.5162999999970168,0.5332999999970269,0.5516999999955345,0.5696999999955352,0.5841999999955334,0.5995999999940409,0.6163999999985066,0.63319999999554,0.6495999999940381,0.666399999998518,0.6830000000000069,0.7025000000000006,0.7185999999940407,0.7353999999985064,0.7496999999955278,0.7662999999970168,0.7856999999955292,0.8027999999970206,0.8201999999955376,0.8335000000000008,0.8495999999940409,0.8663999999985066,0.8830999999940445,0.8995999999940381,0.9193999999985181,0.9330999999940417,0.9496999999955307,0.9680999999940383,0.9831999999955343,0.9998999999985188,1.0187999999970287,1.033299999997027,1.049899999998516,1.068199999995528,1.0831999999955286,1.099899999998513,1.1193999999985067,1.1332999999970212,1.1500000000000057,1.1694999999999993,1.1839999999999975,1.1998999999985074,1.2165999999940453,1.2353999999985064,1.2498999999985188,1.268500000000003,1.283099999994036,1.3015000000000043,1.3165000000000049,1.3333999999985195,1.3520999999940386,1.366500000000002,1.38319999999554,1.4016999999955289,1.4165999999940482,1.4332999999970184,1.4520999999940472,1.4664999999999964,1.4832999999970298,1.5020000000000095,1.5170000000000101,1.5333999999985082,1.5526999999955393,1.5662999999970282,1.5831999999955286,1.599599999994041,1.617699999995537,1.6356999999955377,1.6496999999955335,1.666399999998518,1.6830999999940417,1.6996999999955307,1.7163999999985151,1.7362999999970299,1.750799999997028,1.7662999999970168,1.7830000000000013,1.7995999999940437,1.818799999997026,1.8367999999970266,1.8518999999985084,1.8663999999985066,1.8830000000000098,1.899599999994038,1.9162999999970225,1.9332999999970184,1.9496999999955307,1.9662999999970197,1.983000000000004,1.9996999999955278,2.016299999997017,2.037399999998513,2.0497999999970204,2.066299999997028,2.0829999999999984,2.0996999999955364,2.1163999999985066,2.1330999999940445,2.1532999999970173,2.1662999999970225,2.1895999999940443,2.1995999999940494,2.216399999998515,2.233099999994039,2.2497999999970233,2.266299999997017,2.2830000000000013,2.299699999995539,2.3163999999985094,2.3331999999955286,2.3497999999970176,2.369799999997028,2.3851999999955353,2.3996999999955335,2.4162999999970225,2.433000000000007,2.4496999999955307,2.4662999999970197,2.4828999999985086,2.499699999995528,2.5163999999985123,2.5330000000000013,2.549699999995539,2.569899999998512,2.5859999999999985,2.6020999999940386,2.6163999999985066,2.6330999999940445]","[1733284611039,1733284611054,1733284611071,1733284611088,1733284611104,1733284611121,1733284611138,1733284611154,1733284611171,1733284611188,1733284611204,1733284611221,1733284611238,1733284611254,1733284611271,1733284611288,1733284611304,1733284611323,1733284611338,1733284611357,1733284611374,1733284611391,1733284611405,1733284611422,1733284611438,1733284611454,1733284611475,1733284611490,1733284611504,1733284611521,1733284611538,1733284611554,1733284611571,1733284611590,1733284611608,1733284611622,1733284611638,1733284611655,1733284611671,1733284611688,1733284611704,1733284611721,1733284611741,1733284611757,1733284611773,1733284611788,1733284611804,1733284611824,1733284611841,1733284611858,1733284611872,1733284611888,1733284611904,1733284611921,1733284611938,1733284611957,1733284611971,1733284611988,1733284612006,1733284612021,1733284612038,1733284612057,1733284612071,1733284612088,1733284612106,1733284612121,1733284612138,1733284612157,1733284612171,1733284612188,1733284612207,1733284612222,1733284612238,1733284612255,1733284612273,1733284612288,1733284612307,1733284612321,1733284612340,1733284612355,1733284612371,1733284612390,1733284612405,1733284612421,1733284612440,1733284612455,1733284612471,1733284612490,1733284612505,1733284612521,1733284612540,1733284612555,1733284612571,1733284612591,1733284612604,1733284612621,1733284612638,1733284612656,1733284612674,1733284612688,1733284612704,1733284612721,1733284612738,1733284612754,1733284612774,1733284612789,1733284612804,1733284612821,1733284612838,1733284612857,1733284612875,1733284612890,1733284612904,1733284612921,1733284612938,1733284612954,1733284612971,1733284612988,1733284613004,1733284613021,1733284613038,1733284613054,1733284613075,1733284613088,1733284613104,1733284613121,1733284613138,1733284613154,1733284613171,1733284613191,1733284613204,1733284613228,1733284613238,1733284613254,1733284613271,1733284613288,1733284613304,1733284613321,1733284613338,1733284613354,1733284613371,1733284613388,1733284613408,1733284613423,1733284613438,1733284613454,1733284613471,1733284613488,1733284613504,1733284613521,1733284613538,1733284613554,1733284613571,1733284613588,1733284613608,1733284613624,1733284613640,1733284613654,1733284613671]","[[1460.1,535.8],[1477.4,540.8],[1475.4,537.9],[1455.2,519.9],[1455.2,519.9],[1447.4,503.6],[1447.4,503.6],[1403.5,491.2],[1403.5,491.2],[1375.4,487.8],[1375.4,487.8],[1383.3,483.5],[1383.3,483.5],[1390.6,475.8],[1390.6,475.8],[1388.8,468.3],[1387.4,460.6],[1382.8,459.3],[1375.3,464],[1374.8,463.1],[1385.6,476.9],[1411.3,490.1],[1421.6,495.3],[1426,503.8],[1400.5,503.7],[1384.1,503.4],[1389.5,534],[1398.1,558.2],[1414.6,577.1],[1455.5,621.4],[1485.1,651],[1452.8,659.6],[1393.4,660.6],[1361.7,680.7],[1352.7,712.7],[1318.6,728.1],[1296.4,707.5],[1296.4,707.5],[1255.3,696],[1212.8,687.4],[1145.8,668.6],[1085.7,653.2],[1060.7,658.9],[1054.3,672.6],[1048.3,660.7],[1042.3,648.8],[1053.1,673.7],[1023.5,702.9],[1023.5,702.9],[1017.2,720.2],[1018.2,722.5],[1019.2,724.8],[1013.3,723.7],[1025.2,727.8],[1037.1,731.9],[1016.8,741.3],[1016.8,741.3],[996.5,750.7],[1008.7,750.4],[1071.2,713.3],[1129.3,679],[1178.8,676.8],[1178.8,676.8],[1212.2,647],[1246.7,622.5],[1259,601.4],[1260.7,585.8],[1270.2,567.9],[1270.2,567.9],[1292,566.2],[1311.8,565.3],[1281.5,556.3],[1229.9,547.3],[1187.1,507.1],[1177,481.5],[1160.1,474.2],[1174.4,458.2],[1194.4,459.6],[1198,457.9],[1187.6,456.4],[1162.6,417.9],[1078.3,457.3],[1078.3,457.3],[1096.8,437.3],[1103.1,436.5],[1081.3,469.2],[1058.3,471],[987.5,464.9],[987.5,464.9],[954.5,484],[946.3,477.1],[921.1,480.3],[921.1,480.3],[942.2,502.3],[1010.4,478.6],[974.2,495.5],[941.7,530.5],[920.7,545],[896.7,552.3],[926.9,571.9],[924.2,543.4],[937.2,540],[964.7,523.4],[914.9,472.7],[886.3,434.7],[908.6,452.3],[933.3,443.8],[995.8,425.4],[1009.3,444.3],[1012.8,460.8],[1019.5,470.6],[1014,455.6],[998.4,435.1],[1053,445.1],[1107.6,455.1],[1150.1,405.7],[1158.7,379.1],[1129.5,362.4],[1121.4,345.5],[1148.3,305],[1186.1,274.6],[1208.3,276.5],[1190.5,288.9],[1190.5,288.9],[1166.3,293.3],[1166.3,293.3],[1128.6,301.3],[1128.6,301.3],[1063.6,331.2],[1058.3,325.8],[1058.3,325.8],[1054.3,322.4],[1054.3,322.4],[1077.6,356.9],[1077.6,356.9],[1040.1,383.6],[1000.2,400.7],[971.6,416.9],[997.3,414.8],[986.5,444.2],[986.5,444.2],[1008.7,460.3],[1007,480.8],[988.7,509.7],[961.5,530.2],[945.3,487],[961.5,489.4],[966,498],[959.4,507.6],[936.7,502],[910.1,483.4],[868.4,483.2],[860.6,474.3],[867.4,474.5],[877.9,483.3],[886.9,489.9],[892.9,480.3],[892.9,480.3],[894,483.3]]","[0,0.37864299999999995]","[0.37864299999999995,0.37864299999999995]","[-0.37864299999999995,-0.37864299999999995]","[-0.37864299999999995,0]","[0,-0.37864299999999995]","[0.37864299999999995,-0.37864299999999995]","[0,0]","[0.37864299999999995,0]",0,1,1,1,1,2,Laptop,13,7,11,1
,,,,,,,,,,,,,,,,,,,,27,001,2024-12-04_11h55.57.208,Attention_exp_legacy,2023.1.0,Win32,59.88023952,,,,,,,,,,[0.04479166666666667],[0.31296296296296294],[1],[0],[0],[2.0623999999985188],"[""Option1_label""]",Option1_label,3,3.0641,"[[0.14375,0.34814814814814815],[0.14375,0.34814814814814815],[0.14375,0.34814814814814815],[0.14375,0.34814814814814815],[0.14375,0.34814814814814815],[0.14375,0.34814814814814815],[0.14375,0.34814814814814815],[0.14375,0.34814814814814815],[0.14375,0.34814814814814815],[0.14375,0.34814814814814815],[0.14375,0.34814814814814815],[0.14375,0.34814814814814815],[0.14375,0.34814814814814815],[0.14375,0.34814814814814815],[0.14375,0.34814814814814815],[0.14375,0.34814814814814815],[0.14375,0.34814814814814815],[0.14375,0.34814814814814815],[0.14375,0.34814814814814815],[0.14375,0.34814814814814815],[0.14375,0.34814814814814815],[0.14375,0.34814814814814815],[0.14375,0.34814814814814815],[0.14375,0.34814814814814815],[0.14375,0.34814814814814815],[0.14375,0.34814814814814815],[0.14375,0.34814814814814815],[0.14375,0.34814814814814815],[0.14375,0.34814814814814815],[0.14375,0.34814814814814815],[0.14375,0.34814814814814815],[0.14375,0.34814814814814815],[0.14375,0.34814814814814815],[0.14375,0.34814814814814815],[0.14375,0.34814814814814815],[0.14375,0.34814814814814815],[0.14375,0.34814814814814815],[0.14375,0.34814814814814815],[0.14375,0.34814814814814815],[0.14375,0.34814814814814815],[0.14375,0.34814814814814815],[0.14375,0.34814814814814815],[0.14375,0.34814814814814815],[0.14375,0.34814814814814815],[0.14375,0.34814814814814815],[0.14375,0.34814814814814815],[0.14375,0.34814814814814815],[0.14375,0.34814814814814815],[0.14375,0.34814814814814815],[0.14375,0.34814814814814815],[0.14375,0.34814814814814815],[0.14375,0.34814814814814815],[0.14375,0.34814814814814815],[0.14375,0.34814814814814815],[0.14375,0.34814814814814815],[0.14375,0.34814814814814815],[0.14375,0.34814814814814815],[0.14375,0.34814814814814815],[0.14375,0.34814814814814815],[0.14375,0.34814814814814815],[0.14375,0.34814814814814815],[0.14375,0.34814814814814815],[0.14375,0.34814814814814815],[0.14375,0.34814814814814815],[0.14375,0.34814814814814815],[0.14375,0.34814814814814815],[0.14375,0.34814814814814815],[0.14375,0.34814814814814815],[0.14270833333333333,0.34444444444444444],[0.14270833333333333,0.34074074074074073],[0.14270833333333333,0.3351851851851852],[0.14270833333333333,0.3314814814814815],[0.14166666666666666,0.32592592592592595],[0.14166666666666666,0.32222222222222224],[0.14166666666666666,0.31851851851851853],[0.14166666666666666,0.31296296296296294],[0.14166666666666666,0.3074074074074074],[0.14166666666666666,0.3055555555555556],[0.14166666666666666,0.30185185185185187],[0.14166666666666666,0.29444444444444445],[0.14166666666666666,0.28703703703703703],[0.14166666666666666,0.2796296296296296],[0.140625,0.26851851851851855],[0.140625,0.2611111111111111],[0.13958333333333334,0.25],[0.13854166666666667,0.24074074074074073],[0.1375,0.23148148148148148],[0.13645833333333332,0.22037037037037038],[0.13541666666666666,0.2111111111111111],[0.13541666666666666,0.20185185185185187],[0.134375,0.19444444444444445],[0.134375,0.19074074074074074],[0.134375,0.18703703703703703],[0.134375,0.18703703703703703],[0.134375,0.18703703703703703],[0.134375,0.18703703703703703],[0.134375,0.18703703703703703],[0.134375,0.18703703703703703],[0.134375,0.18703703703703703],[0.134375,0.18703703703703703],[0.134375,0.18703703703703703],[0.134375,0.18703703703703703],[0.134375,0.18703703703703703],[0.13333333333333333,0.18703703703703703],[0.13020833333333334,0.1925925925925926],[0.125,0.2037037037037037],[0.12083333333333333,0.21296296296296297],[0.11458333333333333,0.22407407407407406],[0.10729166666666666,0.2351851851851852],[0.10208333333333333,0.24444444444444444],[0.09583333333333334,0.25555555555555554],[0.08854166666666667,0.26666666666666666],[0.08229166666666667,0.2740740740740741],[0.07604166666666666,0.2814814814814815],[0.07083333333333333,0.28888888888888886],[0.06666666666666667,0.29259259259259257],[0.06145833333333333,0.29814814814814816],[0.05416666666666667,0.3055555555555556],[0.052083333333333336,0.3074074074074074],[0.04583333333333333,0.3111111111111111],[0.04479166666666667,0.31296296296296294],[0.04479166666666667,0.31296296296296294],[0.04479166666666667,0.31296296296296294],[0.04479166666666667,0.31296296296296294],[0.04479166666666667,0.31296296296296294],[0.04479166666666667,0.31296296296296294],[0.04479166666666667,0.31296296296296294],[0.04479166666666667,0.31296296296296294],[0.04479166666666667,0.31296296296296294],[0.04479166666666667,0.31296296296296294],[0.04479166666666667,0.31296296296296294],[0.04479166666666667,0.31296296296296294],[0.04479166666666667,0.31296296296296294],[0.04479166666666667,0.31296296296296294],[0.04479166666666667,0.31296296296296294],[0.04479166666666667,0.31296296296296294],[0.04479166666666667,0.31296296296296294],[0.04479166666666667,0.31296296296296294],[0.04479166666666667,0.31296296296296294],[0.04479166666666667,0.31296296296296294],[0.04479166666666667,0.31296296296296294],[0.04479166666666667,0.31296296296296294],[0.04479166666666667,0.31296296296296294],[0.04479166666666667,0.31296296296296294],[0.04479166666666667,0.31296296296296294],[0.04479166666666667,0.31296296296296294],[0.04479166666666667,0.31296296296296294],[0.04479166666666667,0.31296296296296294],[0.04479166666666667,0.31296296296296294],[0.04479166666666667,0.31296296296296294],[0.04479166666666667,0.31296296296296294],[0.04479166666666667,0.31296296296296294],[0.04479166666666667,0.31296296296296294],[0.04479166666666667,0.31296296296296294],[0.04479166666666667,0.31296296296296294],[0.04479166666666667,0.31296296296296294],[0.04479166666666667,0.31296296296296294],[0.04479166666666667,0.31296296296296294],[0.04479166666666667,0.31296296296296294],[0.04479166666666667,0.31296296296296294],[0.04479166666666667,0.31296296296296294],[0.04479166666666667,0.31296296296296294],[0.04479166666666667,0.31296296296296294],[0.04479166666666667,0.31296296296296294],[0.04479166666666667,0.31296296296296294],[0.04479166666666667,0.31296296296296294],[0.04479166666666667,0.31296296296296294],[0.04479166666666667,0.31296296296296294],[0.04479166666666667,0.31296296296296294],[0.04479166666666667,0.31296296296296294],[0.04479166666666667,0.31296296296296294],[0.04479166666666667,0.31296296296296294],[0.04479166666666667,0.31296296296296294],[0.04479166666666667,0.31296296296296294],[0.04479166666666667,0.31296296296296294],[0.04479166666666667,0.31296296296296294],[0.04479166666666667,0.31296296296296294],[0.04479166666666667,0.31296296296296294],[0.04479166666666667,0.31296296296296294],[0.04479166666666667,0.31296296296296294],[0.04479166666666667,0.31296296296296294],[0.04479166666666667,0.31296296296296294],[0.04479166666666667,0.31296296296296294],[0.04479166666666667,0.31296296296296294],[0.04479166666666667,0.31296296296296294]]","[[0.17708333333333334,-0.07388888888888885],[0.1866666666666667,-0.0690740740740741],[0.2101041666666667,-0.05759259259259263],[0.20739583333333325,-0.059999999999999956],[0.19375,-0.10018518518518522],[0.19375,-0.10018518518518522],[0.21385416666666662,-0.0940740740740741],[0.21052083333333324,-0.08111111111111113],[0.20812499999999995,-0.04592592592592584],[0.2211458333333333,-0.02240740740740745],[0.2,-0.03351851851851856],[0.2,-0.03351851851851856],[0.19822916666666662,-0.01962962962962967],[0.20322916666666657,-0.032777777777777864],[0.17958333333333343,-0.024814814814814772],[0.14489583333333325,-0.03129629629629625],[0.16416666666666657,0.04685185185185177],[0.16708333333333342,0.06518518518518526],[0.1632291666666667,0.08444444444444449],[0.1554166666666667,0.11574074074074074],[0.09166666666666666,0.12518518518518523],[0.06614583333333333,0.09092592592592597],[0.09666666666666662,0.1398148148148148],[0.09666666666666662,0.1398148148148148],[0.11145833333333334,0.2051851851851851],[0.11145833333333334,0.2051851851851851],[0.1484375,0.2368518518518518],[0.1484375,0.2368518518518518],[0.14583333333333334,0.2537037037037037],[0.14583333333333334,0.2537037037037037],[0.09583333333333334,0.2742592592592593],[0.09583333333333334,0.2742592592592593],[0.07999999999999995,0.2633333333333334],[0.07999999999999995,0.2633333333333334],[0.02302083333333336,0.27925925925925915],[0.02302083333333336,0.27925925925925915],[-0.029895833333333382,0.24574074074074082],[-0.025625000000000023,0.22074074074074082],[-0.018020833333333285,0.28592592592592586],[-0.06645833333333329,0.26796296296296307],[-0.153125,0.21907407407407398],[-0.153125,0.21907407407407398],[-0.2497916666666666,0.17037037037037037],[-0.25812499999999994,0.21500000000000005],[-0.25677083333333334,0.1477777777777777],[-0.3145833333333333,0.1537037037037037],[-0.33125,0.13277777777777786],[-0.33125,0.13277777777777786],[-0.3233333333333333,0.12666666666666662],[-0.31666666666666665,0.1338888888888888],[-0.31666666666666665,0.1338888888888888],[-0.33083333333333337,0.17111111111111107],[-0.3501041666666667,0.16722222222222213],[-0.330625,0.19314814814814807],[-0.330625,0.19314814814814807],[-0.31843750000000004,0.20388888888888893],[-0.28447916666666667,0.18629629629629635],[-0.29885416666666664,0.22314814814814815],[-0.2805208333333333,0.22981481481481486],[-0.2805208333333333,0.22981481481481486],[-0.2621875000000001,0.23648148148148157],[-0.2859375,0.26740740740740737],[-0.26916666666666667,0.33129629629629626],[-0.29,0.30481481481481487],[-0.26531250000000006,0.3487037037037036],[-0.26531250000000006,0.3487037037037036],[-0.25968749999999996,0.3822222222222222],[-0.2607291666666666,0.4270370370370371],[-0.2989583333333333,0.4444444444444444],[-0.25583333333333336,0.3881481481481482],[-0.21604166666666663,0.3490740740740741],[-0.17374999999999996,0.3081481481481481],[-0.10572916666666667,0.24574074074074082],[-0.07979166666666669,0.14129629629629623],[-0.030624999999999975,0.10666666666666672],[-0.012395833333333309,0.026481481481481398],[-0.012395833333333309,0.026481481481481398],[-0.0015625,-0.06666666666666667],[-0.0015625,-0.06666666666666667],[0.02833333333333338,-0.13037037037037033],[0.0787499999999999,-0.23925925925925923],[0.0775000000000001,-0.27981481481481485],[0.0775000000000001,-0.27981481481481485],[0.05270833333333336,-0.2492592592592593],[0.027083333333333334,-0.24222222222222226],[0.01583333333333338,-0.2375925925925926],[0.025625000000000023,-0.12999999999999998],[0.029791666666666692,-0.039074074074074115],[0.029791666666666692,-0.039074074074074115],[0.0453125,-0.01648148148148144],[0.06302083333333333,-0.04462962962962967],[0.1040625000000001,-0.005370370370370328],[0.10552083333333329,0.03777777777777774],[0.10760416666666663,0.0977777777777777],[0.13322916666666676,0.08666666666666659],[0.13322916666666676,0.08666666666666659],[0.17322916666666663,0.07481481481481478],[0.19885416666666675,0.06537037037037029],[0.18697916666666667,-0.01722222222222214],[0.1962500000000001,-0.11574074074074074],[0.1794791666666666,-0.11814814814814817],[0.1794791666666666,-0.11814814814814817],[0.17604166666666668,-0.059814814814814835],[0.17604166666666668,-0.059814814814814835],[0.1486458333333334,-0.08037037037037033],[0.1875,-0.028703703703703703],[0.17572916666666671,-0.055740740740740785],[0.17572916666666671,-0.055740740740740785],[0.1736458333333334,-0.075],[0.1736458333333334,-0.075],[0.14197916666666663,-0.015370370370370286],[0.13145833333333337,-0.03759259259259251],[0.13895833333333343,-0.08055555555555556],[0.13895833333333343,-0.08055555555555556],[0.15968749999999995,-0.04870370370370362],[0.16729166666666656,-0.05851851851851856],[0.17489583333333342,-0.06833333333333329],[0.1631249999999999,-0.08518518518518518],[0.13031249999999991,-0.14759259259259258],[0.13312499999999997,-0.14074074074074075],[0.1388541666666666,-0.12092592592592595],[0.16791666666666671,-0.17685185185185184],[0.1554166666666667,-0.127962962962963],[0.17177083333333343,-0.10037037037037035],[0.14479166666666668,-0.14537037037037037],[0.14979166666666663,-0.18870370370370365],[0.12958333333333344,-0.2116666666666667],[0.14416666666666675,-0.2479629629629629],[0.15333333333333338,-0.23037037037037034],[0.17687499999999995,-0.22018518518518515],[0.1881249999999999,-0.2375925925925926],[0.18958333333333333,-0.23203703703703707],[0.24729166666666677,-0.3022222222222222],[0.27614583333333326,-0.35111111111111115],[0.2677083333333333,-0.37],[0.24562499999999995,-0.3603703703703704],[0.23447916666666657,-0.3757407407407407],[0.24583333333333332,-0.39166666666666666],[0.24031250000000004,-0.4412962962962963],[0.2234375,-0.4351851851851852],[0.1875,-0.44111111111111106],[0.21489583333333329,-0.44055555555555553],[0.17395833333333333,-0.384074074074074],[0.17041666666666658,-0.3190740740740741],[0.19135416666666671,-0.3418518518518519],[0.19135416666666671,-0.3418518518518519],[0.22489583333333343,-0.27240740740740743],[0.22489583333333343,-0.27240740740740743],[0.23541666666666666,-0.2601851851851852],[0.23541666666666666,-0.2601851851851852],[0.21708333333333343,-0.2309259259259259],[0.21708333333333343,-0.2309259259259259],[0.20895833333333325,-0.1742592592592593],[0.20895833333333325,-0.1742592592592593],[0.20979166666666677,-0.2146296296296296],[0.20979166666666677,-0.2146296296296296],[0.22458333333333325,-0.2198148148148148],[0.2009375000000001,-0.22407407407407406],[0.2169791666666666,-0.23055555555555557],[0.19562499999999997,-0.2455555555555556],[0.22958333333333342,-0.14685185185185187],[0.22958333333333342,-0.14685185185185187],[0.23729166666666662,-0.1594444444444445],[0.28229166666666666,-0.13481481481481483],[0.28229166666666666,-0.13481481481481483],[0.3129166666666668,-0.10462962962962963],[0.36041666666666666,-0.08703703703703704],[0.39729166666666677,-0.04000000000000004],[0.43895833333333345,-0.009259259259259259],[0.4557291666666667,0.014074074074074116],[0.4522916666666667,0.030555555555555555],[0.4488541666666668,0.04722222222222222],[0.4556250000000001,0.032037037037036954],[0.47604166666666664,0.03592592592592588],[0.4744791666666667,0.05981481481481473],[0.4761458333333332,0.0787037037037037],[0.4513541666666666,0.03592592592592588],[0.4395833333333333,0.005000000000000084],[0.4232291666666666,0.005185185185185101],[0.40687499999999993,0.005370370370370328],[0.3892708333333334,-0.009074074074074031],[0.39124999999999993,-0.005370370370370328],[0.35489583333333335,-0.037037037037037035],[0.29874999999999996,-0.12777777777777777],[0.2869791666666667,-0.1398148148148148]]","[[0.17708333333333334,-0.07388888888888885,0.00010000000148124855],[0.1866666666666667,-0.0690740740740741,0.017600000001479543],[0.2101041666666667,-0.05759259259259263,0.03300000000000125],[0.20739583333333325,-0.059999999999999956,0.04739999999850397],[0.19375,-0.10018518518518522,0.06399999999999295],[0.19375,-0.10018518518518522,0.08079999999701215],[0.21385416666666662,-0.0940740740740741,0.09739999999850113],[0.21052083333333324,-0.08111111111111113,0.11749999999999261],[0.20812499999999995,-0.04592592592592584,0.13349999999999795],[0.2211458333333333,-0.02240740740740745,0.14799999999999613],[0.2,-0.03351851851851856,0.16400000000000148],[0.2,-0.03351851851851856,0.18089999999850193],[0.19822916666666662,-0.01962962962962967,0.19739999999850966],[0.20322916666666657,-0.032777777777777864,0.21410000000147988],[0.17958333333333343,-0.024814814814814772,0.23070000000298307],[0.14489583333333325,-0.03129629629629625,0.24729999999701135],[0.16416666666666657,0.04685185185185177,0.2639999999999958],[0.16708333333333342,0.06518518518518526,0.2831000000014825],[0.1632291666666667,0.08444444444444449,0.2972999999970227],[0.1554166666666667,0.11574074074074074,0.31420000000296966],[0.09166666666666666,0.12518518518518523,0.3307000000029774],[0.06614583333333333,0.09092592592592597,0.3472999999970199],[0.09666666666666662,0.1398148148148148,0.3639999999999901],[0.09666666666666662,0.1398148148148148,0.38070000000297455],[0.11145833333333334,0.2051851851851851,0.39749999999999375],[0.11145833333333334,0.2051851851851851,0.4140000000000015],[0.1484375,0.2368518518518518,0.4307000000029717],[0.1484375,0.2368518518518518,0.4472999999970142],[0.14583333333333334,0.2537037037037037,0.4641000000014799],[0.14583333333333334,0.2537037037037037,0.4807000000029831],[0.09583333333333334,0.2742592592592593,0.4973999999985068],[0.09583333333333334,0.2742592592592593,0.5139999999999958],[0.07999999999999995,0.2633333333333334,0.5307000000029802],[0.07999999999999995,0.2633333333333334,0.547399999998504],[0.02302083333333336,0.27925925925925915,0.563999999999993],[0.02302083333333336,0.27925925925925915,0.5807000000029774],[-0.029895833333333382,0.24574074074074082,0.5974999999999966],[-0.025625000000000023,0.22074074074074082,0.6139999999999901],[-0.018020833333333285,0.28592592592592586,0.6307000000029745],[-0.06645833333333329,0.26796296296296307,0.647299999997017],[-0.153125,0.21907407407407398,0.6640000000000015],[-0.153125,0.21907407407407398,0.6808999999985019],[-0.2497916666666666,0.17037037037037037,0.6974999999999909],[-0.25812499999999994,0.21500000000000005,0.7172999999970102],[-0.25677083333333334,0.1477777777777777,0.7331000000014853],[-0.3145833333333333,0.1537037037037037,0.7505000000000024],[-0.33125,0.13277777777777786,0.766200000002982],[-0.33125,0.13277777777777786,0.780799999997015],[-0.3233333333333333,0.12666666666666662,0.797399999998504],[-0.31666666666666665,0.1338888888888888,0.813999999999993],[-0.31666666666666665,0.1338888888888888,0.8307000000029774],[-0.33083333333333337,0.17111111111111107,0.8472999999970199],[-0.3501041666666667,0.16722222222222213,0.8638999999985089],[-0.330625,0.19314814814814807,0.8807999999970093],[-0.330625,0.19314814814814807,0.897299999997017],[-0.31843750000000004,0.20388888888888893,0.9140000000000015],[-0.28447916666666667,0.18629629629629635,0.9307000000029717],[-0.29885416666666664,0.22314814814814815,0.9472999999970142],[-0.2805208333333333,0.22981481481481486,0.9652999999970149],[-0.2805208333333333,0.22981481481481486,0.9807000000029831],[-0.2621875000000001,0.23648148148148157,0.9973999999985068],[-0.2859375,0.26740740740740737,1.0147000000029749],[-0.26916666666666667,0.33129629629629626,1.0308999999985105],[-0.29,0.30481481481481487,1.047399999998504],[-0.26531250000000006,0.3487037037037036,1.0648999999985023],[-0.26531250000000006,0.3487037037037036,1.0807000000029774],[-0.25968749999999996,0.3822222222222222,1.0973999999985011],[-0.2607291666666666,0.4270370370370371,1.1162999999970111],[-0.2989583333333333,0.4444444444444444,1.133499999999998],[-0.25583333333333336,0.3881481481481482,1.1478999999985007],[-0.21604166666666663,0.3490740740740741,1.1643999999985084],[-0.17374999999999996,0.3081481481481481,1.180899999998502],[-0.10572916666666667,0.24574074074074082,1.1996000000014817],[-0.07979166666666669,0.14129629629629623,1.2141000000014799],[-0.030624999999999975,0.10666666666666672,1.23110000000149],[-0.012395833333333309,0.026481481481481398,1.2537000000029792],[-0.012395833333333309,0.026481481481481398,1.2753999999985126],[-0.0015625,-0.06666666666666667,1.29079999999702],[-0.0015625,-0.06666666666666667,1.3041000000014833],[0.02833333333333338,-0.13037037037037033,1.3141000000014884],[0.0787499999999999,-0.23925925925925923,1.3307999999970122],[0.0775000000000001,-0.27981481481481485,1.3473999999985011],[0.0775000000000001,-0.27981481481481485,1.3658999999985042],[0.05270833333333336,-0.2492592592592593,1.3811000000014815],[0.027083333333333334,-0.24222222222222226,1.3974999999999937],[0.01583333333333338,-0.2375925925925926,1.4164999999999992],[0.025625000000000023,-0.12999999999999998,1.4307999999970207],[0.029791666666666692,-0.039074074074074115,1.447499999999991],[0.029791666666666692,-0.039074074074074115,1.466399999998501],[0.0453125,-0.01648148148148144,1.4808999999985133],[0.06302083333333333,-0.04462962962962967,1.4975000000000023],[0.1040625000000001,-0.005370370370370328,1.5182999999970122],[0.10552083333333329,0.03777777777777774,1.5328999999985058],[0.10760416666666663,0.0977777777777777,1.5472999999970227],[0.13322916666666676,0.08666666666666659,1.563999999999993],[0.13322916666666676,0.08666666666666659,1.5807999999970122],[0.17322916666666663,0.07481481481481478,1.5973999999985011],[0.19885416666666675,0.06537037037037029,1.61399999999999],[0.18697916666666667,-0.01722222222222214,1.6307000000029745],[0.1962500000000001,-0.11574074074074074,1.647299999997017],[0.1794791666666666,-0.11814814814814817,1.663899999998506],[0.1794791666666666,-0.11814814814814817,1.6807000000029717],[0.17604166666666668,-0.059814814814814835,1.6973999999985097],[0.17604166666666668,-0.059814814814814835,1.7161000000014894],[0.1486458333333334,-0.08037037037037033,1.7307999999970178],[0.1875,-0.028703703703703703,1.7476000000014835],[0.17572916666666671,-0.055740740740740785,1.7667000000029702],[0.17572916666666671,-0.055740740740740785,1.7808999999985105],[0.1736458333333334,-0.075,1.7976000000014807],[0.1736458333333334,-0.075,1.8142000000029697],[0.14197916666666663,-0.015370370370370286,1.8337000000029775],[0.13145833333333337,-0.03759259259259251,1.847600000001492],[0.13895833333333343,-0.08055555555555556,1.8641000000014856],[0.13895833333333343,-0.08055555555555556,1.8836000000014934],[0.15968749999999995,-0.04870370370370362,1.8976000000014892],[0.16729166666666656,-0.05851851851851856,1.9141000000014827],[0.17489583333333342,-0.06833333333333329,1.9307999999970207],[0.1631249999999999,-0.08518518518518518,1.949799999997012],[0.13031249999999991,-0.14759259259259258,1.9646000000014823],[0.13312499999999997,-0.14074074074074075,1.9813999999985015],[0.1388541666666666,-0.12092592592592595,1.9975000000000023],[0.16791666666666671,-0.17685185185185184,2.013999999999996],[0.1554166666666667,-0.127962962962963,2.0307000000029802],[0.17177083333333343,-0.10037037037037035,2.047399999998504],[0.14479166666666668,-0.14537037037037037,2.063999999999993],[0.14979166666666663,-0.18870370370370365,2.080799999997012],[0.12958333333333344,-0.2116666666666667,2.0974999999999966],[0.14416666666666675,-0.2479629629629629,2.11399999999999],[0.15333333333333338,-0.23037037037037034,2.1307000000029745],[0.17687499999999995,-0.22018518518518515,2.147299999997017],[0.1881249999999999,-0.2375925925925926,2.1640000000000015],[0.18958333333333333,-0.23203703703703707,2.1807000000029717],[0.24729166666666677,-0.3022222222222222,2.1973999999985097],[0.27614583333333326,-0.35111111111111115,2.213899999998503],[0.2677083333333333,-0.37,2.230700000002983],[0.24562499999999995,-0.3603703703703704,2.2472999999970114],[0.23447916666666657,-0.3757407407407407,2.2674999999999983],[0.24583333333333332,-0.39166666666666666,2.2832999999970127],[0.24031250000000004,-0.4412962962962963,2.300299999997023],[0.2234375,-0.4351851851851852,2.315299999997009],[0.1875,-0.44111111111111106,2.330600000001482],[0.21489583333333329,-0.44055555555555553,2.34729999999702],[0.17395833333333333,-0.384074074074074,2.3641000000014856],[0.17041666666666658,-0.3190740740740741,2.3808999999985048],[0.19135416666666671,-0.3418518518518519,2.397299999997017],[0.19135416666666671,-0.3418518518518519,2.4141000000014827],[0.22489583333333343,-0.27240740740740743,2.4307000000029717],[0.22489583333333343,-0.27240740740740743,2.447299999997014],[0.23541666666666666,-0.2601851851851852,2.4639999999999986],[0.23541666666666666,-0.2601851851851852,2.480799999997018],[0.21708333333333343,-0.2309259259259259,2.4972999999970114],[0.21708333333333343,-0.2309259259259259,2.5138999999985003],[0.20895833333333325,-0.1742592592592593,2.5307000000029802],[0.20895833333333325,-0.1742592592592593,2.547399999998504],[0.20979166666666677,-0.2146296296296296,2.563999999999993],[0.20979166666666677,-0.2146296296296296,2.5808999999985076],[0.22458333333333325,-0.2198148148148148,2.59729999999702],[0.2009375000000001,-0.22407407407407406,2.61399999999999],[0.2169791666666666,-0.23055555555555557,2.6307000000029745],[0.19562499999999997,-0.2455555555555556,2.647299999997017],[0.22958333333333342,-0.14685185185185187,2.663899999998506],[0.22958333333333342,-0.14685185185185187,2.6807000000029717],[0.23729166666666662,-0.1594444444444445,2.697299999997014],[0.28229166666666666,-0.13481481481481483,2.71520000000298],[0.28229166666666666,-0.13481481481481483,2.730700000002983],[0.3129166666666668,-0.10462962962962963,2.7472999999970114],[0.36041666666666666,-0.08703703703703704,2.763999999999996],[0.39729166666666677,-0.04000000000000004,2.7807000000029802],[0.43895833333333345,-0.009259259259259259,2.7972999999970227],[0.4557291666666667,0.014074074074074116,2.8138999999985117],[0.4522916666666667,0.030555555555555555,2.8307000000029774],[0.4488541666666668,0.04722222222222222,2.84729999999702],[0.4556250000000001,0.032037037037036954,2.86399999999999],[0.47604166666666664,0.03592592592592588,2.884200000002977],[0.4744791666666667,0.05981481481481473,2.8998999999985102],[0.4761458333333332,0.0787037037037037,2.9140000000000015],[0.4513541666666666,0.03592592592592588,2.9306000000014905],[0.4395833333333333,0.005000000000000084,2.947299999997014],[0.4232291666666666,0.005185185185185101,2.963899999998503],[0.40687499999999993,0.005370370370370328,2.980700000002983],[0.3892708333333334,-0.009074074074074031,2.9977999999970137],[0.39124999999999993,-0.005370370370370328,3.0138999999985003],[0.35489583333333335,-0.037037037037037035,3.0306000000014848],[0.29874999999999996,-0.12777777777777777,3.047399999998504],[0.2869791666666667,-0.1398148148148148,3.0641000000014884]]","[0.00010000000148124855,0.017600000001479543,0.03300000000000125,0.04739999999850397,0.06399999999999295,0.08079999999701215,0.09739999999850113,0.11749999999999261,0.13349999999999795,0.14799999999999613,0.16400000000000148,0.18089999999850193,0.19739999999850966,0.21410000000147988,0.23070000000298307,0.24729999999701135,0.2639999999999958,0.2831000000014825,0.2972999999970227,0.31420000000296966,0.3307000000029774,0.3472999999970199,0.3639999999999901,0.38070000000297455,0.39749999999999375,0.4140000000000015,0.4307000000029717,0.4472999999970142,0.4641000000014799,0.4807000000029831,0.4973999999985068,0.5139999999999958,0.5307000000029802,0.547399999998504,0.563999999999993,0.5807000000029774,0.5974999999999966,0.6139999999999901,0.6307000000029745,0.647299999997017,0.6640000000000015,0.6808999999985019,0.6974999999999909,0.7172999999970102,0.7331000000014853,0.7505000000000024,0.766200000002982,0.780799999997015,0.797399999998504,0.813999999999993,0.8307000000029774,0.8472999999970199,0.8638999999985089,0.8807999999970093,0.897299999997017,0.9140000000000015,0.9307000000029717,0.9472999999970142,0.9652999999970149,0.9807000000029831,0.9973999999985068,1.0147000000029749,1.0308999999985105,1.047399999998504,1.0648999999985023,1.0807000000029774,1.0973999999985011,1.1162999999970111,1.133499999999998,1.1478999999985007,1.1643999999985084,1.180899999998502,1.1996000000014817,1.2141000000014799,1.23110000000149,1.2537000000029792,1.2753999999985126,1.29079999999702,1.3041000000014833,1.3141000000014884,1.3307999999970122,1.3473999999985011,1.3658999999985042,1.3811000000014815,1.3974999999999937,1.4164999999999992,1.4307999999970207,1.447499999999991,1.466399999998501,1.4808999999985133,1.4975000000000023,1.5182999999970122,1.5328999999985058,1.5472999999970227,1.563999999999993,1.5807999999970122,1.5973999999985011,1.61399999999999,1.6307000000029745,1.647299999997017,1.663899999998506,1.6807000000029717,1.6973999999985097,1.7161000000014894,1.7307999999970178,1.7476000000014835,1.7667000000029702,1.7808999999985105,1.7976000000014807,1.8142000000029697,1.8337000000029775,1.847600000001492,1.8641000000014856,1.8836000000014934,1.8976000000014892,1.9141000000014827,1.9307999999970207,1.949799999997012,1.9646000000014823,1.9813999999985015,1.9975000000000023,2.013999999999996,2.0307000000029802,2.047399999998504,2.063999999999993,2.080799999997012,2.0974999999999966,2.11399999999999,2.1307000000029745,2.147299999997017,2.1640000000000015,2.1807000000029717,2.1973999999985097,2.213899999998503,2.230700000002983,2.2472999999970114,2.2674999999999983,2.2832999999970127,2.300299999997023,2.315299999997009,2.330600000001482,2.34729999999702,2.3641000000014856,2.3808999999985048,2.397299999997017,2.4141000000014827,2.4307000000029717,2.447299999997014,2.4639999999999986,2.480799999997018,2.4972999999970114,2.5138999999985003,2.5307000000029802,2.547399999998504,2.563999999999993,2.5808999999985076,2.59729999999702,2.61399999999999,2.6307000000029745,2.647299999997017,2.663899999998506,2.6807000000029717,2.697299999997014,2.71520000000298,2.730700000002983,2.7472999999970114,2.763999999999996,2.7807000000029802,2.7972999999970227,2.8138999999985117,2.8307000000029774,2.84729999999702,2.86399999999999,2.884200000002977,2.8998999999985102,2.9140000000000015,2.9306000000014905,2.947299999997014,2.963899999998503,2.980700000002983,2.9977999999970137,3.0138999999985003,3.0306000000014848,3.047399999998504,3.0641000000014884]","[1733284614692,1733284614708,1733284614723,1733284614738,1733284614754,1733284614771,1733284614788,1733284614808,1733284614824,1733284614838,1733284614854,1733284614871,1733284614888,1733284614904,1733284614921,1733284614938,1733284614954,1733284614973,1733284614988,1733284615005,1733284615021,1733284615038,1733284615054,1733284615071,1733284615088,1733284615104,1733284615121,1733284615138,1733284615154,1733284615171,1733284615188,1733284615204,1733284615221,1733284615238,1733284615254,1733284615271,1733284615288,1733284615304,1733284615321,1733284615338,1733284615354,1733284615371,1733284615388,1733284615408,1733284615423,1733284615441,1733284615457,1733284615471,1733284615488,1733284615504,1733284615521,1733284615538,1733284615554,1733284615571,1733284615588,1733284615604,1733284615621,1733284615638,1733284615656,1733284615671,1733284615688,1733284615705,1733284615721,1733284615738,1733284615755,1733284615771,1733284615788,1733284615807,1733284615824,1733284615838,1733284615855,1733284615871,1733284615890,1733284615904,1733284615922,1733284615944,1733284615966,1733284615981,1733284615995,1733284616004,1733284616021,1733284616038,1733284616056,1733284616071,1733284616088,1733284616107,1733284616121,1733284616138,1733284616157,1733284616171,1733284616188,1733284616209,1733284616223,1733284616238,1733284616254,1733284616271,1733284616288,1733284616304,1733284616321,1733284616338,1733284616354,1733284616371,1733284616388,1733284616406,1733284616421,1733284616438,1733284616457,1733284616471,1733284616488,1733284616504,1733284616524,1733284616538,1733284616555,1733284616574,1733284616588,1733284616604,1733284616621,1733284616640,1733284616655,1733284616672,1733284616688,1733284616704,1733284616721,1733284616738,1733284616754,1733284616771,1733284616788,1733284616804,1733284616821,1733284616838,1733284616854,1733284616871,1733284616888,1733284616904,1733284616921,1733284616938,1733284616958,1733284616974,1733284616991,1733284617006,1733284617021,1733284617038,1733284617054,1733284617071,1733284617088,1733284617104,1733284617121,1733284617138,1733284617154,1733284617171,1733284617188,1733284617204,1733284617221,1733284617238,1733284617254,1733284617271,1733284617288,1733284617304,1733284617321,1733284617338,1733284617354,1733284617371,1733284617388,1733284617406,1733284617421,1733284617438,1733284617454,1733284617471,1733284617488,1733284617504,1733284617521,1733284617538,1733284617554,1733284617575,1733284617590,1733284617604,1733284617621,1733284617638,1733284617654,1733284617671,1733284617688,1733284617704,1733284617721,1733284617738,1733284617754]","[[1130,500.1],[1139.2,502.7],[1161.7,508.9],[1159.1,507.6],[1146,485.9],[1146,485.9],[1165.3,489.2],[1162.1,496.2],[1159.8,515.2],[1172.3,527.9],[1152,521.9],[1152,521.9],[1150.3,529.4],[1155.1,522.3],[1132.4,526.6],[1099.1,523.1],[1117.6,565.3],[1120.4,575.2],[1116.7,585.6],[1109.2,602.5],[1048,607.6],[1023.5,589.1],[1052.8,615.5],[1052.8,615.5],[1067,650.8],[1067,650.8],[1102.5,667.9],[1102.5,667.9],[1100,677],[1100,677],[1052,688.1],[1052,688.1],[1036.8,682.2],[1036.8,682.2],[982.1,690.8],[982.1,690.8],[931.3,672.7],[935.4,659.2],[942.7,694.4],[896.2,684.7],[813,658.3],[813,658.3],[720.2,632],[712.2,656.1],[713.5,619.8],[658,623],[642,611.7],[642,611.7],[649.6,608.4],[656,612.3],[656,612.3],[642.4,632.4],[623.9,630.3],[642.6,644.3],[642.6,644.3],[654.3,650.1],[686.9,640.6],[673.1,660.5],[690.7,664.1],[690.7,664.1],[708.3,667.7],[685.5,684.4],[701.6,718.9],[681.6,704.6],[705.3,728.3],[705.3,728.3],[710.7,746.4],[709.7,770.6],[673,780],[714.4,749.6],[752.6,728.5],[793.2,706.4],[858.5,672.7],[883.4,616.3],[930.6,597.6],[948.1,554.3],[948.1,554.3],[958.5,504],[958.5,504],[987.2,469.6],[1035.6,410.8],[1034.4,388.9],[1034.4,388.9],[1010.6,405.4],[986,409.2],[975.2,411.7],[984.6,469.8],[988.6,518.9],[988.6,518.9],[1003.5,531.1],[1020.5,515.9],[1059.9,537.1],[1061.3,560.4],[1063.3,592.8],[1087.9,586.8],[1087.9,586.8],[1126.3,580.4],[1150.9,575.3],[1139.5,530.7],[1148.4,477.5],[1132.3,476.2],[1132.3,476.2],[1129,507.7],[1129,507.7],[1102.7,496.6],[1140,524.5],[1128.7,509.9],[1128.7,509.9],[1126.7,499.5],[1126.7,499.5],[1096.3,531.7],[1086.2,519.7],[1093.4,496.5],[1093.4,496.5],[1113.3,513.7],[1120.6,508.4],[1127.9,503.1],[1116.6,494],[1085.1,460.3],[1087.8,464],[1093.3,474.7],[1121.2,444.5],[1109.2,470.9],[1124.9,485.8],[1099,461.5],[1103.8,438.1],[1084.4,425.7],[1098.4,406.1],[1107.2,415.6],[1129.8,421.1],[1140.6,411.7],[1142,414.7],[1197.4,376.8],[1225.1,350.4],[1217,340.2],[1195.8,345.4],[1185.1,337.1],[1196,328.5],[1190.7,301.7],[1174.5,305],[1140,301.8],[1166.3,302.1],[1127,332.6],[1123.6,367.7],[1143.7,355.4],[1143.7,355.4],[1175.9,392.9],[1175.9,392.9],[1186,399.5],[1186,399.5],[1168.4,415.3],[1168.4,415.3],[1160.6,445.9],[1160.6,445.9],[1161.4,424.1],[1161.4,424.1],[1175.6,421.3],[1152.9,419],[1168.3,415.5],[1147.8,407.4],[1180.4,460.7],[1180.4,460.7],[1187.8,453.9],[1231,467.2],[1231,467.2],[1260.4,483.5],[1306,493],[1341.4,518.4],[1381.4,535],[1397.5,547.6],[1394.2,556.5],[1390.9,565.5],[1397.4,557.3],[1417,559.4],[1415.5,572.3],[1417.1,582.5],[1393.3,559.4],[1382,542.7],[1366.3,542.8],[1350.6,542.9],[1333.7,535.1],[1335.6,537.1],[1300.7,520],[1246.8,471],[1235.5,464.5]]","[0,0.37864299999999995]","[0.37864299999999995,0.37864299999999995]","[-0.37864299999999995,0]","[-0.37864299999999995,-0.37864299999999995]","[0,0]","[0.37864299999999995,0]","[0,-0.37864299999999995]","[0.37864299999999995,-0.37864299999999995]",0,2,2,2,1,2,Laptop,15,9,7,3
