inst1_resp.keys,inst1_resp.rt,calibrationMouse.x,calibrationMouse.y,calibrationMouse.leftButton,calibrationMouse.midButton,calibrationMouse.rightButton,calibrationClick.x,calibrationClick.y,calibrationClick.leftButton,calibrationClick.midButton,calibrationClick.rightButton,calibrationClick.clicked_name,trialsc.thisRepN,trialsc.thisTrialN,trialsc.thisN,trialsc.thisIndex,trialsc.ran,calibration_x,calibration_y,participant,session,date,expName,psychopyVersion,OS,frameRate,ScreenRes_pixels,Camera_pixels,mouse_2.x,mouse_2.y,mouse_2.leftButton,mouse_2.midButton,mouse_2.rightButton,mouse_2.time,mouse_2.clicked_name,mouse.x,mouse.y,mouse.leftButton,mouse.midButton,mouse.rightButton,mouse.time,mouse.clicked_name,Choice,Trial,TrialDuration,MOUSE_GAZE,ET_GAZE,ET_GAZE_x_T,time,unixTime,ET_GAZE_NF,Loc_Option1_label,Loc_Option2_label,Loc_Cost_label,Loc_Qual_label,Loc_Option1_cost,Loc_Option2_cost,Loc_Option1_quality,Loc_Option2_quality,trials.thisRepN,trials.thisTrialN,trials.thisN,trials.thisIndex,trials.ran,Block,Device,cost1,qual1,cost2,qual2
space,12.6244,-0.120833333,-0.288888889,1,0,0,0.323958333,0,1,0,0,calibration_square,0,0,0,16,1,0.33,0,05,001,2024-11-28_14h41.05.260,Attention_exp_legacy,2023.1.0,Win32,60.24096386,,,,,,,,,,,,,,,,,,,,,,,,,,,,,,,,,,,,,,,,,,,,
,,,,,,,0.009375,0.331481481,1,0,0,calibration_square,0,1,1,12,1,0,0.33,05,001,2024-11-28_14h41.05.260,Attention_exp_legacy,2023.1.0,Win32,60.24096386,,,,,,,,,,,,,,,,,,,,,,,,,,,,,,,,,,,,,,,,,,,,
,,,,,,,-0.340625,-0.67037037,1,0,0,,0,2,2,4,1,-0.33,-0.67,05,001,2024-11-28_14h41.05.260,Attention_exp_legacy,2023.1.0,Win32,60.24096386,,,,,,,,,,,,,,,,,,,,,,,,,,,,,,,,,,,,,,,,,,,,
,,,,,,,0.005208333,0.003703704,1,0,0,calibration_square,0,3,3,11,1,0,0,05,001,2024-11-28_14h41.05.260,Attention_exp_legacy,2023.1.0,Win32,60.24096386,,,,,,,,,,,,,,,,,,,,,,,,,,,,,,,,,,,,,,,,,,,,
,,,,,,,0.338541667,-0.32962963,1,0,0,calibration_square,0,4,4,15,1,0.33,-0.33,05,001,2024-11-28_14h41.05.260,Attention_exp_legacy,2023.1.0,Win32,60.24096386,,,,,,,,,,,,,,,,,,,,,,,,,,,,,,,,,,,,,,,,,,,,
,,,,,,,0.332291667,-0.655555556,1,0,0,,0,5,5,14,1,0.33,-0.67,05,001,2024-11-28_14h41.05.260,Attention_exp_legacy,2023.1.0,Win32,60.24096386,,,,,,,,,,,,,,,,,,,,,,,,,,,,,,,,,,,,,,,,,,,,
,,,,,,,-0.326041667,0.662962963,1,0,0,calibration_square,0,6,6,8,1,-0.33,0.67,05,001,2024-11-28_14h41.05.260,Attention_exp_legacy,2023.1.0,Win32,60.24096386,,,,,,,,,,,,,,,,,,,,,,,,,,,,,,,,,,,,,,,,,,,,
,,,,,,,-0.327083333,0.327777778,1,0,0,calibration_square,0,7,7,7,1,-0.33,0.33,05,001,2024-11-28_14h41.05.260,Attention_exp_legacy,2023.1.0,Win32,60.24096386,,,,,,,,,,,,,,,,,,,,,,,,,,,,,,,,,,,,,,,,,,,,
,,,,,,,0.68125,-0.661111111,1,0,0,,0,8,8,20,1,0.67,-0.67,05,001,2024-11-28_14h41.05.260,Attention_exp_legacy,2023.1.0,Win32,60.24096386,,,,,,,,,,,,,,,,,,,,,,,,,,,,,,,,,,,,,,,,,,,,
,,,,,,,-0.669791667,-0.335185185,1,0,0,calibration_square,0,9,9,1,1,-0.67,-0.33,05,001,2024-11-28_14h41.05.260,Attention_exp_legacy,2023.1.0,Win32,60.24096386,,,,,,,,,,,,,,,,,,,,,,,,,,,,,,,,,,,,,,,,,,,,
,,,,,,,-0.677083333,-0.001851852,1,0,0,calibration_square,0,10,10,2,1,-0.67,0,05,001,2024-11-28_14h41.05.260,Attention_exp_legacy,2023.1.0,Win32,60.24096386,,,,,,,,,,,,,,,,,,,,,,,,,,,,,,,,,,,,,,,,,,,,
,,,,,,,-0.321875,-0.327777778,1,0,0,calibration_square,0,11,11,5,1,-0.33,-0.33,05,001,2024-11-28_14h41.05.260,Attention_exp_legacy,2023.1.0,Win32,60.24096386,,,,,,,,,,,,,,,,,,,,,,,,,,,,,,,,,,,,,,,,,,,,
,,,,,,,-0.667708333,0.324074074,1,0,0,calibration_square,0,12,12,3,1,-0.67,0.33,05,001,2024-11-28_14h41.05.260,Attention_exp_legacy,2023.1.0,Win32,60.24096386,,,,,,,,,,,,,,,,,,,,,,,,,,,,,,,,,,,,,,,,,,,,
,,,,,,,0.320833333,0.324074074,1,0,0,calibration_square,0,13,13,17,1,0.33,0.33,05,001,2024-11-28_14h41.05.260,Attention_exp_legacy,2023.1.0,Win32,60.24096386,,,,,,,,,,,,,,,,,,,,,,,,,,,,,,,,,,,,,,,,,,,,
,,,,,,,0.672916667,0.659259259,1,0,0,,0,14,14,19,1,0.67,0.67,05,001,2024-11-28_14h41.05.260,Attention_exp_legacy,2023.1.0,Win32,60.24096386,,,,,,,,,,,,,,,,,,,,,,,,,,,,,,,,,,,,,,,,,,,,
,,,,,,,-0.323958333,0.001851852,1,0,0,calibration_square,0,15,15,6,1,-0.33,0,05,001,2024-11-28_14h41.05.260,Attention_exp_legacy,2023.1.0,Win32,60.24096386,,,,,,,,,,,,,,,,,,,,,,,,,,,,,,,,,,,,,,,,,,,,
,,,,,,,-0.0125,-0.675925926,1,0,0,,0,16,16,9,1,0,-0.67,05,001,2024-11-28_14h41.05.260,Attention_exp_legacy,2023.1.0,Win32,60.24096386,,,,,,,,,,,,,,,,,,,,,,,,,,,,,,,,,,,,,,,,,,,,
,,,,,,,0.005208333,0.675925926,1,0,0,calibration_square,0,17,17,13,1,0,0.67,05,001,2024-11-28_14h41.05.260,Attention_exp_legacy,2023.1.0,Win32,60.24096386,,,,,,,,,,,,,,,,,,,,,,,,,,,,,,,,,,,,,,,,,,,,
,,,,,,,-0.010416667,-0.335185185,1,0,0,,0,18,18,10,1,0,-0.33,05,001,2024-11-28_14h41.05.260,Attention_exp_legacy,2023.1.0,Win32,60.24096386,,,,,,,,,,,,,,,,,,,,,,,,,,,,,,,,,,,,,,,,,,,,
,,,,,,,-0.669791667,-0.668518519,1,0,0,calibration_square,0,19,19,0,1,-0.67,-0.67,05,001,2024-11-28_14h41.05.260,Attention_exp_legacy,2023.1.0,Win32,60.24096386,,,,,,,,,,,,,,,,,,,,,,,,,,,,,,,,,,,,,,,,,,,,
,,,,,,,0.332291667,0.672222222,1,0,0,calibration_square,0,20,20,18,1,0.33,0.67,05,001,2024-11-28_14h41.05.260,Attention_exp_legacy,2023.1.0,Win32,60.24096386,,,,,,,,,,,,,,,,,,,,,,,,,,,,,,,,,,,,,,,,,,,,
,,,,,,,,,,,,,,,,,,,,05,001,2024-11-28_14h41.05.260,Attention_exp_legacy,2023.1.0,Win32,60.24096386,"[1920,1080]","[640,480]",[0.04583333333333333],[-0.5],[1],[0],[0],[4.831699999988075],"[""StartButton""]",[0.36041666666666666],[0.29444444444444445],[1],[0],[0],[4.273600000023848],"[""Option2_label""]",Option2_label,1,5.2946,"[[0.06666666666666667,-0.26296296296296295],[0.06666666666666667,-0.26296296296296295],[0.06666666666666667,-0.26296296296296295],[0.06666666666666667,-0.26296296296296295],[0.06666666666666667,-0.26296296296296295],[0.06666666666666667,-0.26296296296296295],[0.06666666666666667,-0.26296296296296295],[0.06666666666666667,-0.26296296296296295],[0.06666666666666667,-0.26296296296296295],[0.06666666666666667,-0.26296296296296295],[0.06666666666666667,-0.26296296296296295],[0.06666666666666667,-0.25925925925925924],[0.06666666666666667,-0.2537037037037037],[0.06666666666666667,-0.2462962962962963],[0.06666666666666667,-0.23703703703703705],[0.06666666666666667,-0.23148148148148148],[0.06666666666666667,-0.22592592592592592],[0.065625,-0.22037037037037038],[0.065625,-0.21666666666666667],[0.065625,-0.21481481481481482],[0.065625,-0.2111111111111111],[0.065625,-0.20925925925925926],[0.065625,-0.20925925925925926],[0.065625,-0.20925925925925926],[0.065625,-0.20925925925925926],[0.065625,-0.20925925925925926],[0.06458333333333334,-0.2037037037037037],[0.06458333333333334,-0.2037037037037037],[0.06354166666666666,-0.2],[0.06145833333333333,-0.19814814814814816],[0.06145833333333333,-0.1962962962962963],[0.059375,-0.19074074074074074],[0.058333333333333334,-0.18888888888888888],[0.05625,-0.18518518518518517],[0.052083333333333336,-0.17777777777777778],[0.05,-0.17222222222222222],[0.04791666666666667,-0.16666666666666666],[0.04479166666666667,-0.16111111111111112],[0.040625,-0.15],[0.035416666666666666,-0.1388888888888889],[0.030208333333333334,-0.12962962962962962],[0.022916666666666665,-0.11296296296296296],[0.011458333333333333,-0.09074074074074075],[0.003125,-0.07592592592592592],[-0.0020833333333333333,-0.06666666666666667],[-0.023958333333333335,-0.03333333333333333],[-0.03958333333333333,-0.012962962962962963],[-0.05625,0.007407407407407408],[-0.07395833333333333,0.025925925925925925],[-0.08854166666666667,0.037037037037037035],[-0.10833333333333334,0.046296296296296294],[-0.12604166666666666,0.053703703703703705],[-0.14270833333333333,0.05740740740740741],[-0.15833333333333333,0.05740740740740741],[-0.175,0.05740740740740741],[-0.190625,0.05740740740740741],[-0.20416666666666666,0.05740740740740741],[-0.225,0.053703703703703705],[-0.23645833333333333,0.046296296296296294],[-0.24375,0.04259259259259259],[-0.24895833333333334,0.037037037037037035],[-0.25416666666666665,0.03333333333333333],[-0.25625,0.02962962962962963],[-0.26145833333333335,0.024074074074074074],[-0.26458333333333334,0.018518518518518517],[-0.26666666666666666,0.016666666666666666],[-0.26875,0.012962962962962963],[-0.26979166666666665,0.011111111111111112],[-0.26979166666666665,0.011111111111111112],[-0.26979166666666665,0.011111111111111112],[-0.26979166666666665,0.011111111111111112],[-0.26979166666666665,0.011111111111111112],[-0.26979166666666665,0.009259259259259259],[-0.26979166666666665,0.007407407407407408],[-0.26979166666666665,0.005555555555555556],[-0.26979166666666665,0.001851851851851852],[-0.26979166666666665,-0.001851851851851852],[-0.26979166666666665,-0.005555555555555556],[-0.26875,-0.009259259259259259],[-0.26458333333333334,-0.011111111111111112],[-0.25625,-0.014814814814814815],[-0.23958333333333334,-0.018518518518518517],[-0.22395833333333334,-0.022222222222222223],[-0.20625,-0.027777777777777776],[-0.18645833333333334,-0.03148148148148148],[-0.16979166666666667,-0.037037037037037035],[-0.15833333333333333,-0.03888888888888889],[-0.14583333333333334,-0.044444444444444446],[-0.13541666666666666,-0.046296296296296294],[-0.125,-0.04814814814814815],[-0.11354166666666667,-0.05185185185185185],[-0.09166666666666666,-0.05555555555555555],[-0.07604166666666666,-0.06111111111111111],[-0.06145833333333333,-0.06481481481481481],[-0.04479166666666667,-0.06481481481481481],[-0.030208333333333334,-0.06481481481481481],[-0.013541666666666667,-0.06481481481481481],[0.003125,-0.06481481481481481],[0.01875,-0.06481481481481481],[0.051041666666666666,-0.06481481481481481],[0.08645833333333333,-0.06481481481481481],[0.10729166666666666,-0.06481481481481481],[0.11875,-0.06481481481481481],[0.13541666666666666,-0.06481481481481481],[0.14375,-0.06481481481481481],[0.16354166666666667,-0.06481481481481481],[0.175,-0.06666666666666667],[0.18645833333333334,-0.07037037037037037],[0.19375,-0.07407407407407407],[0.20208333333333334,-0.07777777777777778],[0.20833333333333334,-0.08148148148148149],[0.21354166666666666,-0.08518518518518518],[0.21458333333333332,-0.08703703703703704],[0.21458333333333332,-0.09074074074074075],[0.21458333333333332,-0.09814814814814815],[0.2125,-0.1111111111111111],[0.203125,-0.13333333333333333],[0.17395833333333333,-0.18518518518518517],[0.14479166666666668,-0.22777777777777777],[0.11354166666666667,-0.2777777777777778],[0.08333333333333333,-0.32222222222222224],[0.06041666666666667,-0.35185185185185186],[0.034375,-0.37777777777777777],[0.007291666666666667,-0.40555555555555556],[-0.013541666666666667,-0.4203703703703704],[-0.034375,-0.4351851851851852],[-0.05,-0.4462962962962963],[-0.06666666666666667,-0.45740740740740743],[-0.08229166666666667,-0.4648148148148148],[-0.10520833333333333,-0.4740740740740741],[-0.12083333333333333,-0.4759259259259259],[-0.13541666666666666,-0.48148148148148145],[-0.14479166666666668,-0.48333333333333334],[-0.15,-0.48518518518518516],[-0.15104166666666666,-0.48518518518518516],[-0.15104166666666666,-0.48518518518518516],[-0.15104166666666666,-0.48518518518518516],[-0.15104166666666666,-0.48518518518518516],[-0.15104166666666666,-0.48518518518518516],[-0.14583333333333334,-0.48333333333333334],[-0.13020833333333334,-0.4722222222222222],[-0.11041666666666666,-0.46296296296296297],[-0.08229166666666667,-0.45555555555555555],[-0.051041666666666666,-0.44814814814814813],[-0.025,-0.44074074074074077],[0.0020833333333333333,-0.43333333333333335],[0.028125,-0.42777777777777776],[0.053125,-0.4222222222222222],[0.07604166666666666,-0.4185185185185185],[0.1,-0.4111111111111111],[0.12395833333333334,-0.40370370370370373],[0.15104166666666666,-0.39814814814814814],[0.18020833333333333,-0.3907407407407407],[0.228125,-0.37777777777777777],[0.25729166666666664,-0.37037037037037035],[0.28229166666666666,-0.36666666666666664],[0.30416666666666664,-0.35555555555555557],[0.32083333333333336,-0.34629629629629627],[0.334375,-0.337037037037037],[0.346875,-0.32407407407407407],[0.3572916666666667,-0.30925925925925923],[0.3614583333333333,-0.3055555555555556],[0.36666666666666664,-0.29259259259259257],[0.3697916666666667,-0.2814814814814815],[0.37395833333333334,-0.2611111111111111],[0.378125,-0.22407407407407406],[0.3802083333333333,-0.1962962962962963],[0.38333333333333336,-0.16111111111111112],[0.384375,-0.12777777777777777],[0.384375,-0.09814814814814815],[0.384375,-0.07037037037037037],[0.384375,-0.04259259259259259],[0.384375,-0.020370370370370372],[0.384375,0.001851851851851852],[0.384375,0.024074074074074074],[0.384375,0.05],[0.384375,0.06481481481481481],[0.384375,0.08333333333333333],[0.384375,0.0962962962962963],[0.384375,0.10925925925925926],[0.384375,0.11851851851851852],[0.384375,0.12962962962962962],[0.384375,0.13703703703703704],[0.38333333333333336,0.14814814814814814],[0.38229166666666664,0.1574074074074074],[0.37916666666666665,0.17222222222222222],[0.378125,0.1814814814814815],[0.375,0.1962962962962963],[0.37395833333333334,0.20185185185185187],[0.37083333333333335,0.21481481481481482],[0.3697916666666667,0.2222222222222222],[0.36770833333333336,0.23333333333333334],[0.36666666666666664,0.2388888888888889],[0.3645833333333333,0.2537037037037037],[0.36354166666666665,0.25925925925925924],[0.3625,0.26666666666666666],[0.3625,0.2740740740740741],[0.3625,0.2759259259259259],[0.3625,0.2796296296296296],[0.3625,0.2814814814814815],[0.3625,0.2833333333333333],[0.3625,0.2833333333333333],[0.3625,0.2833333333333333],[0.3625,0.2833333333333333],[0.3625,0.2833333333333333],[0.3625,0.2833333333333333],[0.3625,0.2833333333333333],[0.3625,0.2833333333333333],[0.3625,0.2833333333333333],[0.36041666666666666,0.28888888888888886],[0.36041666666666666,0.29444444444444445],[0.36041666666666666,0.29444444444444445],[0.36041666666666666,0.29444444444444445],[0.36041666666666666,0.29444444444444445],[0.36041666666666666,0.29444444444444445],[0.36041666666666666,0.29444444444444445],[0.36041666666666666,0.29444444444444445],[0.36041666666666666,0.29444444444444445],[0.36041666666666666,0.29444444444444445],[0.36041666666666666,0.29444444444444445],[0.36041666666666666,0.29444444444444445],[0.36041666666666666,0.29444444444444445],[0.36041666666666666,0.29444444444444445],[0.36041666666666666,0.29444444444444445],[0.36041666666666666,0.29444444444444445],[0.36041666666666666,0.29444444444444445],[0.36041666666666666,0.29444444444444445],[0.36041666666666666,0.29444444444444445],[0.36041666666666666,0.29444444444444445],[0.36041666666666666,0.29444444444444445],[0.36041666666666666,0.29444444444444445],[0.36041666666666666,0.29444444444444445],[0.36041666666666666,0.29444444444444445],[0.36041666666666666,0.29444444444444445],[0.36041666666666666,0.29444444444444445],[0.36041666666666666,0.29444444444444445],[0.36041666666666666,0.29444444444444445],[0.36041666666666666,0.29444444444444445],[0.36041666666666666,0.29444444444444445],[0.36041666666666666,0.29444444444444445],[0.36041666666666666,0.29444444444444445],[0.36041666666666666,0.29444444444444445],[0.36041666666666666,0.29444444444444445],[0.36041666666666666,0.29444444444444445],[0.36041666666666666,0.29444444444444445],[0.36041666666666666,0.29444444444444445],[0.36041666666666666,0.29444444444444445],[0.36041666666666666,0.29444444444444445],[0.36041666666666666,0.29444444444444445],[0.36041666666666666,0.29444444444444445],[0.36041666666666666,0.29444444444444445],[0.36041666666666666,0.29444444444444445],[0.36041666666666666,0.29444444444444445],[0.36041666666666666,0.29444444444444445],[0.36041666666666666,0.29444444444444445],[0.36041666666666666,0.29444444444444445],[0.36041666666666666,0.29444444444444445],[0.36041666666666666,0.29444444444444445],[0.36041666666666666,0.29444444444444445],[0.36041666666666666,0.29444444444444445],[0.36041666666666666,0.29444444444444445],[0.36041666666666666,0.29444444444444445],[0.36041666666666666,0.29444444444444445],[0.36041666666666666,0.29444444444444445],[0.36041666666666666,0.29444444444444445],[0.36041666666666666,0.29444444444444445],[0.36041666666666666,0.29444444444444445],[0.36041666666666666,0.29444444444444445],[0.36041666666666666,0.29444444444444445],[0.36041666666666666,0.29444444444444445],[0.36041666666666666,0.29444444444444445],[0.36041666666666666,0.29444444444444445],[0.36041666666666666,0.29444444444444445],[0.36041666666666666,0.29444444444444445],[0.36041666666666666,0.29444444444444445],[0.36041666666666666,0.29444444444444445],[0.36041666666666666,0.29444444444444445],[0.36041666666666666,0.29444444444444445],[0.36041666666666666,0.29444444444444445],[0.36041666666666666,0.29444444444444445],[0.36041666666666666,0.29444444444444445],[0.36041666666666666,0.29444444444444445],[0.36041666666666666,0.29444444444444445],[0.36041666666666666,0.29444444444444445],[0.36041666666666666,0.29444444444444445],[0.36041666666666666,0.29444444444444445],[0.36041666666666666,0.29444444444444445],[0.36041666666666666,0.29444444444444445],[0.36041666666666666,0.2962962962962963],[0.36041666666666666,0.30185185185185187],[0.36041666666666666,0.3055555555555556],[0.359375,0.30925925925925923],[0.359375,0.3111111111111111],[0.359375,0.3148148148148148],[0.359375,0.31666666666666665],[0.35833333333333334,0.32037037037037036],[0.3572916666666667,0.32407407407407407],[0.35520833333333335,0.3314814814814815],[0.353125,0.3333333333333333],[0.353125,0.337037037037037],[0.35104166666666664,0.34074074074074073],[0.35,0.3425925925925926],[0.3489583333333333,0.34444444444444444],[0.34791666666666665,0.34814814814814815],[0.3458333333333333,0.35185185185185186],[0.3458333333333333,0.3537037037037037],[0.34479166666666666,0.35555555555555557],[0.34479166666666666,0.35555555555555557],[0.34479166666666666,0.35555555555555557],[0.34479166666666666,0.35555555555555557],[0.34479166666666666,0.35555555555555557],[0.34479166666666666,0.35555555555555557],[0.34479166666666666,0.35555555555555557],[0.34479166666666666,0.35555555555555557],[0.34479166666666666,0.35555555555555557],[0.34479166666666666,0.35555555555555557],[0.34479166666666666,0.35555555555555557],[0.34479166666666666,0.35555555555555557]]","[[-0.06666666666666667,-0.19018518518518515],[-0.06666666666666667,-0.19018518518518515],[-0.06666666666666667,-0.19018518518518515],[-0.05625,-0.20277777777777778],[-0.07604166666666666,-0.1983333333333334],[-0.12000000000000005,-0.2014814814814815],[-0.16270833333333337,-0.17314814814814813],[-0.16989583333333336,-0.15685185185185183],[-0.16531250000000006,-0.15351851851851847],[-0.19395833333333337,-0.15499999999999997],[-0.20104166666666667,-0.1440740740740741],[-0.22843749999999996,-0.13185185185185183],[-0.2063541666666667,-0.09537037037037037],[-0.19937499999999997,-0.050370370370370454],[-0.18322916666666664,-0.04018518518518527],[-0.11614583333333334,-0.027962962962963005],[-0.10645833333333338,-0.017407407407407365],[-0.10270833333333336,0.009444444444444486],[-0.11270833333333338,0.06370370370370367],[-0.10645833333333338,0.11722222222222214],[-0.10187499999999995,0.15166666666666662],[-0.07281249999999997,0.18277777777777787],[-0.11083333333333331,0.16962962962962966],[-0.13687499999999997,0.15999999999999995],[-0.1360416666666667,0.1648148148148148],[-0.18197916666666672,0.17537037037037045],[-0.20416666666666666,0.2162962962962962],[-0.20979166666666665,0.2522222222222223],[-0.19031250000000005,0.26481481481481484],[-0.16906249999999995,0.23055555555555557],[-0.15249999999999997,0.23351851851851857],[-0.12572916666666673,0.20722222222222217],[-0.06385416666666661,0.19870370370370363],[-0.06375000000000004,0.15425925925925918],[-0.04989583333333331,0.1449999999999999],[-0.02510416666666669,0.11129629629629634],[0.021249999999999977,0.08518518518518518],[0.04718749999999995,0.057777777777777865],[0.029375000000000047,0.013703703703703662],[0.026145833333333358,0.03425925925925926],[0.021145833333333287,0.012777777777777735],[-0.018124999999999978,0.006851851851851936],[-0.0907291666666667,0.006666666666666709],[-0.0967708333333333,0.047037037037036995],[-0.1014583333333333,0.06925925925925921],[-0.10802083333333339,0.08851851851851844],[-0.12687499999999996,0.06888888888888897],[-0.13291666666666668,0.032037037037036954],[-0.15375000000000003,0.0257407407407407],[-0.20125000000000004,0.001851851851851852],[-0.1961458333333333,-0.009074074074074031],[-0.19197916666666662,-0.0020370370370370794],[-0.1544791666666666,-0.0007407407407406986],[-0.16635416666666672,-0.002962962962963005],[-0.19958333333333336,-0.016666666666666666],[-0.20354166666666665,0.008148148148148106],[-0.19145833333333329,0.05092592592592592],[-0.23385416666666667,0.0837037037037038],[-0.21979166666666666,0.10129629629629638],[-0.20343749999999997,0.1007407407407407],[-0.23156249999999995,0.1111111111111111],[-0.25187499999999996,0.10222222222222231],[-0.27229166666666665,0.10055555555555547],[-0.2601041666666667,0.09425925925925922],[-0.2601041666666667,0.09425925925925922],[-0.2548958333333334,0.08537037037037042],[-0.2859375,0.049629629629629544],[-0.305625,0.01185185185185181],[-0.29375,-0.0011111111111111532],[-0.2911458333333333,-0.016851851851851896],[-0.28854166666666664,-0.004444444444444402],[-0.28708333333333336,-0.008703703703703788],[-0.29375,-0.010740740740740657],[-0.2877083333333334,-0.017407407407407365],[-0.29874999999999996,-0.006296296296296254],[-0.29958333333333337,-0.007592592592592635],[-0.29958333333333337,-0.007592592592592635],[-0.29656250000000006,0.03833333333333342],[-0.29104166666666664,0.05722222222222218],[-0.25979166666666664,0.07962962962962963],[-0.24937499999999999,0.08555555555555563],[-0.24375,0.0837037037037038],[-0.23697916666666666,0.0985185185185186],[-0.22041666666666668,0.09796296296296292],[-0.21645833333333328,0.0948148148148149],[-0.19541666666666668,0.07388888888888885],[-0.1733333333333333,0.04259259259259259],[-0.16218750000000004,0.01518518518518527],[-0.17156250000000003,-0.003333333333333249],[-0.20208333333333334,-0.026851851851851852],[-0.20031249999999995,-0.03833333333333342],[-0.20437500000000006,-0.042407407407407366],[-0.19270833333333334,-0.0883333333333333],[-0.18531249999999996,-0.07611111111111116],[-0.15416666666666667,-0.06074074074074076],[-0.12302083333333336,-0.04537037037037037],[-0.09156249999999998,-0.026851851851851852],[-0.04010416666666667,-0.009814814814814731],[0.001979166666666643,0.008703703703703788],[0.001979166666666643,0.008703703703703788],[0.051979166666666646,0.020740740740740823],[0.051979166666666646,0.020740740740740823],[0.10229166666666671,0.008888888888888804],[0.12760416666666666,0.004444444444444402],[0.12760416666666666,0.004444444444444402],[0.15760416666666663,0.05055555555555547],[0.15760416666666663,0.05055555555555547],[0.1946875000000001,0.029259259259259176],[0.184375,0.015000000000000043],[0.1740624999999999,0.0007407407407406986],[0.16927083333333334,0.020555555555555598],[0.14947916666666666,0.006481481481481481],[0.14947916666666666,0.006481481481481481],[0.11645833333333329,-0.0003703703703704546],[0.11645833333333329,-0.0003703703703704546],[0.07729166666666672,0.03092592592592601],[0.07729166666666672,0.03092592592592601],[0.02020833333333331,0.06333333333333342],[0.02020833333333331,0.06333333333333342],[0.01604166666666664,0.09407407407407399],[0.01604166666666664,0.09407407407407399],[-0.03229166666666667,0.12314814814814815],[-0.03229166666666667,0.12314814814814815],[-0.08239583333333336,0.1925925925925926],[-0.08239583333333336,0.1925925925925926],[-0.11666666666666667,0.23074074074074077],[-0.15583333333333335,0.262037037037037],[-0.1608333333333333,0.28351851851851856],[-0.1658333333333334,0.3050000000000001],[-0.16156250000000003,0.3248148148148148],[-0.17260416666666673,0.31296296296296294],[-0.1622916666666666,0.32888888888888895],[-0.17583333333333329,0.32703703703703707],[-0.16010416666666671,0.33777777777777773],[-0.1430208333333333,0.3207407407407408],[-0.1094791666666667,0.31666666666666665],[-0.06531250000000005,0.30240740740740735],[-0.057187499999999974,0.28648148148148156],[-0.00927083333333331,0.28722222222222227],[0.058333333333333334,0.2762962962962964],[0.11708333333333343,0.262037037037037],[0.16062500000000005,0.24722222222222223],[0.2022916666666667,0.24240740740740738],[0.253125,0.19703703703703698],[0.27468750000000003,0.14018518518518527],[0.2759375000000001,0.10740740740740741],[0.27937500000000004,0.10166666666666663],[0.29020833333333323,0.11444444444444436],[0.2612499999999999,0.11055555555555564],[0.24104166666666677,0.13444444444444448],[0.24322916666666666,0.16166666666666657],[0.2367708333333333,0.18462962962962973],[0.23645833333333333,0.2],[0.19895833333333332,0.22351851851851862],[0.17979166666666657,0.26962962962962966],[0.17927083333333324,0.2733333333333334],[0.19322916666666667,0.3037037037037037],[0.1915625000000001,0.3151851851851853],[0.1710416666666667,0.3087037037037038],[0.17447916666666666,0.29888888888888887],[0.17229166666666676,0.24740740740740744],[0.17229166666666676,0.24740740740740744],[0.16906249999999995,0.24537037037037038],[0.18322916666666675,0.22407407407407406],[0.20041666666666677,0.19685185185185178],[0.21760416666666677,0.16962962962962966],[0.24427083333333333,0.18518518518518517],[0.24854166666666658,0.16407407407407412],[0.22854166666666675,0.1242592592592593],[0.25114583333333323,0.1175925925925926],[0.26875,0.06518518518518526],[0.2919791666666666,0.0544444444444444],[0.3099999999999999,0.01648148148148144],[0.31614583333333335,0.008333333333333333],[0.34177083333333325,0.018888888888888972],[0.3601041666666667,0.021851851851851768],[0.3619791666666667,0.00851851851851856],[0.3703125,-0.008148148148148106],[0.40291666666666665,-0.006111111111111027],[0.41520833333333323,-0.032037037037036954],[0.3944791666666667,-0.03814814814814819],[0.37374999999999997,-0.04425925925925922],[0.3733333333333334,-0.05129629629629638],[0.36739583333333337,-0.06888888888888887],[0.3540625000000001,-0.08648148148148146],[0.3492708333333333,-0.10499999999999998],[0.3458333333333333,-0.12240740740740745],[0.3419791666666666,-0.13555555555555554],[0.3381249999999999,-0.1440740740740741],[0.33135416666666656,-0.13537037037037042],[0.3328125,-0.14685185185185187],[0.3430208333333333,-0.14740740740740746],[0.34572916666666675,-0.152962962962963],[0.3484375,-0.15851851851851856],[0.3544791666666666,-0.1205555555555556],[0.3622916666666666,-0.08629629629629634],[0.36083333333333345,-0.07611111111111116],[0.3615624999999999,-0.052037037037037076],[0.35572916666666665,-0.028703703703703703],[0.3555208333333333,-0.005185185185185101],[0.3610416666666666,0.04944444444444453],[0.35520833333333335,0.13759259259259252],[0.3476041666666667,0.2081481481481481],[0.3046875,0.29018518518518527],[0.26583333333333337,0.3287037037037037],[0.22489583333333343,0.3859259259259259],[0.20947916666666658,0.44462962962962965],[0.18718750000000003,0.5037037037037037],[0.18718750000000003,0.5037037037037037],[0.16666666666666666,0.555],[0.16114583333333338,0.5092592592592593],[0.1556250000000001,0.46351851851851844],[0.16937499999999991,0.36018518518518516],[0.18697916666666667,0.2624074074074075],[0.2165625000000001,0.17759259259259255],[0.24614583333333329,0.09277777777777782],[0.27791666666666665,-0.022592592592592678],[0.2920833333333334,-0.11648148148148144],[0.30614583333333345,-0.19296296296296295],[0.325,-0.2655555555555555],[0.3233333333333334,-0.22407407407407406],[0.32614583333333325,-0.21722222222222223],[0.31229166666666663,-0.19722222222222222],[0.2976041666666667,-0.1514814814814815],[0.30625,-0.1301851851851852],[0.31760416666666674,-0.12777777777777777],[0.32833333333333337,-0.09092592592592597],[0.3342708333333334,-0.06629629629629631],[0.3389583333333334,-0.0742592592592593],[0.33697916666666666,-0.1014814814814815],[0.34343750000000006,-0.10407407407407405],[0.3454166666666666,-0.072037037037037],[0.3429166666666667,-0.07703703703703708],[0.3429166666666667,-0.07703703703703708],[0.34177083333333325,-0.10685185185185184],[0.34177083333333325,-0.10685185185185184],[0.3490624999999999,-0.11388888888888889],[0.3490624999999999,-0.11388888888888889],[0.34958333333333325,-0.1479629629629629],[0.34958333333333325,-0.1479629629629629],[0.3466666666666666,-0.14351851851851852],[0.3466666666666666,-0.14351851851851852],[0.35187499999999994,-0.14166666666666666],[0.35187499999999994,-0.14166666666666666],[0.35572916666666665,-0.15648148148148147],[0.3696875000000001,-0.1411111111111111],[0.3745833333333332,-0.172037037037037],[0.3767708333333334,-0.21814814814814817],[0.3857291666666666,-0.22962962962962963],[0.3754166666666668,-0.25870370370370366],[0.3710416666666667,-0.3044444444444444],[0.3710416666666667,-0.30759259259259264],[0.3719791666666666,-0.35962962962962963],[0.36958333333333326,-0.3968518518518519],[0.3623958333333334,-0.39351851851851855],[0.35177083333333337,-0.40111111111111114],[0.33927083333333335,-0.42296296296296293],[0.328125,-0.43425925925925923],[0.3180208333333333,-0.4396296296296296],[0.32666666666666655,-0.42833333333333334],[0.321875,-0.4137037037037037],[0.31302083333333336,-0.3911111111111111],[0.31583333333333335,-0.39148148148148143],[0.3186458333333334,-0.3918518518518519],[0.32156250000000003,-0.3979629629629629],[0.32447916666666665,-0.40407407407407403],[0.3216666666666666,-0.39648148148148155],[0.32020833333333343,-0.38425925925925924],[0.31239583333333343,-0.37407407407407406],[0.31145833333333334,-0.3772222222222222],[0.3134375000000001,-0.384074074074074],[0.31927083333333334,-0.3737037037037037],[0.3252083333333334,-0.35351851851851845],[0.31260416666666657,-0.3381481481481482],[0.3060416666666666,-0.34092592592592597],[0.2916666666666667,-0.3405555555555555],[0.28489583333333335,-0.3396296296296296],[0.2828125,-0.34518518518518515],[0.2912499999999999,-0.3509259259259259],[0.2990624999999999,-0.35759259259259263],[0.2960416666666667,-0.34500000000000003],[0.2960416666666667,-0.34500000000000003],[0.2929166666666667,-0.3542592592592593],[0.27364583333333337,-0.3727777777777778],[0.27291666666666664,-0.3522222222222222],[0.275,-0.33796296296296297],[0.27708333333333335,-0.34944444444444445],[0.2791666666666667,-0.3609259259259259],[0.2931250000000001,-0.37333333333333335],[0.29145833333333326,-0.3731481481481482],[0.28020833333333334,-0.34740740740740744],[0.2507291666666667,-0.37166666666666665],[0.22864583333333333,-0.40111111111111114],[0.2009375000000001,-0.3587037037037037],[0.17322916666666663,-0.35055555555555556],[0.1694791666666667,-0.3512962962962963],[0.14895833333333333,-0.3244444444444444],[0.17239583333333333,-0.32],[0.17927083333333324,-0.3081481481481481],[0.14583333333333334,-0.2948148148148148],[0.13708333333333325,-0.30481481481481487],[0.17083333333333334,-0.2874074074074074],[0.18635416666666677,-0.2611111111111111],[0.22260416666666671,-0.29129629629629633],[0.25270833333333326,-0.3244444444444444],[0.24406249999999996,-0.3448148148148148],[0.28854166666666664,-0.3714814814814815],[0.28854166666666664,-0.3714814814814815],[0.2938541666666666,-0.37333333333333335],[0.2938541666666666,-0.37333333333333335],[0.27541666666666675,-0.3718518518518519],[0.3094791666666666,-0.37037037037037035],[0.3393749999999999,-0.3794444444444444],[0.3519791666666668,-0.39092592592592595],[0.3772916666666667,-0.3838888888888889],[0.39187500000000003,-0.3698148148148148],[0.41354166666666664,-0.35055555555555556],[0.4473958333333333,-0.34314814814814815]]","[[-0.06666666666666667,-0.19018518518518515,0.0002000000178696837],[-0.06666666666666667,-0.19018518518518515,0.03920000001787116],[-0.06666666666666667,-0.19018518518518515,0.04460000002383424],[-0.05625,-0.20277777777777778,0.06130000001191149],[-0.07604166666666666,-0.1983333333333334,0.07799999999998875],[-0.12000000000000005,-0.2014814814814815,0.09470000001788037],[-0.16270833333333337,-0.17314814814814813,0.11120000001787389],[-0.16989583333333336,-0.15685185185185183,0.12790000000595114],[-0.16531250000000006,-0.15351851851851847,0.14460000002382856],[-0.19395833333333337,-0.15499999999999997,0.16130000001192002],[-0.20104166666666667,-0.1440740740740741,0.17799999999999727],[-0.22843749999999996,-0.13185185185185183,0.1972000000178724],[-0.2063541666666667,-0.09537037037037037,0.2117000000178706],[-0.19937499999999997,-0.050370370370370454,0.22810000002382935],[-0.18322916666666664,-0.04018518518518527,0.2469999999999999],[-0.11614583333333334,-0.027962962962963005,0.26149999999999807],[-0.10645833333333338,-0.017407407407407365,0.2781000000238407],[-0.10270833333333336,0.009444444444444486,0.2973000000119157],[-0.11270833333333338,0.06370370370370367,0.31280000001191866],[-0.10645833333333338,0.11722222222222214,0.328700000017875],[-0.10187499999999995,0.15166666666666662,0.34830000001191763],[-0.07281249999999997,0.18277777777777787,0.36440000000595774],[-0.11083333333333331,0.16962962962962966,0.38140000000595364],[-0.13687499999999997,0.15999999999999995,0.3959000000059518],[-0.1360416666666667,0.1648148148148148,0.41120000001787105],[-0.18197916666666672,0.17537037037037045,0.4279000000059483],[-0.20416666666666666,0.2162962962962962,0.4474999999999909],[-0.20979166666666665,0.2522222222222223,0.4624999999999915],[-0.19031250000000005,0.26481481481481484,0.4804000000059574],[-0.16906249999999995,0.23055555555555557,0.49799999999999045],[-0.15249999999999997,0.23351851851851857,0.5131000000238402],[-0.12572916666666673,0.20722222222222217,0.5281000000238407],[-0.06385416666666661,0.19870370370370363,0.546999999999997],[-0.06375000000000004,0.15425925925925918,0.5614999999999952],[-0.04989583333333331,0.1449999999999999,0.5782000000178726],[-0.02510416666666669,0.11129629629629634,0.5983000000119176],[0.021249999999999977,0.08518518518518518,0.6132000000178692],[0.04718749999999995,0.057777777777777865,0.6284999999999883],[0.029375000000000047,0.013703703703703662,0.64730000001191],[0.026145833333333358,0.03425925925925926,0.6631000000238316],[0.021145833333333287,0.012777777777777735,0.6807000000178789],[-0.018124999999999978,0.006851851851851936,0.6993000000119167],[-0.0907291666666667,0.006666666666666709,0.7143000000119173],[-0.0967708333333333,0.047037037037036995,0.7294999999999874],[-0.1014583333333333,0.06925925925925921,0.7449999999999903],[-0.10802083333333339,0.08851851851851844,0.7649000000059516],[-0.12687499999999996,0.06888888888888897,0.7803000000119198],[-0.13291666666666668,0.032037037037036954,0.794800000011918],[-0.15375000000000003,0.0257407407407407,0.8113000000119115],[-0.20125000000000004,0.001851851851851852,0.8312000000178728],[-0.1961458333333333,-0.009074074074074031,0.8462000000178733],[-0.19197916666666662,-0.0020370370370370794,0.8628000000119158],[-0.1544791666666666,-0.0007407407407406986,0.8812000000178699],[-0.16635416666666672,-0.002962962962963005,0.8961000000238357],[-0.19958333333333336,-0.016666666666666666,0.9114000000059548],[-0.20354166666666665,0.008148148148148106,0.9279999999999973],[-0.19145833333333329,0.05092592592592592,0.9477000000178748],[-0.23385416666666667,0.0837037037037038,0.9629999999999939],[-0.21979166666666666,0.10129629629629638,0.9797000000178713],[-0.20343749999999997,0.1007407407407407,0.9947000000178718],[-0.23156249999999995,0.1111111111111111,1.0137000000178773],[-0.25187499999999996,0.10222222222222231,1.0284000000059592],[-0.27229166666666665,0.10055555555555547,1.044700000017869],[-0.2601041666666667,0.09425925925925922,1.0652000000178674],[-0.2601041666666667,0.09425925925925922,1.0779999999999887],[-0.2548958333333334,0.08537037037037042,1.0948000000119151],[-0.2859375,0.049629629629629544,1.1138000000119206],[-0.305625,0.01185185185185181,1.127999999999986],[-0.29375,-0.0011111111111111532,1.1448000000119123],[-0.2911458333333333,-0.016851851851851896,1.161200000017871],[-0.28854166666666664,-0.004444444444444402,1.1779000000059483],[-0.28708333333333336,-0.008703703703703788,1.19460000002384],[-0.29375,-0.010740740740740657,1.2136000000238312],[-0.2877083333333334,-0.017407407407407365,1.2281000000238294],[-0.29874999999999996,-0.006296296296296254,1.2448000000119208],[-0.29958333333333337,-0.007592592592592635,1.2664000000059588],[-0.29958333333333337,-0.007592592592592635,1.2781000000238407],[-0.29656250000000006,0.03833333333333342,1.294700000017869],[-0.29104166666666664,0.05722222222222218,1.3114000000059605],[-0.25979166666666664,0.07962962962962963,1.3314000000059565],[-0.24937499999999999,0.08555555555555563,1.3454000000059523],[-0.24375,0.0837037037037038,1.3614999999999924],[-0.23697916666666666,0.0985185185185186,1.3804000000059489],[-0.22041666666666668,0.09796296296296292,1.394999999999996],[-0.21645833333333328,0.0948148148148149,1.4114000000059548],[-0.19541666666666668,0.07388888888888885,1.4281000000238322],[-0.1733333333333333,0.04259259259259259,1.4472000000178724],[-0.16218750000000004,0.01518518518518527,1.4618000000119196],[-0.17156250000000003,-0.003333333333333249,1.4781000000238294],[-0.20208333333333334,-0.026851851851851852,1.497800000011921],[-0.20031249999999995,-0.03833333333333342,1.5118000000119167],[-0.20437500000000006,-0.042407407407407366,1.530800000011908],[-0.19270833333333334,-0.0883333333333333,1.54849999999999],[-0.18531249999999996,-0.07611111111111116,1.5628000000119187],[-0.15416666666666667,-0.06074074074074076,1.5796000000238308],[-0.12302083333333336,-0.04537037037037037,1.5947000000178804],[-0.09156249999999998,-0.026851851851851852,1.61399999999999],[-0.04010416666666667,-0.009814814814814731,1.6283000000119188],[0.001979166666666643,0.008703703703703788,1.646600000023838],[0.001979166666666643,0.008703703703703788,1.6854999999999905],[0.051979166666666646,0.020740740740740823,1.6956000000238305],[0.051979166666666646,0.020740740740740823,1.70680000001191],[0.10229166666666671,0.008888888888888804,1.7153000000119079],[0.12760416666666666,0.004444444444444402,1.7324000000059527],[0.12760416666666666,0.004444444444444402,1.7447000000178718],[0.15760416666666663,0.05055555555555547,1.761499999999998],[0.15760416666666663,0.05055555555555547,1.7782000000178755],[0.1946875000000001,0.029259259259259176,1.7974999999999994],[0.184375,0.015000000000000043,1.8114999999999952],[0.1740624999999999,0.0007407407407406986,1.8281000000238379],[0.16927083333333334,0.020555555555555598,1.8446000000238314],[0.14947916666666666,0.006481481481481481,1.864200000017874],[0.14947916666666666,0.006481481481481481,1.878100000023835],[0.11645833333333329,-0.0003703703703704546,1.8947000000178775],[0.11645833333333329,-0.0003703703703704546,1.9161000000238317],[0.07729166666666672,0.03092592592592601,1.9282000000178812],[0.07729166666666672,0.03092592592592601,1.9447000000178747],[0.02020833333333331,0.06333333333333342,1.968999999999994],[0.02020833333333331,0.06333333333333342,1.9781000000238294],[0.01604166666666664,0.09407407407407399,1.9948000000119208],[0.01604166666666664,0.09407407407407399,2.0166000000238284],[-0.03229166666666667,0.12314814814814815,2.0281000000238407],[-0.03229166666666667,0.12314814814814815,2.044800000011918],[-0.08239583333333336,0.1925925925925926,2.0614999999999952],[-0.08239583333333336,0.1925925925925926,2.082499999999996],[-0.11666666666666667,0.23074074074074077,2.0947000000178804],[-0.15583333333333335,0.262037037037037,2.1113000000119087],[-0.1608333333333333,0.28351851851851856,2.127999999999986],[-0.1658333333333334,0.3050000000000001,2.1469000000059566],[-0.16156250000000003,0.3248148148148148,2.16130000001192],[-0.17260416666666673,0.31296296296296294,2.1779999999999973],[-0.1622916666666666,0.32888888888888895,2.1947000000178747],[-0.17583333333333329,0.32703703703703707,2.2134999999999962],[-0.16010416666666671,0.33777777777777773,2.2281000000238294],[-0.1430208333333333,0.3207407407407408,2.244700000017872],[-0.1094791666666667,0.31666666666666665,2.2613000000119143],[-0.06531250000000005,0.30240740740740735,2.277900000005957],[-0.057187499999999974,0.28648148148148156,2.2946000000238342],[-0.00927083333333331,0.28722222222222227,2.3112000000178767],[0.058333333333333334,0.2762962962962964,2.3304999999999865],[0.11708333333333343,0.262037037037037,2.3461000000238386],[0.16062500000000005,0.24722222222222223,2.3614000000059576],[0.2022916666666667,0.24240740740740738,2.3809000000059513],[0.253125,0.19703703703703698,2.3948000000119123],[0.27468750000000003,0.14018518518518527,2.411400000005955],[0.2759375000000001,0.10740740740740741,2.4304000000059602],[0.27937500000000004,0.10166666666666663,2.4462000000178676],[0.29020833333333323,0.11444444444444436,2.461400000005952],[0.2612499999999999,0.11055555555555564,2.481300000011913],[0.24104166666666677,0.13444444444444448,2.494700000017872],[0.24322916666666666,0.16166666666666657,2.511400000005949],[0.2367708333333333,0.18462962962962973,2.5279999999999916],[0.23645833333333333,0.2,2.547200000017881],[0.19895833333333332,0.22351851851851862,2.5614999999999952],[0.17979166666666657,0.26962962962962966,2.5779999999999887],[0.17927083333333324,0.2733333333333334,2.5969000000059594],[0.19322916666666667,0.3037037037037037,2.6114000000059576],[0.1915625000000001,0.3151851851851853,2.627999999999986],[0.1710416666666667,0.3087037037037038,2.6474999999999937],[0.17447916666666666,0.29888888888888887,2.663499999999999],[0.17229166666666676,0.24740740740740744,2.681900000005953],[0.17229166666666676,0.24740740740740744,2.697400000005956],[0.16906249999999995,0.24537037037037038,2.711400000005952],[0.18322916666666675,0.22407407407407406,2.7279999999999944],[0.20041666666666677,0.19685185185185178,2.744700000017872],[0.21760416666666677,0.16962962962962966,2.7634000000059586],[0.24427083333333333,0.18518518518518517,2.7798000000119174],[0.24854166666666658,0.16407407407407412,2.794700000017869],[0.22854166666666675,0.1242592592592593,2.8114000000059605],[0.25114583333333323,0.1175925925925926,2.8299000000059493],[0.26875,0.06518518518518526,2.8447000000178804],[0.2919791666666666,0.0544444444444444,2.8614999999999924],[0.3099999999999999,0.01648148148148144,2.881100000023835],[0.31614583333333335,0.008333333333333333,2.8947000000178775],[0.34177083333333325,0.018888888888888972,2.911400000005955],[0.3601041666666667,0.021851851851851768,2.9279999999999973],[0.3619791666666667,0.00851851851851856,2.9471000000238377],[0.3703125,-0.008148148148148106,2.9614999999999867],[0.40291666666666665,-0.006111111111111027,2.9781000000238294],[0.41520833333333323,-0.032037037037036954,2.9966000000238324],[0.3944791666666667,-0.03814814814814819,3.011400000005949],[0.37374999999999997,-0.04425925925925922,3.0281000000238407],[0.3733333333333334,-0.05129629629629638,3.044700000017869],[0.36739583333333337,-0.06888888888888887,3.0636000000238397],[0.3540625000000001,-0.08648148148148146,3.079600000023831],[0.3492708333333333,-0.10499999999999998,3.0947000000178804],[0.3458333333333333,-0.12240740740740745,3.1114000000059576],[0.3419791666666666,-0.13555555555555554,3.130400000005949],[0.3381249999999999,-0.1440740740740741,3.1447000000178775],[0.33135416666666656,-0.13537037037037042,3.161400000005955],[0.3328125,-0.14685185185185187,3.1814999999999998],[0.3430208333333333,-0.14740740740740746,3.1966000000238353],[0.34572916666666675,-0.152962962962963,3.2114999999999867],[0.3484375,-0.15851851851851856,3.230499999999992],[0.3544791666666666,-0.1205555555555556,3.2451000000238395],[0.3622916666666666,-0.08629629629629634,3.261400000005949],[0.36083333333333345,-0.07611111111111116,3.283100000023836],[0.3615624999999999,-0.052037037037037076,3.297200000017881],[0.35572916666666665,-0.028703703703703703,3.3119000000059486],[0.3555208333333333,-0.005185185185185101,3.3279999999999887],[0.3610416666666666,0.04944444444444453,3.348100000023834],[0.35520833333333335,0.13759259259259252,3.3644000000059577],[0.3476041666666667,0.2081481481481481,3.381300000011919],[0.3046875,0.29018518518518527,3.3974999999999937],[0.26583333333333337,0.3287037037037037,3.41130000001192],[0.22489583333333343,0.3859259259259259,3.4278000000119135],[0.20947916666666658,0.44462962962962965,3.444499999999991],[0.18718750000000003,0.5037037037037037,3.461200000017868],[0.18718750000000003,0.5037037037037037,3.4779000000059597],[0.16666666666666666,0.555,3.497700000017872],[0.16114583333333338,0.5092592592592593,3.513900000005947],[0.1556250000000001,0.46351851851851844,3.527900000005957],[0.16937499999999991,0.36018518518518516,3.5444999999999993],[0.18697916666666667,0.2624074074074075,3.5612000000178767],[0.2165625000000001,0.17759259259259255,3.5779999999999887],[0.24614583333333329,0.09277777777777782,3.5944999999999965],[0.27791666666666665,-0.022592592592592678,3.612499999999997],[0.2920833333333334,-0.11648148148148144,3.627900000005951],[0.30614583333333345,-0.19296296296296295,3.6446000000238286],[0.325,-0.2655555555555555,3.661200000017871],[0.3233333333333334,-0.22407407407407406,3.6779000000059483],[0.32614583333333325,-0.21722222222222223,3.69460000002384],[0.31229166666666663,-0.19722222222222222,3.7149000000059544],[0.2976041666666667,-0.1514814814814815,3.7318000000119156],[0.30625,-0.1301851851851852,3.747600000023837],[0.31760416666666674,-0.12777777777777777,3.763999999999996],[0.32833333333333337,-0.09092592592592597,3.7813000000119104],[0.3342708333333334,-0.06629629629629631,3.7949999999999875],[0.3389583333333334,-0.0742592592592593,3.8112000000178767],[0.33697916666666666,-0.1014814814814815,3.8278000000119192],[0.34343750000000006,-0.10407407407407405,3.8446000000238314],[0.3454166666666666,-0.072037037037037,3.8613000000119087],[0.3429166666666667,-0.07703703703703708,3.88210000002384],[0.3429166666666667,-0.07703703703703708,3.8946000000238286],[0.34177083333333325,-0.10685185185185184,3.911200000017871],[0.34177083333333325,-0.10685185185185184,3.9279000000059483],[0.3490624999999999,-0.11388888888888889,3.94460000002384],[0.3490624999999999,-0.11388888888888889,3.961300000011917],[0.34958333333333325,-0.1479629629629629,3.9778000000119107],[0.34958333333333325,-0.1479629629629629,3.994600000023837],[0.3466666666666666,-0.14351851851851852,4.01120000001788],[0.3466666666666666,-0.14351851851851852,4.027999999999992],[0.35187499999999994,-0.14166666666666666,4.044499999999999],[0.35187499999999994,-0.14166666666666666,4.0613000000119115],[0.35572916666666665,-0.15648148148148147,4.077999999999989],[0.3696875000000001,-0.1411111111111111,4.0944999999999965],[0.3745833333333332,-0.172037037037037,4.113499999999988],[0.3767708333333334,-0.21814814814814817,4.127800000011916],[0.3857291666666666,-0.22962962962962963,4.145800000011917],[0.3754166666666668,-0.25870370370370366,4.161200000017871],[0.3710416666666667,-0.3044444444444444,4.177900000005948],[0.3710416666666667,-0.30759259259259264,4.19460000002384],[0.3719791666666666,-0.35962962962962963,4.211200000017868],[0.36958333333333326,-0.3968518518518519,4.22790000000596],[0.3623958333333334,-0.39351851851851855,4.244600000023837],[0.35177083333333337,-0.40111111111111114,4.26120000001788],[0.33927083333333335,-0.42296296296296293,4.280999999999992],[0.328125,-0.43425925925925923,4.294600000023834],[0.3180208333333333,-0.4396296296296296,4.311200000017877],[0.32666666666666655,-0.42833333333333334,4.327800000011919],[0.321875,-0.4137037037037037,4.344600000023831],[0.31302083333333336,-0.3911111111111111,4.361200000017874],[0.31583333333333335,-0.39148148148148143,4.377800000011916],[0.3186458333333334,-0.3918518518518519,4.394600000023829],[0.32156250000000003,-0.3979629629629629,4.411100000023836],[0.32447916666666665,-0.40407407407407403,4.427900000005948],[0.3216666666666666,-0.39648148148148155,4.44460000002384],[0.32020833333333343,-0.38425925925925924,4.461200000017868],[0.31239583333333343,-0.37407407407407406,4.478100000023829],[0.31145833333333334,-0.3772222222222222,4.49590000000596],[0.3134375000000001,-0.384074074074074,4.51120000001788],[0.31927083333333334,-0.3737037037037037,4.527900000005957],[0.3252083333333334,-0.35351851851851845,4.547900000005953],[0.31260416666666657,-0.3381481481481482,4.563499999999991],[0.3060416666666666,-0.34092592592592597,4.58070000001787],[0.2916666666666667,-0.3405555555555555,4.594600000023831],[0.28489583333333335,-0.3396296296296296,4.611800000011911],[0.2828125,-0.34518518518518515,4.627800000011916],[0.2912499999999999,-0.3509259259259259,4.644499999999994],[0.2990624999999999,-0.35759259259259263,4.661200000017871],[0.2960416666666667,-0.34500000000000003,4.681800000011918],[0.2960416666666667,-0.34500000000000003,4.69460000002384],[0.2929166666666667,-0.3542592592592593,4.711300000011917],[0.27364583333333337,-0.3727777777777778,4.72790000000596],[0.27291666666666664,-0.3522222222222222,4.744400000005953],[0.275,-0.33796296296296297,4.761300000011914],[0.27708333333333335,-0.34944444444444445,4.777900000005957],[0.2791666666666667,-0.3609259259259259,4.794600000023834],[0.2931250000000001,-0.37333333333333335,4.816499999999991],[0.29145833333333326,-0.3731481481481482,4.831900000005959],[0.28020833333333334,-0.34740740740740744,4.847800000011915],[0.2507291666666667,-0.37166666666666665,4.8616000000238415],[0.22864583333333333,-0.40111111111111114,4.882200000017875],[0.2009375000000001,-0.3587037037037037,4.896600000023838],[0.17322916666666663,-0.35055555555555556,4.911400000005955],[0.1694791666666667,-0.3512962962962963,4.927999999999997],[0.14895833333333333,-0.3244444444444444,4.947100000023838],[0.17239583333333333,-0.32,4.961600000023836],[0.17927083333333324,-0.3081481481481481,4.977999999999994],[0.14583333333333334,-0.2948148148148148,4.994700000017872],[0.13708333333333325,-0.30481481481481487,5.013800000011912],[0.17083333333333334,-0.2874074074074074,5.027999999999992],[0.18635416666666677,-0.2611111111111111,5.045100000023837],[0.22260416666666671,-0.29129629629629633,5.066400000005956],[0.25270833333333326,-0.3244444444444444,5.0813000000119075],[0.24406249999999996,-0.3448148148148148,5.0968000000119105],[0.28854166666666664,-0.3714814814814815,5.118300000011914],[0.28854166666666664,-0.3714814814814815,5.136400000005949],[0.2938541666666666,-0.37333333333333335,5.153499999999994],[0.2938541666666666,-0.37333333333333335,5.161200000017871],[0.27541666666666675,-0.3718518518518519,5.177900000005948],[0.3094791666666666,-0.37037037037037035,5.194499999999991],[0.3393749999999999,-0.3794444444444444,5.211200000017868],[0.3519791666666668,-0.39092592592592595,5.22790000000596],[0.3772916666666667,-0.3838888888888889,5.244499999999988],[0.39187500000000003,-0.3698148148148148,5.261100000023831],[0.41354166666666664,-0.35055555555555556,5.277800000011908],[0.4473958333333333,-0.34314814814814815,5.294600000023834]]","[0.0002000000178696837,0.03920000001787116,0.04460000002383424,0.06130000001191149,0.07799999999998875,0.09470000001788037,0.11120000001787389,0.12790000000595114,0.14460000002382856,0.16130000001192002,0.17799999999999727,0.1972000000178724,0.2117000000178706,0.22810000002382935,0.2469999999999999,0.26149999999999807,0.2781000000238407,0.2973000000119157,0.31280000001191866,0.328700000017875,0.34830000001191763,0.36440000000595774,0.38140000000595364,0.3959000000059518,0.41120000001787105,0.4279000000059483,0.4474999999999909,0.4624999999999915,0.4804000000059574,0.49799999999999045,0.5131000000238402,0.5281000000238407,0.546999999999997,0.5614999999999952,0.5782000000178726,0.5983000000119176,0.6132000000178692,0.6284999999999883,0.64730000001191,0.6631000000238316,0.6807000000178789,0.6993000000119167,0.7143000000119173,0.7294999999999874,0.7449999999999903,0.7649000000059516,0.7803000000119198,0.794800000011918,0.8113000000119115,0.8312000000178728,0.8462000000178733,0.8628000000119158,0.8812000000178699,0.8961000000238357,0.9114000000059548,0.9279999999999973,0.9477000000178748,0.9629999999999939,0.9797000000178713,0.9947000000178718,1.0137000000178773,1.0284000000059592,1.044700000017869,1.0652000000178674,1.0779999999999887,1.0948000000119151,1.1138000000119206,1.127999999999986,1.1448000000119123,1.161200000017871,1.1779000000059483,1.19460000002384,1.2136000000238312,1.2281000000238294,1.2448000000119208,1.2664000000059588,1.2781000000238407,1.294700000017869,1.3114000000059605,1.3314000000059565,1.3454000000059523,1.3614999999999924,1.3804000000059489,1.394999999999996,1.4114000000059548,1.4281000000238322,1.4472000000178724,1.4618000000119196,1.4781000000238294,1.497800000011921,1.5118000000119167,1.530800000011908,1.54849999999999,1.5628000000119187,1.5796000000238308,1.5947000000178804,1.61399999999999,1.6283000000119188,1.646600000023838,1.6854999999999905,1.6956000000238305,1.70680000001191,1.7153000000119079,1.7324000000059527,1.7447000000178718,1.761499999999998,1.7782000000178755,1.7974999999999994,1.8114999999999952,1.8281000000238379,1.8446000000238314,1.864200000017874,1.878100000023835,1.8947000000178775,1.9161000000238317,1.9282000000178812,1.9447000000178747,1.968999999999994,1.9781000000238294,1.9948000000119208,2.0166000000238284,2.0281000000238407,2.044800000011918,2.0614999999999952,2.082499999999996,2.0947000000178804,2.1113000000119087,2.127999999999986,2.1469000000059566,2.16130000001192,2.1779999999999973,2.1947000000178747,2.2134999999999962,2.2281000000238294,2.244700000017872,2.2613000000119143,2.277900000005957,2.2946000000238342,2.3112000000178767,2.3304999999999865,2.3461000000238386,2.3614000000059576,2.3809000000059513,2.3948000000119123,2.411400000005955,2.4304000000059602,2.4462000000178676,2.461400000005952,2.481300000011913,2.494700000017872,2.511400000005949,2.5279999999999916,2.547200000017881,2.5614999999999952,2.5779999999999887,2.5969000000059594,2.6114000000059576,2.627999999999986,2.6474999999999937,2.663499999999999,2.681900000005953,2.697400000005956,2.711400000005952,2.7279999999999944,2.744700000017872,2.7634000000059586,2.7798000000119174,2.794700000017869,2.8114000000059605,2.8299000000059493,2.8447000000178804,2.8614999999999924,2.881100000023835,2.8947000000178775,2.911400000005955,2.9279999999999973,2.9471000000238377,2.9614999999999867,2.9781000000238294,2.9966000000238324,3.011400000005949,3.0281000000238407,3.044700000017869,3.0636000000238397,3.079600000023831,3.0947000000178804,3.1114000000059576,3.130400000005949,3.1447000000178775,3.161400000005955,3.1814999999999998,3.1966000000238353,3.2114999999999867,3.230499999999992,3.2451000000238395,3.261400000005949,3.283100000023836,3.297200000017881,3.3119000000059486,3.3279999999999887,3.348100000023834,3.3644000000059577,3.381300000011919,3.3974999999999937,3.41130000001192,3.4278000000119135,3.444499999999991,3.461200000017868,3.4779000000059597,3.497700000017872,3.513900000005947,3.527900000005957,3.5444999999999993,3.5612000000178767,3.5779999999999887,3.5944999999999965,3.612499999999997,3.627900000005951,3.6446000000238286,3.661200000017871,3.6779000000059483,3.69460000002384,3.7149000000059544,3.7318000000119156,3.747600000023837,3.763999999999996,3.7813000000119104,3.7949999999999875,3.8112000000178767,3.8278000000119192,3.8446000000238314,3.8613000000119087,3.88210000002384,3.8946000000238286,3.911200000017871,3.9279000000059483,3.94460000002384,3.961300000011917,3.9778000000119107,3.994600000023837,4.01120000001788,4.027999999999992,4.044499999999999,4.0613000000119115,4.077999999999989,4.0944999999999965,4.113499999999988,4.127800000011916,4.145800000011917,4.161200000017871,4.177900000005948,4.19460000002384,4.211200000017868,4.22790000000596,4.244600000023837,4.26120000001788,4.280999999999992,4.294600000023834,4.311200000017877,4.327800000011919,4.344600000023831,4.361200000017874,4.377800000011916,4.394600000023829,4.411100000023836,4.427900000005948,4.44460000002384,4.461200000017868,4.478100000023829,4.49590000000596,4.51120000001788,4.527900000005957,4.547900000005953,4.563499999999991,4.58070000001787,4.594600000023831,4.611800000011911,4.627800000011916,4.644499999999994,4.661200000017871,4.681800000011918,4.69460000002384,4.711300000011917,4.72790000000596,4.744400000005953,4.761300000011914,4.777900000005957,4.794600000023834,4.816499999999991,4.831900000005959,4.847800000011915,4.8616000000238415,4.882200000017875,4.896600000023838,4.911400000005955,4.927999999999997,4.947100000023838,4.961600000023836,4.977999999999994,4.994700000017872,5.013800000011912,5.027999999999992,5.045100000023837,5.066400000005956,5.0813000000119075,5.0968000000119105,5.118300000011914,5.136400000005949,5.153499999999994,5.161200000017871,5.177900000005948,5.194499999999991,5.211200000017868,5.22790000000596,5.244499999999988,5.261100000023831,5.277800000011908,5.294600000023834]","[1732776133421,1732776133453,1732776133459,1732776133475,1732776133492,1732776133509,1732776133525,1732776133542,1732776133559,1732776133575,1732776133592,1732776133611,1732776133626,1732776133642,1732776133661,1732776133675,1732776133692,1732776133711,1732776133727,1732776133743,1732776133762,1732776133778,1732776133795,1732776133810,1732776133825,1732776133842,1732776133861,1732776133876,1732776133894,1732776133912,1732776133927,1732776133942,1732776133961,1732776133976,1732776133992,1732776134012,1732776134027,1732776134042,1732776134061,1732776134077,1732776134095,1732776134113,1732776134128,1732776134143,1732776134159,1732776134179,1732776134194,1732776134209,1732776134225,1732776134245,1732776134260,1732776134277,1732776134295,1732776134310,1732776134325,1732776134342,1732776134362,1732776134377,1732776134394,1732776134409,1732776134428,1732776134442,1732776134459,1732776134479,1732776134492,1732776134509,1732776134528,1732776134542,1732776134559,1732776134575,1732776134592,1732776134609,1732776134628,1732776134642,1732776134659,1732776134680,1732776134692,1732776134709,1732776134725,1732776134745,1732776134759,1732776134775,1732776134794,1732776134809,1732776134825,1732776134842,1732776134861,1732776134876,1732776134892,1732776134912,1732776134926,1732776134945,1732776134962,1732776134977,1732776134994,1732776135009,1732776135028,1732776135042,1732776135061,1732776135099,1732776135109,1732776135121,1732776135129,1732776135146,1732776135159,1732776135175,1732776135192,1732776135211,1732776135225,1732776135242,1732776135259,1732776135278,1732776135292,1732776135309,1732776135330,1732776135342,1732776135359,1732776135383,1732776135392,1732776135409,1732776135431,1732776135442,1732776135459,1732776135475,1732776135496,1732776135509,1732776135525,1732776135542,1732776135561,1732776135575,1732776135592,1732776135609,1732776135627,1732776135642,1732776135659,1732776135675,1732776135692,1732776135708,1732776135725,1732776135744,1732776135760,1732776135775,1732776135795,1732776135809,1732776135825,1732776135844,1732776135860,1732776135875,1732776135895,1732776135909,1732776135925,1732776135942,1732776135961,1732776135975,1732776135992,1732776136011,1732776136025,1732776136042,1732776136061,1732776136077,1732776136096,1732776136111,1732776136125,1732776136142,1732776136159,1732776136177,1732776136194,1732776136209,1732776136225,1732776136244,1732776136259,1732776136275,1732776136295,1732776136309,1732776136325,1732776136342,1732776136361,1732776136375,1732776136392,1732776136411,1732776136425,1732776136442,1732776136459,1732776136478,1732776136493,1732776136509,1732776136525,1732776136544,1732776136559,1732776136575,1732776136595,1732776136611,1732776136625,1732776136644,1732776136659,1732776136675,1732776136697,1732776136711,1732776136726,1732776136742,1732776136762,1732776136778,1732776136795,1732776136811,1732776136825,1732776136842,1732776136858,1732776136875,1732776136892,1732776136912,1732776136928,1732776136942,1732776136958,1732776136975,1732776136992,1732776137008,1732776137026,1732776137042,1732776137058,1732776137075,1732776137092,1732776137108,1732776137129,1732776137146,1732776137162,1732776137178,1732776137195,1732776137209,1732776137225,1732776137242,1732776137258,1732776137275,1732776137296,1732776137309,1732776137325,1732776137342,1732776137358,1732776137375,1732776137392,1732776137409,1732776137425,1732776137442,1732776137458,1732776137475,1732776137492,1732776137508,1732776137527,1732776137542,1732776137560,1732776137575,1732776137592,1732776137608,1732776137625,1732776137642,1732776137658,1732776137675,1732776137695,1732776137709,1732776137725,1732776137742,1732776137759,1732776137775,1732776137792,1732776137808,1732776137825,1732776137842,1732776137858,1732776137875,1732776137892,1732776137910,1732776137925,1732776137942,1732776137962,1732776137977,1732776137995,1732776138008,1732776138026,1732776138042,1732776138058,1732776138075,1732776138096,1732776138109,1732776138125,1732776138142,1732776138158,1732776138175,1732776138192,1732776138208,1732776138230,1732776138246,1732776138262,1732776138276,1732776138296,1732776138310,1732776138325,1732776138342,1732776138361,1732776138376,1732776138392,1732776138409,1732776138428,1732776138442,1732776138459,1732776138480,1732776138495,1732776138511,1732776138532,1732776138550,1732776138567,1732776138575,1732776138592,1732776138608,1732776138625,1732776138642,1732776138658,1732776138675,1732776138692,1732776138708]","[[896,437.3],[896,437.3],[896,437.3],[906,430.5],[887,432.9],[844.8,431.2],[803.8,446.5],[796.9,455.3],[801.3,457.1],[773.8,456.3],[767,462.2],[740.7,468.8],[761.9,488.5],[768.6,512.8],[784.1,518.3],[848.5,524.9],[857.8,530.6],[861.4,545.1],[851.8,574.4],[857.8,603.3],[862.2,621.9],[890.1,638.7],[853.6,631.6],[828.6,626.4],[829.4,629],[785.3,634.7],[764,656.8],[758.6,676.2],[777.3,683],[797.7,664.5],[813.6,666.1],[839.3,651.9],[898.7,647.3],[898.8,623.3],[912.1,618.3],[935.9,600.1],[980.4,586],[1005.3,571.2],[988.2,547.4],[985.1,558.5],[980.3,546.9],[942.6,543.7],[872.9,543.6],[867.1,565.4],[862.6,577.4],[856.3,587.8],[838.2,577.2],[832.4,557.3],[812.4,553.9],[766.8,541],[771.7,535.1],[775.7,538.9],[811.7,539.6],[800.3,538.4],[768.4,531],[764.6,544.4],[776.2,567.5],[735.5,585.2],[749,594.7],[764.7,594.4],[737.7,600],[718.2,595.2],[698.6,594.3],[710.3,590.9],[710.3,590.9],[715.3,586.1],[685.5,566.8],[666.6,546.4],[678,539.4],[680.5,530.9],[683,537.6],[684.4,535.3],[678,534.2],[683.8,530.6],[673.2,536.6],[672.4,535.9],[672.4,535.9],[675.3,560.7],[680.6,570.9],[710.6,583],[720.6,586.2],[726,585.2],[732.5,593.2],[748.4,592.9],[752.2,591.2],[772.4,579.9],[793.6,563],[804.3,548.2],[795.3,538.2],[766,525.5],[767.7,519.3],[763.8,517.1],[775,492.3],[782.1,498.9],[812,507.2],[841.9,515.5],[872.1,525.5],[921.5,534.7],[961.9,544.7],[961.9,544.7],[1009.9,551.2],[1009.9,551.2],[1058.2,544.8],[1082.5,542.4],[1082.5,542.4],[1111.3,567.3],[1111.3,567.3],[1146.9,555.8],[1137,548.1],[1127.1,540.4],[1122.5,551.1],[1103.5,543.5],[1103.5,543.5],[1071.8,539.8],[1071.8,539.8],[1034.2,556.7],[1034.2,556.7],[979.4,574.2],[979.4,574.2],[975.4,590.8],[975.4,590.8],[929,606.5],[929,606.5],[880.9,644],[880.9,644],[848,664.6],[810.4,681.5],[805.6,693.1],[800.8,704.7],[804.9,715.4],[794.3,709],[804.2,717.6],[791.2,716.6],[806.3,722.4],[822.7,713.2],[854.9,711],[897.3,703.3],[905.1,694.7],[951.1,695.1],[1016,689.2],[1072.4,681.5],[1114.2,673.5],[1154.2,670.9],[1203,646.4],[1223.7,615.7],[1224.9,598],[1228.2,594.9],[1238.6,601.8],[1210.8,599.7],[1191.4,612.6],[1193.5,627.3],[1187.3,639.7],[1187,648],[1151,660.7],[1132.6,685.6],[1132.1,687.6],[1145.5,704],[1143.9,710.2],[1124.2,706.7],[1127.5,701.4],[1125.4,673.6],[1125.4,673.6],[1122.3,672.5],[1135.9,661],[1152.4,646.3],[1168.9,631.6],[1194.5,640],[1198.6,628.6],[1179.4,607.1],[1201.1,603.5],[1218,575.2],[1240.3,569.4],[1257.6,548.9],[1263.5,544.5],[1288.1,550.2],[1305.7,551.8],[1307.5,544.6],[1315.5,535.6],[1346.8,536.7],[1358.6,522.7],[1338.7,519.4],[1318.8,516.1],[1318.4,512.3],[1312.7,502.8],[1299.9,493.3],[1295.3,483.3],[1292,473.9],[1288.3,466.8],[1284.6,462.2],[1278.1,466.9],[1279.5,460.7],[1289.3,460.4],[1291.9,457.4],[1294.5,454.4],[1300.3,474.9],[1307.8,493.4],[1306.4,498.9],[1307.1,511.9],[1301.5,524.5],[1301.3,537.2],[1306.6,566.7],[1301,614.3],[1293.7,652.4],[1252.5,696.7],[1215.2,717.5],[1175.9,748.4],[1161.1,780.1],[1139.7,812],[1139.7,812],[1120,839.7],[1114.7,815],[1109.4,790.3],[1122.6,734.5],[1139.5,681.7],[1167.9,635.9],[1196.3,590.1],[1226.8,527.8],[1240.4,477.1],[1253.9,435.8],[1272,396.6],[1270.4,419],[1273.1,422.7],[1259.8,433.5],[1245.7,458.2],[1254,469.7],[1264.9,471],[1275.2,490.9],[1280.9,504.2],[1285.4,499.9],[1283.5,485.2],[1289.7,483.8],[1291.6,501.1],[1289.2,498.4],[1289.2,498.4],[1288.1,482.3],[1288.1,482.3],[1295.1,478.5],[1295.1,478.5],[1295.6,460.1],[1295.6,460.1],[1292.8,462.5],[1292.8,462.5],[1297.8,463.5],[1297.8,463.5],[1301.5,455.5],[1314.9,463.8],[1319.6,447.1],[1321.7,422.2],[1330.3,416],[1320.4,400.3],[1316.2,375.6],[1316.2,373.9],[1317.1,345.8],[1314.8,325.7],[1307.9,327.5],[1297.7,323.4],[1285.7,311.6],[1275,305.5],[1265.3,302.6],[1273.6,308.7],[1269,316.6],[1260.5,328.8],[1263.2,328.6],[1265.9,328.4],[1268.7,325.1],[1271.5,321.8],[1268.8,325.9],[1267.4,332.5],[1259.9,338],[1259,336.3],[1260.9,332.6],[1266.5,338.2],[1272.2,349.1],[1260.1,357.4],[1253.8,355.9],[1240,356.1],[1233.5,356.6],[1231.5,353.6],[1239.6,350.5],[1247.1,346.9],[1244.2,353.7],[1244.2,353.7],[1241.2,348.7],[1222.7,338.7],[1222,349.8],[1224,357.5],[1226,351.3],[1228,345.1],[1241.4,338.4],[1239.8,338.5],[1229,352.4],[1200.7,339.3],[1179.5,323.4],[1152.9,346.3],[1126.3,350.7],[1122.7,350.3],[1103,364.8],[1125.5,367.2],[1132.1,373.6],[1100,380.8],[1091.6,375.4],[1124,384.8],[1138.9,399],[1173.7,382.7],[1202.6,364.8],[1194.3,353.8],[1237,339.4],[1237,339.4],[1242.1,338.4],[1242.1,338.4],[1224.4,339.2],[1257.1,340],[1285.8,335.1],[1297.9,328.9],[1322.2,332.7],[1336.2,340.3],[1357,350.7],[1389.5,354.7]]","[0,0.3527331528]","[0.3527331528,0.3527331528]","[-0.3527331528,0]","[-0.3527331528,-0.3527331528]","[0,0]","[0.3527331528,0]","[0,-0.3527331528]","[0.3527331528,-0.3527331528]",0,0,0,0,1,2,Tablet,7,1,11,9
