inst1_resp.keys,inst1_resp.rt,calibrationMouse.x,calibrationMouse.y,calibrationMouse.leftButton,calibrationMouse.midButton,calibrationMouse.rightButton,calibrationClick.x,calibrationClick.y,calibrationClick.leftButton,calibrationClick.midButton,calibrationClick.rightButton,calibrationClick.clicked_name,trialsc.thisRepN,trialsc.thisTrialN,trialsc.thisN,trialsc.thisIndex,trialsc.ran,calibration_x,calibration_y,participant,session,date,expName,psychopyVersion,OS,frameRate,ScreenRes_pixels,mouse_2.x,mouse_2.y,mouse_2.leftButton,mouse_2.midButton,mouse_2.rightButton,mouse_2.time,mouse_2.clicked_name,Camera_pixels,mouse.x,mouse.y,mouse.leftButton,mouse.midButton,mouse.rightButton,mouse.time,mouse.clicked_name,Choice,Trial,TrialDuration,MOUSE_GAZE,ET_GAZE,ET_GAZE_x_T,time,unixTime,ET_GAZE_NF,Loc_Option1_label,Loc_Option2_label,Loc_Cost_label,Loc_Qual_label,Loc_Option1_cost,Loc_Option2_cost,Loc_Option1_quality,Loc_Option2_quality,trials.thisRepN,trials.thisTrialN,trials.thisN,trials.thisIndex,trials.ran,Block,Device,cost1,qual1,cost2,qual2
space,4.5944,0.214583333,-0.331481481,1,0,0,0.005208333,0.007407407,1,0,0,calibration_square,0,0,0,11,1,0,0,34,001,2024-11-28_14h51.09.135,Attention_exp_legacy,2023.1.0,Win32,59.88023952,,,,,,,,,,,,,,,,,,,,,,,,,,,,,,,,,,,,,,,,,,,,
,,,,,,,0.326041667,0.325925926,1,0,0,calibration_square,0,1,1,17,1,0.33,0.33,34,001,2024-11-28_14h51.09.135,Attention_exp_legacy,2023.1.0,Win32,59.88023952,,,,,,,,,,,,,,,,,,,,,,,,,,,,,,,,,,,,,,,,,,,,
,,,,,,,-0.68125,0.327777778,1,0,0,,0,2,2,3,1,-0.67,0.33,34,001,2024-11-28_14h51.09.135,Attention_exp_legacy,2023.1.0,Win32,59.88023952,,,,,,,,,,,,,,,,,,,,,,,,,,,,,,,,,,,,,,,,,,,,
,,,,,,,-0.666666667,0,1,0,0,calibration_square,0,3,3,2,1,-0.67,0,34,001,2024-11-28_14h51.09.135,Attention_exp_legacy,2023.1.0,Win32,59.88023952,,,,,,,,,,,,,,,,,,,,,,,,,,,,,,,,,,,,,,,,,,,,
,,,,,,,-0.336458333,0.333333333,1,0,0,calibration_square,0,4,4,7,1,-0.33,0.33,34,001,2024-11-28_14h51.09.135,Attention_exp_legacy,2023.1.0,Win32,59.88023952,,,,,,,,,,,,,,,,,,,,,,,,,,,,,,,,,,,,,,,,,,,,
,,,,,,,0.322916667,0.67037037,1,0,0,calibration_square,0,5,5,18,1,0.33,0.67,34,001,2024-11-28_14h51.09.135,Attention_exp_legacy,2023.1.0,Win32,59.88023952,,,,,,,,,,,,,,,,,,,,,,,,,,,,,,,,,,,,,,,,,,,,
,,,,,,,-0.333333333,-0.65,1,0,0,,0,6,6,4,1,-0.33,-0.67,34,001,2024-11-28_14h51.09.135,Attention_exp_legacy,2023.1.0,Win32,59.88023952,,,,,,,,,,,,,,,,,,,,,,,,,,,,,,,,,,,,,,,,,,,,
,,,,,,,0.327083333,-0.003703704,1,0,0,calibration_square,0,7,7,16,1,0.33,0,34,001,2024-11-28_14h51.09.135,Attention_exp_legacy,2023.1.0,Win32,59.88023952,,,,,,,,,,,,,,,,,,,,,,,,,,,,,,,,,,,,,,,,,,,,
,,,,,,,-0.001041667,-0.325925926,1,0,0,calibration_square,0,8,8,10,1,0,-0.33,34,001,2024-11-28_14h51.09.135,Attention_exp_legacy,2023.1.0,Win32,59.88023952,,,,,,,,,,,,,,,,,,,,,,,,,,,,,,,,,,,,,,,,,,,,
,,,,,,,-0.676041667,-0.327777778,1,0,0,calibration_square,0,9,9,1,1,-0.67,-0.33,34,001,2024-11-28_14h51.09.135,Attention_exp_legacy,2023.1.0,Win32,59.88023952,,,,,,,,,,,,,,,,,,,,,,,,,,,,,,,,,,,,,,,,,,,,
,,,,,,,-0.323958333,-0.318518519,1,0,0,,0,10,10,5,1,-0.33,-0.33,34,001,2024-11-28_14h51.09.135,Attention_exp_legacy,2023.1.0,Win32,59.88023952,,,,,,,,,,,,,,,,,,,,,,,,,,,,,,,,,,,,,,,,,,,,
,,,,,,,0.65625,-0.661111111,1,0,0,,0,11,11,20,1,0.67,-0.67,34,001,2024-11-28_14h51.09.135,Attention_exp_legacy,2023.1.0,Win32,59.88023952,,,,,,,,,,,,,,,,,,,,,,,,,,,,,,,,,,,,,,,,,,,,
,,,,,,,-0.323958333,-0.001851852,1,0,0,calibration_square,0,12,12,6,1,-0.33,0,34,001,2024-11-28_14h51.09.135,Attention_exp_legacy,2023.1.0,Win32,59.88023952,,,,,,,,,,,,,,,,,,,,,,,,,,,,,,,,,,,,,,,,,,,,
,,,,,,,-0.34375,0.668518519,1,0,0,,0,13,13,8,1,-0.33,0.67,34,001,2024-11-28_14h51.09.135,Attention_exp_legacy,2023.1.0,Win32,59.88023952,,,,,,,,,,,,,,,,,,,,,,,,,,,,,,,,,,,,,,,,,,,,
,,,,,,,-0.001041667,0.685185185,1,0,0,,0,14,14,13,1,0,0.67,34,001,2024-11-28_14h51.09.135,Attention_exp_legacy,2023.1.0,Win32,59.88023952,,,,,,,,,,,,,,,,,,,,,,,,,,,,,,,,,,,,,,,,,,,,
,,,,,,,0.008333333,-0.661111111,1,0,0,calibration_square,0,15,15,9,1,0,-0.67,34,001,2024-11-28_14h51.09.135,Attention_exp_legacy,2023.1.0,Win32,59.88023952,,,,,,,,,,,,,,,,,,,,,,,,,,,,,,,,,,,,,,,,,,,,
,,,,,,,0.001041667,0.324074074,1,0,0,calibration_square,0,16,16,12,1,0,0.33,34,001,2024-11-28_14h51.09.135,Attention_exp_legacy,2023.1.0,Win32,59.88023952,,,,,,,,,,,,,,,,,,,,,,,,,,,,,,,,,,,,,,,,,,,,
,,,,,,,-0.669791667,-0.674074074,1,0,0,calibration_square,0,17,17,0,1,-0.67,-0.67,34,001,2024-11-28_14h51.09.135,Attention_exp_legacy,2023.1.0,Win32,59.88023952,,,,,,,,,,,,,,,,,,,,,,,,,,,,,,,,,,,,,,,,,,,,
,,,,,,,0.319791667,-0.672222222,1,0,0,,0,18,18,14,1,0.33,-0.67,34,001,2024-11-28_14h51.09.135,Attention_exp_legacy,2023.1.0,Win32,59.88023952,,,,,,,,,,,,,,,,,,,,,,,,,,,,,,,,,,,,,,,,,,,,
,,,,,,,0.676041667,0.666666667,1,0,0,calibration_square,0,19,19,19,1,0.67,0.67,34,001,2024-11-28_14h51.09.135,Attention_exp_legacy,2023.1.0,Win32,59.88023952,,,,,,,,,,,,,,,,,,,,,,,,,,,,,,,,,,,,,,,,,,,,
,,,,,,,0.328125,-0.337037037,1,0,0,calibration_square,0,20,20,15,1,0.33,-0.33,34,001,2024-11-28_14h51.09.135,Attention_exp_legacy,2023.1.0,Win32,59.88023952,,,,,,,,,,,,,,,,,,,,,,,,,,,,,,,,,,,,,,,,,,,,
,,,,,,,,,,,,,,,,,,,,34,001,2024-11-28_14h51.09.135,Attention_exp_legacy,2023.1.0,Win32,59.88023952,"[1920,1080]",[0.057291666666666664],[-0.4759259259259259],[1],[0],[0],[0.8415999999940382],"[""StartButton""]","[640,480]",[0.10416666666666667],[0.3592592592592593],[1],[0],[0],[1.4572000000178775],"[""Option1_label""]",Option1_label,1,2.4643,"[[0.07395833333333333,-0.25925925925925924],[0.07395833333333333,-0.25925925925925924],[0.07395833333333333,-0.25925925925925924],[0.07395833333333333,-0.25925925925925924],[0.07395833333333333,-0.25925925925925924],[0.07395833333333333,-0.25925925925925924],[0.07395833333333333,-0.25925925925925924],[0.07395833333333333,-0.25925925925925924],[0.07395833333333333,-0.25925925925925924],[0.07395833333333333,-0.25925925925925924],[0.07395833333333333,-0.25925925925925924],[0.07395833333333333,-0.25925925925925924],[0.07395833333333333,-0.25925925925925924],[0.07395833333333333,-0.25925925925925924],[0.07395833333333333,-0.25925925925925924],[0.07395833333333333,-0.25925925925925924],[0.07395833333333333,-0.25925925925925924],[0.07395833333333333,-0.25555555555555554],[0.06979166666666667,-0.24444444444444444],[0.06041666666666667,-0.23333333333333334],[0.04791666666666667,-0.2222222222222222],[0.027083333333333334,-0.20555555555555555],[0.010416666666666666,-0.1925925925925926],[-0.0125,-0.17962962962962964],[-0.036458333333333336,-0.17407407407407408],[-0.07604166666666666,-0.16111111111111112],[-0.08854166666666667,-0.15925925925925927],[-0.121875,-0.15],[-0.17916666666666667,-0.13703703703703704],[-0.23020833333333332,-0.1259259259259259],[-0.275,-0.11481481481481481],[-0.32083333333333336,-0.1037037037037037],[-0.35,-0.10185185185185185],[-0.37395833333333334,-0.10185185185185185],[-0.39166666666666666,-0.10185185185185185],[-0.4083333333333333,-0.10185185185185185],[-0.42083333333333334,-0.10185185185185185],[-0.434375,-0.10185185185185185],[-0.453125,-0.10185185185185185],[-0.459375,-0.10185185185185185],[-0.4635416666666667,-0.10185185185185185],[-0.465625,-0.10185185185185185],[-0.465625,-0.10185185185185185],[-0.465625,-0.10185185185185185],[-0.465625,-0.10185185185185185],[-0.465625,-0.10185185185185185],[-0.465625,-0.10185185185185185],[-0.4635416666666667,-0.1],[-0.4479166666666667,-0.09259259259259259],[-0.425,-0.08703703703703704],[-0.39375,-0.07962962962962963],[-0.35104166666666664,-0.07037037037037037],[-0.28020833333333334,-0.05],[-0.24375,-0.04259259259259259],[-0.19479166666666667,-0.014814814814814815],[-0.15416666666666667,0.005555555555555556],[-0.11145833333333334,0.02962962962962963],[-0.057291666666666664,0.05925925925925926],[-0.013541666666666667,0.08518518518518518],[0.040625,0.11851851851851852],[0.071875,0.14074074074074075],[0.09479166666666666,0.16296296296296298],[0.1125,0.18703703703703703],[0.12395833333333334,0.21666666666666667],[0.13229166666666667,0.25],[0.134375,0.2722222222222222],[0.134375,0.29074074074074074],[0.134375,0.3055555555555556],[0.13020833333333334,0.32222222222222224],[0.128125,0.3296296296296296],[0.125,0.3388888888888889],[0.11979166666666667,0.35],[0.11666666666666667,0.3537037037037037],[0.11354166666666667,0.3574074074074074],[0.11041666666666666,0.3592592592592593],[0.10833333333333334,0.3592592592592593],[0.10729166666666666,0.3592592592592593],[0.10520833333333333,0.3592592592592593],[0.10416666666666667,0.3592592592592593],[0.10416666666666667,0.3592592592592593],[0.10416666666666667,0.3592592592592593],[0.10416666666666667,0.3592592592592593],[0.10416666666666667,0.3592592592592593],[0.10416666666666667,0.3592592592592593],[0.10416666666666667,0.3592592592592593],[0.10416666666666667,0.3592592592592593],[0.10416666666666667,0.3592592592592593],[0.10416666666666667,0.3592592592592593],[0.10416666666666667,0.3592592592592593],[0.10416666666666667,0.3592592592592593],[0.10416666666666667,0.3592592592592593],[0.10416666666666667,0.3592592592592593],[0.10416666666666667,0.3592592592592593],[0.10416666666666667,0.3592592592592593],[0.10416666666666667,0.3592592592592593],[0.10416666666666667,0.3592592592592593],[0.10416666666666667,0.3592592592592593],[0.10416666666666667,0.3592592592592593],[0.10416666666666667,0.3592592592592593],[0.10416666666666667,0.3592592592592593],[0.10416666666666667,0.3592592592592593],[0.10416666666666667,0.3592592592592593],[0.10416666666666667,0.3592592592592593],[0.10416666666666667,0.3592592592592593],[0.10416666666666667,0.3592592592592593],[0.10416666666666667,0.3592592592592593],[0.10416666666666667,0.3592592592592593],[0.10416666666666667,0.3592592592592593],[0.10416666666666667,0.3592592592592593],[0.10416666666666667,0.3592592592592593],[0.10416666666666667,0.3592592592592593],[0.10416666666666667,0.3592592592592593],[0.10208333333333333,0.3592592592592593],[0.10208333333333333,0.3592592592592593],[0.10208333333333333,0.3592592592592593],[0.10208333333333333,0.3592592592592593],[0.10208333333333333,0.3592592592592593],[0.10208333333333333,0.3592592592592593],[0.10208333333333333,0.3592592592592593],[0.10208333333333333,0.3592592592592593],[0.10104166666666667,0.3592592592592593],[0.10104166666666667,0.3592592592592593],[0.10104166666666667,0.3592592592592593],[0.1,0.3592592592592593],[0.1,0.3592592592592593],[0.09895833333333333,0.3592592592592593],[0.09791666666666667,0.3574074074074074],[0.09791666666666667,0.3574074074074074],[0.09791666666666667,0.3574074074074074],[0.09791666666666667,0.3574074074074074],[0.09791666666666667,0.3574074074074074],[0.09791666666666667,0.3574074074074074],[0.09791666666666667,0.3574074074074074],[0.09791666666666667,0.3574074074074074],[0.09791666666666667,0.3574074074074074],[0.09791666666666667,0.3574074074074074],[0.09791666666666667,0.3574074074074074],[0.09791666666666667,0.3574074074074074],[0.09791666666666667,0.3574074074074074],[0.09791666666666667,0.3574074074074074],[0.09791666666666667,0.3574074074074074],[0.09791666666666667,0.3574074074074074],[0.09791666666666667,0.3574074074074074],[0.09791666666666667,0.3574074074074074],[0.09791666666666667,0.3574074074074074],[0.09791666666666667,0.3574074074074074],[0.09791666666666667,0.3574074074074074],[0.09791666666666667,0.3574074074074074]]","[[0.2717708333333334,0.41796296296296304],[0.240625,0.39296296296296307],[0.23229166666666667,0.4005555555555555],[0.2068749999999999,0.3705555555555556],[0.18947916666666675,0.35759259259259263],[0.18947916666666675,0.35759259259259263],[0.16979166666666667,0.3411111111111112],[0.16437499999999997,0.29981481481481476],[0.1478125000000001,0.2853703703703704],[0.15927083333333342,0.2616666666666666],[0.14177083333333323,0.3012962962962964],[0.10583333333333324,0.3218518518518518],[0.09208333333333343,0.2881481481481482],[0.08020833333333334,0.23555555555555563],[0.07770833333333324,0.22666666666666663],[0.08677083333333328,0.22240740740740744],[0.10302083333333342,0.22444444444444453],[0.10302083333333342,0.22444444444444453],[0.07354166666666657,0.2640740740740741],[0.06416666666666669,0.256111111111111],[0.00635416666666669,0.25388888888888894],[0.00635416666666669,0.25388888888888894],[0.00635416666666669,0.20555555555555555],[0.00635416666666669,0.20555555555555555],[-0.02333333333333331,0.20981481481481473],[-0.050416666666666644,0.2064814814814815],[-0.07541666666666665,0.19000000000000003],[-0.12072916666666664,0.1618518518518518],[-0.14968750000000006,0.14611111111111108],[-0.18624999999999994,0.125],[-0.1779166666666666,0.0992592592592593],[-0.1779166666666666,0.0992592592592593],[-0.1672916666666667,0.0544444444444444],[-0.13020833333333334,0.06314814814814819],[-0.14812500000000003,0.07333333333333338],[-0.11677083333333335,0.05555555555555555],[-0.08802083333333334,0.04537037037037037],[-0.059062500000000046,0.06148148148148157],[-0.05645833333333338,0.06666666666666667],[-0.08177083333333333,0.05481481481481486],[-0.09947916666666666,0.048333333333333374],[-0.1273958333333333,0.06444444444444436],[-0.1877083333333334,0.10222222222222231],[-0.23125,0.07962962962962963],[-0.2789583333333333,0.06703703703703712],[-0.34187500000000004,0.09499999999999992],[-0.3907291666666667,0.10481481481481486],[-0.4397916666666667,0.08833333333333342],[-0.44864583333333335,0.09518518518518514],[-0.4102083333333333,0.10185185185185185],[-0.36343749999999997,0.09740740740740746],[-0.32218749999999996,0.057037037037036956],[-0.32437499999999997,0.06314814814814819],[-0.32437499999999997,0.06314814814814819],[-0.2741666666666667,0.06537037037037029],[-0.22427083333333328,0.057777777777777865],[-0.17437499999999997,0.05018518518518523],[-0.15229166666666671,0.04259259259259259],[-0.11124999999999995,0.03518518518518519],[-0.11124999999999995,0.03518518518518519],[-0.06958333333333329,0.03814814814814819],[-0.06958333333333329,0.03814814814814819],[-0.05572916666666667,0.021481481481481525],[-0.05572916666666667,0.021481481481481525],[-0.029375000000000047,-0.006666666666666709],[-0.029375000000000047,-0.006666666666666709],[-0.026145833333333358,-0.013333333333333417],[-0.026145833333333358,-0.013333333333333417],[0.035416666666666666,-0.0418518518518519],[0.035416666666666666,-0.0418518518518519],[0.026041666666666668,-0.07018518518518514],[0.026041666666666668,-0.07018518518518514],[0.065625,-0.1272222222222222],[0.09072916666666657,-0.18129629629629626],[0.12958333333333344,-0.21722222222222223],[0.13802083333333334,-0.25833333333333336],[0.12854166666666675,-0.28722222222222227],[0.09104166666666676,-0.29962962962962963],[0.03270833333333331,-0.28944444444444445],[0.04874999999999995,-0.33129629629629626],[0.04874999999999995,-0.33129629629629626],[0.05614583333333331,-0.3603703703703704],[0.09302083333333329,-0.36518518518518517],[0.08114583333333343,-0.30944444444444447],[0.08375000000000009,-0.2566666666666667],[0.07072916666666676,-0.22851851851851848],[0.09520833333333342,-0.1809259259259259],[0.09520833333333342,-0.1809259259259259],[0.1365624999999999,-0.16425925925925924],[0.19947916666666668,-0.1588888888888889],[0.23604166666666657,-0.15462962962962962],[0.21624999999999991,-0.10925925925925926],[0.22291666666666668,-0.08777777777777773],[0.21864583333333343,-0.0868518518518518],[0.23895833333333344,-0.12537037037037035],[0.23270833333333343,-0.172037037037037],[0.24208333333333343,-0.1940740740740741],[0.23624999999999996,-0.2096296296296296],[0.21802083333333327,-0.22962962962962963],[0.24510416666666662,-0.2561111111111111],[0.2985416666666666,-0.2814814814814815],[0.2985416666666666,-0.2814814814814815],[0.29749999999999993,-0.30037037037037034],[0.2931250000000001,-0.30407407407407405],[0.28875000000000006,-0.30777777777777776],[0.2868750000000001,-0.32037037037037036],[0.3115624999999999,-0.3248148148148148],[0.30187499999999995,-0.31148148148148147],[0.28229166666666666,-0.31962962962962965],[0.2856250000000001,-0.307962962962963],[0.2306250000000001,-0.27518518518518525],[0.13947916666666677,-0.20240740740740742],[0.0990624999999999,-0.1346296296296296],[0.0990624999999999,-0.1346296296296296],[0.06666666666666667,-0.1542592592592593],[0.04541666666666669,-0.147037037037037],[0.024687500000000046,-0.12907407407407406],[0.003958333333333286,-0.1111111111111111],[0.019270833333333334,-0.1264814814814815],[0.019270833333333334,-0.1264814814814815],[0.033645833333333285,-0.1412962962962963],[0.02833333333333338,-0.1742592592592593],[0.02354166666666669,-0.19500000000000003],[0.06447916666666664,-0.27740740740740744],[0.13322916666666676,-0.3592592592592593],[0.13322916666666676,-0.3592592592592593],[0.1396874999999999,-0.3338888888888889],[0.14270833333333333,-0.3309259259259259],[0.13468749999999996,-0.32629629629629625],[0.12770833333333323,-0.3344444444444445],[0.12614583333333323,-0.3327777777777778],[0.12406249999999991,-0.32],[0.13291666666666657,-0.30351851851851847],[0.13760416666666658,-0.3225925925925926],[0.1296875,-0.3103703703703704],[0.09895833333333333,-0.2975925925925926],[0.11145833333333334,-0.31611111111111106],[0.11645833333333329,-0.3368518518518518],[0.12114583333333329,-0.3424074074074074],[0.11906249999999995,-0.32981481481481484],[0.11906249999999995,-0.32981481481481484],[0.11041666666666666,-0.31851851851851853],[0.11041666666666666,-0.31851851851851853],[0.08937499999999995,-0.3122222222222223],[0.06656249999999998,-0.3068518518518518],[0.07531249999999995,-0.3],[0.08708333333333323,-0.30277777777777776],[0.09500000000000004,-0.2898148148148148]]","[[0.2717708333333334,0.41796296296296304,0.0002999999821184929],[0.240625,0.39296296296296307,0.03550000000000608],[0.23229166666666667,0.4005555555555555,0.05000000000000426],[0.2068749999999999,0.3705555555555556,0.066299999982121],[0.18947916666666675,0.35759259259259263,0.08079999998211918],[0.18947916666666675,0.35759259259259263,0.09769999998808032],[0.16979166666666667,0.3411111111111112,0.11419999998808095],[0.16437499999999997,0.29981481481481476,0.13400000000000034],[0.1478125000000001,0.2853703703703704,0.15050000000000097],[0.15927083333333342,0.2616666666666666,0.16550000000000153],[0.14177083333333323,0.3012962962962964,0.18069999998808584],[0.10583333333333324,0.3218518518518518,0.19750000000000512],[0.09208333333333343,0.2881481481481482,0.2140999999940405],[0.08020833333333334,0.23555555555555563,0.23079999998212486],[0.07770833333333324,0.22666666666666663,0.24739999997616025],[0.08677083333333328,0.22240740740740744,0.26409999999404477],[0.10302083333333342,0.22444444444444453,0.28069999998808015],[0.10302083333333342,0.22444444444444453,0.30050000000000665],[0.07354166666666657,0.2640740740740741,0.3143999999761604],[0.06416666666666669,0.256111111111111,0.332599999994045],[0.00635416666666669,0.25388888888888894,0.35179999998211997],[0.00635416666666669,0.25388888888888894,0.3642999999821228],[0.00635416666666669,0.20555555555555555,0.3808999999761582],[0.00635416666666669,0.20555555555555555,0.3975999999940427],[-0.02333333333333331,0.20981481481481473,0.4172999999821201],[-0.050416666666666644,0.2064814814814815,0.43329999998212543],[-0.07541666666666665,0.19000000000000003,0.44809999999404226],[-0.12072916666666664,0.1618518518518518,0.46639999997616144],[-0.14968750000000006,0.14611111111111108,0.4808999999761596],[-0.18624999999999994,0.125,0.5002999999821185],[-0.1779166666666666,0.0992592592592593,0.5191999999880821],[-0.1779166666666666,0.0992592592592593,0.530799999982122],[-0.1672916666666667,0.0544444444444444,0.5475999999940413],[-0.13020833333333334,0.06314814814814819,0.5640999999940419],[-0.14812500000000003,0.07333333333333338,0.5835999999940427],[-0.11677083333333335,0.05555555555555555,0.6005000000000038],[-0.08802083333333334,0.04537037037037037,0.6142999999821228],[-0.059062500000000046,0.06148148148148157,0.6343999999761607],[-0.05645833333333338,0.06666666666666667,0.6502999999821242],[-0.08177083333333333,0.05481481481481486,0.66579999998212],[-0.09947916666666666,0.048333333333333374,0.6808999999761625],[-0.1273958333333333,0.06444444444444436,0.7027999999821191],[-0.1877083333333334,0.10222222222222231,0.7172999999821243],[-0.23125,0.07962962962962963,0.730699999988083],[-0.2789583333333333,0.06703703703703712,0.7472999999821255],[-0.34187500000000004,0.09499999999999992,0.7640999999940448],[-0.3907291666666667,0.10481481481481486,0.7810999999940407],[-0.4397916666666667,0.08833333333333342,0.8000999999940461],[-0.44864583333333335,0.09518518518518514,0.8140999999940419],[-0.4102083333333333,0.10185185185185185,0.830899999976161],[-0.36343749999999997,0.09740740740740746,0.8475999999940456],[-0.32218749999999996,0.057037037037036956,0.8661999999880834],[-0.32437499999999997,0.06314814814814819,0.8808999999761582],[-0.32437499999999997,0.06314814814814819,0.8977999999821193],[-0.2741666666666667,0.06537037037037029,0.9166999999880829],[-0.22427083333333328,0.057777777777777865,0.9321999999880859],[-0.17437499999999997,0.05018518518518523,0.9475999999940399],[-0.15229166666666671,0.04259259259259259,0.966099999994043],[-0.11124999999999995,0.03518518518518519,0.9808999999761596],[-0.11124999999999995,0.03518518518518519,0.997699999988086],[-0.06958333333333329,0.03814814814814819,1.0142999999821214],[-0.06958333333333329,0.03814814814814819,1.0345999999940432],[-0.05572916666666667,0.021481481481481525,1.0475999999940413],[-0.05572916666666667,0.021481481481481525,1.0642999999821185],[-0.029375000000000047,-0.006666666666666709,1.086500000000001],[-0.029375000000000047,-0.006666666666666709,1.0977999999821222],[-0.026145833333333358,-0.013333333333333417,1.1142999999821228],[-0.026145833333333358,-0.013333333333333417,1.135799999982119],[0.035416666666666666,-0.0418518518518519,1.1475999999940427],[0.035416666666666666,-0.0418518518518519,1.1641999999880852],[0.026041666666666668,-0.07018518518518514,1.1808999999761625],[0.026041666666666668,-0.07018518518518514,1.2010000000000005],[0.065625,-0.1272222222222222,1.2141999999880824],[0.09072916666666657,-0.18129629629629626,1.2307999999821249],[0.12958333333333344,-0.21722222222222223,1.2475000000000023],[0.13802083333333334,-0.25833333333333336,1.2663999999761586],[0.12854166666666675,-0.28722222222222227,1.2808999999761639],[0.09104166666666676,-0.29962962962962963,1.2993999999761598],[0.03270833333333331,-0.28944444444444445,1.3172999999821187],[0.04874999999999995,-0.33129629629629626,1.3350000000000009],[0.04874999999999995,-0.33129629629629626,1.3473999999761617],[0.05614583333333331,-0.3603703703703704,1.364199999988081],[0.09302083333333329,-0.36518518518518517,1.3855999999940423],[0.08114583333333343,-0.30944444444444447,1.4010999999940452],[0.08375000000000009,-0.2566666666666667,1.417399999976162],[0.07072916666666676,-0.22851851851851848,1.4348999999761602],[0.09520833333333342,-0.1809259259259259,1.4517999999821214],[0.09520833333333342,-0.1809259259259259,1.4640000000000057],[0.1365624999999999,-0.16425925925925924,1.480699999988083],[0.19947916666666668,-0.1588888888888889,1.5003999999761604],[0.23604166666666657,-0.15462962962962962,1.515399999976161],[0.21624999999999991,-0.10925925925925926,1.530799999982122],[0.22291666666666668,-0.08777777777777773,1.5473999999761645],[0.21864583333333343,-0.0868518518518518,1.5645000000000024],[0.23895833333333344,-0.12537037037037035,1.5841999999880798],[0.23270833333333343,-0.172037037037037,1.6012999999821247],[0.24208333333333343,-0.1940740740740741,1.6167999999821205],[0.23624999999999996,-0.2096296296296296,1.6307999999821234],[0.21802083333333327,-0.22962962962962963,1.6473999999761588],[0.24510416666666662,-0.2561111111111111,1.6640999999940433],[0.2985416666666666,-0.2814814814814815,1.6806999999880858],[0.2985416666666666,-0.2814814814814815,1.6975000000000051],[0.29749999999999993,-0.30037037037037034,1.7140999999940405],[0.2931250000000001,-0.30407407407407405,1.730699999988083],[0.28875000000000006,-0.30777777777777776,1.7473999999761602],[0.2868750000000001,-0.32037037037037036,1.764000000000003],[0.3115624999999999,-0.3248148148148148,1.7806999999880802],[0.30187499999999995,-0.31148148148148147,1.7988999999761646],[0.28229166666666666,-0.31962962962962965,1.814099999994042],[0.2856250000000001,-0.307962962962963,1.8306999999880844],[0.2306250000000001,-0.27518518518518525,1.8476999999880803],[0.13947916666666677,-0.20240740740740742,1.8640000000000043],[0.0990624999999999,-0.1346296296296296,1.8845999999940446],[0.0990624999999999,-0.1346296296296296,1.8976999999880846],[0.06666666666666667,-0.1542592592592593,1.9140999999940433],[0.04541666666666669,-0.147037037037037,1.9306999999880858],[0.024687500000000046,-0.12907407407407406,1.947399999976163],[0.003958333333333286,-0.1111111111111111,1.9653999999761638],[0.019270833333333334,-0.1264814814814815,1.9810999999940435],[0.019270833333333334,-0.1264814814814815,1.9975999999940441],[0.033645833333333285,-0.1412962962962963,2.0166999999880844],[0.02833333333333338,-0.1742592592592593,2.030799999982122],[0.02354166666666669,-0.19500000000000003,2.0472999999821226],[0.06447916666666664,-0.27740740740740744,2.064199999988084],[0.13322916666666676,-0.3592592592592593,2.0806999999880844],[0.13322916666666676,-0.3592592592592593,2.100500000000004],[0.1396874999999999,-0.3338888888888889,2.114199999988081],[0.14270833333333333,-0.3309259259259259,2.1306999999880816],[0.13468749999999996,-0.32629629629629625,2.147399999976159],[0.12770833333333323,-0.3344444444444445,2.16579999998212],[0.12614583333333323,-0.3327777777777778,2.180699999988086],[0.12406249999999991,-0.32,2.1977999999821236],[0.13291666666666657,-0.30351851851851847,2.2140999999940405],[0.13760416666666658,-0.3225925925925926,2.230699999988083],[0.1296875,-0.3103703703703704,2.2472999999821255],[0.09895833333333333,-0.2975925925925926,2.2640999999940448],[0.11145833333333334,-0.31611111111111106,2.28069999998808],[0.11645833333333329,-0.3368518518518518,2.2988999999761646],[0.12114583333333329,-0.3424074074074074,2.3152999999821233],[0.11906249999999995,-0.32981481481481484,2.3327999999821216],[0.11906249999999995,-0.32981481481481484,2.3475000000000037],[0.11041666666666666,-0.31851851851851853,2.364099999994046],[0.11041666666666666,-0.31851851851851853,2.3807999999821234],[0.08937499999999995,-0.3122222222222223,2.397399999976159],[0.06656249999999998,-0.3068518518518518,2.4140999999940433],[0.07531249999999995,-0.3,2.430699999988086],[0.08708333333333323,-0.30277777777777776,2.447299999982121],[0.09500000000000004,-0.2898148148148148,2.4642999999821242]]","[0.0002999999821184929,0.03550000000000608,0.05000000000000426,0.066299999982121,0.08079999998211918,0.09769999998808032,0.11419999998808095,0.13400000000000034,0.15050000000000097,0.16550000000000153,0.18069999998808584,0.19750000000000512,0.2140999999940405,0.23079999998212486,0.24739999997616025,0.26409999999404477,0.28069999998808015,0.30050000000000665,0.3143999999761604,0.332599999994045,0.35179999998211997,0.3642999999821228,0.3808999999761582,0.3975999999940427,0.4172999999821201,0.43329999998212543,0.44809999999404226,0.46639999997616144,0.4808999999761596,0.5002999999821185,0.5191999999880821,0.530799999982122,0.5475999999940413,0.5640999999940419,0.5835999999940427,0.6005000000000038,0.6142999999821228,0.6343999999761607,0.6502999999821242,0.66579999998212,0.6808999999761625,0.7027999999821191,0.7172999999821243,0.730699999988083,0.7472999999821255,0.7640999999940448,0.7810999999940407,0.8000999999940461,0.8140999999940419,0.830899999976161,0.8475999999940456,0.8661999999880834,0.8808999999761582,0.8977999999821193,0.9166999999880829,0.9321999999880859,0.9475999999940399,0.966099999994043,0.9808999999761596,0.997699999988086,1.0142999999821214,1.0345999999940432,1.0475999999940413,1.0642999999821185,1.086500000000001,1.0977999999821222,1.1142999999821228,1.135799999982119,1.1475999999940427,1.1641999999880852,1.1808999999761625,1.2010000000000005,1.2141999999880824,1.2307999999821249,1.2475000000000023,1.2663999999761586,1.2808999999761639,1.2993999999761598,1.3172999999821187,1.3350000000000009,1.3473999999761617,1.364199999988081,1.3855999999940423,1.4010999999940452,1.417399999976162,1.4348999999761602,1.4517999999821214,1.4640000000000057,1.480699999988083,1.5003999999761604,1.515399999976161,1.530799999982122,1.5473999999761645,1.5645000000000024,1.5841999999880798,1.6012999999821247,1.6167999999821205,1.6307999999821234,1.6473999999761588,1.6640999999940433,1.6806999999880858,1.6975000000000051,1.7140999999940405,1.730699999988083,1.7473999999761602,1.764000000000003,1.7806999999880802,1.7988999999761646,1.814099999994042,1.8306999999880844,1.8476999999880803,1.8640000000000043,1.8845999999940446,1.8976999999880846,1.9140999999940433,1.9306999999880858,1.947399999976163,1.9653999999761638,1.9810999999940435,1.9975999999940441,2.0166999999880844,2.030799999982122,2.0472999999821226,2.064199999988084,2.0806999999880844,2.100500000000004,2.114199999988081,2.1306999999880816,2.147399999976159,2.16579999998212,2.180699999988086,2.1977999999821236,2.2140999999940405,2.230699999988083,2.2472999999821255,2.2640999999940448,2.28069999998808,2.2988999999761646,2.3152999999821233,2.3327999999821216,2.3475000000000037,2.364099999994046,2.3807999999821234,2.397399999976159,2.4140999999940433,2.430699999988086,2.447299999982121,2.4642999999821242]","[1732776715110,1732776715138,1732776715153,1732776715169,1732776715183,1732776715201,1732776715217,1732776715237,1732776715253,1732776715268,1732776715283,1732776715300,1732776715317,1732776715333,1732776715350,1732776715367,1732776715383,1732776715403,1732776715417,1732776715435,1732776715454,1732776715467,1732776715484,1732776715500,1732776715520,1732776715536,1732776715551,1732776715569,1732776715584,1732776715603,1732776715622,1732776715633,1732776715650,1732776715667,1732776715686,1732776715703,1732776715717,1732776715737,1732776715753,1732776715768,1732776715784,1732776715805,1732776715820,1732776715833,1732776715850,1732776715867,1732776715884,1732776715903,1732776715917,1732776715933,1732776715950,1732776715969,1732776715983,1732776716000,1732776716019,1732776716035,1732776716050,1732776716069,1732776716084,1732776716100,1732776716117,1732776716137,1732776716150,1732776716167,1732776716189,1732776716200,1732776716217,1732776716238,1732776716250,1732776716267,1732776716283,1732776716304,1732776716317,1732776716333,1732776716350,1732776716369,1732776716383,1732776716402,1732776716420,1732776716438,1732776716450,1732776716467,1732776716488,1732776716504,1732776716520,1732776716537,1732776716554,1732776716567,1732776716583,1732776716603,1732776716618,1732776716633,1732776716650,1732776716667,1732776716687,1732776716704,1732776716719,1732776716733,1732776716750,1732776716767,1732776716783,1732776716800,1732776716817,1732776716833,1732776716850,1732776716867,1732776716883,1732776716901,1732776716917,1732776716933,1732776716950,1732776716967,1732776716987,1732776717000,1732776717017,1732776717033,1732776717050,1732776717068,1732776717084,1732776717100,1732776717119,1732776717133,1732776717150,1732776717167,1732776717183,1732776717203,1732776717217,1732776717233,1732776717250,1732776717268,1732776717283,1732776717301,1732776717317,1732776717333,1732776717350,1732776717367,1732776717383,1732776717402,1732776717418,1732776717435,1732776717450,1732776717467,1732776717483,1732776717500,1732776717517,1732776717533,1732776717550,1732776717567]","[[1220.9,765.7],[1191,752.2],[1183,756.3],[1158.6,740.1],[1141.9,733.1],[1141.9,733.1],[1123,724.2],[1117.8,701.9],[1101.9,694.1],[1112.9,681.3],[1096.1,702.7],[1061.6,713.8],[1048.4,695.6],[1037,667.2],[1034.6,662.4],[1043.3,660.1],[1058.9,661.2],[1058.9,661.2],[1030.6,682.6],[1021.6,678.3],[966.1,677.1],[966.1,677.1],[966.1,651],[966.1,651],[937.6,653.3],[911.6,651.5],[887.6,642.6],[844.1,627.4],[816.3,618.9],[781.2,607.5],[789.2,593.6],[789.2,593.6],[799.4,569.4],[835,574.1],[817.8,579.6],[847.9,570],[875.5,564.5],[903.3,573.2],[905.8,576],[881.5,569.6],[864.5,566.1],[837.7,574.8],[779.8,595.2],[738,583],[692.2,576.2],[631.8,591.3],[584.9,596.6],[537.8,587.7],[529.3,591.4],[566.2,595],[611.1,592.6],[650.7,570.8],[648.6,574.1],[648.6,574.1],[696.8,575.3],[744.7,571.2],[792.6,567.1],[813.8,563],[853.2,559],[853.2,559],[893.2,560.6],[893.2,560.6],[906.5,551.6],[906.5,551.6],[931.8,536.4],[931.8,536.4],[934.9,532.8],[934.9,532.8],[994,517.4],[994,517.4],[985,502.1],[985,502.1],[1023,471.3],[1047.1,442.1],[1084.4,422.7],[1092.5,400.5],[1083.4,384.9],[1047.4,378.2],[991.4,383.7],[1006.8,361.1],[1006.8,361.1],[1013.9,345.4],[1049.3,342.8],[1037.9,372.9],[1040.4,401.4],[1027.9,416.6],[1051.4,442.3],[1051.4,442.3],[1091.1,451.3],[1151.5,454.2],[1186.6,456.5],[1167.6,481],[1174,492.6],[1169.9,493.1],[1189.4,472.3],[1183.4,447.1],[1192.4,435.2],[1186.8,426.8],[1169.3,416],[1195.3,401.7],[1246.6,388],[1246.6,388],[1245.6,377.8],[1241.4,375.8],[1237.2,373.8],[1235.4,367],[1259.1,364.6],[1249.8,371.8],[1231,367.4],[1234.2,373.7],[1181.4,391.4],[1093.9,430.7],[1055.1,467.3],[1055.1,467.3],[1024,456.7],[1003.6,460.6],[983.7,470.3],[963.8,480],[978.5,471.7],[978.5,471.7],[992.3,463.7],[987.2,445.9],[982.6,434.7],[1021.9,390.2],[1087.9,346],[1087.9,346],[1094.1,359.7],[1097,361.3],[1089.3,363.8],[1082.6,359.4],[1081.1,360.3],[1079.1,367.2],[1087.6,376.1],[1092.1,365.8],[1084.5,372.4],[1055,379.3],[1067,369.3],[1071.8,358.1],[1076.3,355.1],[1074.3,361.9],[1074.3,361.9],[1066,368],[1066,368],[1045.8,371.4],[1023.9,374.3],[1032.3,378],[1043.6,376.5],[1051.2,383.5]]","[0,0.37864299999999995]","[0.37864299999999995,0.37864299999999995]","[-0.37864299999999995,-0.37864299999999995]","[-0.37864299999999995,0]","[0,-0.37864299999999995]","[0.37864299999999995,-0.37864299999999995]","[0,0]","[0.37864299999999995,0]",0,0,0,0,1,3,Laptop,11,9,9,1
,,,,,,,,,,,,,,,,,,,,34,001,2024-11-28_14h51.09.135,Attention_exp_legacy,2023.1.0,Win32,59.88023952,,,,,,,,,,[0.34479166666666666],[0.40925925925925927],[1],[0],[0],[1.2675999999940402],"[""Option2_label""]",Option2_label,2,2.2831,"[[0.09479166666666666,0.3574074074074074],[0.09479166666666666,0.3574074074074074],[0.09479166666666666,0.3574074074074074],[0.09479166666666666,0.3574074074074074],[0.09479166666666666,0.3574074074074074],[0.09479166666666666,0.3574074074074074],[0.09479166666666666,0.3574074074074074],[0.09479166666666666,0.3574074074074074],[0.09479166666666666,0.3574074074074074],[0.09479166666666666,0.3574074074074074],[0.09479166666666666,0.3574074074074074],[0.09479166666666666,0.3574074074074074],[0.09479166666666666,0.3574074074074074],[0.09270833333333334,0.3574074074074074],[0.09166666666666666,0.35555555555555557],[0.08958333333333333,0.3537037037037037],[0.08854166666666667,0.35185185185185186],[0.08645833333333333,0.35185185185185186],[0.08541666666666667,0.35185185185185186],[0.08541666666666667,0.35185185185185186],[0.08333333333333333,0.35],[0.08229166666666667,0.34814814814814815],[0.08125,0.34629629629629627],[0.08020833333333334,0.34629629629629627],[0.07916666666666666,0.34629629629629627],[0.078125,0.34444444444444444],[0.078125,0.34444444444444444],[0.07604166666666666,0.3425925925925926],[0.07604166666666666,0.3425925925925926],[0.07604166666666666,0.3425925925925926],[0.07604166666666666,0.3425925925925926],[0.075,0.34074074074074073],[0.07395833333333333,0.34074074074074073],[0.071875,0.337037037037037],[0.07083333333333333,0.337037037037037],[0.065625,0.3296296296296296],[0.06145833333333333,0.32407407407407407],[0.05520833333333333,0.31851851851851853],[0.051041666666666666,0.3111111111111111],[0.046875,0.3055555555555556],[0.04375,0.3],[0.041666666666666664,0.29814814814814816],[0.041666666666666664,0.29814814814814816],[0.041666666666666664,0.29814814814814816],[0.041666666666666664,0.29814814814814816],[0.041666666666666664,0.29814814814814816],[0.041666666666666664,0.29814814814814816],[0.041666666666666664,0.29814814814814816],[0.041666666666666664,0.29814814814814816],[0.041666666666666664,0.29814814814814816],[0.041666666666666664,0.29814814814814816],[0.041666666666666664,0.29814814814814816],[0.041666666666666664,0.29814814814814816],[0.041666666666666664,0.29814814814814816],[0.042708333333333334,0.29814814814814816],[0.046875,0.29814814814814816],[0.05416666666666667,0.30185185185185187],[0.06354166666666666,0.30925925925925923],[0.07708333333333334,0.3148148148148148],[0.096875,0.3296296296296296],[0.134375,0.34444444444444444],[0.159375,0.3592592592592593],[0.184375,0.37037037037037035],[0.21145833333333333,0.37592592592592594],[0.23541666666666666,0.3814814814814815],[0.2552083333333333,0.3907407407407407],[0.2760416666666667,0.39444444444444443],[0.29583333333333334,0.4],[0.31145833333333334,0.40370370370370373],[0.32708333333333334,0.4074074074074074],[0.33541666666666664,0.40925925925925927],[0.3385416666666667,0.40925925925925927],[0.34479166666666666,0.40925925925925927],[0.34479166666666666,0.40925925925925927],[0.34479166666666666,0.40925925925925927],[0.34479166666666666,0.40925925925925927],[0.34479166666666666,0.40925925925925927],[0.34479166666666666,0.40925925925925927],[0.34479166666666666,0.40925925925925927],[0.3458333333333333,0.40925925925925927],[0.3458333333333333,0.40925925925925927],[0.3458333333333333,0.40925925925925927],[0.3458333333333333,0.40925925925925927],[0.3458333333333333,0.40925925925925927],[0.3458333333333333,0.40925925925925927],[0.3458333333333333,0.40925925925925927],[0.3458333333333333,0.40925925925925927],[0.3458333333333333,0.40925925925925927],[0.3458333333333333,0.40925925925925927],[0.3458333333333333,0.40925925925925927],[0.3458333333333333,0.40925925925925927],[0.3458333333333333,0.40925925925925927],[0.3458333333333333,0.40925925925925927],[0.3458333333333333,0.40925925925925927],[0.3458333333333333,0.40925925925925927],[0.3458333333333333,0.40925925925925927],[0.3458333333333333,0.40925925925925927],[0.3458333333333333,0.40925925925925927],[0.3458333333333333,0.40925925925925927],[0.3458333333333333,0.40925925925925927],[0.3458333333333333,0.40925925925925927],[0.3458333333333333,0.40925925925925927],[0.3458333333333333,0.40925925925925927],[0.3458333333333333,0.40925925925925927],[0.3458333333333333,0.40925925925925927],[0.3458333333333333,0.40925925925925927],[0.3458333333333333,0.40925925925925927],[0.3458333333333333,0.40925925925925927],[0.3458333333333333,0.40925925925925927],[0.3458333333333333,0.40925925925925927],[0.3458333333333333,0.40925925925925927],[0.3458333333333333,0.40925925925925927],[0.3458333333333333,0.40925925925925927],[0.3458333333333333,0.40925925925925927],[0.3458333333333333,0.40925925925925927],[0.3458333333333333,0.40925925925925927],[0.3458333333333333,0.40925925925925927],[0.3458333333333333,0.40925925925925927],[0.3458333333333333,0.40925925925925927],[0.3458333333333333,0.40925925925925927],[0.3458333333333333,0.40925925925925927],[0.3458333333333333,0.40925925925925927],[0.3458333333333333,0.40925925925925927],[0.3458333333333333,0.40925925925925927],[0.3458333333333333,0.40925925925925927],[0.3458333333333333,0.40925925925925927],[0.3458333333333333,0.40925925925925927],[0.3458333333333333,0.40925925925925927],[0.3458333333333333,0.40925925925925927],[0.3458333333333333,0.40925925925925927],[0.3458333333333333,0.40925925925925927],[0.3458333333333333,0.40925925925925927],[0.3458333333333333,0.40925925925925927],[0.3458333333333333,0.40925925925925927],[0.3458333333333333,0.40925925925925927],[0.3458333333333333,0.40925925925925927],[0.3458333333333333,0.40925925925925927],[0.3458333333333333,0.40925925925925927]]","[[0.034895833333333334,-0.14814814814814814],[0.057291666666666664,-0.13648148148148145],[0.04739583333333333,-0.19444444444444445],[0.058437500000000024,-0.24648148148148152],[0.05,-0.2462962962962963],[0.024374999999999977,-0.2940740740740741],[0.05635416666666669,-0.3133333333333333],[0.05635416666666669,-0.3133333333333333],[0.06041666666666667,-0.3177777777777778],[0.06906249999999996,-0.36277777777777775],[0.11124999999999995,-0.40796296296296297],[0.13135416666666658,-0.45555555555555555],[0.12395833333333334,-0.5346296296296296],[0.12395833333333334,-0.5346296296296296],[0.12406249999999991,-0.47851851851851845],[0.08562500000000005,-0.4455555555555556],[0.06281249999999995,-0.42537037037037034],[0.05166666666666669,-0.4087037037037037],[0.005416666666666714,-0.41444444444444445],[-0.05541666666666671,-0.4190740740740741],[-0.12083333333333333,-0.3831481481481481],[-0.1765625,-0.3611111111111111],[-0.21020833333333327,-0.33666666666666667],[-0.22489583333333332,-0.32111111111111107],[-0.25354166666666667,-0.3522222222222222],[-0.22989583333333338,-0.357962962962963],[-0.22374999999999995,-0.3744444444444444],[-0.21583333333333338,-0.37481481481481477],[-0.16270833333333337,-0.3957407407407407],[-0.09500000000000004,-0.4177777777777778],[-0.09885416666666665,-0.40685185185185185],[-0.1123958333333333,-0.38203703703703706],[-0.07645833333333331,-0.3718518518518519],[-0.07114583333333328,-0.3296296296296296],[-0.05541666666666671,-0.2933333333333333],[-0.06114583333333338,-0.2916666666666667],[-0.05,-0.2687037037037037],[-0.04822916666666662,-0.21277777777777773],[-0.09166666666666666,-0.13629629629629633],[-0.12791666666666662,-0.09000000000000004],[-0.08385416666666666,-0.10462962962962963],[-0.03166666666666664,-0.10499999999999998],[-0.028958333333333287,-0.09074074074074075],[-0.03250000000000005,-0.06833333333333329],[-0.03250000000000005,-0.06833333333333329],[-0.04645833333333336,-0.04000000000000004],[-0.028854166666666715,-0.018518518518518517],[-0.009583333333333381,0.011481481481481566],[0.014374999999999952,0.005000000000000084],[0.03833333333333329,-0.0014814814814813973],[0.0375,0.03944444444444436],[0.02791666666666662,0.10833333333333334],[0.02791666666666662,0.10833333333333334],[0.0296875,0.13703703703703704],[0.014583333333333334,0.18481481481481474],[0.03145833333333338,0.1449999999999999],[0.04833333333333331,0.1051851851851851],[0.05625,0.07759259259259255],[0.06312500000000003,0.03092592592592601],[0.06114583333333338,-0.007962962962962878],[0.06114583333333338,-0.007962962962962878],[0.05916666666666662,-0.04685185185185177],[0.05916666666666662,-0.04685185185185177],[0.06385416666666661,-0.09981481481481477],[0.11666666666666667,-0.18796296296296297],[0.14031250000000003,-0.2490740740740741],[0.17083333333333334,-0.3162962962962963],[0.18083333333333323,-0.30111111111111116],[0.19083333333333338,-0.28592592592592586],[0.20739583333333325,-0.32537037037037037],[0.22395833333333334,-0.3648148148148148],[0.25499999999999995,-0.3912962962962963],[0.2993750000000001,-0.42777777777777776],[0.3367708333333333,-0.4507407407407407],[0.35010416666666655,-0.4396296296296296],[0.37312500000000004,-0.42962962962962964],[0.38791666666666674,-0.4203703703703704],[0.4140625,-0.43574074074074076],[0.45427083333333323,-0.47240740740740744],[0.4683333333333332,-0.45129629629629625],[0.48239583333333325,-0.4301851851851852],[0.4818749999999999,-0.4322222222222222],[0.4680208333333333,-0.4242592592592593],[0.47781250000000003,-0.4207407407407407],[0.4635416666666667,-0.4161111111111111],[0.4743750000000001,-0.4072222222222222],[0.49072916666666655,-0.41703703703703704],[0.4914583333333333,-0.44518518518518513],[0.4716666666666666,-0.43499999999999994],[0.4631249999999999,-0.43203703703703705],[0.45968749999999997,-0.4209259259259259],[0.45968749999999997,-0.4209259259259259],[0.4469791666666666,-0.412962962962963],[0.4469791666666666,-0.412962962962963],[0.43427083333333344,-0.41333333333333333],[0.43427083333333344,-0.41333333333333333],[0.4025000000000001,-0.41444444444444445],[0.4025000000000001,-0.41444444444444445],[0.3788541666666667,-0.425],[0.3788541666666667,-0.425],[0.33177083333333335,-0.4524074074074074],[0.33177083333333335,-0.4524074074074074],[0.3087500000000001,-0.4633333333333333],[0.3087500000000001,-0.4633333333333333],[0.29833333333333345,-0.45185185185185184],[0.30437500000000006,-0.48407407407407405],[0.30135416666666665,-0.5164814814814814],[0.2934375000000001,-0.549074074074074],[0.3084374999999999,-0.5725925925925925],[0.3084374999999999,-0.5725925925925925],[0.33270833333333344,-0.595925925925926],[0.3471874999999999,-0.5955555555555556],[0.3471874999999999,-0.5955555555555556],[0.35354166666666675,-0.5857407407407408],[0.3792708333333332,-0.5912962962962963],[0.3792708333333332,-0.5912962962962963],[0.39041666666666663,-0.6055555555555555],[0.3948958333333332,-0.6087037037037036],[0.39812500000000006,-0.5872222222222223],[0.41427083333333337,-0.5524074074074075],[0.43020833333333336,-0.5255555555555556],[0.41864583333333344,-0.5248148148148147],[0.4117708333333333,-0.5138888888888888],[0.42604166666666665,-0.528888888888889],[0.43250000000000005,-0.5514814814814815],[0.4179166666666667,-0.5461111111111111],[0.40729166666666666,-0.5351851851851852],[0.40729166666666666,-0.5351851851851852],[0.40635416666666657,-0.5394444444444445],[0.41989583333333325,-0.5216666666666666],[0.4205208333333334,-0.5172222222222222],[0.40687499999999993,-0.5162962962962964],[0.42072916666666677,-0.4892592592592592],[0.42072916666666677,-0.4892592592592592],[0.4366666666666667,-0.4727777777777778],[0.4336458333333333,-0.45018518518518524],[0.45041666666666674,-0.4272222222222222],[0.4650000000000001,-0.41574074074074074]]","[[0.034895833333333334,-0.14814814814814814,0.0000999999940418661],[0.057291666666666664,-0.13648148148148145,0.020099999994037887],[0.04739583333333333,-0.19444444444444445,0.03559999999404084],[0.058437500000000024,-0.24648148148148152,0.04979999998212037],[0.05,-0.2462962962962963,0.066299999982121],[0.024374999999999977,-0.2940740740740741,0.0835000000000008],[0.05635416666666669,-0.3133333333333333,0.09969999998808277],[0.05635416666666669,-0.3133333333333333,0.11650000000000205],[0.06041666666666667,-0.3177777777777778,0.13300000000000267],[0.06906249999999996,-0.36277777777777775,0.1497999999821218],[0.11124999999999995,-0.40796296296296297,0.16629999998212242],[0.13135416666666658,-0.45555555555555555,0.18299999999999983],[0.12395833333333334,-0.5346296296296296,0.1996999999880842],[0.12395833333333334,-0.5346296296296296,0.2190000000000012],[0.12406249999999991,-0.47851851851851845,0.23319999998808072],[0.08562500000000005,-0.4455555555555556,0.25039999997616036],[0.06281249999999995,-0.42537037037037034,0.2705999999940403],[0.05166666666666669,-0.4087037037037037,0.2852999999821222],[0.005416666666666714,-0.41444444444444445,0.29989999997616223],[-0.05541666666666671,-0.4190740740740741,0.31869999998808396],[-0.12083333333333333,-0.3831481481481481,0.33529999998211935],[-0.1765625,-0.3611111111111111,0.3497999999821175],[-0.21020833333333327,-0.33666666666666667,0.36650000000000205],[-0.22489583333333332,-0.32111111111111107,0.3831999999880793],[-0.25354166666666667,-0.3522222222222222,0.4029999999999987],[-0.22989583333333338,-0.357962962962963,0.4194999999999993],[-0.22374999999999995,-0.3744444444444444,0.43299999999999983],[-0.21583333333333338,-0.37481481481481477,0.45239999997615854],[-0.16270833333333337,-0.3957407407407407,0.4662999999821196],[-0.09500000000000004,-0.4177777777777778,0.4830000000000041],[-0.09885416666666665,-0.40685185185185185,0.49969999998808134],[-0.1123958333333333,-0.38203703703703706,0.5191999999880821],[-0.07645833333333331,-0.3718518518518519,0.5330999999940431],[-0.07114583333333328,-0.3296296296296296,0.551699999988081],[-0.05541666666666671,-0.2933333333333333,0.5665000000000049],[-0.06114583333333338,-0.2916666666666667,0.5859999999999985],[-0.05,-0.2687037037037037,0.6000999999940433],[-0.04822916666666662,-0.21277777777777773,0.6171999999880811],[-0.09166666666666666,-0.13629629629629633,0.6331999999880793],[-0.12791666666666662,-0.09000000000000004,0.6525000000000034],[-0.08385416666666666,-0.10462962962962963,0.6664999999999992],[-0.03166666666666664,-0.10499999999999998,0.6831999999880836],[-0.028958333333333287,-0.09074074074074075,0.699799999982119],[-0.03250000000000005,-0.06833333333333329,0.7202999999821174],[-0.03250000000000005,-0.06833333333333329,0.7330999999940389],[-0.04645833333333336,-0.04000000000000004,0.7497999999821232],[-0.028854166666666715,-0.018518518518518517,0.7680999999940425],[-0.009583333333333381,0.011481481481481566,0.7872999999821175],[0.014374999999999952,0.005000000000000084,0.8018999999761576],[0.03833333333333329,-0.0014814814814813973,0.8180999999940397],[0.0375,0.03944444444444436,0.8329999999999984],[0.02791666666666662,0.10833333333333334,0.8500000000000014],[0.02791666666666662,0.10833333333333334,0.86639999997616],[0.0296875,0.13703703703703704,0.8830000000000027],[0.014583333333333334,0.18481481481481474,0.9044999999999987],[0.03145833333333338,0.1449999999999999,0.9194999999999993],[0.04833333333333331,0.1051851851851851,0.9335000000000022],[0.05625,0.07759259259259255,0.949799999982119],[0.06312500000000003,0.03092592592592601,0.9685999999940407],[0.06114583333333338,-0.007962962962962878,0.9831999999880807],[0.06114583333333338,-0.007962962962962878,0.9997999999821232],[0.05916666666666662,-0.04685185185185177,1.0165999999940425],[0.05916666666666662,-0.04685185185185177,1.0356999999880827],[0.06385416666666661,-0.09981481481481477,1.0498999999761622],[0.11666666666666667,-0.18796296296296297,1.0665000000000049],[0.14031250000000003,-0.2490740740740741,1.0861999999880823],[0.17083333333333334,-0.3162962962962963,1.1011999999880828],[0.18083333333333323,-0.30111111111111116,1.1170999999940392],[0.19083333333333338,-0.28592592592592586,1.1358999999761608],[0.20739583333333325,-0.32537037037037037,1.1525000000000034],[0.22395833333333334,-0.3648148148148148,1.1678999999761572],[0.25499999999999995,-0.3912962962962963,1.1830999999940417],[0.2993750000000001,-0.42777777777777776,1.2022999999821238],[0.3367708333333333,-0.4507407407407407,1.2195999999940383],[0.35010416666666655,-0.4396296296296296,1.2330999999940389],[0.37312500000000004,-0.42962962962962964,1.2496999999880813],[0.38791666666666674,-0.4203703703703704,1.2693999999761587],[0.4140625,-0.43574074074074076,1.2847999999821198],[0.45427083333333323,-0.47240740740740744,1.2995999999940437],[0.4683333333333332,-0.45129629629629625,1.320199999988084],[0.48239583333333325,-0.4301851851851852,1.3343999999761564],[0.4818749999999999,-0.4322222222222222,1.3500000000000014],[0.4680208333333333,-0.4242592592592593,1.3662999999821182],[0.47781250000000003,-0.4207407407407407,1.3835999999940398],[0.4635416666666667,-0.4161111111111111,1.39969999998808],[0.4743750000000001,-0.4072222222222222,1.4170999999940435],[0.49072916666666655,-0.41703703703703704,1.4335000000000022],[0.4914583333333333,-0.44518518518518513,1.4525999999940424],[0.4716666666666666,-0.43499999999999994,1.46669999998808],[0.4631249999999999,-0.43203703703703705,1.4856999999880784],[0.45968749999999997,-0.4209259259259259,1.4996999999880813],[0.45968749999999997,-0.4209259259259259,1.5165000000000006],[0.4469791666666666,-0.412962962962963,1.5330000000000013],[0.4469791666666666,-0.412962962962963,1.5496999999880785],[0.43427083333333344,-0.41333333333333333,1.566299999982121],[0.43427083333333344,-0.41333333333333333,1.5829999999999984],[0.4025000000000001,-0.41444444444444445,1.5996999999880828],[0.4025000000000001,-0.41444444444444445,1.61639999997616],[0.3788541666666667,-0.425,1.6330000000000027],[0.3788541666666667,-0.425,1.6497999999821218],[0.33177083333333335,-0.4524074074074074,1.6663999999761572],[0.33177083333333335,-0.4524074074074074,1.6829999999999998],[0.3087500000000001,-0.4633333333333333,1.6996999999880842],[0.3087500000000001,-0.4633333333333333,1.7163999999761614],[0.29833333333333345,-0.45185185185185184,1.733000000000004],[0.30437500000000006,-0.48407407407407405,1.7512999999821233],[0.30135416666666665,-0.5164814814814814,1.7662999999821238],[0.2934375000000001,-0.549074074074074,1.7830000000000013],[0.3084374999999999,-0.5725925925925925,1.7995999999940437],[0.3084374999999999,-0.5725925925925925,1.8165000000000049],[0.33270833333333344,-0.595925925925926,1.8330999999940403],[0.3471874999999999,-0.5955555555555556,1.852599999994041],[0.3471874999999999,-0.5955555555555556,1.86639999997616],[0.35354166666666675,-0.5857407407407408,1.8830000000000027],[0.3792708333333332,-0.5912962962962963,1.9055000000000035],[0.3792708333333332,-0.5912962962962963,1.9163999999761572],[0.39041666666666663,-0.6055555555555555,1.9329999999999998],[0.3948958333333332,-0.6087037037037036,1.9496999999880842],[0.39812500000000006,-0.5872222222222223,1.9665000000000035],[0.41427083333333337,-0.5524074074074075,1.983000000000004],[0.43020833333333336,-0.5255555555555556,1.9996999999880813],[0.41864583333333344,-0.5248148148148147,2.0180999999940425],[0.4117708333333333,-0.5138888888888888,2.0343999999761593],[0.42604166666666665,-0.528888888888889,2.0496999999880785],[0.43250000000000005,-0.5514814814814815,2.067699999988079],[0.4179166666666667,-0.5461111111111111,2.083500000000001],[0.40729166666666666,-0.5351851851851852,2.099599999994041],[0.40729166666666666,-0.5351851851851852,2.11639999997616],[0.40635416666666657,-0.5394444444444445,2.1328999999761606],[0.41989583333333325,-0.5216666666666666,2.1521999999880776],[0.4205208333333334,-0.5172222222222222,2.166499999999999],[0.40687499999999993,-0.5162962962962964,2.1831999999880836],[0.42072916666666677,-0.4892592592592592,2.199699999988084],[0.42072916666666677,-0.4892592592592592,2.2165000000000035],[0.4366666666666667,-0.4727777777777778,2.233000000000004],[0.4336458333333333,-0.45018518518518524,2.2495999999940395],[0.45041666666666674,-0.4272222222222222,2.2663999999761586],[0.4650000000000001,-0.41574074074074074,2.283099999994043]]","[0.0000999999940418661,0.020099999994037887,0.03559999999404084,0.04979999998212037,0.066299999982121,0.0835000000000008,0.09969999998808277,0.11650000000000205,0.13300000000000267,0.1497999999821218,0.16629999998212242,0.18299999999999983,0.1996999999880842,0.2190000000000012,0.23319999998808072,0.25039999997616036,0.2705999999940403,0.2852999999821222,0.29989999997616223,0.31869999998808396,0.33529999998211935,0.3497999999821175,0.36650000000000205,0.3831999999880793,0.4029999999999987,0.4194999999999993,0.43299999999999983,0.45239999997615854,0.4662999999821196,0.4830000000000041,0.49969999998808134,0.5191999999880821,0.5330999999940431,0.551699999988081,0.5665000000000049,0.5859999999999985,0.6000999999940433,0.6171999999880811,0.6331999999880793,0.6525000000000034,0.6664999999999992,0.6831999999880836,0.699799999982119,0.7202999999821174,0.7330999999940389,0.7497999999821232,0.7680999999940425,0.7872999999821175,0.8018999999761576,0.8180999999940397,0.8329999999999984,0.8500000000000014,0.86639999997616,0.8830000000000027,0.9044999999999987,0.9194999999999993,0.9335000000000022,0.949799999982119,0.9685999999940407,0.9831999999880807,0.9997999999821232,1.0165999999940425,1.0356999999880827,1.0498999999761622,1.0665000000000049,1.0861999999880823,1.1011999999880828,1.1170999999940392,1.1358999999761608,1.1525000000000034,1.1678999999761572,1.1830999999940417,1.2022999999821238,1.2195999999940383,1.2330999999940389,1.2496999999880813,1.2693999999761587,1.2847999999821198,1.2995999999940437,1.320199999988084,1.3343999999761564,1.3500000000000014,1.3662999999821182,1.3835999999940398,1.39969999998808,1.4170999999940435,1.4335000000000022,1.4525999999940424,1.46669999998808,1.4856999999880784,1.4996999999880813,1.5165000000000006,1.5330000000000013,1.5496999999880785,1.566299999982121,1.5829999999999984,1.5996999999880828,1.61639999997616,1.6330000000000027,1.6497999999821218,1.6663999999761572,1.6829999999999998,1.6996999999880842,1.7163999999761614,1.733000000000004,1.7512999999821233,1.7662999999821238,1.7830000000000013,1.7995999999940437,1.8165000000000049,1.8330999999940403,1.852599999994041,1.86639999997616,1.8830000000000027,1.9055000000000035,1.9163999999761572,1.9329999999999998,1.9496999999880842,1.9665000000000035,1.983000000000004,1.9996999999880813,2.0180999999940425,2.0343999999761593,2.0496999999880785,2.067699999988079,2.083500000000001,2.099599999994041,2.11639999997616,2.1328999999761606,2.1521999999880776,2.166499999999999,2.1831999999880836,2.199699999988084,2.2165000000000035,2.233000000000004,2.2495999999940395,2.2663999999761586,2.283099999994043]","[1732776718585,1732776718604,1732776718619,1732776718633,1732776718650,1732776718667,1732776718683,1732776718700,1732776718717,1732776718733,1732776718750,1732776718767,1732776718783,1732776718803,1732776718817,1732776718834,1732776718854,1732776718869,1732776718883,1732776718902,1732776718919,1732776718933,1732776718950,1732776718967,1732776718987,1732776719003,1732776719017,1732776719036,1732776719050,1732776719067,1732776719083,1732776719103,1732776719117,1732776719135,1732776719150,1732776719170,1732776719184,1732776719201,1732776719217,1732776719236,1732776719250,1732776719267,1732776719283,1732776719304,1732776719317,1732776719333,1732776719352,1732776719371,1732776719386,1732776719402,1732776719417,1732776719434,1732776719450,1732776719467,1732776719488,1732776719503,1732776719517,1732776719533,1732776719552,1732776719567,1732776719583,1732776719600,1732776719619,1732776719634,1732776719650,1732776719670,1732776719685,1732776719701,1732776719719,1732776719736,1732776719752,1732776719767,1732776719786,1732776719803,1732776719817,1732776719833,1732776719853,1732776719868,1732776719883,1732776719904,1732776719918,1732776719934,1732776719950,1732776719967,1732776719983,1732776720001,1732776720017,1732776720036,1732776720050,1732776720069,1732776720083,1732776720100,1732776720117,1732776720133,1732776720150,1732776720167,1732776720183,1732776720200,1732776720217,1732776720233,1732776720250,1732776720267,1732776720283,1732776720300,1732776720317,1732776720335,1732776720350,1732776720367,1732776720383,1732776720400,1732776720417,1732776720436,1732776720450,1732776720467,1732776720489,1732776720500,1732776720517,1732776720533,1732776720550,1732776720567,1732776720583,1732776720602,1732776720618,1732776720633,1732776720651,1732776720667,1732776720683,1732776720700,1732776720717,1732776720736,1732776720750,1732776720767,1732776720783,1732776720800,1732776720817,1732776720833,1732776720850,1732776720867]","[[993.5,460],[1015,466.3],[1005.5,435],[1016.1,406.9],[1008,407],[983.4,381.2],[1014.1,370.8],[1014.1,370.8],[1018,368.4],[1026.3,344.1],[1066.8,319.7],[1086.1,294],[1079,251.3],[1079,251.3],[1079.1,281.6],[1042.2,299.4],[1020.3,310.3],[1009.6,319.3],[965.2,316.2],[906.8,313.7],[844,333.1],[790.5,345],[758.2,358.2],[744.1,366.6],[716.6,349.8],[739.3,346.7],[745.2,337.8],[752.8,337.6],[803.8,326.3],[868.8,314.4],[865.1,320.3],[852.1,333.7],[886.6,339.2],[891.7,362],[906.8,381.6],[901.3,382.5],[912,394.9],[913.7,425.1],[872,466.4],[837.2,491.4],[879.5,483.5],[929.6,483.3],[932.2,491],[928.8,503.1],[928.8,503.1],[915.4,518.4],[932.3,530],[950.8,546.2],[973.8,542.7],[996.8,539.2],[996,561.3],[986.8,598.5],[986.8,598.5],[988.5,614],[974,639.8],[990.2,618.3],[1006.4,596.8],[1014,581.9],[1020.6,556.7],[1018.7,535.7],[1018.7,535.7],[1016.8,514.7],[1016.8,514.7],[1021.3,486.1],[1072,438.5],[1094.7,405.5],[1124,369.2],[1133.6,377.4],[1143.2,385.6],[1159.1,364.3],[1175,343],[1204.8,328.7],[1247.4,309],[1283.3,296.6],[1296.1,302.6],[1318.2,308],[1332.4,313],[1357.5,304.7],[1396.1,284.9],[1409.6,296.3],[1423.1,307.7],[1422.6,306.6],[1409.3,310.9],[1418.7,312.8],[1405,315.3],[1415.4,320.1],[1431.1,314.8],[1431.8,299.6],[1412.8,305.1],[1404.6,306.7],[1401.3,312.7],[1401.3,312.7],[1389.1,317],[1389.1,317],[1376.9,316.8],[1376.9,316.8],[1346.4,316.2],[1346.4,316.2],[1323.7,310.5],[1323.7,310.5],[1278.5,295.7],[1278.5,295.7],[1256.4,289.8],[1256.4,289.8],[1246.4,296],[1252.2,278.6],[1249.3,261.1],[1241.7,243.5],[1256.1,230.8],[1256.1,230.8],[1279.4,218.2],[1293.3,218.4],[1293.3,218.4],[1299.4,223.7],[1324.1,220.7],[1324.1,220.7],[1334.8,213],[1339.1,211.3],[1342.2,222.9],[1357.7,241.7],[1373,256.2],[1361.9,256.6],[1355.3,262.5],[1369,254.4],[1375.2,242.2],[1361.2,245.1],[1351,251],[1351,251],[1350.1,248.7],[1363.1,258.3],[1363.7,260.7],[1350.6,261.2],[1363.9,275.8],[1363.9,275.8],[1379.2,284.7],[1376.3,296.9],[1392.4,309.3],[1406.4,315.5]]","[0,0.37864299999999995]","[0.37864299999999995,0.37864299999999995]","[-0.37864299999999995,0]","[-0.37864299999999995,-0.37864299999999995]","[0,0]","[0.37864299999999995,0]","[0,-0.37864299999999995]","[0.37864299999999995,-0.37864299999999995]",0,1,1,1,1,3,Laptop,5,5,13,7
,,,,,,,,,,,,,,,,,,,,34,001,2024-11-28_14h51.09.135,Attention_exp_legacy,2023.1.0,Win32,59.88023952,,,,,,,,,,"[0.21354166666666666,0.25833333333333336]","[0.3925925925925926,0.39444444444444443]","[1,1]","[0,0]","[0,0]","[0.9316999999880764,1.331699999988082]","[""Option2_label"",""Option2_label""]",Option2_label,3,1.9484,"[[0.340625,0.40925925925925927],[0.340625,0.40925925925925927],[0.340625,0.40925925925925927],[0.340625,0.40925925925925927],[0.340625,0.40925925925925927],[0.340625,0.40925925925925927],[0.340625,0.40925925925925927],[0.340625,0.40925925925925927],[0.340625,0.40925925925925927],[0.340625,0.40925925925925927],[0.340625,0.40925925925925927],[0.340625,0.40925925925925927],[0.340625,0.40925925925925927],[0.340625,0.40925925925925927],[0.340625,0.40925925925925927],[0.340625,0.40925925925925927],[0.340625,0.40925925925925927],[0.340625,0.40925925925925927],[0.340625,0.40925925925925927],[0.340625,0.40925925925925927],[0.340625,0.40925925925925927],[0.340625,0.40925925925925927],[0.340625,0.40925925925925927],[0.340625,0.40925925925925927],[0.340625,0.40925925925925927],[0.340625,0.40925925925925927],[0.340625,0.40925925925925927],[0.340625,0.40925925925925927],[0.340625,0.40925925925925927],[0.340625,0.40925925925925927],[0.340625,0.40925925925925927],[0.340625,0.40925925925925927],[0.340625,0.40925925925925927],[0.340625,0.40925925925925927],[0.340625,0.40925925925925927],[0.33645833333333336,0.4074074074074074],[0.325,0.40370370370370373],[0.31145833333333334,0.4],[0.2947916666666667,0.39814814814814814],[0.2760416666666667,0.3925925925925926],[0.25833333333333336,0.3925925925925926],[0.24270833333333333,0.3925925925925926],[0.22916666666666666,0.3925925925925926],[0.21666666666666667,0.3925925925925926],[0.215625,0.3925925925925926],[0.21354166666666666,0.3925925925925926],[0.21354166666666666,0.3925925925925926],[0.21354166666666666,0.3925925925925926],[0.21354166666666666,0.3925925925925926],[0.21354166666666666,0.3925925925925926],[0.21354166666666666,0.3925925925925926],[0.21354166666666666,0.3925925925925926],[0.21354166666666666,0.3925925925925926],[0.21354166666666666,0.3925925925925926],[0.21354166666666666,0.3925925925925926],[0.21354166666666666,0.3925925925925926],[0.21354166666666666,0.3925925925925926],[0.21354166666666666,0.3925925925925926],[0.21354166666666666,0.3925925925925926],[0.21354166666666666,0.3925925925925926],[0.21354166666666666,0.3925925925925926],[0.21354166666666666,0.3925925925925926],[0.21354166666666666,0.3925925925925926],[0.21354166666666666,0.3925925925925926],[0.21354166666666666,0.3925925925925926],[0.21354166666666666,0.3925925925925926],[0.21354166666666666,0.3925925925925926],[0.21979166666666666,0.3925925925925926],[0.22708333333333333,0.3925925925925926],[0.23541666666666666,0.3925925925925926],[0.23958333333333334,0.39444444444444443],[0.24479166666666666,0.39444444444444443],[0.246875,0.39444444444444443],[0.25,0.39444444444444443],[0.253125,0.39444444444444443],[0.25729166666666664,0.39444444444444443],[0.25833333333333336,0.39444444444444443],[0.25833333333333336,0.39444444444444443],[0.25833333333333336,0.39444444444444443],[0.25833333333333336,0.39444444444444443],[0.25833333333333336,0.39444444444444443],[0.25833333333333336,0.39444444444444443],[0.25833333333333336,0.39444444444444443],[0.25833333333333336,0.39444444444444443],[0.25833333333333336,0.39444444444444443],[0.25833333333333336,0.39444444444444443],[0.25833333333333336,0.39444444444444443],[0.25833333333333336,0.39444444444444443],[0.25833333333333336,0.39444444444444443],[0.25833333333333336,0.39444444444444443],[0.25833333333333336,0.39444444444444443],[0.25833333333333336,0.39444444444444443],[0.25833333333333336,0.39444444444444443],[0.25833333333333336,0.39444444444444443],[0.25833333333333336,0.39444444444444443],[0.25833333333333336,0.39444444444444443],[0.25833333333333336,0.39444444444444443],[0.25833333333333336,0.39444444444444443],[0.25833333333333336,0.39444444444444443],[0.25833333333333336,0.39444444444444443],[0.25833333333333336,0.39444444444444443],[0.25833333333333336,0.39444444444444443],[0.25833333333333336,0.39444444444444443],[0.25833333333333336,0.39444444444444443],[0.25833333333333336,0.39444444444444443],[0.25833333333333336,0.39444444444444443],[0.25833333333333336,0.39444444444444443],[0.25833333333333336,0.39444444444444443],[0.25833333333333336,0.39444444444444443],[0.25833333333333336,0.39444444444444443],[0.25833333333333336,0.39444444444444443],[0.25833333333333336,0.39444444444444443],[0.25833333333333336,0.39444444444444443],[0.25833333333333336,0.39444444444444443],[0.25833333333333336,0.39444444444444443],[0.25833333333333336,0.39444444444444443],[0.25833333333333336,0.39444444444444443],[0.25833333333333336,0.39444444444444443]]","[[-0.3706249999999999,0.17629629629629637],[-0.40385416666666674,0.1633333333333334],[-0.4370833333333334,0.15037037037037046],[-0.46927083333333336,0.15537037037037033],[-0.46927083333333336,0.15537037037037033],[-0.4736458333333333,0.16314814814814818],[-0.4736458333333333,0.16314814814814818],[-0.48114583333333333,0.21481481481481482],[-0.5117708333333334,0.23148148148148148],[-0.5117708333333334,0.23148148148148148],[-0.5229166666666667,0.22962962962962963],[-0.56625,0.2418518518518519],[-0.5869791666666667,0.25037037037037047],[-0.6077083333333333,0.2588888888888888],[-0.6077083333333333,0.2588888888888888],[-0.6054166666666667,0.2462962962962963],[-0.6054166666666667,0.2462962962962963],[-0.5880208333333333,0.256111111111111],[-0.5639583333333333,0.2646296296296296],[-0.5639583333333333,0.2646296296296296],[-0.5736458333333334,0.23370370370370377],[-0.5736458333333334,0.23370370370370377],[-0.5586458333333333,0.22907407407407415],[-0.5586458333333333,0.22907407407407415],[-0.5578125,0.2455555555555556],[-0.5578125,0.2455555555555556],[-0.5171875,0.2831481481481481],[-0.5171875,0.2831481481481481],[-0.4413541666666667,0.27981481481481485],[-0.3766666666666667,0.27759259259259256],[-0.3242708333333333,0.29499999999999993],[-0.27708333333333335,0.3087037037037038],[-0.2367708333333333,0.3162962962962962],[-0.203125,0.32518518518518524],[-0.16447916666666665,0.36814814814814806],[-0.10510416666666664,0.35240740740740734],[-0.10510416666666664,0.35240740740740734],[-0.025,0.27388888888888885],[-0.013125000000000024,0.23444444444444448],[0.013854166666666619,0.22296296296296292],[0.024791666666666618,0.19148148148148145],[0.04802083333333336,0.14037037037037028],[0.0912499999999999,0.09055555555555551],[0.1209374999999999,0.004259259259259175],[0.1506249999999999,-0.08203703703703706],[0.18979166666666672,-0.14388888888888887],[0.20302083333333343,-0.20314814814814813],[0.23854166666666668,-0.22925925925925927],[0.2830208333333334,-0.297037037037037],[0.2916666666666667,-0.36277777777777775],[0.2916666666666667,-0.36277777777777775],[0.32041666666666657,-0.40981481481481485],[0.34874999999999995,-0.4601851851851852],[0.35697916666666674,-0.48944444444444446],[0.3553124999999999,-0.4927777777777778],[0.36916666666666675,-0.5029629629629631],[0.36916666666666675,-0.5029629629629631],[0.3889583333333334,-0.5507407407407408],[0.3897916666666667,-0.5481481481481482],[0.3642708333333334,-0.5346296296296296],[0.34697916666666656,-0.5537037037037037],[0.3355208333333332,-0.5403703703703704],[0.3355208333333332,-0.5403703703703704],[0.33645833333333336,-0.5242592592592593],[0.3223958333333333,-0.5140740740740741],[0.3094791666666666,-0.509074074074074],[0.30666666666666675,-0.4987037037037037],[0.30666666666666675,-0.4987037037037037],[0.2916666666666667,-0.4818518518518518],[0.2634375000000001,-0.45481481481481484],[0.26437499999999997,-0.46296296296296297],[0.26437499999999997,-0.46296296296296297],[0.2462500000000001,-0.4625925925925926],[0.24375,-0.422037037037037],[0.24375,-0.422037037037037],[0.24343750000000006,-0.4233333333333334],[0.24187500000000003,-0.41629629629629633],[0.2557291666666667,-0.4],[0.26104166666666656,-0.4057407407407408],[0.27145833333333325,-0.4225925925925926],[0.28135416666666657,-0.4311111111111111],[0.2900000000000001,-0.43407407407407406],[0.2986458333333334,-0.42592592592592593],[0.31145833333333334,-0.43388888888888894],[0.31791666666666674,-0.4474074074074075],[0.33354166666666674,-0.4553703703703703],[0.33354166666666674,-0.4553703703703703],[0.3467708333333334,-0.4777777777777778],[0.3242708333333333,-0.48462962962962963],[0.3103125000000001,-0.46944444444444444],[0.3147916666666667,-0.4777777777777778],[0.3085416666666667,-0.4883333333333333],[0.3085416666666667,-0.4883333333333333],[0.31260416666666657,-0.462037037037037],[0.28958333333333336,-0.45740740740740743],[0.28958333333333336,-0.45740740740740743],[0.26677083333333323,-0.44462962962962965],[0.26677083333333323,-0.44462962962962965],[0.2491666666666667,-0.4375925925925926],[0.2381249999999999,-0.4038888888888889],[0.21447916666666675,-0.37],[0.2265625,-0.3516666666666666],[0.24656250000000005,-0.36314814814814816],[0.23291666666666658,-0.3464814814814815],[0.23291666666666658,-0.3464814814814815],[0.23333333333333334,-0.3277777777777778],[0.22302083333333325,-0.34888888888888886],[0.2397916666666667,-0.3594444444444445],[0.2704166666666666,-0.3581481481481481],[0.2783333333333334,-0.3531481481481481],[0.2783333333333334,-0.3531481481481481],[0.2916666666666667,-0.39666666666666667],[0.29229166666666656,-0.4331481481481481],[0.2929166666666667,-0.4696296296296297],[0.2939583333333334,-0.4612962962962963],[0.3102083333333333,-0.45759259259259266],[0.3102083333333333,-0.45759259259259266],[0.2877083333333334,-0.3983333333333334]]","[[-0.3706249999999999,0.17629629629629637,0.0000999999940418661],[-0.40385416666666674,0.1633333333333334,0.018799999982121562],[-0.4370833333333334,0.15037037037037046,0.03519999998808032],[-0.46927083333333336,0.15537037037037033,0.05419999998807867],[-0.46927083333333336,0.15537037037037033,0.07249999999999801],[-0.4736458333333333,0.16314814814814818,0.089399999976159],[-0.4736458333333333,0.16314814814814818,0.09850000000000136],[-0.48114583333333333,0.21481481481481482,0.11519999998807862],[-0.5117708333333334,0.23148148148148148,0.13519999998808174],[-0.5117708333333334,0.23148148148148148,0.14849999999999852],[-0.5229166666666667,0.22962962962962963,0.16519999998808288],[-0.56625,0.2418518518518519,0.18179999998211827],[-0.5869791666666667,0.25037037037037047,0.19889999997615604],[-0.6077083333333333,0.2588888888888888,0.21519999998808004],[-0.6077083333333333,0.2588888888888888,0.23209999999404118],[-0.6054166666666667,0.2462962962962963,0.24849999999999994],[-0.6054166666666667,0.2462962962962963,0.26509999999404243],[-0.5880208333333333,0.256111111111111,0.28189999997616155],[-0.5639583333333333,0.2646296296296296,0.30569999998807873],[-0.5639583333333333,0.2646296296296296,0.31519999998808146],[-0.5736458333333334,0.23370370370370377,0.33200000000000074],[-0.5736458333333334,0.23370370370370377,0.34850000000000136],[-0.5586458333333333,0.22907407407407415,0.3651999999880786],[-0.5586458333333333,0.22907407407407415,0.3817999999821211],[-0.5578125,0.2455555555555556,0.3983999999761565],[-0.5578125,0.2455555555555556,0.415099999994041],[-0.5171875,0.2831481481481481,0.43189999997616013],[-0.5171875,0.2831481481481481,0.4485000000000028],[-0.4413541666666667,0.27981481481481485,0.46519999998808004],[-0.3766666666666667,0.27759259259259256,0.48179999998212253],[-0.3242708333333333,0.29499999999999993,0.4983999999761579],[-0.27708333333333335,0.3087037037037038,0.5151999999880772],[-0.2367708333333333,0.3162962962962962,0.5341999999880827],[-0.203125,0.32518518518518524,0.5483999999761551],[-0.16447916666666665,0.36814814814814806,0.5678999999761558],[-0.10510416666666664,0.35240740740740734,0.5868999999761613],[-0.10510416666666664,0.35240740740740734,0.598699999988078],[-0.025,0.27388888888888885,0.6154999999999973],[-0.013125000000000024,0.23444444444444448,0.6319999999999979],[0.013854166666666619,0.22296296296296292,0.6506999999880776],[0.024791666666666618,0.19148148148148145,0.6652999999821176],[0.04802083333333336,0.14037037037037028,0.6818999999761601],[0.0912499999999999,0.09055555555555551,0.701299999982119],[0.1209374999999999,0.004259259259259175,0.715899999976159],[0.1506249999999999,-0.08203703703703706,0.7320999999940412],[0.18979166666666672,-0.14388888888888887,0.7518999999761604],[0.20302083333333343,-0.20314814814814813,0.7671999999880796],[0.23854166666666668,-0.22925925925925927,0.7817999999821197],[0.2830208333333334,-0.297037037037037,0.7984999999999971],[0.2916666666666667,-0.36277777777777775,0.8151999999880815],[0.2916666666666667,-0.36277777777777775,0.8318999999761587],[0.32041666666666657,-0.40981481481481485,0.8483999999761593],[0.34874999999999995,-0.4601851851851852,0.8653999999761552],[0.35697916666666674,-0.48944444444444446,0.8818999999761559],[0.3553124999999999,-0.4927777777777778,0.8984999999999985],[0.36916666666666675,-0.5029629629629631,0.915099999994041],[0.36916666666666675,-0.5029629629629631,0.9323999999761554],[0.3889583333333334,-0.5507407407407408,0.9485000000000028],[0.3897916666666667,-0.5481481481481482,0.9652999999821219],[0.3642708333333334,-0.5346296296296296,0.9818999999761573],[0.34697916666666656,-0.5537037037037037,0.9983999999761579],[0.3355208333333332,-0.5403703703703704,1.0150999999940424],[0.3355208333333332,-0.5403703703703704,1.0320000000000036],[0.33645833333333336,-0.5242592592592593,1.048499999999997],[0.3223958333333333,-0.5140740740740741,1.0655000000000001],[0.3094791666666666,-0.509074074074074,1.0817999999821168],[0.30666666666666675,-0.4987037037037037,1.0985000000000014],[0.30666666666666675,-0.4987037037037037,1.1174999999999997],[0.2916666666666667,-0.4818518518518518,1.1320999999940398],[0.2634375000000001,-0.45481481481481484,1.1492999999821194],[0.26437499999999997,-0.46296296296296297,1.1708999999761573],[0.26437499999999997,-0.46296296296296297,1.1818999999761601],[0.2462500000000001,-0.4625925925925926,1.1985999999940375],[0.24375,-0.422037037037037,1.21519999998808],[0.24375,-0.422037037037037,1.235999999999997],[0.24343750000000006,-0.4233333333333334,1.2485999999940418],[0.24187500000000003,-0.41629629629629633,1.265299999982119],[0.2557291666666667,-0.4,1.2842999999821174],[0.26104166666666656,-0.4057407407407408,1.298499999999997],[0.27145833333333325,-0.4225925925925926,1.3150999999940396],[0.28135416666666657,-0.4311111111111111,1.332399999976161],[0.2900000000000001,-0.43407407407407406,1.3485000000000014],[0.2986458333333334,-0.42592592592592593,1.3650999999940368],[0.31145833333333334,-0.43388888888888894,1.381799999982121],[0.31791666666666674,-0.4474074074074075,1.3984999999999985],[0.33354166666666674,-0.4553703703703703,1.4151999999880829],[0.33354166666666674,-0.4553703703703703,1.4317999999821183],[0.3467708333333334,-0.4777777777777778,1.4485000000000028],[0.3242708333333333,-0.48462962962962963,1.4650999999940382],[0.3103125000000001,-0.46944444444444444,1.4817999999821225],[0.3147916666666667,-0.4777777777777778,1.4985],[0.3085416666666667,-0.4883333333333333,1.5150999999940424],[0.3085416666666667,-0.4883333333333333,1.5318999999761616],[0.31260416666666657,-0.462037037037037,1.548499999999997],[0.28958333333333336,-0.45740740740740743,1.5691999999880792],[0.28958333333333336,-0.45740740740740743,1.5818999999761587],[0.26677083333333323,-0.44462962962962965,1.5985000000000014],[0.26677083333333323,-0.44462962962962965,1.6151999999880786],[0.2491666666666667,-0.4375925925925926,1.6318999999761559],[0.2381249999999999,-0.4038888888888889,1.6484999999999985],[0.21447916666666675,-0.37,1.6651999999880829],[0.2265625,-0.3516666666666666,1.6817999999821183],[0.24656250000000005,-0.36314814814814816,1.6985000000000028],[0.23291666666666658,-0.3464814814814815,1.7150999999940382],[0.23291666666666658,-0.3464814814814815,1.7319999999999993],[0.23333333333333334,-0.3277777777777778,1.748500000000007],[0.22302083333333325,-0.34888888888888886,1.766799999982112],[0.2397916666666667,-0.3594444444444445,1.7817999999821126],[0.2704166666666666,-0.3581481481481481,1.7990000000000066],[0.2783333333333334,-0.3531481481481481,1.8153999999761652],[0.2783333333333334,-0.3531481481481481,1.8319999999999936],[0.2916666666666667,-0.39666666666666667,1.8485000000000014],[0.29229166666666656,-0.4331481481481481,1.8653999999761623],[0.2929166666666667,-0.4696296296296297,1.8816999999880863],[0.2939583333333334,-0.4612962962962963,1.8985999999940333],[0.3102083333333333,-0.45759259259259266,1.9151999999880758],[0.3102083333333333,-0.45759259259259266,1.931899999976153],[0.2877083333333334,-0.3983333333333334,1.9483999999761608]]","[0.0000999999940418661,0.018799999982121562,0.03519999998808032,0.05419999998807867,0.07249999999999801,0.089399999976159,0.09850000000000136,0.11519999998807862,0.13519999998808174,0.14849999999999852,0.16519999998808288,0.18179999998211827,0.19889999997615604,0.21519999998808004,0.23209999999404118,0.24849999999999994,0.26509999999404243,0.28189999997616155,0.30569999998807873,0.31519999998808146,0.33200000000000074,0.34850000000000136,0.3651999999880786,0.3817999999821211,0.3983999999761565,0.415099999994041,0.43189999997616013,0.4485000000000028,0.46519999998808004,0.48179999998212253,0.4983999999761579,0.5151999999880772,0.5341999999880827,0.5483999999761551,0.5678999999761558,0.5868999999761613,0.598699999988078,0.6154999999999973,0.6319999999999979,0.6506999999880776,0.6652999999821176,0.6818999999761601,0.701299999982119,0.715899999976159,0.7320999999940412,0.7518999999761604,0.7671999999880796,0.7817999999821197,0.7984999999999971,0.8151999999880815,0.8318999999761587,0.8483999999761593,0.8653999999761552,0.8818999999761559,0.8984999999999985,0.915099999994041,0.9323999999761554,0.9485000000000028,0.9652999999821219,0.9818999999761573,0.9983999999761579,1.0150999999940424,1.0320000000000036,1.048499999999997,1.0655000000000001,1.0817999999821168,1.0985000000000014,1.1174999999999997,1.1320999999940398,1.1492999999821194,1.1708999999761573,1.1818999999761601,1.1985999999940375,1.21519999998808,1.235999999999997,1.2485999999940418,1.265299999982119,1.2842999999821174,1.298499999999997,1.3150999999940396,1.332399999976161,1.3485000000000014,1.3650999999940368,1.381799999982121,1.3984999999999985,1.4151999999880829,1.4317999999821183,1.4485000000000028,1.4650999999940382,1.4817999999821225,1.4985,1.5150999999940424,1.5318999999761616,1.548499999999997,1.5691999999880792,1.5818999999761587,1.5985000000000014,1.6151999999880786,1.6318999999761559,1.6484999999999985,1.6651999999880829,1.6817999999821183,1.6985000000000028,1.7150999999940382,1.7319999999999993,1.748500000000007,1.766799999982112,1.7817999999821126,1.7990000000000066,1.8153999999761652,1.8319999999999936,1.8485000000000014,1.8653999999761623,1.8816999999880863,1.8985999999940333,1.9151999999880758,1.931899999976153,1.9483999999761608]","[1732776721869,1732776721887,1732776721903,1732776721922,1732776721941,1732776721958,1732776721967,1732776721983,1732776722003,1732776722017,1732776722033,1732776722050,1732776722067,1732776722083,1732776722100,1732776722117,1732776722133,1732776722150,1732776722174,1732776722183,1732776722200,1732776722217,1732776722233,1732776722250,1732776722267,1732776722283,1732776722300,1732776722317,1732776722333,1732776722350,1732776722367,1732776722383,1732776722402,1732776722417,1732776722436,1732776722455,1732776722467,1732776722484,1732776722500,1732776722519,1732776722533,1732776722550,1732776722569,1732776722584,1732776722600,1732776722620,1732776722635,1732776722650,1732776722667,1732776722683,1732776722700,1732776722717,1732776722733,1732776722750,1732776722767,1732776722783,1732776722801,1732776722817,1732776722833,1732776722850,1732776722867,1732776722883,1732776722900,1732776722917,1732776722934,1732776722950,1732776722967,1732776722986,1732776723000,1732776723017,1732776723039,1732776723050,1732776723067,1732776723083,1732776723104,1732776723117,1732776723133,1732776723152,1732776723167,1732776723183,1732776723201,1732776723217,1732776723233,1732776723250,1732776723267,1732776723283,1732776723300,1732776723317,1732776723333,1732776723350,1732776723367,1732776723383,1732776723400,1732776723417,1732776723437,1732776723450,1732776723467,1732776723483,1732776723500,1732776723517,1732776723533,1732776723550,1732776723567,1732776723583,1732776723600,1732776723617,1732776723635,1732776723650,1732776723667,1732776723683,1732776723700,1732776723717,1732776723734,1732776723750,1732776723767,1732776723783,1732776723800,1732776723817]","[[604.2,635.2],[572.3,628.2],[540.4,621.2],[509.5,623.9],[509.5,623.9],[505.3,628.1],[505.3,628.1],[498.1,656],[468.7,665],[468.7,665],[458,664],[416.4,670.6],[396.5,675.2],[376.6,679.8],[376.6,679.8],[378.8,673],[378.8,673],[395.5,678.3],[418.6,682.9],[418.6,682.9],[409.3,666.2],[409.3,666.2],[423.7,663.7],[423.7,663.7],[424.5,672.6],[424.5,672.6],[463.5,692.9],[463.5,692.9],[536.3,691.1],[598.4,689.9],[648.7,699.3],[694,706.7],[732.7,710.8],[765,715.6],[802.1,738.8],[859.1,730.3],[859.1,730.3],[936,687.9],[947.4,666.6],[973.3,660.4],[983.8,643.4],[1006.1,615.8],[1047.6,588.9],[1076.1,542.3],[1104.6,495.7],[1142.2,462.3],[1154.9,430.3],[1189,416.2],[1231.7,379.6],[1240,344.1],[1240,344.1],[1267.6,318.7],[1294.8,291.5],[1302.7,275.7],[1301.1,273.9],[1314.4,268.4],[1314.4,268.4],[1333.4,242.6],[1334.2,244],[1309.7,251.3],[1293.1,241],[1282.1,248.2],[1282.1,248.2],[1283,256.9],[1269.5,262.4],[1257.1,265.1],[1254.4,270.7],[1254.4,270.7],[1240,279.8],[1212.9,294.4],[1213.8,290],[1213.8,290],[1196.4,290.2],[1194,312.1],[1194,312.1],[1193.7,311.4],[1192.2,315.2],[1205.5,324],[1210.6,320.9],[1220.6,311.8],[1230.1,307.2],[1238.4,305.6],[1246.7,310],[1259,305.7],[1265.2,298.4],[1280.2,294.1],[1280.2,294.1],[1292.9,282],[1271.3,278.3],[1257.9,286.5],[1262.2,282],[1256.2,276.3],[1256.2,276.3],[1260.1,290.5],[1238,293],[1238,293],[1216.1,299.9],[1216.1,299.9],[1199.2,303.7],[1188.6,321.9],[1165.9,340.2],[1177.5,350.1],[1196.7,343.9],[1183.6,352.9],[1183.6,352.9],[1184,363],[1174.1,351.6],[1190.2,345.9],[1219.6,346.6],[1227.2,349.3],[1227.2,349.3],[1240,325.8],[1240.6,306.1],[1241.2,286.4],[1242.2,290.9],[1257.8,292.9],[1257.8,292.9],[1236.2,324.9]]","[0,0.37864299999999995]","[0.37864299999999995,0.37864299999999995]","[-0.37864299999999995,0]","[-0.37864299999999995,-0.37864299999999995]","[0,0]","[0.37864299999999995,0]","[0,-0.37864299999999995]","[0.37864299999999995,-0.37864299999999995]",0,2,2,2,1,3,Laptop,5,5,15,9
