inst1_resp.keys,inst1_resp.rt,calibrationMouse.x,calibrationMouse.y,calibrationMouse.leftButton,calibrationMouse.midButton,calibrationMouse.rightButton,calibrationClick.x,calibrationClick.y,calibrationClick.leftButton,calibrationClick.midButton,calibrationClick.rightButton,calibrationClick.clicked_name,trialsc.thisRepN,trialsc.thisTrialN,trialsc.thisN,trialsc.thisIndex,trialsc.ran,calibration_x,calibration_y,participant,session,date,expName,psychopyVersion,OS,frameRate,ScreenRes_pixels,Camera_pixels,mouse_2.x,mouse_2.y,mouse_2.leftButton,mouse_2.midButton,mouse_2.rightButton,mouse_2.time,mouse_2.clicked_name,mouse.x,mouse.y,mouse.leftButton,mouse.midButton,mouse.rightButton,mouse.time,mouse.clicked_name,Choice,Trial,TrialDuration,MOUSE_GAZE,ET_GAZE,ET_GAZE_x_T,time,unixTime,ET_GAZE_NF,Loc_Option1_label,Loc_Option2_label,Loc_Cost_label,Loc_Qual_label,Loc_Option1_cost,Loc_Option2_cost,Loc_Option1_quality,Loc_Option2_quality,trials.thisRepN,trials.thisTrialN,trials.thisN,trials.thisIndex,trials.ran,Block,Device,cost1,qual1,cost2,qual2
space,2.9143,0.115625,-0.003703704,1,0,0,0.676041667,-0.67037037,1,0,0,calibration_square,0,0,0,20,1,0.67,-0.67,20,001,2024-12-05_15h37.06.293,Attention_exp_legacy,2023.1.0,Win32,59.88023952,,,,,,,,,,,,,,,,,,,,,,,,,,,,,,,,,,,,,,,,,,,,
,,,,,,,-0.675,0.327777778,1,0,0,calibration_square,0,1,1,3,1,-0.67,0.33,20,001,2024-12-05_15h37.06.293,Attention_exp_legacy,2023.1.0,Win32,59.88023952,,,,,,,,,,,,,,,,,,,,,,,,,,,,,,,,,,,,,,,,,,,,
,,,,,,,0.329166667,0.664814815,1,0,0,calibration_square,0,2,2,18,1,0.33,0.67,20,001,2024-12-05_15h37.06.293,Attention_exp_legacy,2023.1.0,Win32,59.88023952,,,,,,,,,,,,,,,,,,,,,,,,,,,,,,,,,,,,,,,,,,,,
,,,,,,,0.323958333,-0.001851852,1,0,0,calibration_square,0,3,3,16,1,0.33,0,20,001,2024-12-05_15h37.06.293,Attention_exp_legacy,2023.1.0,Win32,59.88023952,,,,,,,,,,,,,,,,,,,,,,,,,,,,,,,,,,,,,,,,,,,,
,,,,,,,-0.332291667,0.338888889,1,0,0,calibration_square,0,4,4,7,1,-0.33,0.33,20,001,2024-12-05_15h37.06.293,Attention_exp_legacy,2023.1.0,Win32,59.88023952,,,,,,,,,,,,,,,,,,,,,,,,,,,,,,,,,,,,,,,,,,,,
,,,,,,,-0.002083333,0.67037037,1,0,0,calibration_square,0,5,5,13,1,0,0.67,20,001,2024-12-05_15h37.06.293,Attention_exp_legacy,2023.1.0,Win32,59.88023952,,,,,,,,,,,,,,,,,,,,,,,,,,,,,,,,,,,,,,,,,,,,
,,,,,,,-0.334375,-0.331481481,1,0,0,calibration_square,0,6,6,5,1,-0.33,-0.33,20,001,2024-12-05_15h37.06.293,Attention_exp_legacy,2023.1.0,Win32,59.88023952,,,,,,,,,,,,,,,,,,,,,,,,,,,,,,,,,,,,,,,,,,,,
,,,,,,,0.329166667,-0.32962963,1,0,0,calibration_square,0,7,7,15,1,0.33,-0.33,20,001,2024-12-05_15h37.06.293,Attention_exp_legacy,2023.1.0,Win32,59.88023952,,,,,,,,,,,,,,,,,,,,,,,,,,,,,,,,,,,,,,,,,,,,
,,,,,,,-0.679166667,-0.32037037,1,0,0,calibration_square,0,8,8,1,1,-0.67,-0.33,20,001,2024-12-05_15h37.06.293,Attention_exp_legacy,2023.1.0,Win32,59.88023952,,,,,,,,,,,,,,,,,,,,,,,,,,,,,,,,,,,,,,,,,,,,
,,,,,,,-0.322916667,-0.668518519,1,0,0,calibration_square,0,9,9,4,1,-0.33,-0.67,20,001,2024-12-05_15h37.06.293,Attention_exp_legacy,2023.1.0,Win32,59.88023952,,,,,,,,,,,,,,,,,,,,,,,,,,,,,,,,,,,,,,,,,,,,
,,,,,,,-0.670833333,0.009259259,1,0,0,calibration_square,0,10,10,2,1,-0.67,0,20,001,2024-12-05_15h37.06.293,Attention_exp_legacy,2023.1.0,Win32,59.88023952,,,,,,,,,,,,,,,,,,,,,,,,,,,,,,,,,,,,,,,,,,,,
,,,,,,,-0.003125,-0.659259259,1,0,0,,0,11,11,9,1,0,-0.67,20,001,2024-12-05_15h37.06.293,Attention_exp_legacy,2023.1.0,Win32,59.88023952,,,,,,,,,,,,,,,,,,,,,,,,,,,,,,,,,,,,,,,,,,,,
,,,,,,,-0.334375,0.668518519,1,0,0,calibration_square,0,12,12,8,1,-0.33,0.67,20,001,2024-12-05_15h37.06.293,Attention_exp_legacy,2023.1.0,Win32,59.88023952,,,,,,,,,,,,,,,,,,,,,,,,,,,,,,,,,,,,,,,,,,,,
,,,,,,,0.333333333,0.333333333,1,0,0,calibration_square,0,13,13,17,1,0.33,0.33,20,001,2024-12-05_15h37.06.293,Attention_exp_legacy,2023.1.0,Win32,59.88023952,,,,,,,,,,,,,,,,,,,,,,,,,,,,,,,,,,,,,,,,,,,,
,,,,,,,0.33125,-0.674074074,1,0,0,calibration_square,0,14,14,14,1,0.33,-0.67,20,001,2024-12-05_15h37.06.293,Attention_exp_legacy,2023.1.0,Win32,59.88023952,,,,,,,,,,,,,,,,,,,,,,,,,,,,,,,,,,,,,,,,,,,,
,,,,,,,0.005208333,0.009259259,1,0,0,calibration_square,0,15,15,11,1,0,0,20,001,2024-12-05_15h37.06.293,Attention_exp_legacy,2023.1.0,Win32,59.88023952,,,,,,,,,,,,,,,,,,,,,,,,,,,,,,,,,,,,,,,,,,,,
,,,,,,,0.001041667,-0.338888889,1,0,0,calibration_square,0,16,16,10,1,0,-0.33,20,001,2024-12-05_15h37.06.293,Attention_exp_legacy,2023.1.0,Win32,59.88023952,,,,,,,,,,,,,,,,,,,,,,,,,,,,,,,,,,,,,,,,,,,,
,,,,,,,0.676041667,0.67962963,1,0,0,calibration_square,0,17,17,19,1,0.67,0.67,20,001,2024-12-05_15h37.06.293,Attention_exp_legacy,2023.1.0,Win32,59.88023952,,,,,,,,,,,,,,,,,,,,,,,,,,,,,,,,,,,,,,,,,,,,
,,,,,,,-0.679166667,-0.674074074,1,0,0,calibration_square,0,18,18,0,1,-0.67,-0.67,20,001,2024-12-05_15h37.06.293,Attention_exp_legacy,2023.1.0,Win32,59.88023952,,,,,,,,,,,,,,,,,,,,,,,,,,,,,,,,,,,,,,,,,,,,
,,,,,,,-0.002083333,0.331481481,1,0,0,calibration_square,0,19,19,12,1,0,0.33,20,001,2024-12-05_15h37.06.293,Attention_exp_legacy,2023.1.0,Win32,59.88023952,,,,,,,,,,,,,,,,,,,,,,,,,,,,,,,,,,,,,,,,,,,,
,,,,,,,-0.328125,0.005555556,1,0,0,calibration_square,0,20,20,6,1,-0.33,0,20,001,2024-12-05_15h37.06.293,Attention_exp_legacy,2023.1.0,Win32,59.88023952,,,,,,,,,,,,,,,,,,,,,,,,,,,,,,,,,,,,,,,,,,,,
,,,,,,,,,,,,,,,,,,,,20,001,2024-12-05_15h37.06.293,Attention_exp_legacy,2023.1.0,Win32,59.88023952,"[1920,1080]","[640,480]",[0.052083333333333336],[-0.5148148148148148],[1],[0],[0],[11.596599999994034],"[""StartButton""]",[0.034375],[0.3611111111111111],[1],[0],[0],[8.104500000000002],"[""Option1_label""]",Option1_label,1,9.1286,"[[0.052083333333333336,-0.5148148148148148],[0.052083333333333336,-0.5148148148148148],[0.052083333333333336,-0.5148148148148148],[0.052083333333333336,-0.5148148148148148],[0.052083333333333336,-0.5148148148148148],[0.052083333333333336,-0.5148148148148148],[0.052083333333333336,-0.5148148148148148],[0.052083333333333336,-0.5148148148148148],[0.052083333333333336,-0.5148148148148148],[0.052083333333333336,-0.5148148148148148],[0.052083333333333336,-0.5148148148148148],[0.052083333333333336,-0.5148148148148148],[0.052083333333333336,-0.5148148148148148],[0.052083333333333336,-0.5148148148148148],[0.052083333333333336,-0.5148148148148148],[0.052083333333333336,-0.5148148148148148],[0.052083333333333336,-0.5148148148148148],[0.052083333333333336,-0.5148148148148148],[0.052083333333333336,-0.5148148148148148],[0.052083333333333336,-0.5148148148148148],[0.052083333333333336,-0.5148148148148148],[0.052083333333333336,-0.5148148148148148],[0.052083333333333336,-0.5148148148148148],[0.052083333333333336,-0.5148148148148148],[0.052083333333333336,-0.5148148148148148],[0.052083333333333336,-0.5148148148148148],[0.052083333333333336,-0.5148148148148148],[0.052083333333333336,-0.5148148148148148],[0.052083333333333336,-0.5148148148148148],[0.052083333333333336,-0.5148148148148148],[0.052083333333333336,-0.5148148148148148],[0.052083333333333336,-0.5148148148148148],[0.052083333333333336,-0.5148148148148148],[0.052083333333333336,-0.5148148148148148],[0.052083333333333336,-0.5148148148148148],[0.052083333333333336,-0.5148148148148148],[0.052083333333333336,-0.5148148148148148],[0.052083333333333336,-0.5148148148148148],[0.052083333333333336,-0.5148148148148148],[0.052083333333333336,-0.5148148148148148],[0.052083333333333336,-0.5148148148148148],[0.052083333333333336,-0.5148148148148148],[0.052083333333333336,-0.5148148148148148],[0.052083333333333336,-0.5148148148148148],[0.052083333333333336,-0.5148148148148148],[0.052083333333333336,-0.5148148148148148],[0.052083333333333336,-0.5148148148148148],[0.052083333333333336,-0.5148148148148148],[0.052083333333333336,-0.5148148148148148],[0.052083333333333336,-0.5148148148148148],[0.052083333333333336,-0.5148148148148148],[0.052083333333333336,-0.5148148148148148],[0.052083333333333336,-0.5148148148148148],[0.052083333333333336,-0.5148148148148148],[0.052083333333333336,-0.5148148148148148],[0.052083333333333336,-0.5148148148148148],[0.052083333333333336,-0.5148148148148148],[0.052083333333333336,-0.5148148148148148],[0.052083333333333336,-0.5148148148148148],[0.052083333333333336,-0.5148148148148148],[0.052083333333333336,-0.5148148148148148],[0.052083333333333336,-0.5148148148148148],[0.052083333333333336,-0.5148148148148148],[0.052083333333333336,-0.5148148148148148],[0.052083333333333336,-0.5148148148148148],[0.052083333333333336,-0.5148148148148148],[0.052083333333333336,-0.5148148148148148],[0.052083333333333336,-0.5148148148148148],[0.052083333333333336,-0.5074074074074074],[0.052083333333333336,-0.4962962962962963],[0.052083333333333336,-0.48518518518518516],[0.052083333333333336,-0.4740740740740741],[0.052083333333333336,-0.46296296296296297],[0.052083333333333336,-0.4537037037037037],[0.052083333333333336,-0.44074074074074077],[0.052083333333333336,-0.4203703703703704],[0.052083333333333336,-0.3907407407407407],[0.052083333333333336,-0.3685185185185185],[0.052083333333333336,-0.34444444444444444],[0.05520833333333333,-0.3055555555555556],[0.05625,-0.2796296296296296],[0.058333333333333334,-0.2518518518518518],[0.06145833333333333,-0.22407407407407406],[0.06354166666666666,-0.1962962962962963],[0.06666666666666667,-0.1685185185185185],[0.06875,-0.1425925925925926],[0.071875,-0.11481481481481481],[0.078125,-0.07407407407407407],[0.08020833333333334,-0.05740740740740741],[0.084375,-0.02962962962962963],[0.08958333333333333,-0.003703703703703704],[0.09895833333333333,0.03148148148148148],[0.10416666666666667,0.053703703703703705],[0.109375,0.07037037037037037],[0.11770833333333333,0.09074074074074075],[0.12395833333333334,0.1037037037037037],[0.134375,0.11851851851851852],[0.14166666666666666,0.12777777777777777],[0.14791666666666667,0.13518518518518519],[0.15625,0.14074074074074075],[0.16458333333333333,0.14814814814814814],[0.17395833333333333,0.15185185185185185],[0.184375,0.15555555555555556],[0.19270833333333334,0.15925925925925927],[0.20520833333333333,0.16666666666666666],[0.215625,0.16666666666666666],[0.225,0.17037037037037037],[0.23333333333333334,0.17037037037037037],[0.24166666666666667,0.17037037037037037],[0.25104166666666666,0.17037037037037037],[0.25729166666666664,0.17037037037037037],[0.26145833333333335,0.17037037037037037],[0.265625,0.17037037037037037],[0.26875,0.17037037037037037],[0.27291666666666664,0.17037037037037037],[0.275,0.17037037037037037],[0.27708333333333335,0.17037037037037037],[0.2791666666666667,0.17037037037037037],[0.2791666666666667,0.17037037037037037],[0.28125,0.1685185185185185],[0.2833333333333333,0.16666666666666666],[0.2833333333333333,0.16666666666666666],[0.2833333333333333,0.16666666666666666],[0.284375,0.16666666666666666],[0.284375,0.16666666666666666],[0.284375,0.16666666666666666],[0.284375,0.16666666666666666],[0.284375,0.16666666666666666],[0.284375,0.16666666666666666],[0.284375,0.16666666666666666],[0.284375,0.16666666666666666],[0.284375,0.16666666666666666],[0.284375,0.16666666666666666],[0.284375,0.16666666666666666],[0.284375,0.16666666666666666],[0.284375,0.16666666666666666],[0.284375,0.16666666666666666],[0.284375,0.16666666666666666],[0.284375,0.16666666666666666],[0.284375,0.16666666666666666],[0.284375,0.16666666666666666],[0.284375,0.16666666666666666],[0.284375,0.16666666666666666],[0.284375,0.16666666666666666],[0.284375,0.16666666666666666],[0.284375,0.16666666666666666],[0.284375,0.16666666666666666],[0.284375,0.16666666666666666],[0.284375,0.16666666666666666],[0.284375,0.16666666666666666],[0.284375,0.16666666666666666],[0.284375,0.16666666666666666],[0.284375,0.16666666666666666],[0.284375,0.16666666666666666],[0.284375,0.16666666666666666],[0.284375,0.16666666666666666],[0.284375,0.16666666666666666],[0.284375,0.16666666666666666],[0.284375,0.16666666666666666],[0.284375,0.16666666666666666],[0.284375,0.16666666666666666],[0.284375,0.16666666666666666],[0.284375,0.16666666666666666],[0.284375,0.16666666666666666],[0.284375,0.16666666666666666],[0.284375,0.16666666666666666],[0.284375,0.16666666666666666],[0.284375,0.16666666666666666],[0.284375,0.16666666666666666],[0.284375,0.16666666666666666],[0.284375,0.16666666666666666],[0.284375,0.16666666666666666],[0.284375,0.16666666666666666],[0.284375,0.16666666666666666],[0.284375,0.16666666666666666],[0.284375,0.16666666666666666],[0.284375,0.16666666666666666],[0.284375,0.16666666666666666],[0.284375,0.16666666666666666],[0.284375,0.16666666666666666],[0.284375,0.16666666666666666],[0.284375,0.16666666666666666],[0.284375,0.16666666666666666],[0.284375,0.16666666666666666],[0.284375,0.16666666666666666],[0.284375,0.16666666666666666],[0.284375,0.16666666666666666],[0.284375,0.16666666666666666],[0.284375,0.16666666666666666],[0.284375,0.16666666666666666],[0.284375,0.16666666666666666],[0.284375,0.16666666666666666],[0.284375,0.16666666666666666],[0.284375,0.16666666666666666],[0.284375,0.16666666666666666],[0.284375,0.16666666666666666],[0.284375,0.16666666666666666],[0.284375,0.16666666666666666],[0.284375,0.16666666666666666],[0.284375,0.16666666666666666],[0.284375,0.16666666666666666],[0.284375,0.16666666666666666],[0.284375,0.16666666666666666],[0.284375,0.16666666666666666],[0.284375,0.16666666666666666],[0.284375,0.16666666666666666],[0.284375,0.16666666666666666],[0.284375,0.16666666666666666],[0.284375,0.16666666666666666],[0.284375,0.16666666666666666],[0.284375,0.16666666666666666],[0.284375,0.16666666666666666],[0.284375,0.16666666666666666],[0.284375,0.16666666666666666],[0.284375,0.16666666666666666],[0.284375,0.16666666666666666],[0.284375,0.16666666666666666],[0.284375,0.16666666666666666],[0.284375,0.16666666666666666],[0.284375,0.16666666666666666],[0.284375,0.16666666666666666],[0.284375,0.16666666666666666],[0.284375,0.16666666666666666],[0.284375,0.16666666666666666],[0.284375,0.16666666666666666],[0.284375,0.16666666666666666],[0.284375,0.16666666666666666],[0.284375,0.16666666666666666],[0.284375,0.16666666666666666],[0.284375,0.16666666666666666],[0.284375,0.16666666666666666],[0.284375,0.16666666666666666],[0.284375,0.16666666666666666],[0.284375,0.16666666666666666],[0.284375,0.16666666666666666],[0.284375,0.16666666666666666],[0.284375,0.16666666666666666],[0.284375,0.16666666666666666],[0.284375,0.16666666666666666],[0.284375,0.16666666666666666],[0.284375,0.16666666666666666],[0.284375,0.16666666666666666],[0.284375,0.16666666666666666],[0.284375,0.16666666666666666],[0.284375,0.16666666666666666],[0.284375,0.16666666666666666],[0.284375,0.16666666666666666],[0.284375,0.16666666666666666],[0.284375,0.16666666666666666],[0.284375,0.16666666666666666],[0.284375,0.16666666666666666],[0.284375,0.16666666666666666],[0.284375,0.16666666666666666],[0.284375,0.16666666666666666],[0.284375,0.16666666666666666],[0.284375,0.16666666666666666],[0.284375,0.16666666666666666],[0.284375,0.16666666666666666],[0.284375,0.16666666666666666],[0.284375,0.16666666666666666],[0.284375,0.16666666666666666],[0.284375,0.16666666666666666],[0.284375,0.16666666666666666],[0.284375,0.16666666666666666],[0.284375,0.16666666666666666],[0.284375,0.16666666666666666],[0.284375,0.16666666666666666],[0.284375,0.16666666666666666],[0.284375,0.16666666666666666],[0.284375,0.16666666666666666],[0.284375,0.16666666666666666],[0.284375,0.16666666666666666],[0.284375,0.16666666666666666],[0.284375,0.16666666666666666],[0.284375,0.16666666666666666],[0.284375,0.16666666666666666],[0.284375,0.16666666666666666],[0.284375,0.16666666666666666],[0.284375,0.16666666666666666],[0.284375,0.16666666666666666],[0.284375,0.16666666666666666],[0.284375,0.16666666666666666],[0.284375,0.16666666666666666],[0.284375,0.16666666666666666],[0.284375,0.16666666666666666],[0.284375,0.16666666666666666],[0.284375,0.16666666666666666],[0.284375,0.16666666666666666],[0.284375,0.16666666666666666],[0.284375,0.16666666666666666],[0.284375,0.16666666666666666],[0.284375,0.16666666666666666],[0.284375,0.16666666666666666],[0.284375,0.16666666666666666],[0.284375,0.16666666666666666],[0.284375,0.16666666666666666],[0.284375,0.16666666666666666],[0.284375,0.16666666666666666],[0.284375,0.16666666666666666],[0.284375,0.16666666666666666],[0.284375,0.16666666666666666],[0.284375,0.16666666666666666],[0.284375,0.16666666666666666],[0.284375,0.16666666666666666],[0.284375,0.16666666666666666],[0.284375,0.16666666666666666],[0.284375,0.16666666666666666],[0.284375,0.16666666666666666],[0.284375,0.16666666666666666],[0.284375,0.16666666666666666],[0.284375,0.16666666666666666],[0.284375,0.16666666666666666],[0.284375,0.16666666666666666],[0.284375,0.16666666666666666],[0.284375,0.16666666666666666],[0.284375,0.16666666666666666],[0.284375,0.16666666666666666],[0.284375,0.16666666666666666],[0.284375,0.16666666666666666],[0.284375,0.16666666666666666],[0.284375,0.16666666666666666],[0.284375,0.16666666666666666],[0.284375,0.16666666666666666],[0.284375,0.16666666666666666],[0.284375,0.16666666666666666],[0.284375,0.16666666666666666],[0.284375,0.16666666666666666],[0.284375,0.16666666666666666],[0.284375,0.16666666666666666],[0.284375,0.16666666666666666],[0.284375,0.16666666666666666],[0.284375,0.16666666666666666],[0.284375,0.16666666666666666],[0.284375,0.16666666666666666],[0.284375,0.16666666666666666],[0.284375,0.16666666666666666],[0.284375,0.16666666666666666],[0.284375,0.16666666666666666],[0.284375,0.16666666666666666],[0.284375,0.16666666666666666],[0.284375,0.16666666666666666],[0.284375,0.16666666666666666],[0.284375,0.16666666666666666],[0.284375,0.16666666666666666],[0.284375,0.16666666666666666],[0.284375,0.16666666666666666],[0.284375,0.16666666666666666],[0.284375,0.16666666666666666],[0.284375,0.16666666666666666],[0.284375,0.16666666666666666],[0.284375,0.16666666666666666],[0.284375,0.16666666666666666],[0.284375,0.16666666666666666],[0.284375,0.16666666666666666],[0.284375,0.16666666666666666],[0.284375,0.16666666666666666],[0.284375,0.16666666666666666],[0.284375,0.16666666666666666],[0.284375,0.16666666666666666],[0.284375,0.16666666666666666],[0.284375,0.16666666666666666],[0.284375,0.16666666666666666],[0.284375,0.16666666666666666],[0.284375,0.16666666666666666],[0.284375,0.16666666666666666],[0.284375,0.16666666666666666],[0.27708333333333335,0.15925925925925927],[0.265625,0.1537037037037037],[0.24479166666666666,0.14444444444444443],[0.23020833333333332,0.13703703703703704],[0.21875,0.13148148148148148],[0.20520833333333333,0.1259259259259259],[0.19791666666666666,0.12037037037037036],[0.18854166666666666,0.11481481481481481],[0.178125,0.1111111111111111],[0.165625,0.1037037037037037],[0.14479166666666668,0.09444444444444444],[0.13645833333333332,0.08703703703703704],[0.11875,0.07592592592592592],[0.1,0.06851851851851852],[0.08958333333333333,0.06481481481481481],[0.07916666666666666,0.05740740740740741],[0.06979166666666667,0.05185185185185185],[0.06041666666666667,0.04814814814814815],[0.04895833333333333,0.04259259259259259],[0.035416666666666666,0.03518518518518519],[0.01875,0.025925925925925925],[0.004166666666666667,0.020370370370370372],[-0.008333333333333333,0.016666666666666666],[-0.013541666666666667,0.016666666666666666],[-0.015625,0.016666666666666666],[-0.016666666666666666,0.016666666666666666],[-0.019791666666666666,0.020370370370370372],[-0.021875,0.03333333333333333],[-0.023958333333333335,0.05740740740740741],[-0.023958333333333335,0.09074074074074075],[-0.023958333333333335,0.12407407407407407],[-0.020833333333333332,0.1685185185185185],[-0.011458333333333333,0.21296296296296297],[-0.004166666666666667,0.2537037037037037],[0.005208333333333333,0.2851851851851852],[0.011458333333333333,0.30925925925925923],[0.020833333333333332,0.3333333333333333],[0.026041666666666668,0.34444444444444444],[0.03125,0.35555555555555557],[0.03333333333333333,0.3592592592592593],[0.034375,0.3611111111111111],[0.034375,0.3611111111111111],[0.034375,0.3611111111111111],[0.034375,0.3611111111111111],[0.034375,0.3611111111111111],[0.034375,0.3611111111111111],[0.034375,0.3611111111111111],[0.034375,0.3611111111111111],[0.034375,0.3611111111111111],[0.034375,0.3611111111111111],[0.034375,0.3611111111111111],[0.034375,0.3611111111111111],[0.034375,0.3611111111111111],[0.034375,0.3611111111111111],[0.034375,0.3611111111111111],[0.034375,0.3611111111111111],[0.034375,0.3611111111111111],[0.034375,0.3611111111111111],[0.034375,0.3611111111111111],[0.034375,0.3611111111111111],[0.034375,0.3611111111111111],[0.034375,0.3611111111111111],[0.034375,0.3611111111111111],[0.034375,0.3611111111111111],[0.034375,0.3611111111111111],[0.034375,0.3611111111111111],[0.034375,0.3611111111111111],[0.034375,0.3611111111111111],[0.034375,0.3611111111111111],[0.034375,0.3611111111111111],[0.034375,0.3611111111111111],[0.034375,0.3611111111111111],[0.034375,0.3611111111111111],[0.034375,0.3611111111111111],[0.034375,0.3611111111111111],[0.034375,0.3611111111111111],[0.034375,0.3611111111111111],[0.034375,0.3611111111111111],[0.034375,0.3611111111111111],[0.034375,0.3611111111111111],[0.034375,0.3611111111111111],[0.034375,0.3611111111111111],[0.034375,0.3611111111111111],[0.034375,0.3611111111111111],[0.034375,0.3611111111111111],[0.034375,0.3611111111111111],[0.034375,0.3611111111111111],[0.034375,0.3611111111111111],[0.034375,0.3611111111111111],[0.034375,0.3611111111111111],[0.034375,0.3611111111111111],[0.034375,0.3611111111111111],[0.034375,0.3611111111111111],[0.034375,0.3611111111111111],[0.034375,0.3611111111111111],[0.034375,0.3611111111111111],[0.034375,0.3611111111111111],[0.034375,0.3611111111111111],[0.034375,0.3611111111111111],[0.034375,0.3611111111111111],[0.034375,0.3611111111111111],[0.034375,0.3611111111111111],[0.034375,0.3611111111111111],[0.034375,0.3611111111111111],[0.034375,0.3611111111111111],[0.034375,0.3611111111111111],[0.034375,0.3611111111111111],[0.034375,0.3611111111111111],[0.034375,0.3611111111111111],[0.034375,0.3611111111111111],[0.034375,0.3611111111111111],[0.034375,0.3611111111111111],[0.034375,0.3611111111111111],[0.034375,0.3611111111111111],[0.034375,0.3611111111111111],[0.034375,0.3611111111111111],[0.034375,0.3611111111111111],[0.034375,0.3611111111111111],[0.034375,0.3611111111111111],[0.034375,0.3611111111111111],[0.034375,0.3611111111111111],[0.034375,0.3611111111111111],[0.034375,0.3611111111111111],[0.034375,0.3611111111111111],[0.034375,0.3611111111111111],[0.034375,0.3611111111111111],[0.034375,0.3611111111111111],[0.034375,0.3611111111111111],[0.034375,0.3611111111111111],[0.034375,0.3611111111111111],[0.034375,0.3611111111111111],[0.034375,0.3611111111111111],[0.034375,0.3611111111111111],[0.034375,0.3611111111111111],[0.034375,0.3611111111111111],[0.034375,0.3611111111111111],[0.034375,0.3611111111111111],[0.034375,0.3611111111111111],[0.034375,0.3611111111111111],[0.034375,0.3611111111111111],[0.034375,0.3611111111111111],[0.034375,0.3611111111111111],[0.034375,0.3611111111111111],[0.034375,0.3611111111111111],[0.034375,0.3611111111111111],[0.034375,0.3611111111111111],[0.034375,0.3611111111111111],[0.034375,0.3611111111111111],[0.034375,0.3611111111111111],[0.034375,0.3611111111111111],[0.034375,0.3611111111111111],[0.034375,0.3611111111111111],[0.034375,0.3611111111111111],[0.034375,0.3611111111111111],[0.034375,0.3611111111111111],[0.034375,0.3611111111111111],[0.034375,0.3611111111111111],[0.034375,0.3611111111111111],[0.034375,0.3611111111111111],[0.034375,0.3611111111111111],[0.034375,0.3611111111111111],[0.034375,0.3611111111111111],[0.034375,0.3611111111111111],[0.034375,0.3611111111111111],[0.034375,0.3611111111111111],[0.034375,0.3611111111111111],[0.034375,0.3611111111111111],[0.034375,0.3611111111111111],[0.034375,0.3611111111111111],[0.034375,0.3611111111111111],[0.034375,0.3611111111111111],[0.034375,0.3611111111111111],[0.034375,0.3611111111111111],[0.034375,0.3611111111111111],[0.034375,0.3611111111111111],[0.034375,0.3611111111111111],[0.034375,0.3611111111111111],[0.034375,0.3611111111111111],[0.034375,0.3611111111111111],[0.034375,0.3611111111111111],[0.034375,0.3611111111111111],[0.034375,0.3611111111111111]]","[[0.0032291666666666905,0.3237037037037036],[0.0032291666666666905,0.3237037037037036],[0.0032291666666666905,0.3237037037037036],[-0.0026041666666666665,0.3224074074074075],[-0.0046875,0.2992592592592593],[-0.002395833333333286,0.24944444444444452],[0.011041666666666691,0.2551851851851851],[0.014374999999999952,0.262037037037037],[0.01572916666666669,0.26074074074074066],[0.017083333333333308,0.2594444444444445],[0.027187500000000024,0.2537037037037037],[0.02322916666666662,0.24981481481481477],[0.01739583333333338,0.24962962962962953],[0.030729166666666665,0.25314814814814823],[0.03885416666666662,0.24537037037037038],[0.042499999999999954,0.255925925925926],[0.029999999999999954,0.22481481481481477],[0.017499999999999953,0.19370370370370374],[0.0048958333333333805,0.18000000000000008],[-0.0203125,0.16296296296296298],[-0.09343750000000005,0.16962962962962966],[-0.16656249999999997,0.17629629629629637],[-0.2391666666666667,0.14888888888888885],[-0.3129166666666666,0.13722222222222227],[-0.34020833333333333,0.1259259259259259],[-0.3632291666666667,0.13111111111111104],[-0.3967708333333333,0.14203703703703713],[-0.43031250000000004,0.152962962962963],[-0.48020833333333335,0.14870370370370362],[-0.5175,0.1477777777777777],[-0.5286458333333334,0.14166666666666666],[-0.5397916666666667,0.13555555555555565],[-0.5308333333333334,0.1725925925925927],[-0.5207291666666667,0.19388888888888897],[-0.5626041666666667,0.2168518518518519],[-0.5626041666666667,0.2168518518518519],[-0.60875,0.22333333333333338],[-0.60875,0.22333333333333338],[-0.6389583333333333,0.22333333333333338],[-0.6389583333333333,0.22333333333333338],[-0.6482291666666666,0.29981481481481476],[-0.6482291666666666,0.29981481481481476],[-0.6003124999999999,0.45555555555555555],[-0.6003124999999999,0.45555555555555555],[-0.5444791666666667,0.6101851851851852],[-0.5444791666666667,0.6101851851851852],[-0.46,0.7546296296296297],[-0.3805208333333333,0.900740740740741],[-0.31697916666666665,1.0342592592592592],[-0.2534374999999999,1.1677777777777776],[-0.18677083333333327,1.2574074074074073],[-0.12010416666666662,1.3470370370370373],[-0.04916666666666671,1.45],[0.000833333333333286,1.4764814814814815],[0.000833333333333286,1.4764814814814815],[-0.015208333333333357,1.3753703703703704],[-0.051041666666666666,1.2735185185185185],[-0.09343750000000005,1.1696296296296294],[-0.12281249999999998,1.0524074074074072],[-0.15583333333333335,0.935925925925926],[-0.1883333333333333,0.8270370370370371],[-0.21375000000000005,0.769814814814815],[-0.25281250000000005,0.7287037037037037],[-0.2921875,0.6781481481481483],[-0.31697916666666665,0.6046296296296296],[-0.3271875,0.6007407407407407],[-0.3277083333333334,0.625],[-0.3282291666666667,0.6492592592592593],[-0.3329166666666667,0.7062962962962962],[-0.29885416666666664,0.706851851851852],[-0.2640625,0.7266666666666666],[-0.22593749999999999,0.7240740740740741],[-0.17864583333333334,0.7837037037037038],[-0.13562500000000005,0.7548148148148148],[-0.11604166666666664,0.7598148148148147],[-0.084375,0.7572222222222221],[-0.03916666666666669,0.759074074074074],[0.00604166666666662,0.7609259259259259],[0.050937499999999976,0.678888888888889],[0.06239583333333331,0.693888888888889],[0.05499999999999995,0.6277777777777778],[0.04083333333333338,0.5801851851851851],[0.04083333333333338,0.4866666666666666],[0.04083333333333338,0.48037037037037034],[0.04770833333333328,0.47314814814814815],[0.05791666666666669,0.4327777777777779],[0.07468750000000005,0.3168518518518519],[0.0828125,0.20611111111111102],[0.0828125,0.20611111111111102],[0.07531249999999995,0.16666666666666666],[0.04708333333333338,0.0787037037037037],[0.036458333333333336,0.044999999999999915],[0.036458333333333336,0.044999999999999915],[0.05427083333333336,0.02629629629629638],[0.05427083333333336,0.02629629629629638],[0.0484375,-0.011481481481481566],[0.04656250000000005,-0.06592592592592597],[0.04666666666666662,-0.13037037037037033],[0.050937499999999976,-0.15018518518518523],[0.03604166666666669,-0.12629629629629627],[0.029791666666666692,-0.10759259259259263],[0.035625000000000046,-0.09740740740740746],[0.06499999999999997,-0.07333333333333338],[0.0943749999999999,-0.0492592592592593],[0.09343750000000005,-0.02092592592592584],[0.10645833333333338,-0.00592592592592601],[0.1178124999999999,-0.012777777777777735],[0.12916666666666668,-0.01962962962962967],[0.13666666666666671,-0.04611111111111107],[0.15114583333333323,-0.05925925925925926],[0.15520833333333334,-0.07888888888888893],[0.15927083333333342,-0.09851851851851849],[0.17083333333333334,-0.11777777777777781],[0.18239583333333323,-0.13703703703703704],[0.1944791666666667,-0.17537037037037034],[0.20656249999999995,-0.21370370370370367],[0.20656249999999995,-0.21370370370370367],[0.20499999999999996,-0.2064814814814815],[0.1779166666666666,-0.18925925925925924],[0.1609375,-0.1648148148148148],[0.09833333333333343,-0.1425925925925926],[0.05916666666666662,-0.11481481481481481],[0.011249999999999953,-0.10722222222222218],[-0.052291666666666715,-0.10592592592592591],[-0.06166666666666672,-0.09907407407407408],[-0.06625000000000002,-0.08851851851851854],[-0.1373958333333333,-0.05185185185185185],[-0.19375,-0.03333333333333333],[-0.19593750000000001,-0.03425925925925926],[-0.21187499999999998,-0.03425925925925926],[-0.1842708333333333,-0.029259259259259176],[-0.16968749999999996,-0.023333333333333376],[-0.13270833333333332,0.012592592592592508],[-0.09572916666666664,0.0485185185185186],[-0.12947916666666662,0.06092592592592588],[-0.1632291666666667,0.07333333333333338],[-0.11583333333333339,0.072037037037037],[-0.071875,0.08185185185185194],[-0.07916666666666666,0.0705555555555556],[-0.08645833333333333,0.05925925925925926],[-0.08229166666666667,0.058703703703703786],[-0.078125,0.05814814814814811],[-0.09739583333333333,0.07611111111111116],[-0.11666666666666667,0.09407407407407399],[-0.11916666666666664,0.19388888888888897],[-0.11864583333333331,0.2881481481481482],[-0.1414583333333333,0.40425925925925915],[-0.1642708333333334,0.5203703703703704],[-0.16239583333333332,0.6696296296296297],[-0.16052083333333336,0.818888888888889],[-0.17124999999999999,0.9072222222222224],[-0.18197916666666672,0.9955555555555554],[-0.15093749999999997,1.0605555555555557],[-0.11989583333333335,1.1255555555555554],[-0.11989583333333335,1.1255555555555554],[-0.09104166666666665,1.0716666666666668],[-0.09104166666666665,1.0716666666666668],[-0.06208333333333336,1.022962962962963],[-0.06208333333333336,1.022962962962963],[-0.01729166666666669,0.9153703703703703],[0.01885416666666669,0.7651851851851853],[0.01885416666666669,0.7651851851851853],[0.057291666666666664,0.6042592592592592],[0.057291666666666664,0.6042592592592592],[0.08989583333333329,0.46277777777777773],[0.12999999999999995,0.3490740740740741],[0.1638541666666666,0.227962962962963],[0.1638541666666666,0.227962962962963],[0.16572916666666657,0.10185185185185185],[0.11270833333333338,-0.010185185185185186],[0.06166666666666672,-0.06722222222222224],[0.007500000000000047,-0.12388888888888884],[-0.05802083333333338,-0.16500000000000004],[-0.11489583333333328,-0.16351851851851854],[-0.14979166666666663,-0.1551851851851852],[-0.1788541666666667,-0.16629629629629633],[-0.20906250000000004,-0.1801851851851852],[-0.23302083333333337,-0.18666666666666668],[-0.26447916666666665,-0.1787037037037037],[-0.24104166666666665,-0.18481481481481485],[-0.22145833333333337,-0.1801851851851852],[-0.20187499999999994,-0.17555555555555558],[-0.17562500000000003,-0.1868518518518518],[-0.14937499999999998,-0.19814814814814816],[-0.19020833333333337,-0.1814814814814815],[-0.23104166666666662,-0.1648148148148148],[-0.2795833333333333,-0.15055555555555558],[-0.328125,-0.13629629629629633],[-0.37520833333333337,-0.10166666666666663],[-0.4222916666666666,-0.06703703703703702],[-0.44177083333333333,0.04092592592592597],[-0.45375000000000004,0.16277777777777774],[-0.44166666666666665,0.3537037037037037],[-0.4295833333333333,0.5446296296296297],[-0.3696875,0.7035185185185184],[-0.3195833333333333,0.8681481481481481],[-0.2652083333333334,1.0183333333333335],[-0.19781249999999997,1.1848148148148148],[-0.1310416666666666,1.2922222222222222],[-0.06427083333333337,1.3996296296296296],[-0.04552083333333338,1.393888888888889],[-0.03427083333333331,1.374259259259259],[-0.059375,1.298888888888889],[-0.08447916666666669,1.2235185185185187],[-0.1123958333333333,1.1285185185185187],[-0.13052083333333328,1.0277777777777777],[-0.18708333333333335,0.9274074074074073],[-0.25666666666666665,0.8107407407407407],[-0.325,0.7377777777777778],[-0.39333333333333337,0.6648148148148149],[-0.4345833333333334,0.5603703703703704],[-0.47583333333333333,0.455925925925926],[-0.5039583333333334,0.3757407407407407],[-0.5320833333333334,0.29555555555555557],[-0.57625,0.24666666666666676],[-0.6217708333333333,0.18981481481481483],[-0.5814583333333334,0.21055555555555563],[-0.5438541666666666,0.2351851851851852],[-0.47520833333333334,0.2124074074074075],[-0.40656249999999994,0.1896296296296296],[-0.33958333333333335,0.2361111111111111],[-0.2726041666666667,0.2825925925925926],[-0.20208333333333334,0.34018518518518526],[-0.13156249999999994,0.3977777777777777],[-0.04750000000000002,0.42777777777777776],[0.03791666666666664,0.46574074074074073],[0.06864583333333343,0.4385185185185184],[0.10208333333333333,0.4074074074074074],[0.1118750000000001,0.41518518518518527],[0.12166666666666662,0.42296296296296293],[0.12781250000000005,0.41203703703703703],[0.13395833333333323,0.40111111111111114],[0.13624999999999995,0.3803703703703703],[0.13854166666666667,0.3596296296296297],[0.1428124999999999,0.36148148148148157],[0.14708333333333337,0.3633333333333334],[0.15322916666666658,0.3798148148148149],[0.159375,0.3962962962962963],[0.13624999999999995,0.4522222222222223],[0.1131249999999999,0.5081481481481481],[0.03843749999999998,0.5277777777777778],[-0.029062499999999977,0.5642592592592593],[-0.08510416666666672,0.5505555555555555],[-0.1788541666666667,0.5275925925925925],[-0.26052083333333337,0.5294444444444444],[-0.3454166666666667,0.528888888888889],[-0.42697916666666663,0.528888888888889],[-0.5243749999999999,0.5211111111111111],[-0.5465625000000001,0.4587037037037038],[-0.56875,0.3962962962962963],[-0.5397916666666667,0.3937037037037037],[-0.5180208333333334,0.3742592592592593],[-0.5320833333333334,0.3948148148148149],[-0.5084375,0.4246296296296295],[-0.5033333333333333,0.4112962962962963],[-0.495,0.40037037037037043],[-0.476875,0.4140740740740741],[-0.44291666666666674,0.43555555555555564],[-0.43479166666666663,0.5274074074074073],[-0.41687500000000005,0.6116666666666666],[-0.3998958333333333,0.6848148148148148],[-0.3829166666666667,0.7579629629629628],[-0.31927083333333334,0.850925925925926],[-0.26625000000000004,0.9392592592592593],[-0.2091666666666666,1.0464814814814813],[-0.15208333333333332,1.1537037037037037],[-0.15208333333333332,1.1537037037037037],[-0.10541666666666671,1.2209259259259257],[-0.06416666666666669,1.2475925925925926],[-0.04500000000000005,1.205925925925926],[-0.026250000000000048,1.1666666666666667],[-0.00625,1.125740740740741],[0.009895833333333333,1.074814814814815],[0.000833333333333286,1.0003703703703704],[-0.01593749999999995,0.8966666666666667],[-0.01593749999999995,0.8966666666666667],[-0.03270833333333331,0.7929629629629631],[-0.03270833333333331,0.7929629629629631],[-0.05302083333333331,0.6864814814814816],[-0.05302083333333331,0.6864814814814816],[-0.06437499999999995,0.577962962962963],[-0.06437499999999995,0.577962962962963],[-0.07291666666666667,0.4957407407407408],[-0.07291666666666667,0.4957407407407408],[-0.08968750000000002,0.4068518518518519],[-0.08968750000000002,0.4068518518518519],[-0.11625000000000002,0.3490740740740741],[-0.13666666666666671,0.27314814814814814],[-0.1375,0.19870370370370363],[-0.13833333333333328,0.1242592592592593],[-0.1264583333333333,0.0948148148148149],[-0.11593749999999996,0.06351851851851843],[-0.11208333333333335,0.03740740740740749],[-0.11989583333333335,0.027777777777777776],[-0.1141666666666667,0.039629629629629584],[-0.10083333333333329,0.04203703703703712],[-0.08302083333333338,0.03333333333333333],[-0.06875,0.04203703703703712],[-0.07906249999999998,0.06518518518518526],[-0.08937499999999995,0.08833333333333342],[-0.0953125,0.08925925925925934],[-0.10125000000000005,0.09018518518518527],[-0.10364583333333334,0.06370370370370367],[-0.10604166666666662,0.03722222222222227],[-0.15041666666666664,0.030000000000000086],[-0.19177083333333336,0.02629629629629638],[-0.2423958333333334,0.019444444444444445],[-0.2828125,0.016666666666666666],[-0.31614583333333335,-0.009074074074074031],[-0.3494791666666667,-0.03481481481481473],[-0.3980208333333334,-0.028888888888888933],[-0.44656250000000003,-0.02296296296296292],[-0.46802083333333333,-0.01722222222222214],[-0.49802083333333336,-0.00851851851851856],[-0.49135416666666665,-0.004259259259259175],[-0.48708333333333337,0.014814814814814815],[-0.47458333333333336,-0.02111111111111107],[-0.47229166666666667,-0.06111111111111111],[-0.4764583333333333,-0.07611111111111116],[-0.48062499999999997,-0.09111111111111109],[-0.4675,-0.11851851851851852],[-0.45437500000000003,-0.14592592592592596],[-0.4545833333333333,-0.13629629629629633],[-0.44625,-0.12962962962962962],[-0.4592708333333333,-0.15629629629629627],[-0.47229166666666667,-0.182962962962963],[-0.4748958333333333,-0.18796296296296297],[-0.4775,-0.19296296296296295],[-0.49604166666666666,-0.16407407407407412],[-0.5145833333333333,-0.13518518518518519],[-0.49656249999999996,-0.012592592592592508],[-0.47604166666666664,0.10500000000000008],[-0.4310416666666666,0.2705555555555556],[-0.38604166666666667,0.4361111111111111],[-0.3272916666666667,0.5920370370370371],[-0.2685416666666666,0.7479629629629629],[-0.22083333333333333,0.8892592592592593],[-0.17312500000000006,1.0305555555555554],[-0.11114583333333337,1.0848148148148147],[-0.04354166666666662,1.1898148148148149],[0.0007291666666667141,1.1466666666666667],[0.042499999999999954,1.1085185185185185],[0.02687499999999995,0.9935185185185185],[0.008958333333333356,0.8866666666666666],[0.004791666666666691,0.7772222222222223],[0.005520833333333286,0.6583333333333333],[-0.009583333333333381,0.5518518518518518],[-0.022395833333333334,0.4353703703703704],[-0.014374999999999952,0.3566666666666667],[-0.011979166666666667,0.2272222222222223],[-0.0006250000000000236,0.1485185185185186],[0.011666666666666714,0.07685185185185185],[0.04854166666666669,0.02296296296296292],[0.08770833333333337,-0.039074074074074115],[0.1134375000000001,-0.0787037037037037],[0.13145833333333337,-0.12314814814814815],[0.16239583333333343,-0.11370370370370367],[0.20052083333333334,-0.09203703703703701],[0.23406250000000003,-0.09185185185185189],[0.26760416666666675,-0.09166666666666666],[0.2716666666666666,-0.08907407407407411],[0.2716666666666666,-0.08907407407407411],[0.27854166666666674,-0.07999999999999997],[0.27854166666666674,-0.07999999999999997],[0.265625,-0.07111111111111107],[0.25270833333333326,-0.06222222222222226],[0.22552083333333334,-0.06574074074074074],[0.22520833333333337,-0.05814814814814811],[0.22385416666666677,-0.06462962962962959],[0.19802083333333323,-0.053703703703703705],[0.16843750000000005,-0.03481481481481473],[0.14385416666666656,-0.02111111111111107],[0.11593749999999996,-0.007592592592592635],[0.10239583333333328,-0.020555555555555598],[0.10541666666666671,-0.03314814814814811],[0.10843749999999991,-0.045740740740740825],[0.12729166666666672,-0.04518518518518514],[0.12145833333333324,-0.039629629629629584],[0.12333333333333343,-0.036481481481481566],[0.14020833333333324,-0.052962962962963],[0.15187499999999995,-0.06648148148148143],[0.14947916666666666,-0.06740740740740736],[0.14333333333333323,-0.05592592592592591],[0.13072916666666667,-0.01629629629629621],[0.1359375,-0.014074074074074116],[0.14114583333333333,-0.01185185185185181],[0.13541666666666666,-0.014074074074074116],[0.14416666666666675,-0.027962962962963005],[0.14677083333333343,-0.05537037037037033],[0.1493750000000001,-0.08277777777777776],[0.13114583333333343,-0.10388888888888893],[0.12062499999999995,-0.09907407407407408],[0.12062499999999995,-0.09907407407407408],[0.11895833333333337,-0.10574074074074079],[0.11458333333333333,-0.14907407407407408],[0.11458333333333333,-0.14907407407407408],[0.096875,-0.1559259259259259],[0.096875,-0.1559259259259259],[0.08041666666666672,-0.19796296296296292],[0.08041666666666672,-0.19796296296296292],[0.08489583333333334,-0.19388888888888886],[0.08489583333333334,-0.19388888888888886],[0.06270833333333338,-0.17314814814814813],[0.06270833333333338,-0.17314814814814813],[0.034375,-0.17407407407407408],[0.034375,-0.17407407407407408],[0.001145833333333357,-0.16111111111111112],[0.005937500000000048,-0.16166666666666668],[0.005729166666666666,-0.17592592592592593],[0.016979166666666618,-0.1940740740740741],[0.010000000000000024,-0.22925925925925927],[0.00302083333333331,-0.2644444444444445],[-0.009375,-0.25407407407407406],[-0.03166666666666664,-0.285],[-0.03166666666666664,-0.285],[-0.043020833333333286,-0.3314814814814815],[-0.043958333333333384,-0.3405555555555555],[-0.03999999999999997,-0.3635185185185185],[-0.043020833333333286,-0.3633333333333333],[-0.043958333333333384,-0.3737037037037037],[-0.05625,-0.3987037037037037],[-0.05927083333333331,-0.3851851851851852],[-0.0609375,-0.3725925925925926],[-0.058437500000000024,-0.37037037037037035],[-0.058437500000000024,-0.3492592592592593],[-0.043958333333333384,-0.3375925925925926],[-0.036249999999999956,-0.18055555555555555],[-0.028541666666666642,-0.0235185185185186],[-0.029895833333333382,0.16277777777777774],[-0.020937500000000022,0.30759259259259264],[-0.005416666666666714,0.4762962962962964],[0.010104166666666714,0.6449999999999999],[0.029791666666666692,0.7846296296296297],[0.06572916666666669,0.9524074074074074],[0.08364583333333328,1.0277777777777777],[0.08895833333333343,1.1212962962962962],[0.11083333333333342,1.0668518518518517],[0.10364583333333334,0.9794444444444446],[0.11208333333333324,0.8474074074074075],[0.11447916666666676,0.7477777777777777],[0.10802083333333339,0.6261111111111112],[0.0900000000000001,0.519074074074074],[0.07208333333333337,0.42962962962962964],[0.02822916666666669,0.3122222222222223],[0.015312500000000047,0.24518518518518514],[0.002395833333333286,0.17814814814814822],[-0.016979166666666618,0.10962962962962972],[-0.013854166666666619,0.08574074074074066],[-0.03145833333333338,0.046296296296296294],[-0.04510416666666662,0.007962962962962878],[-0.043437500000000046,0.0025925925925925505],[-0.04812500000000005,-0.02092592592592584],[-0.05166666666666669,-0.07685185185185185],[-0.04552083333333338,-0.13296296296296298],[-0.04500000000000005,-0.14203703703703702],[-0.044479166666666715,-0.15111111111111114],[-0.08072916666666667,-0.15055555555555558],[-0.13677083333333329,-0.1675925925925926],[-0.18104166666666663,-0.15111111111111114],[-0.2454166666666667,-0.13111111111111112],[-0.2952083333333333,-0.15407407407407406],[-0.3271875,-0.1735185185185185],[-0.3655208333333333,-0.14148148148148143],[-0.40385416666666674,-0.10944444444444448],[-0.47875,-0.09518518518518514],[-0.5366666666666667,-0.08055555555555556],[-0.551875,-0.09092592592592597],[-0.5426041666666667,-0.09296296296296294],[-0.5458333333333333,-0.09722222222222222],[-0.5329166666666667,-0.10611111111111113],[-0.5452083333333333,-0.09592592592592594],[-0.5507291666666667,-0.0868518518518518],[-0.5556249999999999,-0.07222222222222222],[-0.5605208333333334,-0.05759259259259263],[-0.523125,-0.04018518518518527],[-0.5027083333333333,-0.023148148148148147],[-0.5088541666666667,-0.020370370370370372],[-0.513125,-0.019999999999999917],[-0.5052083333333334,-0.010740740740740657],[-0.5004166666666666,0.013703703703703662],[-0.48895833333333333,0.01703703703703712],[-0.4841666666666667,0.021481481481481525],[-0.4780208333333333,0.04000000000000004],[-0.4817708333333333,0.05055555555555547],[-0.48239583333333336,0.04537037037037037],[-0.48302083333333334,0.04018518518518527],[-0.47520833333333334,0.06592592592592597],[-0.46739583333333334,0.09166666666666666],[-0.4314583333333334,0.09703703703703699],[-0.38708333333333333,0.07296296296296292],[-0.3376041666666667,0.06592592592592597],[-0.288125,0.0588888888888888],[-0.23802083333333332,0.015555555555555513],[-0.17802083333333332,-0.0198148148148149],[-0.1313541666666667,-0.06277777777777774],[-0.08687499999999998,-0.10537037037037032],[-0.04385416666666669,-0.14888888888888885],[-0.000833333333333286,-0.19240740740740736],[-0.0036458333333333334,-0.21592592592592597],[-0.011770833333333286,-0.22518518518518524],[-0.02010416666666662,-0.2477777777777778],[-0.028437499999999952,-0.27037037037037037],[-0.03354166666666671,-0.25462962962962965],[-0.03927083333333338,-0.25833333333333336],[-0.06802083333333328,-0.2535185185185185],[-0.07520833333333338,-0.23777777777777773],[-0.07520833333333338,-0.23777777777777773],[-0.07937500000000004,-0.2403703703703704],[-0.08374999999999998,-0.24685185185185188],[-0.07531249999999995,-0.2601851851851852],[-0.059375,-0.2485185185185185],[-0.05479166666666669,-0.2235185185185185],[-0.051145833333333356,-0.22148148148148153],[-0.05375000000000003,-0.2477777777777778],[-0.06937500000000002,-0.2270370370370371],[-0.06937500000000002,-0.2270370370370371],[-0.06229166666666662,-0.20037037037037034],[-0.06229166666666662,-0.20037037037037034],[-0.06739583333333338,-0.12111111111111107],[-0.06739583333333338,-0.12111111111111107],[-0.06083333333333331,0.052962962962963],[-0.06083333333333331,0.052962962962963],[-0.06156250000000003,0.20962962962962972],[-0.06156250000000003,0.20962962962962972],[-0.04885416666666664,0.34814814814814815],[-0.04885416666666664,0.34814814814814815],[-0.05520833333333333,0.4722222222222222],[-0.04812500000000005,0.5577777777777778],[-0.04791666666666667,0.6674074074074073],[-0.041562499999999974,0.7077777777777778],[-0.030312500000000023,0.7470370370370369],[-0.016145833333333335,0.7511111111111112],[-0.00916666666666662,0.6912962962962962],[-0.01083333333333331,0.5429629629629631],[-0.00635416666666669,0.4087037037037038],[-0.024374999999999977,0.2874074074074075],[-0.026041666666666668,0.17388888888888884],[-0.04375,0.06425925925925935],[-0.04791666666666667,-0.022037037037036994],[-0.058229166666666644,-0.039074074074074115],[-0.06572916666666669,-0.11222222222222226],[-0.07614583333333336,-0.15018518518518523],[-0.09624999999999997,-0.1698148148148148],[-0.12072916666666664,-0.18796296296296297],[-0.13677083333333329,-0.19574074074074072],[-0.14375,-0.1983333333333334],[-0.16437499999999997,-0.20388888888888893],[-0.18041666666666673,-0.17074074074074072]]","[[0.0032291666666666905,0.3237037037037036,0.0003000000119186552],[0.0032291666666666905,0.3237037037037036,0.040900000005962056],[0.0032291666666666905,0.3237037037037036,0.04530000001192036],[-0.0026041666666666665,0.3224074074074075,0.06199999999999761],[-0.0046875,0.2992592592592593,0.07869999998807486],[-0.002395833333333286,0.24944444444444452,0.09540000000595228],[0.011041666666666691,0.2551851851851851,0.11199999999999477],[0.014374999999999952,0.262037037037037,0.12880000001192116],[0.01572916666666669,0.26074074074074066,0.14530000001191468],[0.017083333333333308,0.2594444444444445,0.1620999999940409],[0.027187500000000024,0.2537037037037037,0.17859999999403442],[0.02322916666666662,0.24981481481481477,0.1954000000059608],[0.01739583333333338,0.24962962962962953,0.21199999999998909],[0.030729166666666665,0.25314814814814823,0.22869999998808055],[0.03885416666666662,0.24537037037037038,0.24580000001191138],[0.042499999999999954,0.255925925925926,0.26200000000000045],[0.029999999999999954,0.22481481481481477,0.27859999999402874],[0.017499999999999953,0.19370370370370374,0.29530000001192036],[0.0048958333333333805,0.18000000000000008,0.3119999999999976],[-0.0203125,0.16296296296296298,0.32869999998807486],[-0.09343750000000005,0.16962962962962966,0.3453000000119175],[-0.16656249999999997,0.17629629629629637,0.36199999999999477],[-0.2391666666666667,0.14888888888888885,0.37859999999403726],[-0.3129166666666666,0.13722222222222227,0.39540000000594944],[-0.34020833333333333,0.1259259259259259,0.4120999999940409],[-0.3632291666666667,0.13111111111111104,0.4285999999940344],[-0.3967708333333333,0.14203703703703713,0.44549999999999557],[-0.43031250000000004,0.152962962962963,0.4619999999999891],[-0.48020833333333335,0.14870370370370362,0.47869999998808055],[-0.5175,0.1477777777777777,0.4953000000119232],[-0.5286458333333334,0.14166666666666666,0.5120000000000005],[-0.5397916666666667,0.13555555555555565,0.5286999999880777],[-0.5308333333333334,0.1725925925925927,0.5483000000119205],[-0.5207291666666667,0.19388888888888897,0.5619999999999976],[-0.5626041666666667,0.2168518518518519,0.5786999999880749],[-0.5626041666666667,0.2168518518518519,0.5954000000059523],[-0.60875,0.22333333333333338,0.6119999999999948],[-0.60875,0.22333333333333338,0.628699999988072],[-0.6389583333333333,0.22333333333333338,0.6454000000059494],[-0.6389583333333333,0.22333333333333338,0.6620999999940409],[-0.6482291666666666,0.29981481481481476,0.6786999999880692],[-0.6482291666666666,0.29981481481481476,0.6954000000059608],[-0.6003124999999999,0.45555555555555555,0.7119999999999891],[-0.6003124999999999,0.45555555555555555,0.7288000000119155],[-0.5444791666666667,0.6101851851851852,0.745400000005958],[-0.5444791666666667,0.6101851851851852,0.7620000000000005],[-0.46,0.7546296296296297,0.7786999999880777],[-0.3805208333333333,0.900740740740741,0.7954000000059551],[-0.31697916666666665,1.0342592592592592,0.8119999999999976],[-0.2534374999999999,1.1677777777777776,0.8285999999940401],[-0.18677083333333327,1.2574074074074073,0.8469000000059594],[-0.12010416666666662,1.3470370370370373,0.8619999999999948],[-0.04916666666666671,1.45,0.8785999999940373],[0.000833333333333286,1.4764814814814815,0.8954000000059494],[0.000833333333333286,1.4764814814814815,0.9119999999999919],[-0.015208333333333357,1.3753703703703704,0.9286999999880692],[-0.051041666666666666,1.2735185185185185,0.9455999999940303],[-0.09343750000000005,1.1696296296296294,0.9619999999999891],[-0.12281249999999998,1.0524074074074072,0.979099999994034],[-0.15583333333333335,0.935925925925926,0.9953000000119232],[-0.1883333333333333,0.8270370370370371,1.0119000000059515],[-0.21375000000000005,0.769814814814815,1.0285999999940287],[-0.25281250000000005,0.7287037037037037,1.0454000000059551],[-0.2921875,0.6781481481481483,1.0619999999999976],[-0.31697916666666665,0.6046296296296296,1.0786999999880749],[-0.3271875,0.6007407407407407,1.0953000000119175],[-0.3277083333333334,0.625,1.1119999999999948],[-0.3282291666666667,0.6492592592592593,1.128699999988072],[-0.3329166666666667,0.7062962962962962,1.1474999999999937],[-0.29885416666666664,0.706851851851852,1.162099999994041],[-0.2640625,0.7266666666666666,1.1814999999999998],[-0.22593749999999999,0.7240740740740741,1.1954999999999956],[-0.17864583333333334,0.7837037037037038,1.2141999999880682],[-0.13562500000000005,0.7548148148148148,1.2288000000119155],[-0.11604166666666664,0.7598148148148147,1.2454999999999927],[-0.084375,0.7572222222222221,1.2649000000059516],[-0.03916666666666669,0.759074074074074,1.2786999999880777],[0.00604166666666662,0.7609259259259259,1.2954999999999899],[0.050937499999999976,0.678888888888889,1.314099999994042],[0.06239583333333331,0.693888888888889,1.3289000000059588],[0.05499999999999995,0.6277777777777778,1.3455000000000013],[0.04083333333333338,0.5801851851851851,1.365699999988081],[0.04083333333333338,0.4866666666666666,1.381099999994035],[0.04083333333333338,0.48037037037037034,1.3954000000059494],[0.04770833333333328,0.47314814814814815,1.414400000005955],[0.05791666666666669,0.4327777777777779,1.428900000005953],[0.07468750000000005,0.3168518518518519,1.4484999999999957],[0.0828125,0.20611111111111102,1.468400000005957],[0.0828125,0.20611111111111102,1.4789000000059502],[0.07531249999999995,0.16666666666666666,1.495400000005958],[0.04708333333333338,0.0787037037037037,1.5120999999940352],[0.036458333333333336,0.044999999999999915,1.5328000000119175],[0.036458333333333336,0.044999999999999915,1.5454000000059551],[0.05427083333333336,0.02629629629629638,1.5621999999880813],[0.05427083333333336,0.02629629629629638,1.5814999999999912],[0.0484375,-0.011481481481481566,1.5956999999880708],[0.04656250000000005,-0.06592592592592597,1.6120999999940295],[0.04666666666666662,-0.13037037037037033,1.6328000000119118],[0.050937499999999976,-0.15018518518518523,1.6479000000059614],[0.03604166666666669,-0.12629629629629627,1.662099999994041],[0.029791666666666692,-0.10759259259259263,1.6788000000119183],[0.035625000000000046,-0.09740740740740746,1.6988000000119143],[0.06499999999999997,-0.07333333333333338,1.7124999999999915],[0.0943749999999999,-0.0492592592592593,1.7289000000059502],[0.09343750000000005,-0.02092592592592584,1.7454999999999927],[0.10645833333333338,-0.00592592592592601,1.7653000000119192],[0.1178124999999999,-0.012777777777777735,1.7789000000059616],[0.12916666666666668,-0.01962962962962967,1.7954999999999899],[0.13666666666666671,-0.04611111111111107,1.8144000000059606],[0.15114583333333323,-0.05925925925925926,1.8286999999880749],[0.15520833333333334,-0.07888888888888893,1.8461999999880732],[0.15927083333333342,-0.09851851851851849,1.8651999999880786],[0.17083333333333334,-0.11777777777777781,1.8794000000059583],[0.18239583333333323,-0.13703703703703704,1.8954999999999984],[0.1944791666666667,-0.17537037037037034,1.911999999999992],[0.20656249999999995,-0.21370370370370367,1.9333000000119114],[0.20656249999999995,-0.21370370370370367,1.9454999999999956],[0.20499999999999996,-0.2064814814814815,1.9621999999880728],[0.1779166666666666,-0.18925925925925924,1.9793000000119179],[0.1609375,-0.1648148148148148,1.9979000000059557],[0.09833333333333343,-0.1425925925925926,2.0149000000059516],[0.05916666666666662,-0.11481481481481481,2.0286999999880777],[0.011249999999999953,-0.10722222222222218,2.0453000000119204],[-0.052291666666666715,-0.10592592592592591,2.06459999999403],[-0.06166666666666672,-0.09907407407407408,2.0799000000059493],[-0.06625000000000002,-0.08851851851851854,2.0953000000119175],[-0.1373958333333333,-0.05185185185185185,2.113300000011918],[-0.19375,-0.03333333333333333,2.1285999999940373],[-0.19593750000000001,-0.03425925925925926,2.1453000000119147],[-0.21187499999999998,-0.03425925925925926,2.161999999999992],[-0.1842708333333333,-0.029259259259259176,2.1785999999940344],[-0.16968749999999996,-0.023333333333333376,2.195300000011912],[-0.13270833333333332,0.012592592592592508,2.211999999999989],[-0.09572916666666664,0.0485185185185186,2.2285999999940316],[-0.12947916666666662,0.06092592592592588,2.245300000011923],[-0.1632291666666667,0.07333333333333338,2.2620000000000005],[-0.11583333333333339,0.072037037037037,2.2786999999880777],[-0.071875,0.08185185185185194,2.2953000000119204],[-0.07916666666666666,0.0705555555555556,2.3119999999999976],[-0.08645833333333333,0.05925925925925926,2.328699999988075],[-0.08229166666666667,0.058703703703703786,2.3468000000119105],[-0.078125,0.05814814814814811,2.36190000000596],[-0.09739583333333333,0.07611111111111116,2.3785999999940373],[-0.11666666666666667,0.09407407407407399,2.3953000000119147],[-0.11916666666666664,0.19388888888888897,2.411999999999992],[-0.11864583333333331,0.2881481481481482,2.428699999988069],[-0.1414583333333333,0.40425925925925915,2.4454999999999956],[-0.1642708333333334,0.5203703703703704,2.461999999999989],[-0.16239583333333332,0.6696296296296297,2.4786999999880805],[-0.16052083333333336,0.818888888888889,2.495300000011923],[-0.17124999999999999,0.9072222222222224,2.51219999998807],[-0.18197916666666672,0.9955555555555554,2.5285999999940287],[-0.15093749999999997,1.0605555555555557,2.5453000000119204],[-0.11989583333333335,1.1255555555555554,2.5619999999999976],[-0.11989583333333335,1.1255555555555554,2.578699999988075],[-0.09104166666666665,1.0716666666666668,2.5953000000119175],[-0.09104166666666665,1.0716666666666668,2.6119999999999948],[-0.06208333333333336,1.022962962962963,2.628699999988072],[-0.06208333333333336,1.022962962962963,2.6454999999999984],[-0.01729166666666669,0.9153703703703703,2.661900000005957],[0.01885416666666669,0.7651851851851853,2.6846999999880694],[0.01885416666666669,0.7651851851851853,2.695300000011912],[0.057291666666666664,0.6042592592592592,2.711999999999989],[0.057291666666666664,0.6042592592592592,2.7286999999880805],[0.08989583333333329,0.46277777777777773,2.745300000011923],[0.12999999999999995,0.3490740740740741,2.7674000000059493],[0.1638541666666666,0.227962962962963,2.782499999999999],[0.1638541666666666,0.227962962962963,2.802499999999995],[0.16572916666666657,0.10185185185185185,2.816300000011921],[0.11270833333333338,-0.010185185185185186,2.831099999994038],[0.06166666666666672,-0.06722222222222224,2.8453000000119175],[0.007500000000000047,-0.12388888888888884,2.86190000000596],[-0.05802083333333338,-0.16500000000000004,2.8785999999940373],[-0.11489583333333328,-0.16351851851851854,2.8953000000119147],[-0.14979166666666663,-0.1551851851851852,2.911999999999992],[-0.1788541666666667,-0.16629629629629633,2.928699999988069],[-0.20906250000000004,-0.1801851851851852,2.945300000011912],[-0.23302083333333337,-0.18666666666666668,2.961999999999989],[-0.26447916666666665,-0.1787037037037037,2.9785999999940316],[-0.24104166666666665,-0.18481481481481485,2.995300000011923],[-0.22145833333333337,-0.1801851851851852,3.0120000000000005],[-0.20187499999999994,-0.17555555555555558,3.0285999999940287],[-0.17562500000000003,-0.1868518518518518,3.0453000000119204],[-0.14937499999999998,-0.19814814814814816,3.061900000005963],[-0.19020833333333337,-0.1814814814814815,3.07859999999404],[-0.23104166666666662,-0.1648148148148148,3.0953000000119175],[-0.2795833333333333,-0.15055555555555558,3.11190000000596],[-0.328125,-0.13629629629629633,3.1285999999940373],[-0.37520833333333337,-0.10166666666666663,3.1453000000119147],[-0.4222916666666666,-0.06703703703703702,3.161999999999992],[-0.44177083333333333,0.04092592592592597,3.1785999999940344],[-0.45375000000000004,0.16277777777777774,3.195300000011912],[-0.44166666666666665,0.3537037037037037,3.211999999999989],[-0.4295833333333333,0.5446296296296297,3.2285999999940316],[-0.3696875,0.7035185185185184,3.245300000011923],[-0.3195833333333333,0.8681481481481481,3.2620000000000005],[-0.2652083333333334,1.0183333333333335,3.2785999999940287],[-0.19781249999999997,1.1848148148148148,3.2953000000119204],[-0.1310416666666666,1.2922222222222222,3.3119999999999976],[-0.06427083333333337,1.3996296296296296,3.32859999999404],[-0.04552083333333338,1.393888888888889,3.3453000000119175],[-0.03427083333333331,1.374259259259259,3.36190000000596],[-0.059375,1.298888888888889,3.3785999999940373],[-0.08447916666666669,1.2235185185185187,3.3975999999940285],[-0.1123958333333333,1.1285185185185187,3.411900000005957],[-0.13052083333333328,1.0277777777777777,3.4285999999940344],[-0.18708333333333335,0.9274074074074073,3.446800000011919],[-0.25666666666666665,0.8107407407407407,3.4625999999940404],[-0.325,0.7377777777777778,3.4785999999940316],[-0.39333333333333337,0.6648148148148149,3.495400000005958],[-0.4345833333333334,0.5603703703703704,3.5119000000059515],[-0.47583333333333333,0.455925925925926,3.5285999999940287],[-0.5039583333333334,0.3757407407407407,3.5451999999880712],[-0.5320833333333334,0.29555555555555557,3.5619999999999976],[-0.57625,0.24666666666666676,3.57859999999404],[-0.6217708333333333,0.18981481481481483,3.5953000000119175],[-0.5814583333333334,0.21055555555555563,3.61190000000596],[-0.5438541666666666,0.2351851851851852,3.6285999999940373],[-0.47520833333333334,0.2124074074074075,3.6453000000119147],[-0.40656249999999994,0.1896296296296296,3.661999999999992],[-0.33958333333333335,0.2361111111111111,3.678699999988069],[-0.2726041666666667,0.2825925925925926,3.695300000011912],[-0.20208333333333334,0.34018518518518526,3.711999999999989],[-0.13156249999999994,0.3977777777777777,3.7285999999940316],[-0.04750000000000002,0.42777777777777776,3.745300000011923],[0.03791666666666664,0.46574074074074073,3.7619000000059515],[0.06864583333333343,0.4385185185185184,3.7785999999940287],[0.10208333333333333,0.4074074074074074,3.7951999999880712],[0.1118750000000001,0.41518518518518527,3.8119999999999976],[0.12166666666666662,0.42296296296296293,3.82859999999404],[0.12781250000000005,0.41203703703703703,3.8453000000119175],[0.13395833333333323,0.40111111111111114,3.86190000000596],[0.13624999999999995,0.3803703703703703,3.878699999988072],[0.13854166666666667,0.3596296296296297,3.8953000000119147],[0.1428124999999999,0.36148148148148157,3.911999999999992],[0.14708333333333337,0.3633333333333334,3.928699999988069],[0.15322916666666658,0.3798148148148149,3.945199999988077],[0.159375,0.3962962962962963,3.9619000000059543],[0.13624999999999995,0.4522222222222223,3.9786999999880805],[0.1131249999999999,0.5081481481481481,3.995300000011923],[0.03843749999999998,0.5277777777777778,4.0120000000000005],[-0.029062499999999977,0.5642592592592593,4.028699999988078],[-0.08510416666666672,0.5505555555555555,4.045400000005955],[-0.1788541666666667,0.5275925925925925,4.061999999999998],[-0.26052083333333337,0.5294444444444444,4.07859999999404],[-0.3454166666666667,0.528888888888889,4.0953000000119175],[-0.42697916666666663,0.528888888888889,4.11190000000596],[-0.5243749999999999,0.5211111111111111,4.128599999994037],[-0.5465625000000001,0.4587037037037038,4.1475999999940285],[-0.56875,0.3962962962962963,4.161900000005957],[-0.5397916666666667,0.3937037037037037,4.178599999994034],[-0.5180208333333334,0.3742592592592593,4.195199999988077],[-0.5320833333333334,0.3948148148148149,4.211999999999989],[-0.5084375,0.4246296296296295,4.228599999994032],[-0.5033333333333333,0.4112962962962963,4.245300000011923],[-0.495,0.40037037037037043,4.2620000000000005],[-0.476875,0.4140740740740741,4.278699999988078],[-0.44291666666666674,0.43555555555555564,4.29530000001192],[-0.43479166666666663,0.5274074074074073,4.311900000005963],[-0.41687500000000005,0.6116666666666666,4.32859999999404],[-0.3998958333333333,0.6848148148148148,4.3453000000119175],[-0.3829166666666667,0.7579629629629628,4.361999999999995],[-0.31927083333333334,0.850925925925926,4.378699999988072],[-0.26625000000000004,0.9392592592592593,4.39519999998808],[-0.2091666666666666,1.0464814814814813,4.411900000005957],[-0.15208333333333332,1.1537037037037037,4.428699999988069],[-0.15208333333333332,1.1537037037037037,4.445400000005961],[-0.10541666666666671,1.2209259259259257,4.461999999999989],[-0.06416666666666669,1.2475925925925926,4.478599999994032],[-0.04500000000000005,1.205925925925926,4.495300000011923],[-0.026250000000000048,1.1666666666666667,4.5119000000059515],[-0.00625,1.125740740740741,4.528599999994029],[0.009895833333333333,1.074814814814815,4.54530000001192],[0.000833333333333286,1.0003703703703704,4.561999999999998],[-0.01593749999999995,0.8966666666666667,4.584400000005957],[-0.01593749999999995,0.8966666666666667,4.5953000000119175],[-0.03270833333333331,0.7929629629629631,4.611999999999995],[-0.03270833333333331,0.7929629629629631,4.628599999994037],[-0.05302083333333331,0.6864814814814816,4.645300000011915],[-0.05302083333333331,0.6864814814814816,4.661999999999992],[-0.06437499999999995,0.577962962962963,4.678599999994034],[-0.06437499999999995,0.577962962962963,4.695300000011912],[-0.07291666666666667,0.4957407407407408,4.711999999999989],[-0.07291666666666667,0.4957407407407408,4.728599999994032],[-0.08968750000000002,0.4068518518518519,4.745300000011923],[-0.08968750000000002,0.4068518518518519,4.7619000000059515],[-0.11625000000000002,0.3490740740740741,4.778599999994029],[-0.13666666666666671,0.27314814814814814,4.79530000001192],[-0.1375,0.19870370370370363,4.811900000005963],[-0.13833333333333328,0.1242592592592593,4.82859999999404],[-0.1264583333333333,0.0948148148148149,4.8453000000119175],[-0.11593749999999996,0.06351851851851843,4.86190000000596],[-0.11208333333333335,0.03740740740740749,4.878599999994037],[-0.11989583333333335,0.027777777777777776,4.895300000011915],[-0.1141666666666667,0.039629629629629584,4.911999999999992],[-0.10083333333333329,0.04203703703703712,4.930199999988076],[-0.08302083333333338,0.03333333333333333,4.946599999994035],[-0.06875,0.04203703703703712,4.961900000005954],[-0.07906249999999998,0.06518518518518526,4.978599999994032],[-0.08937499999999995,0.08833333333333342,4.995300000011923],[-0.0953125,0.08925925925925934,5.0119000000059515],[-0.10125000000000005,0.09018518518518527,5.028599999994029],[-0.10364583333333334,0.06370370370370367,5.04530000001192],[-0.10604166666666662,0.03722222222222227,5.061900000005963],[-0.15041666666666664,0.030000000000000086,5.07859999999404],[-0.19177083333333336,0.02629629629629638,5.0953000000119175],[-0.2423958333333334,0.019444444444444445,5.11190000000596],[-0.2828125,0.016666666666666666,5.128599999994037],[-0.31614583333333335,-0.009074074074074031,5.146599999994038],[-0.3494791666666667,-0.03481481481481473,5.161900000005957],[-0.3980208333333334,-0.028888888888888933,5.178599999994034],[-0.44656250000000003,-0.02296296296296292,5.195300000011912],[-0.46802083333333333,-0.01722222222222214,5.211999999999989],[-0.49802083333333336,-0.00851851851851856,5.228599999994032],[-0.49135416666666665,-0.004259259259259175,5.245300000011923],[-0.48708333333333337,0.014814814814814815,5.2620000000000005],[-0.47458333333333336,-0.02111111111111107,5.278599999994029],[-0.47229166666666667,-0.06111111111111111,5.29530000001192],[-0.4764583333333333,-0.07611111111111116,5.311900000005963],[-0.48062499999999997,-0.09111111111111109,5.32859999999404],[-0.4675,-0.11851851851851852,5.3453000000119175],[-0.45437500000000003,-0.14592592592592596,5.36190000000596],[-0.4545833333333333,-0.13629629629629633,5.378599999994037],[-0.44625,-0.12962962962962962,5.395300000011915],[-0.4592708333333333,-0.15629629629629627,5.411999999999992],[-0.47229166666666667,-0.182962962962963,5.428699999988069],[-0.4748958333333333,-0.18796296296296297,5.445499999999996],[-0.4775,-0.19296296296296295,5.461999999999989],[-0.49604166666666666,-0.16407407407407412,5.478599999994032],[-0.5145833333333333,-0.13518518518518519,5.495300000011923],[-0.49656249999999996,-0.012592592592592508,5.5120000000000005],[-0.47604166666666664,0.10500000000000008,5.528599999994029],[-0.4310416666666666,0.2705555555555556,5.546800000011913],[-0.38604166666666667,0.4361111111111111,5.561900000005963],[-0.3272916666666667,0.5920370370370371,5.57859999999404],[-0.2685416666666666,0.7479629629629629,5.595199999988068],[-0.22083333333333333,0.8892592592592593,5.611999999999995],[-0.17312500000000006,1.0305555555555554,5.628599999994037],[-0.11114583333333337,1.0848148148148147,5.64519999998808],[-0.04354166666666662,1.1898148148148149,5.661900000005957],[0.0007291666666667141,1.1466666666666667,5.678599999994034],[0.042499999999999954,1.1085185185185185,5.695300000011912],[0.02687499999999995,0.9935185185185185,5.713199999988078],[0.008958333333333356,0.8866666666666666,5.728599999994032],[0.004791666666666691,0.7772222222222223,5.745300000011923],[0.005520833333333286,0.6583333333333333,5.7619000000059515],[-0.009583333333333381,0.5518518518518518,5.778599999994029],[-0.022395833333333334,0.4353703703703704,5.79530000001192],[-0.014374999999999952,0.3566666666666667,5.811900000005963],[-0.011979166666666667,0.2272222222222223,5.828499999999991],[-0.0006250000000000236,0.1485185185185186,5.846499999999992],[0.011666666666666714,0.07685185185185185,5.86190000000596],[0.04854166666666669,0.02296296296296292,5.878599999994037],[0.08770833333333337,-0.039074074074074115,5.895300000011915],[0.1134375000000001,-0.0787037037037037,5.911900000005957],[0.13145833333333337,-0.12314814814814815,5.928599999994034],[0.16239583333333343,-0.11370370370370367,5.945900000005963],[0.20052083333333334,-0.09203703703703701,5.962199999988073],[0.23406250000000003,-0.09185185185185189,5.978599999994032],[0.26760416666666675,-0.09166666666666666,5.995199999988074],[0.2716666666666666,-0.08907407407407411,6.0120000000000005],[0.2716666666666666,-0.08907407407407411,6.034900000005962],[0.27854166666666674,-0.07999999999999997,6.05149999999999],[0.27854166666666674,-0.07999999999999997,6.061999999999998],[0.265625,-0.07111111111111107,6.078699999988075],[0.25270833333333326,-0.06222222222222226,6.095199999988068],[0.22552083333333334,-0.06574074074074074,6.114300000011923],[0.22520833333333337,-0.05814814814814811,6.128900000005956],[0.22385416666666677,-0.06462962962962959,6.145400000005949],[0.19802083333333323,-0.053703703703703705,6.164900000005957],[0.16843750000000005,-0.03481481481481473,6.178699999988069],[0.14385416666666656,-0.02111111111111107,6.195400000005961],[0.11593749999999996,-0.007592592592592635,6.213999999999999],[0.10239583333333328,-0.020555555555555598,6.2286999999880805],[0.10541666666666671,-0.03314814814814811,6.245400000005958],[0.10843749999999991,-0.045740740740740825,6.262099999994035],[0.12729166666666672,-0.04518518518518514,6.2819999999999965],[0.12145833333333324,-0.039629629629629584,6.295400000005955],[0.12333333333333343,-0.036481481481481566,6.312099999994032],[0.14020833333333324,-0.052962962962963,6.32880000001191],[0.15187499999999995,-0.06648148148148143,6.347400000005962],[0.14947916666666666,-0.06740740740740736,6.3620999999940295],[0.14333333333333323,-0.05592592592592591,6.381],[0.13072916666666667,-0.01629629629629621,6.39819999998808],[0.1359375,-0.014074074074074116,6.412599999994029],[0.14114583333333333,-0.01185185185185181,6.428900000005953],[0.13541666666666666,-0.014074074074074116,6.448800000011914],[0.14416666666666675,-0.027962962962963005,6.46390000000595],[0.14677083333333343,-0.05537037037037033,6.4788000000119155],[0.1493750000000001,-0.08277777777777776,6.495400000005958],[0.13114583333333343,-0.10388888888888893,6.513999999999996],[0.12062499999999995,-0.09907407407407408,6.528999999999996],[0.12062499999999995,-0.09907407407407408,6.545400000005955],[0.11895833333333337,-0.10574074074074079,6.564499999999995],[0.11458333333333333,-0.14907407407407408,6.582999999999998],[0.11458333333333333,-0.14907407407407408,6.595400000005952],[0.096875,-0.1559259259259259,6.615699999988081],[0.096875,-0.1559259259259259,6.628699999988072],[0.08041666666666672,-0.19796296296296292,6.645499999999998],[0.08041666666666672,-0.19796296296296292,6.662099999994041],[0.08489583333333334,-0.19388888888888886,6.682400000005956],[0.08489583333333334,-0.19388888888888886,6.695300000011912],[0.06270833333333338,-0.17314814814814813,6.712099999994038],[0.06270833333333338,-0.17314814814814813,6.735500000000002],[0.034375,-0.17407407407407408,6.745400000005958],[0.034375,-0.17407407407407408,6.762099999994035],[0.001145833333333357,-0.16111111111111112,6.780800000011922],[0.005937500000000048,-0.16166666666666668,6.795199999988071],[0.005729166666666666,-0.17592592592592593,6.811900000005963],[0.016979166666666618,-0.1940740740740741,6.828499999999991],[0.010000000000000024,-0.22925925925925927,6.845199999988068],[0.00302083333333331,-0.2644444444444445,6.86190000000596],[-0.009375,-0.25407407407407406,6.878599999994037],[-0.03166666666666664,-0.285,6.895300000011915],[-0.03166666666666664,-0.285,6.911900000005957],[-0.043020833333333286,-0.3314814814814815,6.928599999994034],[-0.043958333333333384,-0.3405555555555555,6.945300000011912],[-0.03999999999999997,-0.3635185185185185,6.961900000005954],[-0.043020833333333286,-0.3633333333333333,6.978599999994032],[-0.043958333333333384,-0.3737037037037037,6.995300000011923],[-0.05625,-0.3987037037037037,7.0120000000000005],[-0.05927083333333331,-0.3851851851851852,7.028499999999994],[-0.0609375,-0.3725925925925926,7.045199999988071],[-0.058437500000000024,-0.37037037037037035,7.061900000005963],[-0.058437500000000024,-0.3492592592592593,7.07859999999404],[-0.043958333333333384,-0.3375925925925926,7.0953000000119175],[-0.036249999999999956,-0.18055555555555555,7.111999999999995],[-0.028541666666666642,-0.0235185185185186,7.128599999994037],[-0.029895833333333382,0.16277777777777774,7.145300000011915],[-0.020937500000000022,0.30759259259259264,7.161900000005957],[-0.005416666666666714,0.4762962962962964,7.178599999994034],[0.010104166666666714,0.6449999999999999,7.195300000011912],[0.029791666666666692,0.7846296296296297,7.211900000005954],[0.06572916666666669,0.9524074074074074,7.228499999999997],[0.08364583333333328,1.0277777777777777,7.245199999988074],[0.08895833333333343,1.1212962962962962,7.2619000000059515],[0.11083333333333342,1.0668518518518517,7.278599999994029],[0.10364583333333334,0.9794444444444446,7.295199999988071],[0.11208333333333324,0.8474074074074075,7.311900000005963],[0.11447916666666676,0.7477777777777777,7.32859999999404],[0.10802083333333339,0.6261111111111112,7.345500000000001],[0.0900000000000001,0.519074074074074,7.361999999999995],[0.07208333333333337,0.42962962962962964,7.378599999994037],[0.02822916666666669,0.3122222222222223,7.39519999998808],[0.015312500000000047,0.24518518518518514,7.411800000011922],[0.002395833333333286,0.17814814814814822,7.428599999994034],[-0.016979166666666618,0.10962962962962972,7.44759999999404],[-0.013854166666666619,0.08574074074074066,7.461900000005954],[-0.03145833333333338,0.046296296296296294,7.478599999994032],[-0.04510416666666662,0.007962962962962878,7.495199999988074],[-0.043437500000000046,0.0025925925925925505,7.5119000000059515],[-0.04812500000000005,-0.02092592592592584,7.528699999988078],[-0.05166666666666669,-0.07685185185185185,7.545199999988071],[-0.04552083333333338,-0.13296296296296298,7.561900000005963],[-0.04500000000000005,-0.14203703703703702,7.578499999999991],[-0.044479166666666715,-0.15111111111111114,7.5953000000119175],[-0.08072916666666667,-0.15055555555555558,7.61190000000596],[-0.13677083333333329,-0.1675925925925926,7.628599999994037],[-0.18104166666666663,-0.15111111111111114,7.645300000011915],[-0.2454166666666667,-0.13111111111111112,7.661999999999992],[-0.2952083333333333,-0.15407407407407406,7.678599999994034],[-0.3271875,-0.1735185185185185,7.695199999988077],[-0.3655208333333333,-0.14148148148148143,7.711999999999989],[-0.40385416666666674,-0.10944444444444448,7.728599999994032],[-0.47875,-0.09518518518518514,7.746599999994032],[-0.5366666666666667,-0.08055555555555556,7.761800000011917],[-0.551875,-0.09092592592592597,7.778599999994029],[-0.5426041666666667,-0.09296296296296294,7.795199999988071],[-0.5458333333333333,-0.09722222222222222,7.811900000005963],[-0.5329166666666667,-0.10611111111111113,7.82859999999404],[-0.5452083333333333,-0.09592592592592594,7.845500000000001],[-0.5507291666666667,-0.0868518518518518,7.86190000000596],[-0.5556249999999999,-0.07222222222222222,7.8785000000000025],[-0.5605208333333334,-0.05759259259259263,7.895300000011915],[-0.523125,-0.04018518518518527,7.911900000005957],[-0.5027083333333333,-0.023148148148148147,7.9285],[-0.5088541666666667,-0.020370370370370372,7.945199999988077],[-0.513125,-0.019999999999999917,7.961900000005954],[-0.5052083333333334,-0.010740740740740657,7.978499999999997],[-0.5004166666666666,0.013703703703703662,7.995199999988074],[-0.48895833333333333,0.01703703703703712,8.011900000005951],[-0.4841666666666667,0.021481481481481525,8.028499999999994],[-0.4780208333333333,0.04000000000000004,8.045199999988071],[-0.4817708333333333,0.05055555555555547,8.061800000011914],[-0.48239583333333336,0.04537037037037037,8.07859999999404],[-0.48302083333333334,0.04018518518518527,8.095199999988068],[-0.47520833333333334,0.06592592592592597,8.112199999988079],[-0.46739583333333334,0.09166666666666666,8.128500000000003],[-0.4314583333333334,0.09703703703703699,8.145300000011915],[-0.38708333333333333,0.07296296296296292,8.161900000005957],[-0.3376041666666667,0.06592592592592597,8.1785],[-0.288125,0.0588888888888888,8.195199999988077],[-0.23802083333333332,0.015555555555555513,8.21180000001192],[-0.17802083333333332,-0.0198148148148149,8.228499999999997],[-0.1313541666666667,-0.06277777777777774,8.245300000011923],[-0.08687499999999998,-0.10537037037037032,8.261800000011917],[-0.04385416666666669,-0.14888888888888885,8.278499999999994],[-0.000833333333333286,-0.19240740740740736,8.295199999988071],[-0.0036458333333333334,-0.21592592592592597,8.311800000011914],[-0.011770833333333286,-0.22518518518518524,8.328499999999991],[-0.02010416666666662,-0.2477777777777778,8.345199999988068],[-0.028437499999999952,-0.27037037037037037,8.36190000000596],[-0.03354166666666671,-0.25462962962962965,8.378500000000003],[-0.03927083333333338,-0.25833333333333336,8.39519999998808],[-0.06802083333333328,-0.2535185185185185,8.411900000005957],[-0.07520833333333338,-0.23777777777777773,8.428599999994034],[-0.07520833333333338,-0.23777777777777773,8.445199999988077],[-0.07937500000000004,-0.2403703703703704,8.461900000005954],[-0.08374999999999998,-0.24685185185185188,8.478599999994032],[-0.07531249999999995,-0.2601851851851852,8.495199999988074],[-0.059375,-0.2485185185185185,8.511900000005951],[-0.05479166666666669,-0.2235185185185185,8.528599999994029],[-0.051145833333333356,-0.22148148148148153,8.54530000001192],[-0.05375000000000003,-0.2477777777777778,8.561800000011914],[-0.06937500000000002,-0.2270370370370371,8.584300000011922],[-0.06937500000000002,-0.2270370370370371,8.595199999988068],[-0.06229166666666662,-0.20037037037037034,8.61190000000596],[-0.06229166666666662,-0.20037037037037034,8.628599999994037],[-0.06739583333333338,-0.12111111111111107,8.645300000011915],[-0.06739583333333338,-0.12111111111111107,8.661900000005957],[-0.06083333333333331,0.052962962962963,8.6785],[-0.06083333333333331,0.052962962962963,8.695199999988077],[-0.06156250000000003,0.20962962962962972,8.711900000005954],[-0.06156250000000003,0.20962962962962972,8.728499999999997],[-0.04885416666666664,0.34814814814814815,8.745300000011923],[-0.04885416666666664,0.34814814814814815,8.761900000005951],[-0.05520833333333333,0.4722222222222222,8.778599999994029],[-0.04812500000000005,0.5577777777777778,8.795199999988071],[-0.04791666666666667,0.6674074074074073,8.815400000005951],[-0.041562499999999974,0.7077777777777778,8.829999999999998],[-0.030312500000000023,0.7470370370370369,8.847199999988078],[-0.016145833333333335,0.7511111111111112,8.861999999999995],[-0.00916666666666662,0.6912962962962962,8.878500000000003],[-0.01083333333333331,0.5429629629629631,8.89519999998808],[-0.00635416666666669,0.4087037037037038,8.911900000005957],[-0.024374999999999977,0.2874074074074075,8.928599999994034],[-0.026041666666666668,0.17388888888888884,8.945300000011912],[-0.04375,0.06425925925925935,8.961900000005954],[-0.04791666666666667,-0.022037037037036994,8.978599999994032],[-0.058229166666666644,-0.039074074074074115,8.995199999988074],[-0.06572916666666669,-0.11222222222222226,9.012099999994035],[-0.07614583333333336,-0.15018518518518523,9.028499999999994],[-0.09624999999999997,-0.1698148148148148,9.045199999988071],[-0.12072916666666664,-0.18796296296296297,9.061800000011914],[-0.13677083333333329,-0.19574074074074072,9.07859999999404],[-0.14375,-0.1983333333333334,9.095199999988068],[-0.16437499999999997,-0.20388888888888893,9.11190000000596],[-0.18041666666666673,-0.17074074074074072,9.128599999994037]]","[0.0003000000119186552,0.040900000005962056,0.04530000001192036,0.06199999999999761,0.07869999998807486,0.09540000000595228,0.11199999999999477,0.12880000001192116,0.14530000001191468,0.1620999999940409,0.17859999999403442,0.1954000000059608,0.21199999999998909,0.22869999998808055,0.24580000001191138,0.26200000000000045,0.27859999999402874,0.29530000001192036,0.3119999999999976,0.32869999998807486,0.3453000000119175,0.36199999999999477,0.37859999999403726,0.39540000000594944,0.4120999999940409,0.4285999999940344,0.44549999999999557,0.4619999999999891,0.47869999998808055,0.4953000000119232,0.5120000000000005,0.5286999999880777,0.5483000000119205,0.5619999999999976,0.5786999999880749,0.5954000000059523,0.6119999999999948,0.628699999988072,0.6454000000059494,0.6620999999940409,0.6786999999880692,0.6954000000059608,0.7119999999999891,0.7288000000119155,0.745400000005958,0.7620000000000005,0.7786999999880777,0.7954000000059551,0.8119999999999976,0.8285999999940401,0.8469000000059594,0.8619999999999948,0.8785999999940373,0.8954000000059494,0.9119999999999919,0.9286999999880692,0.9455999999940303,0.9619999999999891,0.979099999994034,0.9953000000119232,1.0119000000059515,1.0285999999940287,1.0454000000059551,1.0619999999999976,1.0786999999880749,1.0953000000119175,1.1119999999999948,1.128699999988072,1.1474999999999937,1.162099999994041,1.1814999999999998,1.1954999999999956,1.2141999999880682,1.2288000000119155,1.2454999999999927,1.2649000000059516,1.2786999999880777,1.2954999999999899,1.314099999994042,1.3289000000059588,1.3455000000000013,1.365699999988081,1.381099999994035,1.3954000000059494,1.414400000005955,1.428900000005953,1.4484999999999957,1.468400000005957,1.4789000000059502,1.495400000005958,1.5120999999940352,1.5328000000119175,1.5454000000059551,1.5621999999880813,1.5814999999999912,1.5956999999880708,1.6120999999940295,1.6328000000119118,1.6479000000059614,1.662099999994041,1.6788000000119183,1.6988000000119143,1.7124999999999915,1.7289000000059502,1.7454999999999927,1.7653000000119192,1.7789000000059616,1.7954999999999899,1.8144000000059606,1.8286999999880749,1.8461999999880732,1.8651999999880786,1.8794000000059583,1.8954999999999984,1.911999999999992,1.9333000000119114,1.9454999999999956,1.9621999999880728,1.9793000000119179,1.9979000000059557,2.0149000000059516,2.0286999999880777,2.0453000000119204,2.06459999999403,2.0799000000059493,2.0953000000119175,2.113300000011918,2.1285999999940373,2.1453000000119147,2.161999999999992,2.1785999999940344,2.195300000011912,2.211999999999989,2.2285999999940316,2.245300000011923,2.2620000000000005,2.2786999999880777,2.2953000000119204,2.3119999999999976,2.328699999988075,2.3468000000119105,2.36190000000596,2.3785999999940373,2.3953000000119147,2.411999999999992,2.428699999988069,2.4454999999999956,2.461999999999989,2.4786999999880805,2.495300000011923,2.51219999998807,2.5285999999940287,2.5453000000119204,2.5619999999999976,2.578699999988075,2.5953000000119175,2.6119999999999948,2.628699999988072,2.6454999999999984,2.661900000005957,2.6846999999880694,2.695300000011912,2.711999999999989,2.7286999999880805,2.745300000011923,2.7674000000059493,2.782499999999999,2.802499999999995,2.816300000011921,2.831099999994038,2.8453000000119175,2.86190000000596,2.8785999999940373,2.8953000000119147,2.911999999999992,2.928699999988069,2.945300000011912,2.961999999999989,2.9785999999940316,2.995300000011923,3.0120000000000005,3.0285999999940287,3.0453000000119204,3.061900000005963,3.07859999999404,3.0953000000119175,3.11190000000596,3.1285999999940373,3.1453000000119147,3.161999999999992,3.1785999999940344,3.195300000011912,3.211999999999989,3.2285999999940316,3.245300000011923,3.2620000000000005,3.2785999999940287,3.2953000000119204,3.3119999999999976,3.32859999999404,3.3453000000119175,3.36190000000596,3.3785999999940373,3.3975999999940285,3.411900000005957,3.4285999999940344,3.446800000011919,3.4625999999940404,3.4785999999940316,3.495400000005958,3.5119000000059515,3.5285999999940287,3.5451999999880712,3.5619999999999976,3.57859999999404,3.5953000000119175,3.61190000000596,3.6285999999940373,3.6453000000119147,3.661999999999992,3.678699999988069,3.695300000011912,3.711999999999989,3.7285999999940316,3.745300000011923,3.7619000000059515,3.7785999999940287,3.7951999999880712,3.8119999999999976,3.82859999999404,3.8453000000119175,3.86190000000596,3.878699999988072,3.8953000000119147,3.911999999999992,3.928699999988069,3.945199999988077,3.9619000000059543,3.9786999999880805,3.995300000011923,4.0120000000000005,4.028699999988078,4.045400000005955,4.061999999999998,4.07859999999404,4.0953000000119175,4.11190000000596,4.128599999994037,4.1475999999940285,4.161900000005957,4.178599999994034,4.195199999988077,4.211999999999989,4.228599999994032,4.245300000011923,4.2620000000000005,4.278699999988078,4.29530000001192,4.311900000005963,4.32859999999404,4.3453000000119175,4.361999999999995,4.378699999988072,4.39519999998808,4.411900000005957,4.428699999988069,4.445400000005961,4.461999999999989,4.478599999994032,4.495300000011923,4.5119000000059515,4.528599999994029,4.54530000001192,4.561999999999998,4.584400000005957,4.5953000000119175,4.611999999999995,4.628599999994037,4.645300000011915,4.661999999999992,4.678599999994034,4.695300000011912,4.711999999999989,4.728599999994032,4.745300000011923,4.7619000000059515,4.778599999994029,4.79530000001192,4.811900000005963,4.82859999999404,4.8453000000119175,4.86190000000596,4.878599999994037,4.895300000011915,4.911999999999992,4.930199999988076,4.946599999994035,4.961900000005954,4.978599999994032,4.995300000011923,5.0119000000059515,5.028599999994029,5.04530000001192,5.061900000005963,5.07859999999404,5.0953000000119175,5.11190000000596,5.128599999994037,5.146599999994038,5.161900000005957,5.178599999994034,5.195300000011912,5.211999999999989,5.228599999994032,5.245300000011923,5.2620000000000005,5.278599999994029,5.29530000001192,5.311900000005963,5.32859999999404,5.3453000000119175,5.36190000000596,5.378599999994037,5.395300000011915,5.411999999999992,5.428699999988069,5.445499999999996,5.461999999999989,5.478599999994032,5.495300000011923,5.5120000000000005,5.528599999994029,5.546800000011913,5.561900000005963,5.57859999999404,5.595199999988068,5.611999999999995,5.628599999994037,5.64519999998808,5.661900000005957,5.678599999994034,5.695300000011912,5.713199999988078,5.728599999994032,5.745300000011923,5.7619000000059515,5.778599999994029,5.79530000001192,5.811900000005963,5.828499999999991,5.846499999999992,5.86190000000596,5.878599999994037,5.895300000011915,5.911900000005957,5.928599999994034,5.945900000005963,5.962199999988073,5.978599999994032,5.995199999988074,6.0120000000000005,6.034900000005962,6.05149999999999,6.061999999999998,6.078699999988075,6.095199999988068,6.114300000011923,6.128900000005956,6.145400000005949,6.164900000005957,6.178699999988069,6.195400000005961,6.213999999999999,6.2286999999880805,6.245400000005958,6.262099999994035,6.2819999999999965,6.295400000005955,6.312099999994032,6.32880000001191,6.347400000005962,6.3620999999940295,6.381,6.39819999998808,6.412599999994029,6.428900000005953,6.448800000011914,6.46390000000595,6.4788000000119155,6.495400000005958,6.513999999999996,6.528999999999996,6.545400000005955,6.564499999999995,6.582999999999998,6.595400000005952,6.615699999988081,6.628699999988072,6.645499999999998,6.662099999994041,6.682400000005956,6.695300000011912,6.712099999994038,6.735500000000002,6.745400000005958,6.762099999994035,6.780800000011922,6.795199999988071,6.811900000005963,6.828499999999991,6.845199999988068,6.86190000000596,6.878599999994037,6.895300000011915,6.911900000005957,6.928599999994034,6.945300000011912,6.961900000005954,6.978599999994032,6.995300000011923,7.0120000000000005,7.028499999999994,7.045199999988071,7.061900000005963,7.07859999999404,7.0953000000119175,7.111999999999995,7.128599999994037,7.145300000011915,7.161900000005957,7.178599999994034,7.195300000011912,7.211900000005954,7.228499999999997,7.245199999988074,7.2619000000059515,7.278599999994029,7.295199999988071,7.311900000005963,7.32859999999404,7.345500000000001,7.361999999999995,7.378599999994037,7.39519999998808,7.411800000011922,7.428599999994034,7.44759999999404,7.461900000005954,7.478599999994032,7.495199999988074,7.5119000000059515,7.528699999988078,7.545199999988071,7.561900000005963,7.578499999999991,7.5953000000119175,7.61190000000596,7.628599999994037,7.645300000011915,7.661999999999992,7.678599999994034,7.695199999988077,7.711999999999989,7.728599999994032,7.746599999994032,7.761800000011917,7.778599999994029,7.795199999988071,7.811900000005963,7.82859999999404,7.845500000000001,7.86190000000596,7.8785000000000025,7.895300000011915,7.911900000005957,7.9285,7.945199999988077,7.961900000005954,7.978499999999997,7.995199999988074,8.011900000005951,8.028499999999994,8.045199999988071,8.061800000011914,8.07859999999404,8.095199999988068,8.112199999988079,8.128500000000003,8.145300000011915,8.161900000005957,8.1785,8.195199999988077,8.21180000001192,8.228499999999997,8.245300000011923,8.261800000011917,8.278499999999994,8.295199999988071,8.311800000011914,8.328499999999991,8.345199999988068,8.36190000000596,8.378500000000003,8.39519999998808,8.411900000005957,8.428599999994034,8.445199999988077,8.461900000005954,8.478599999994032,8.495199999988074,8.511900000005951,8.528599999994029,8.54530000001192,8.561800000011914,8.584300000011922,8.595199999988068,8.61190000000596,8.628599999994037,8.645300000011915,8.661900000005957,8.6785,8.695199999988077,8.711900000005954,8.728499999999997,8.745300000011923,8.761900000005951,8.778599999994029,8.795199999988071,8.815400000005951,8.829999999999998,8.847199999988078,8.861999999999995,8.878500000000003,8.89519999998808,8.911900000005957,8.928599999994034,8.945300000011912,8.961900000005954,8.978599999994032,8.995199999988074,9.012099999994035,9.028499999999994,9.045199999988071,9.061800000011914,9.07859999999404,9.095199999988068,9.11190000000596,9.128599999994037]","[1733384293356,1733384293389,1733384293394,1733384293410,1733384293427,1733384293444,1733384293460,1733384293477,1733384293494,1733384293510,1733384293527,1733384293544,1733384293560,1733384293577,1733384293594,1733384293610,1733384293627,1733384293644,1733384293660,1733384293677,1733384293694,1733384293710,1733384293727,1733384293744,1733384293760,1733384293777,1733384293794,1733384293810,1733384293827,1733384293844,1733384293860,1733384293877,1733384293897,1733384293910,1733384293927,1733384293944,1733384293960,1733384293977,1733384293994,1733384294010,1733384294027,1733384294044,1733384294060,1733384294077,1733384294094,1733384294110,1733384294127,1733384294144,1733384294160,1733384294177,1733384294195,1733384294210,1733384294227,1733384294244,1733384294260,1733384294277,1733384294294,1733384294310,1733384294327,1733384294344,1733384294360,1733384294377,1733384294394,1733384294410,1733384294427,1733384294444,1733384294460,1733384294477,1733384294496,1733384294510,1733384294530,1733384294544,1733384294562,1733384294577,1733384294594,1733384294613,1733384294627,1733384294644,1733384294662,1733384294677,1733384294694,1733384294714,1733384294729,1733384294744,1733384294763,1733384294777,1733384294797,1733384294817,1733384294827,1733384294844,1733384294860,1733384294881,1733384294894,1733384294910,1733384294930,1733384294944,1733384294960,1733384294981,1733384294996,1733384295010,1733384295027,1733384295047,1733384295061,1733384295077,1733384295094,1733384295114,1733384295127,1733384295144,1733384295163,1733384295177,1733384295195,1733384295213,1733384295228,1733384295244,1733384295260,1733384295282,1733384295294,1733384295311,1733384295328,1733384295346,1733384295363,1733384295377,1733384295394,1733384295413,1733384295428,1733384295444,1733384295462,1733384295477,1733384295494,1733384295510,1733384295527,1733384295544,1733384295560,1733384295577,1733384295594,1733384295610,1733384295627,1733384295644,1733384295660,1733384295677,1733384295695,1733384295710,1733384295727,1733384295744,1733384295760,1733384295777,1733384295794,1733384295810,1733384295827,1733384295844,1733384295861,1733384295877,1733384295894,1733384295910,1733384295927,1733384295944,1733384295960,1733384295977,1733384295994,1733384296010,1733384296033,1733384296044,1733384296060,1733384296077,1733384296094,1733384296116,1733384296131,1733384296151,1733384296165,1733384296179,1733384296194,1733384296210,1733384296227,1733384296244,1733384296260,1733384296277,1733384296294,1733384296310,1733384296327,1733384296344,1733384296360,1733384296377,1733384296394,1733384296410,1733384296427,1733384296444,1733384296460,1733384296477,1733384296494,1733384296510,1733384296527,1733384296544,1733384296560,1733384296577,1733384296594,1733384296610,1733384296627,1733384296644,1733384296660,1733384296677,1733384296694,1733384296710,1733384296727,1733384296746,1733384296760,1733384296777,1733384296795,1733384296811,1733384296827,1733384296844,1733384296860,1733384296877,1733384296894,1733384296910,1733384296927,1733384296944,1733384296960,1733384296977,1733384296994,1733384297010,1733384297027,1733384297044,1733384297060,1733384297077,1733384297094,1733384297110,1733384297127,1733384297144,1733384297160,1733384297177,1733384297194,1733384297210,1733384297227,1733384297244,1733384297260,1733384297277,1733384297294,1733384297310,1733384297327,1733384297344,1733384297360,1733384297377,1733384297394,1733384297410,1733384297427,1733384297444,1733384297460,1733384297477,1733384297496,1733384297510,1733384297527,1733384297544,1733384297560,1733384297577,1733384297594,1733384297610,1733384297627,1733384297644,1733384297660,1733384297677,1733384297694,1733384297710,1733384297727,1733384297744,1733384297760,1733384297777,1733384297794,1733384297810,1733384297827,1733384297844,1733384297860,1733384297877,1733384297894,1733384297910,1733384297933,1733384297944,1733384297960,1733384297977,1733384297994,1733384298010,1733384298027,1733384298044,1733384298060,1733384298077,1733384298094,1733384298110,1733384298127,1733384298144,1733384298160,1733384298177,1733384298194,1733384298210,1733384298227,1733384298244,1733384298260,1733384298278,1733384298295,1733384298310,1733384298327,1733384298344,1733384298360,1733384298377,1733384298394,1733384298410,1733384298427,1733384298444,1733384298460,1733384298477,1733384298495,1733384298510,1733384298527,1733384298544,1733384298560,1733384298577,1733384298594,1733384298610,1733384298627,1733384298644,1733384298660,1733384298677,1733384298694,1733384298710,1733384298727,1733384298744,1733384298760,1733384298777,1733384298794,1733384298810,1733384298827,1733384298844,1733384298860,1733384298877,1733384298895,1733384298910,1733384298927,1733384298944,1733384298960,1733384298977,1733384298994,1733384299010,1733384299027,1733384299044,1733384299062,1733384299077,1733384299094,1733384299110,1733384299127,1733384299144,1733384299160,1733384299177,1733384299195,1733384299210,1733384299227,1733384299244,1733384299260,1733384299277,1733384299294,1733384299311,1733384299327,1733384299344,1733384299360,1733384299383,1733384299400,1733384299410,1733384299427,1733384299444,1733384299463,1733384299477,1733384299494,1733384299513,1733384299527,1733384299544,1733384299562,1733384299577,1733384299594,1733384299610,1733384299630,1733384299644,1733384299660,1733384299677,1733384299696,1733384299710,1733384299729,1733384299747,1733384299761,1733384299777,1733384299797,1733384299812,1733384299827,1733384299844,1733384299862,1733384299877,1733384299894,1733384299913,1733384299931,1733384299944,1733384299964,1733384299977,1733384299994,1733384300010,1733384300031,1733384300044,1733384300060,1733384300084,1733384300094,1733384300110,1733384300129,1733384300144,1733384300160,1733384300177,1733384300194,1733384300210,1733384300227,1733384300244,1733384300260,1733384300277,1733384300294,1733384300310,1733384300327,1733384300344,1733384300360,1733384300377,1733384300394,1733384300410,1733384300427,1733384300444,1733384300460,1733384300477,1733384300494,1733384300510,1733384300527,1733384300544,1733384300560,1733384300577,1733384300594,1733384300610,1733384300627,1733384300644,1733384300660,1733384300677,1733384300694,1733384300710,1733384300727,1733384300744,1733384300760,1733384300777,1733384300796,1733384300810,1733384300827,1733384300844,1733384300860,1733384300877,1733384300894,1733384300910,1733384300927,1733384300944,1733384300960,1733384300977,1733384300994,1733384301010,1733384301027,1733384301044,1733384301060,1733384301077,1733384301095,1733384301110,1733384301127,1733384301144,1733384301160,1733384301177,1733384301194,1733384301210,1733384301227,1733384301244,1733384301260,1733384301277,1733384301294,1733384301310,1733384301327,1733384301344,1733384301360,1733384301377,1733384301394,1733384301410,1733384301427,1733384301444,1733384301461,1733384301477,1733384301494,1733384301510,1733384301527,1733384301544,1733384301560,1733384301577,1733384301594,1733384301610,1733384301627,1733384301644,1733384301660,1733384301677,1733384301694,1733384301710,1733384301727,1733384301744,1733384301760,1733384301777,1733384301794,1733384301810,1733384301827,1733384301844,1733384301860,1733384301877,1733384301894,1733384301910,1733384301933,1733384301944,1733384301960,1733384301977,1733384301994,1733384302010,1733384302027,1733384302044,1733384302060,1733384302077,1733384302094,1733384302110,1733384302127,1733384302143,1733384302164,1733384302178,1733384302195,1733384302210,1733384302227,1733384302244,1733384302260,1733384302277,1733384302294,1733384302310,1733384302327,1733384302343,1733384302360,1733384302377,1733384302394,1733384302410,1733384302427,1733384302444,1733384302460,1733384302477]","[[963.1,714.8],[963.1,714.8],[963.1,714.8],[957.5,714.1],[955.5,701.6],[957.7,674.7],[970.6,677.8],[973.8,681.5],[975.1,680.8],[976.4,680.1],[986.1,677],[982.3,674.9],[976.7,674.8],[989.5,676.7],[997.3,672.5],[1000.8,678.2],[988.8,661.4],[976.8,644.6],[964.7,637.2],[940.5,628],[870.3,631.6],[800.1,635.2],[730.4,620.4],[659.6,614.1],[633.4,608],[611.3,610.8],[579.1,616.7],[546.9,622.6],[499,620.3],[463.2,619.8],[452.5,616.5],[441.8,613.2],[450.4,633.2],[460.1,644.7],[419.9,657.1],[419.9,657.1],[375.6,660.6],[375.6,660.6],[346.6,660.6],[346.6,660.6],[337.7,701.9],[337.7,701.9],[383.7,786],[383.7,786],[437.3,869.5],[437.3,869.5],[518.4,947.5],[594.7,1026.4],[655.7,1098.5],[716.7,1170.6],[780.7,1219],[844.7,1267.4],[912.8,1323],[960.8,1337.3],[960.8,1337.3],[945.4,1282.7],[911,1227.7],[870.3,1171.6],[842.1,1108.3],[810.4,1045.4],[779.2,986.6],[754.8,955.7],[717.3,933.5],[679.5,906.2],[655.7,866.5],[645.9,864.4],[645.4,877.5],[644.9,890.6],[640.4,921.4],[673.1,921.7],[706.5,932.4],[743.1,931],[788.5,963.2],[829.8,947.6],[848.6,950.3],[879,948.9],[922.4,949.9],[965.8,950.9],[1008.9,906.6],[1019.9,914.7],[1012.8,879],[999.2,853.3],[999.2,802.8],[999.2,799.4],[1005.8,795.5],[1015.6,773.7],[1031.7,711.1],[1039.5,651.3],[1039.5,651.3],[1032.3,630],[1005.2,582.5],[995,564.3],[995,564.3],[1012.1,554.2],[1012.1,554.2],[1006.5,533.8],[1004.7,504.4],[1004.8,469.6],[1008.9,458.9],[994.6,471.8],[988.6,481.9],[994.2,487.4],[1022.4,500.4],[1050.6,513.4],[1049.7,528.7],[1062.2,536.8],[1073.1,533.1],[1084,529.4],[1091.2,515.1],[1105.1,508],[1109,497.4],[1112.9,486.8],[1124,476.4],[1135.1,466],[1146.7,445.3],[1158.3,424.6],[1158.3,424.6],[1156.8,428.5],[1130.8,437.8],[1114.5,451],[1054.4,463],[1016.8,478],[970.8,482.1],[909.8,482.8],[900.8,486.5],[896.4,492.2],[828.1,512],[774,522],[771.9,521.5],[756.6,521.5],[783.1,524.2],[797.1,527.4],[832.6,546.8],[868.1,566.2],[835.7,572.9],[803.3,579.6],[848.8,578.9],[891,584.2],[884,578.1],[877,572],[881,571.7],[885,571.4],[866.5,581.1],[848,590.8],[845.6,644.7],[846.1,695.6],[824.2,758.3],[802.3,821],[804.1,901.6],[805.9,982.2],[795.6,1029.9],[785.3,1077.6],[815.1,1112.7],[844.9,1147.8],[844.9,1147.8],[872.6,1118.7],[872.6,1118.7],[900.4,1092.4],[900.4,1092.4],[943.4,1034.3],[978.1,953.2],[978.1,953.2],[1015,866.3],[1015,866.3],[1046.3,789.9],[1084.8,728.5],[1117.3,663.1],[1117.3,663.1],[1119.1,595],[1068.2,534.5],[1019.2,503.7],[967.2,473.1],[904.3,450.9],[849.7,451.7],[816.2,456.2],[788.3,450.2],[759.3,442.7],[736.3,439.2],[706.1,443.5],[728.6,440.2],[747.4,442.7],[766.2,445.2],[791.4,439.1],[816.6,433],[777.4,442],[738.2,451],[691.6,458.7],[645,466.4],[599.8,485.1],[554.6,503.8],[535.9,562.1],[524.4,627.9],[536,731],[547.6,834.1],[605.1,919.9],[653.2,1008.8],[705.4,1089.9],[770.1,1179.8],[834.2,1237.8],[898.3,1295.8],[916.3,1292.7],[927.1,1282.1],[903,1241.4],[878.9,1200.7],[852.1,1149.4],[834.7,1095],[780.4,1040.8