inst1_resp.keys,inst1_resp.rt,calibrationMouse.x,calibrationMouse.y,calibrationMouse.leftButton,calibrationMouse.midButton,calibrationMouse.rightButton,calibrationClick.x,calibrationClick.y,calibrationClick.leftButton,calibrationClick.midButton,calibrationClick.rightButton,calibrationClick.clicked_name,trialsc.thisRepN,trialsc.thisTrialN,trialsc.thisN,trialsc.thisIndex,trialsc.ran,calibration_x,calibration_y,participant,session,date,expName,psychopyVersion,OS,frameRate,ScreenRes_pixels,Camera_pixels,mouse_2.x,mouse_2.y,mouse_2.leftButton,mouse_2.midButton,mouse_2.rightButton,mouse_2.time,mouse_2.clicked_name,mouse.x,mouse.y,mouse.leftButton,mouse.midButton,mouse.rightButton,mouse.time,mouse.clicked_name,Choice,Trial,TrialDuration,MOUSE_GAZE,ET_GAZE,ET_GAZE_x_T,time,unixTime,ET_GAZE_NF,Loc_Option1_label,Loc_Option2_label,Loc_Cost_label,Loc_Qual_label,Loc_Option1_cost,Loc_Option2_cost,Loc_Option1_quality,Loc_Option2_quality,trials.thisRepN,trials.thisTrialN,trials.thisN,trials.thisIndex,trials.ran,Block,Device,cost1,qual1,cost2,qual2
space,1.7652,-0.034375,0.512962963,1,0,0,0.322916667,0.327777778,1,0,0,calibration_square,0,0,0,17,1,0.33,0.33,38,001,2024-11-29_17h37.30.259,Attention_exp_legacy,2023.1.0,Win32,60.24096386,,,,,,,,,,,,,,,,,,,,,,,,,,,,,,,,,,,,,,,,,,,,
,,,,,,,0.3125,-0.009259259,1,0,0,,0,1,1,16,1,0.33,0,38,001,2024-11-29_17h37.30.259,Attention_exp_legacy,2023.1.0,Win32,60.24096386,,,,,,,,,,,,,,,,,,,,,,,,,,,,,,,,,,,,,,,,,,,,
,,,,,,,0.003125,0.324074074,1,0,0,calibration_square,0,2,2,12,1,0,0.33,38,001,2024-11-29_17h37.30.259,Attention_exp_legacy,2023.1.0,Win32,60.24096386,,,,,,,,,,,,,,,,,,,,,,,,,,,,,,,,,,,,,,,,,,,,
,,,,,,,-0.341666667,-0.340740741,1,0,0,,0,3,3,5,1,-0.33,-0.33,38,001,2024-11-29_17h37.30.259,Attention_exp_legacy,2023.1.0,Win32,60.24096386,,,,,,,,,,,,,,,,,,,,,,,,,,,,,,,,,,,,,,,,,,,,
,,,,,,,-0.328125,0.668518519,1,0,0,calibration_square,0,4,4,8,1,-0.33,0.67,38,001,2024-11-29_17h37.30.259,Attention_exp_legacy,2023.1.0,Win32,60.24096386,,,,,,,,,,,,,,,,,,,,,,,,,,,,,,,,,,,,,,,,,,,,
,,,,,,,-0.33125,-0.011111111,1,0,0,,0,5,5,6,1,-0.33,0,38,001,2024-11-29_17h37.30.259,Attention_exp_legacy,2023.1.0,Win32,60.24096386,,,,,,,,,,,,,,,,,,,,,,,,,,,,,,,,,,,,,,,,,,,,
,,,,,,,0.678125,0.664814815,1,0,0,calibration_square,0,6,6,19,1,0.67,0.67,38,001,2024-11-29_17h37.30.259,Attention_exp_legacy,2023.1.0,Win32,60.24096386,,,,,,,,,,,,,,,,,,,,,,,,,,,,,,,,,,,,,,,,,,,,
,,,,,,,0.31875,-0.325925926,1,0,0,,0,7,7,15,1,0.33,-0.33,38,001,2024-11-29_17h37.30.259,Attention_exp_legacy,2023.1.0,Win32,60.24096386,,,,,,,,,,,,,,,,,,,,,,,,,,,,,,,,,,,,,,,,,,,,
,,,,,,,0.003125,0.681481481,1,0,0,,0,8,8,13,1,0,0.67,38,001,2024-11-29_17h37.30.259,Attention_exp_legacy,2023.1.0,Win32,60.24096386,,,,,,,,,,,,,,,,,,,,,,,,,,,,,,,,,,,,,,,,,,,,
,,,,,,,0.004166667,-0.318518519,1,0,0,,0,9,9,10,1,0,-0.33,38,001,2024-11-29_17h37.30.259,Attention_exp_legacy,2023.1.0,Win32,60.24096386,,,,,,,,,,,,,,,,,,,,,,,,,,,,,,,,,,,,,,,,,,,,
,,,,,,,0.670833333,-0.675925926,1,0,0,calibration_square,0,10,10,20,1,0.67,-0.67,38,001,2024-11-29_17h37.30.259,Attention_exp_legacy,2023.1.0,Win32,60.24096386,,,,,,,,,,,,,,,,,,,,,,,,,,,,,,,,,,,,,,,,,,,,
,,,,,,,0.005208333,0.003703704,1,0,0,calibration_square,0,11,11,11,1,0,0,38,001,2024-11-29_17h37.30.259,Attention_exp_legacy,2023.1.0,Win32,60.24096386,,,,,,,,,,,,,,,,,,,,,,,,,,,,,,,,,,,,,,,,,,,,
,,,,,,,-0.670833333,-0.02037037,1,0,0,,0,12,12,2,1,-0.67,0,38,001,2024-11-29_17h37.30.259,Attention_exp_legacy,2023.1.0,Win32,60.24096386,,,,,,,,,,,,,,,,,,,,,,,,,,,,,,,,,,,,,,,,,,,,
,,,,,,,-0.672916667,0.316666667,1,0,0,,0,13,13,3,1,-0.67,0.33,38,001,2024-11-29_17h37.30.259,Attention_exp_legacy,2023.1.0,Win32,60.24096386,,,,,,,,,,,,,,,,,,,,,,,,,,,,,,,,,,,,,,,,,,,,
,,,,,,,0.330208333,0.67962963,1,0,0,calibration_square,0,14,14,18,1,0.33,0.67,38,001,2024-11-29_17h37.30.259,Attention_exp_legacy,2023.1.0,Win32,60.24096386,,,,,,,,,,,,,,,,,,,,,,,,,,,,,,,,,,,,,,,,,,,,
,,,,,,,-0.670833333,-0.672222222,1,0,0,calibration_square,0,15,15,0,1,-0.67,-0.67,38,001,2024-11-29_17h37.30.259,Attention_exp_legacy,2023.1.0,Win32,60.24096386,,,,,,,,,,,,,,,,,,,,,,,,,,,,,,,,,,,,,,,,,,,,
,,,,,,,0.307291667,-0.659259259,1,0,0,,0,16,16,14,1,0.33,-0.67,38,001,2024-11-29_17h37.30.259,Attention_exp_legacy,2023.1.0,Win32,60.24096386,,,,,,,,,,,,,,,,,,,,,,,,,,,,,,,,,,,,,,,,,,,,
,,,,,,,0.005208333,-0.672222222,1,0,0,calibration_square,0,17,17,9,1,0,-0.67,38,001,2024-11-29_17h37.30.259,Attention_exp_legacy,2023.1.0,Win32,60.24096386,,,,,,,,,,,,,,,,,,,,,,,,,,,,,,,,,,,,,,,,,,,,
,,,,,,,-0.3375,-0.672222222,1,0,0,calibration_square,0,18,18,4,1,-0.33,-0.67,38,001,2024-11-29_17h37.30.259,Attention_exp_legacy,2023.1.0,Win32,60.24096386,,,,,,,,,,,,,,,,,,,,,,,,,,,,,,,,,,,,,,,,,,,,
,,,,,,,-0.672916667,-0.32962963,1,0,0,calibration_square,0,19,19,1,1,-0.67,-0.33,38,001,2024-11-29_17h37.30.259,Attention_exp_legacy,2023.1.0,Win32,60.24096386,,,,,,,,,,,,,,,,,,,,,,,,,,,,,,,,,,,,,,,,,,,,
,,,,,,,-0.327083333,0.335185185,1,0,0,calibration_square,0,20,20,7,1,-0.33,0.33,38,001,2024-11-29_17h37.30.259,Attention_exp_legacy,2023.1.0,Win32,60.24096386,,,,,,,,,,,,,,,,,,,,,,,,,,,,,,,,,,,,,,,,,,,,
,,,,,,,,,,,,,,,,,,,,38,001,2024-11-29_17h37.30.259,Attention_exp_legacy,2023.1.0,Win32,60.24096386,"[1920,1080]","[640,480]",[0.017708333333333333],[-0.48518518518518516],[1],[0],[0],[1.3273999999761514],"[""StartButton""]",[-0.01875],[0.3648148148148148],[1],[0],[0],[1.8880000000000052],"[""Option1_label""]",Option1_label,1,2.9119,"[[0.08333333333333333,-0.4537037037037037],[0.0875,-0.46111111111111114],[0.090625,-0.46111111111111114],[0.09270833333333334,-0.46111111111111114],[0.09895833333333333,-0.45925925925925926],[0.103125,-0.45925925925925926],[0.10833333333333334,-0.45925925925925926],[0.11145833333333334,-0.45925925925925926],[0.1125,-0.45925925925925926],[0.11458333333333333,-0.45740740740740743],[0.11458333333333333,-0.45740740740740743],[0.115625,-0.45555555555555555],[0.115625,-0.45555555555555555],[0.115625,-0.45555555555555555],[0.115625,-0.45555555555555555],[0.115625,-0.45555555555555555],[0.115625,-0.45555555555555555],[0.115625,-0.45555555555555555],[0.115625,-0.45555555555555555],[0.115625,-0.45555555555555555],[0.115625,-0.45555555555555555],[0.115625,-0.45555555555555555],[0.115625,-0.45555555555555555],[0.115625,-0.45555555555555555],[0.115625,-0.45555555555555555],[0.115625,-0.45555555555555555],[0.115625,-0.45555555555555555],[0.115625,-0.45555555555555555],[0.115625,-0.45555555555555555],[0.115625,-0.45555555555555555],[0.115625,-0.45555555555555555],[0.115625,-0.45555555555555555],[0.115625,-0.45555555555555555],[0.115625,-0.45555555555555555],[0.115625,-0.45555555555555555],[0.115625,-0.45555555555555555],[0.115625,-0.45555555555555555],[0.115625,-0.45555555555555555],[0.115625,-0.45555555555555555],[0.115625,-0.45555555555555555],[0.115625,-0.45555555555555555],[0.115625,-0.45555555555555555],[0.115625,-0.45555555555555555],[0.115625,-0.45555555555555555],[0.115625,-0.45555555555555555],[0.115625,-0.45555555555555555],[0.115625,-0.45555555555555555],[0.115625,-0.45555555555555555],[0.115625,-0.45555555555555555],[0.115625,-0.45555555555555555],[0.115625,-0.45555555555555555],[0.115625,-0.45555555555555555],[0.115625,-0.45555555555555555],[0.11458333333333333,-0.45555555555555555],[0.109375,-0.46111111111111114],[0.10416666666666667,-0.4685185185185185],[0.10104166666666667,-0.4722222222222222],[0.09479166666666666,-0.4777777777777778],[0.08958333333333333,-0.4777777777777778],[0.078125,-0.45740740740740743],[0.058333333333333334,-0.4203703703703704],[0.027083333333333334,-0.3592592592592593],[0,-0.3037037037037037],[-0.011458333333333333,-0.2740740740740741],[-0.036458333333333336,-0.17037037037037037],[-0.046875,-0.0962962962962963],[-0.052083333333333336,-0.005555555555555556],[-0.053125,0.09074074074074075],[-0.053125,0.1574074074074074],[-0.05,0.2037037037037037],[-0.042708333333333334,0.24444444444444444],[-0.03125,0.29444444444444445],[-0.028125,0.3037037037037037],[-0.025,0.32407407407407407],[-0.022916666666666665,0.337037037037037],[-0.020833333333333332,0.34629629629629627],[-0.019791666666666666,0.3574074074074074],[-0.01875,0.3611111111111111],[-0.01875,0.3648148148148148],[-0.01875,0.3648148148148148],[-0.01875,0.3648148148148148],[-0.01875,0.3648148148148148],[-0.01875,0.3648148148148148],[-0.01875,0.3648148148148148],[-0.01875,0.3648148148148148],[-0.01875,0.3648148148148148],[-0.01875,0.3648148148148148],[-0.01875,0.3648148148148148],[-0.01875,0.3648148148148148],[-0.01875,0.3648148148148148],[-0.01875,0.3648148148148148],[-0.01875,0.3648148148148148],[-0.01875,0.3648148148148148],[-0.01875,0.3648148148148148],[-0.01875,0.3648148148148148],[-0.01875,0.3648148148148148],[-0.01875,0.3648148148148148],[-0.01875,0.3648148148148148],[-0.01875,0.3648148148148148],[-0.01875,0.3648148148148148],[-0.01875,0.3648148148148148],[-0.01875,0.3648148148148148],[-0.01875,0.3648148148148148],[-0.01875,0.3648148148148148],[-0.01875,0.3648148148148148],[-0.01875,0.3648148148148148],[-0.01875,0.3648148148148148],[-0.01875,0.3648148148148148],[-0.01875,0.3648148148148148],[-0.01875,0.3648148148148148],[-0.01875,0.3648148148148148],[-0.01875,0.3648148148148148],[-0.01875,0.3648148148148148],[-0.01875,0.3648148148148148],[-0.01875,0.3648148148148148],[-0.01875,0.3648148148148148],[-0.01875,0.3648148148148148],[-0.01875,0.3648148148148148],[-0.01875,0.3648148148148148],[-0.01875,0.3648148148148148],[-0.01875,0.3648148148148148],[-0.01875,0.3648148148148148],[-0.01875,0.3648148148148148],[-0.01875,0.3648148148148148],[-0.01875,0.3648148148148148],[-0.01875,0.3648148148148148],[-0.01875,0.3648148148148148],[-0.01875,0.3648148148148148],[-0.01875,0.3648148148148148],[-0.01875,0.3648148148148148],[-0.01875,0.3648148148148148],[-0.01875,0.3648148148148148],[-0.01875,0.3648148148148148],[-0.01875,0.3648148148148148],[-0.01875,0.3648148148148148],[-0.01875,0.3648148148148148],[-0.01875,0.3648148148148148],[-0.01875,0.3648148148148148],[-0.01875,0.3648148148148148],[-0.01875,0.3648148148148148],[-0.01875,0.3648148148148148],[-0.01875,0.3648148148148148],[-0.01875,0.3648148148148148],[-0.01875,0.3648148148148148],[-0.01875,0.3648148148148148],[-0.01875,0.3648148148148148],[-0.01875,0.3648148148148148],[-0.01875,0.3648148148148148],[-0.01875,0.3648148148148148],[-0.01875,0.3648148148148148],[-0.01875,0.3648148148148148],[-0.01875,0.3648148148148148],[-0.01875,0.3648148148148148],[-0.01875,0.3648148148148148],[-0.01875,0.3648148148148148],[-0.01875,0.3648148148148148],[-0.01875,0.3648148148148148],[-0.01875,0.3648148148148148],[-0.01875,0.3648148148148148],[-0.01875,0.3648148148148148],[-0.01875,0.3648148148148148],[-0.01875,0.3648148148148148],[-0.01875,0.3648148148148148],[-0.01875,0.3648148148148148],[-0.01875,0.3648148148148148],[-0.01875,0.3648148148148148],[-0.01875,0.3648148148148148],[-0.01875,0.3648148148148148],[-0.01875,0.3648148148148148],[-0.01875,0.3648148148148148],[-0.01875,0.3648148148148148],[-0.01875,0.3648148148148148],[-0.01875,0.3648148148148148],[-0.01875,0.3648148148148148],[-0.01875,0.3648148148148148]]","[[0.035000000000000024,0.06277777777777774],[0.035000000000000024,0.06277777777777774],[0.042916666666666714,0.06611111111111119],[0.042916666666666714,0.06611111111111119],[0.03208333333333328,0.07555555555555547],[0.025833333333333285,0.058333333333333334],[0.025833333333333285,0.058333333333333334],[0.013020833333333334,0.09499999999999992],[0.013020833333333334,0.09499999999999992],[0.025520833333333333,0.1648148148148148],[0.058333333333333334,0.2146296296296296],[0.09510416666666661,0.2564814814814815],[0.1203125,0.2920370370370371],[0.16916666666666677,0.344074074074074],[0.16916666666666677,0.344074074074074],[0.20427083333333323,0.3520370370370371],[0.21875,0.36999999999999994],[0.22520833333333337,0.4166666666666667],[0.2557291666666667,0.5251851851851852],[0.2881249999999999,0.5631481481481482],[0.28010416666666677,0.54],[0.2652083333333332,0.5596296296296297],[0.2539583333333333,0.5716666666666668],[0.2539583333333333,0.5716666666666668],[0.2542708333333332,0.5900000000000001],[0.2491666666666667,0.5985185185185186],[0.2491666666666667,0.5985185185185186],[0.2647916666666667,0.6270370370370371],[0.23072916666666668,0.6412962962962963],[0.2046875,0.6268518518518519],[0.2046875,0.6268518518518519],[0.18166666666666675,0.6022222222222223],[0.1658333333333334,0.5681481481481481],[0.14885416666666676,0.5646296296296296],[0.1326041666666666,0.5594444444444445],[0.1326041666666666,0.5594444444444445],[0.10489583333333338,0.5359259259259259],[0.09260416666666677,0.5225925925925927],[0.07895833333333328,0.525],[0.03822916666666672,0.5083333333333333],[0.036562500000000026,0.49685185185185177],[0.034895833333333334,0.4853703703703704],[0.04072916666666669,0.48222222222222216],[0.03458333333333338,0.4964814814814815],[0.027083333333333334,0.5144444444444444],[0.024062500000000025,0.5296296296296297],[0.035104166666666714,0.5522222222222223],[0.030729166666666665,0.5646296296296296],[0.03229166666666667,0.5785185185185184],[0.03729166666666662,0.6053703703703703],[0.042499999999999954,0.6442592592592592],[0.04770833333333328,0.6831481481481481],[0.0375,0.6862962962962963],[0.03083333333333336,0.6862962962962963],[0.04666666666666662,0.6764814814814814],[0.057291666666666664,0.6711111111111111],[0.04020833333333336,0.6462962962962963],[0.04041666666666662,0.6266666666666666],[0.04729166666666664,0.5888888888888889],[0.05510416666666664,0.5512962962962964],[0.06989583333333324,0.5287037037037037],[0.08468749999999996,0.5061111111111111],[0.10031249999999996,0.4927777777777778],[0.10031249999999996,0.4927777777777778],[0.09239583333333339,0.4800000000000001],[0.07958333333333342,0.47074074074074085],[0.07802083333333343,0.45740740740740743],[0.07802083333333343,0.45740740740740743],[0.10322916666666657,0.4703703703703704],[0.10666666666666676,0.4668518518518519],[0.06645833333333329,0.4898148148148148],[0.025312499999999953,0.5125925925925925],[0.025312499999999953,0.5125925925925925],[-0.001145833333333357,0.472037037037037],[-0.001145833333333357,0.472037037037037],[-0.051770833333333384,0.42833333333333323],[-0.09020833333333336,0.4414814814814814],[-0.10510416666666664,0.4540740740740742],[-0.09416666666666665,0.3877777777777777],[-0.09416666666666665,0.3877777777777777],[-0.09989583333333331,0.3566666666666667],[-0.13177083333333334,0.3266666666666666],[-0.17322916666666663,0.31370370370370365],[-0.17322916666666663,0.31370370370370365],[-0.15833333333333333,0.3359259259259259],[-0.14291666666666672,0.318888888888889],[-0.14291666666666672,0.318888888888889],[-0.1469791666666667,0.3337037037037038],[-0.11041666666666666,0.3972222222222222],[-0.08624999999999995,0.4207407407407408],[-0.07604166666666666,0.3859259259259259],[-0.09166666666666666,0.4300000000000001],[-0.09906250000000003,0.41203703703703703],[-0.08395833333333336,0.4225925925925927],[-0.05479166666666669,0.42740740740740735],[-0.05010416666666669,0.39388888888888896],[-0.05239583333333329,0.3955555555555556],[-0.05,0.40425925925925915],[-0.05687500000000002,0.34666666666666673],[-0.0625,0.27148148148148155],[-0.0625,0.27148148148148155],[-0.050937499999999976,0.3081481481481481],[-0.050625000000000024,0.2824074074074074],[-0.053125,0.2875925925925925],[-0.028854166666666715,0.28888888888888886],[-0.00458333333333331,0.29018518518518527],[0.017812500000000023,0.22277777777777769],[0.042708333333333334,0.1824074074074074],[0.06489583333333329,0.11277777777777774],[0.07989583333333337,0.06388888888888888],[0.09718749999999995,0.07796296296296301],[0.11124999999999995,0.03851851851851843],[0.11124999999999995,0.03851851851851843],[0.12760416666666666,0.03351851851851856],[0.15552083333333327,0.039629629629629584],[0.14718749999999994,0.005740740740740783],[0.11479166666666671,-0.005000000000000084],[0.09281249999999991,0.03148148148148148],[0.10343749999999995,0.10685185185185193],[0.12166666666666662,0.17018518518518513],[0.12989583333333338,0.225],[0.10750000000000005,0.28129629629629627],[0.09343750000000005,0.2757407407407407],[0.08624999999999995,0.29796296296296293],[0.07052083333333338,0.31240740740740747],[0.05479166666666669,0.32685185185185184],[0.07114583333333328,0.2748148148148148],[0.07760416666666667,0.247037037037037],[0.07760416666666667,0.247037037037037],[0.04208333333333331,0.2544444444444444],[-0.011666666666666714,0.322037037037037],[-0.05020833333333338,0.381111111111111],[-0.05458333333333331,0.37962962962962965],[-0.0672916666666667,0.44000000000000006],[-0.06458333333333334,0.45685185185185195],[-0.06489583333333329,0.4703703703703704],[-0.059895833333333336,0.4772222222222223],[-0.06291666666666665,0.5274074074074073],[-0.07072916666666665,0.5944444444444444],[-0.0733333333333333,0.5587037037037038],[-0.050729166666666714,0.4901851851851853],[-0.03333333333333333,0.43870370370370365],[-0.03677083333333329,0.3712962962962963],[-0.03677083333333329,0.3712962962962963],[-0.04020833333333336,0.30388888888888893],[-0.04020833333333336,0.30388888888888893],[-0.04020833333333336,0.30388888888888893],[-0.05593750000000005,0.3077777777777779],[-0.052187500000000026,0.3146296296296296],[-0.05249999999999998,0.32166666666666677],[-0.03937499999999995,0.34148148148148144],[-0.01416666666666669,0.3290740740740742],[0.00927083333333331,0.27537037037037043],[0.029062499999999977,0.22907407407407415],[0.04572916666666664,0.21592592592592597],[0.07614583333333323,0.2324074074074074],[0.10885416666666667,0.227962962962963],[0.12781250000000005,0.18407407407407403],[0.09947916666666666,0.17629629629629637],[0.06989583333333324,0.175],[0.058541666666666714,0.1492592592592593],[0.058541666666666714,0.1492592592592593],[0.04718749999999995,0.1235185185185186],[0.044166666666666646,0.16962962962962966],[0.03958333333333333,0.20166666666666663],[0.03958333333333333,0.20166666666666663],[0.03812500000000003,0.20055555555555546],[0.029166666666666667,0.1962962962962963],[0.017916666666666713,0.21296296296296297],[0.019583333333333286,0.2485185185185186],[0.042604166666666644,0.24722222222222223],[0.065625,0.24592592592592585],[0.05791666666666669,0.2596296296296297],[0.05791666666666669,0.2596296296296297],[0.05020833333333338,0.2733333333333334]]","[[0.035000000000000024,0.06277777777777774,0.00019999998807662678],[0.035000000000000024,0.06277777777777774,0.04650000000000176],[0.042916666666666714,0.06611111111111119,0.05100000000000193],[0.042916666666666714,0.06611111111111119,0.06199999999999761],[0.03208333333333328,0.07555555555555547,0.07860000002384027],[0.025833333333333285,0.058333333333333334,0.10039999997615467],[0.025833333333333285,0.058333333333333334,0.11200000000000188],[0.013020833333333334,0.09499999999999992,0.12860000002383742],[0.013020833333333334,0.09499999999999992,0.14760000002384288],[0.025520833333333333,0.1648148148148148,0.16199999999999903],[0.058333333333333334,0.2146296296296296,0.1786000000238417],[0.09510416666666661,0.2564814814814815,0.1951999999880769],[0.1203125,0.2920370370370371,0.21519999998808004],[0.16916666666666677,0.344074074074074,0.232999999999997],[0.16916666666666677,0.344074074074074,0.24510000002383947],[0.20427083333333323,0.3520370370370371,0.2618000000119167],[0.21875,0.36999999999999994,0.2815000000000012],[0.22520833333333337,0.4166666666666667,0.2996000000238368],[0.2557291666666667,0.5251851851851852,0.3149999999999977],[0.2881249999999999,0.5631481481481482,0.32919999998807725],[0.28010416666666677,0.54,0.3451999999880755],[0.2652083333333332,0.5596296296296297,0.36180000001191814],[0.2539583333333333,0.5716666666666668,0.3784999999999954],[0.2539583333333333,0.5716666666666668,0.3953000000119218],[0.2542708333333332,0.5900000000000001,0.4118000000119224],[0.2491666666666667,0.5985185185185186,0.42960000002383936],[0.2491666666666667,0.5985185185185186,0.4450000000000003],[0.2647916666666667,0.6270370370370371,0.46189999997615416],[0.23072916666666668,0.6412962962962963,0.4783999999761548],[0.2046875,0.6268518518518519,0.49510000002383947],[0.2046875,0.6268518518518519,0.5118000000119167],[0.18166666666666675,0.6022222222222223,0.528399999976159],[0.1658333333333334,0.5681481481481481,0.5451999999880783],[0.14885416666666676,0.5646296296296296,0.561800000011921],[0.1326041666666666,0.5594444444444445,0.5820000000000007],[0.1326041666666666,0.5594444444444445,0.5951000000238409],[0.10489583333333338,0.5359259259259259,0.6118000000119181],[0.09260416666666677,0.5225925925925927,0.6283999999761534],[0.07895833333333328,0.525,0.6478999999761541],[0.03822916666666672,0.5083333333333333,0.6636000000238411],[0.036562500000000026,0.49685185185185177,0.6783999999761576],[0.034895833333333334,0.4853703703703704,0.6951000000238423],[0.04072916666666669,0.48222222222222216,0.7118999999761542],[0.03458333333333338,0.4964814814814815,0.7283999999761548],[0.027083333333333334,0.5144444444444444,0.7461000000238371],[0.024062500000000025,0.5296296296296297,0.7618000000119167],[0.035104166666666714,0.5522222222222223,0.7786000000238431],[0.030729166666666665,0.5646296296296296,0.7971000000238391],[0.03229166666666667,0.5785185185185184,0.812600000023842],[0.03729166666666662,0.6053703703703703,0.8286000000238403],[0.042499999999999954,0.6442592592592592,0.8498000000119177],[0.04770833333333328,0.6831481481481481,0.865699999988081],[0.0375,0.6862962962962963,0.8799999999999955],[0.03083333333333336,0.6862962962962963,0.8993999999761542],[0.04666666666666662,0.6764814814814814,0.9158000000119202],[0.057291666666666664,0.6711111111111111,0.9321000000238371],[0.04020833333333336,0.6462962962962963,0.9511000000238425],[0.04041666666666662,0.6266666666666666,0.96519999998808],[0.04729166666666664,0.5888888888888889,0.9831999999880807],[0.05510416666666664,0.5512962962962964,1.000800000011921],[0.06989583333333324,0.5287037037037037,1.016300000011917],[0.08468749999999996,0.5061111111111111,1.0318000000119198],[0.10031249999999996,0.4927777777777778,1.0529999999999973],[0.10031249999999996,0.4927777777777778,1.062399999976158],[0.09239583333333339,0.4800000000000001,1.0786999999880749],[0.07958333333333342,0.47074074074074085,1.0951999999880755],[0.07802083333333343,0.45740740740740743,1.1174999999999997],[0.07802083333333343,0.45740740740740743,1.1286000000238374],[0.10322916666666657,0.4703703703703704,1.1454999999999984],[0.10666666666666676,0.4668518518518519,1.1646999999880805],[0.06645833333333329,0.4898148148148148,1.1814999999999998],[0.025312499999999953,0.5125925925925925,1.1993000000119167],[0.025312499999999953,0.5125925925925925,1.2121000000238382],[-0.001145833333333357,0.472037037037037,1.2338999999761597],[-0.001145833333333357,0.472037037037037,1.2453999999761578],[-0.051770833333333384,0.42833333333333323,1.262300000011919],[-0.09020833333333336,0.4414814814814814,1.278600000023843],[-0.10510416666666664,0.4540740740740742,1.2981999999880784],[-0.09416666666666665,0.3877777777777777,1.3126999999880766],[-0.09416666666666665,0.3877777777777777,1.3283999999761562],[-0.09989583333333331,0.3566666666666667,1.3451999999880755],[-0.13177083333333334,0.3266666666666666,1.3616999999880761],[-0.17322916666666663,0.31370370370370365,1.3784999999999954],[-0.17322916666666663,0.31370370370370365,1.3951999999880798],[-0.15833333333333333,0.3359259259259259,1.411999999999999],[-0.14291666666666672,0.318888888888889,1.4338000000119209],[-0.14291666666666672,0.318888888888889,1.445199999988077],[-0.1469791666666667,0.3337037037037038,1.4618000000119196],[-0.11041666666666666,0.3972222222222222,1.4784999999999968],[-0.08624999999999995,0.4207407407407408,1.4951000000238395],[-0.07604166666666666,0.3859259259259259,1.5118999999761584],[-0.09166666666666666,0.4300000000000001,1.5301999999880778],[-0.09906250000000003,0.41203703703703703,1.5493000000119181],[-0.08395833333333336,0.4225925925925927,1.5661999999880791],[-0.05479166666666669,0.42740740740740735,1.581100000023838],[-0.05010416666666669,0.39388888888888896,1.598699999988078],[-0.05239583333333329,0.3955555555555556,1.6161999999880763],[-0.05,0.40425925925925915,1.6331000000238376],[-0.05687500000000002,0.34666666666666673,1.6488999999761589],[-0.0625,0.27148148148148155,1.6688000000119203],[-0.0625,0.27148148148148155,1.6783999999761576],[-0.050937499999999976,0.3081481481481481,1.6950000000000003],[-0.050625000000000024,0.2824074074074074,1.7118000000119196],[-0.053125,0.2875925925925925,1.7296000000238436],[-0.028854166666666715,0.28888888888888886,1.748600000023842],[-0.00458333333333331,0.29018518518518527,1.7646000000238402],[0.017812500000000023,0.22277777777777769,1.7803999999761544],[0.042708333333333334,0.1824074074074074,1.796199999988076],[0.06489583333333329,0.11277777777777774,1.8144999999999953],[0.07989583333333337,0.06388888888888888,1.8311999999880797],[0.09718749999999995,0.07796296296296301,1.8483000000119176],[0.11124999999999995,0.03851851851851843,1.8661999999880763],[0.11124999999999995,0.03851851851851843,1.8786000000238374],[0.12760416666666666,0.03351851851851856,1.895100000023838],[0.15552083333333327,0.039629629629629584,1.911899999976157],[0.14718749999999994,0.005740740740740783,1.9283999999761576],[0.11479166666666671,-0.005000000000000084,1.9486999999880794],[0.09281249999999991,0.03148148148148148,1.9654999999999987],[0.10343749999999995,0.10685185185185193,1.982199999988076],[0.12166666666666662,0.17018518518518513,1.9994999999999976],[0.12989583333333338,0.225,2.015600000023838],[0.10750000000000005,0.28129629629629627,2.03219999998808],[0.09343750000000005,0.2757407407407407,2.0491000000238415],[0.08624999999999995,0.29796296296296293,2.0656999999880767],[0.07052083333333338,0.31240740740740747,2.083300000011917],[0.05479166666666669,0.32685185185185184,2.0986000000238434],[0.07114583333333328,0.2748148148148148,2.112499999999997],[0.07760416666666667,0.247037037037037,2.1283000000119188],[0.07760416666666667,0.247037037037037,2.145300000011922],[0.04208333333333331,0.2544444444444444,2.1618000000119224],[-0.011666666666666714,0.322037037037037,2.1784999999999997],[-0.05020833333333338,0.381111111111111,2.1950000000000003],[-0.05458333333333331,0.37962962962962965,2.2156000000238407],[-0.0672916666666667,0.44000000000000006,2.231600000023839],[-0.06458333333333334,0.45685185185185195,2.247800000011921],[-0.06489583333333329,0.4703703703703704,2.2618000000119167],[-0.059895833333333336,0.4772222222222223,2.2791000000238384],[-0.06291666666666665,0.5274074074074073,2.2953000000119204],[-0.07072916666666665,0.5944444444444444,2.3118999999761556],[-0.0733333333333333,0.5587037037037038,2.3283000000119216],[-0.050729166666666714,0.4901851851851853,2.3470000000000013],[-0.03333333333333333,0.43870370370370365,2.3623000000119205],[-0.03677083333333329,0.3712962962962963,2.380899999976158],[-0.03677083333333329,0.3712962962962963,2.40569999998808],[-0.04020833333333336,0.30388888888888893,2.429699999988074],[-0.04020833333333336,0.30388888888888893,2.4388000000119163],[-0.04020833333333336,0.30388888888888893,2.4451000000238423],[-0.05593750000000005,0.3077777777777779,2.4618000000119196],[-0.052187500000000026,0.3146296296296296,2.4786999999880805],[-0.05249999999999998,0.32166666666666677,2.4955],[-0.03937499999999995,0.34148148148148144,2.5118000000119167],[-0.01416666666666669,0.3290740740740742,2.531399999976159],[0.00927083333333331,0.27537037037037043,2.546899999976155],[0.029062499999999977,0.22907407407407415,2.564800000011921],[0.04572916666666664,0.21592592592592597,2.5784999999999982],[0.07614583333333323,0.2324074074074074,2.594999999999999],[0.10885416666666667,0.227962962962963,2.61189999997616],[0.12781250000000005,0.18407407407407403,2.6283999999761534],[0.09947916666666666,0.17629629629629637,2.6451999999880798],[0.06989583333333324,0.175,2.6616999999880804],[0.058541666666666714,0.1492592592592593,2.6786000000238417],[0.058541666666666714,0.1492592592592593,2.6950000000000003],[0.04718749999999995,0.1235185185185186,2.711899999976154],[0.044166666666666646,0.16962962962962966,2.728399999976155],[0.03958333333333333,0.20166666666666663,2.745199999988074],[0.03958333333333333,0.20166666666666663,2.7618000000119167],[0.03812500000000003,0.20055555555555546,2.778500000000001],[0.029166666666666667,0.1962962962962963,2.7951999999880783],[0.017916666666666713,0.21296296296296297,2.811699999988079],[0.019583333333333286,0.2485185185185186,2.8318999999761587],[0.042604166666666644,0.24722222222222223,2.8474999999999966],[0.065625,0.24592592592592585,2.86189999997616],[0.05791666666666669,0.2596296296296297,2.8783000000119188],[0.05791666666666669,0.2596296296296297,2.895100000023838],[0.05020833333333338,0.2733333333333334,2.911899999976157]]","[0.00019999998807662678,0.04650000000000176,0.05100000000000193,0.06199999999999761,0.07860000002384027,0.10039999997615467,0.11200000000000188,0.12860000002383742,0.14760000002384288,0.16199999999999903,0.1786000000238417,0.1951999999880769,0.21519999998808004,0.232999999999997,0.24510000002383947,0.2618000000119167,0.2815000000000012,0.2996000000238368,0.3149999999999977,0.32919999998807725,0.3451999999880755,0.36180000001191814,0.3784999999999954,0.3953000000119218,0.4118000000119224,0.42960000002383936,0.4450000000000003,0.46189999997615416,0.4783999999761548,0.49510000002383947,0.5118000000119167,0.528399999976159,0.5451999999880783,0.561800000011921,0.5820000000000007,0.5951000000238409,0.6118000000119181,0.6283999999761534,0.6478999999761541,0.6636000000238411,0.6783999999761576,0.6951000000238423,0.7118999999761542,0.7283999999761548,0.7461000000238371,0.7618000000119167,0.7786000000238431,0.7971000000238391,0.812600000023842,0.8286000000238403,0.8498000000119177,0.865699999988081,0.8799999999999955,0.8993999999761542,0.9158000000119202,0.9321000000238371,0.9511000000238425,0.96519999998808,0.9831999999880807,1.000800000011921,1.016300000011917,1.0318000000119198,1.0529999999999973,1.062399999976158,1.0786999999880749,1.0951999999880755,1.1174999999999997,1.1286000000238374,1.1454999999999984,1.1646999999880805,1.1814999999999998,1.1993000000119167,1.2121000000238382,1.2338999999761597,1.2453999999761578,1.262300000011919,1.278600000023843,1.2981999999880784,1.3126999999880766,1.3283999999761562,1.3451999999880755,1.3616999999880761,1.3784999999999954,1.3951999999880798,1.411999999999999,1.4338000000119209,1.445199999988077,1.4618000000119196,1.4784999999999968,1.4951000000238395,1.5118999999761584,1.5301999999880778,1.5493000000119181,1.5661999999880791,1.581100000023838,1.598699999988078,1.6161999999880763,1.6331000000238376,1.6488999999761589,1.6688000000119203,1.6783999999761576,1.6950000000000003,1.7118000000119196,1.7296000000238436,1.748600000023842,1.7646000000238402,1.7803999999761544,1.796199999988076,1.8144999999999953,1.8311999999880797,1.8483000000119176,1.8661999999880763,1.8786000000238374,1.895100000023838,1.911899999976157,1.9283999999761576,1.9486999999880794,1.9654999999999987,1.982199999988076,1.9994999999999976,2.015600000023838,2.03219999998808,2.0491000000238415,2.0656999999880767,2.083300000011917,2.0986000000238434,2.112499999999997,2.1283000000119188,2.145300000011922,2.1618000000119224,2.1784999999999997,2.1950000000000003,2.2156000000238407,2.231600000023839,2.247800000011921,2.2618000000119167,2.2791000000238384,2.2953000000119204,2.3118999999761556,2.3283000000119216,2.3470000000000013,2.3623000000119205,2.380899999976158,2.40569999998808,2.429699999988074,2.4388000000119163,2.4451000000238423,2.4618000000119196,2.4786999999880805,2.4955,2.5118000000119167,2.531399999976159,2.546899999976155,2.564800000011921,2.5784999999999982,2.594999999999999,2.61189999997616,2.6283999999761534,2.6451999999880798,2.6616999999880804,2.6786000000238417,2.6950000000000003,2.711899999976154,2.728399999976155,2.745199999988074,2.7618000000119167,2.778500000000001,2.7951999999880783,2.811699999988079,2.8318999999761587,2.8474999999999966,2.86189999997616,2.8783000000119188,2.895100000023838,2.911899999976157]","[1732873088636,1732873088675,1732873088679,1732873088690,1732873088707,1732873088729,1732873088740,1732873088757,1732873088776,1732873088790,1732873088807,1732873088824,1732873088844,1732873088861,1732873088874,1732873088890,1732873088910,1732873088928,1732873088943,1732873088958,1732873088974,1732873088990,1732873089007,1732873089024,1732873089040,1732873089058,1732873089073,1732873089090,1732873089107,1732873089124,1732873089140,1732873089157,1732873089174,1732873089190,1732873089210,1732873089223,1732873089240,1732873089257,1732873089276,1732873089292,1732873089307,1732873089323,1732873089340,1732873089357,1732873089374,1732873089390,1732873089407,1732873089425,1732873089441,1732873089457,1732873089478,1732873089494,1732873089508,1732873089528,1732873089544,1732873089560,1732873089579,1732873089594,1732873089612,1732873089629,1732873089645,1732873089660,1732873089681,1732873089691,1732873089707,1732873089724,1732873089746,1732873089757,1732873089774,1732873089793,1732873089810,1732873089828,1732873089840,1732873089862,1732873089874,1732873089891,1732873089907,1732873089927,1732873089941,1732873089957,1732873089974,1732873089990,1732873090007,1732873090024,1732873090040,1732873090062,1732873090074,1732873090090,1732873090107,1732873090123,1732873090140,1732873090158,1732873090178,1732873090195,1732873090209,1732873090227,1732873090245,1732873090262,1732873090277,1732873090297,1732873090307,1732873090323,1732873090340,1732873090358,1732873090377,1732873090393,1732873090409,1732873090425,1732873090443,1732873090459,1732873090477,1732873090495,1732873090507,1732873090524,1732873090540,1732873090557,1732873090577,1732873090594,1732873090611,1732873090628,1732873090644,1732873090661,1732873090678,1732873090694,1732873090712,1732873090727,1732873090741,1732873090757,1732873090774,1732873090790,1732873090807,1732873090823,1732873090844,1732873090860,1732873090876,1732873090890,1732873090907,1732873090924,1732873090940,1732873090957,1732873090975,1732873090991,1732873091009,1732873091034,1732873091058,1732873091067,1732873091073,1732873091090,1732873091107,1732873091124,1732873091140,1732873091160,1732873091175,1732873091193,1732873091207,1732873091223,1732873091240,1732873091257,1732873091274,1732873091290,1732873091307,1732873091323,1732873091340,1732873091357,1732873091374,1732873091390,1732873091407,1732873091423,1732873091440,1732873091460,1732873091476,1732873091490,1732873091507,1732873091523,1732873091540]","[[993.6,573.9],[993.6,573.9],[1001.2,575.7],[1001.2,575.7],[990.8,580.8],[984.8,571.5],[984.8,571.5],[972.5,591.3],[972.5,591.3],[984.5,629],[1016,655.9],[1051.3,678.5],[1075.5,697.7],[1122.4,725.8],[1122.4,725.8],[1156.1,730.1],[1170,739.8],[1176.2,765],[1205.5,823.6],[1236.6,844.1],[1228.9,831.6],[1214.6,842.2],[1203.8,848.7],[1203.8,848.7],[1204.1,858.6],[1199.2,863.2],[1199.2,863.2],[1214.2,878.6],[1181.5,886.3],[1156.5,878.5],[1156.5,878.5],[1134.4,865.2],[1119.2,846.8],[1102.9,844.9],[1087.3,842.1],[1087.3,842.1],[1060.7,829.4],[1048.9,822.2],[1035.8,823.5],[996.7,814.5],[995.1,808.3],[993.5,802.1],[999.1,800.4],[993.2,808.1],[986,817.8],[983.1,826],[993.7,838.2],[989.5,844.9],[991,852.4],[995.8,866.9],[1000.8,887.9],[1005.8,908.9],[996,910.6],[989.6,910.6],[1004.8,905.3],[1015,902.4],[998.6,889],[998.8,878.4],[1005.4,858],[1012.9,837.7],[1027.1,825.5],[1041.3,813.3],[1056.3,806.1],[1056.3,806.1],[1048.7,799.2],[1036.4,794.2],[1034.9,787],[1034.9,787],[1059.1,794],[1062.4,792.1],[1023.8,804.5],[984.3,816.8],[984.3,816.8],[958.9,794.9],[958.9,794.9],[910.3,771.3],[873.4,778.4],[859.1,785.2],[869.6,749.4],[869.6,749.4],[864.1,732.6],[833.5,716.4],[793.7,709.4],[793.7,709.4],[808,721.4],[822.8,712.2],[822.8,712.2],[818.9,720.2],[854,754.5],[877.2,767.2],[887,748.4],[872,772.2],[864.9,762.5],[879.4,768.2],[907.4,770.8],[911.9,752.7],[909.7,753.6],[912,758.3],[905.4,727.2],[900,686.6],[900,686.6],[911.1,706.4],[911.4,692.5],[909,695.3],[932.3,696],[955.6,696.7],[977.1,660.3],[1001,638.5],[1022.3,600.9],[1036.7,574.5],[1053.3,582.1],[1066.8,560.8],[1066.8,560.8],[1082.5,558.1],[1109.3,561.4],[1101.3,543.1],[1070.2,537.3],[1049.1,557],[1059.3,597.7],[1076.8,631.9],[1084.7,661.5],[1063.2,691.9],[1049.7,688.9],[1042.8,700.9],[1027.7,708.7],[1012.6,716.5],[1028.3,688.4],[1034.5,673.4],[1034.5,673.4],[1000.4,677.4],[948.8,713.9],[911.8,745.8],[907.6,745],[895.4,777.6],[898,786.7],[897.7,794],[902.5,797.7],[899.6,824.8],[892.1,861],[889.6,841.7],[911.3,804.7],[928,776.9],[924.7,740.5],[924.7,740.5],[921.4,704.1],[921.4,704.1],[921.4,704.1],[906.3,706.2],[909.9,709.9],[909.6,713.7],[922.2,724.4],[946.4,717.7],[968.9,688.7],[987.9,663.7],[1003.9,656.6],[1033.1,665.5],[1064.5,663.1],[1082.7,639.4],[1055.5,635.2],[1027.1,634.5],[1016.2,620.6],[1016.2,620.6],[1005.3,606.7],[1002.4,631.6],[998,648.9],[998,648.9],[996.6,648.3],[988,646],[977.2,655],[978.8,674.2],[1000.9,673.5],[1023,672.8],[1015.6,680.2],[1015.6,680.2],[1008.2,687.6]]","[0,0.3527331528]","[0.3527331528,0.3527331528]","[-0.3527331528,0]","[-0.3527331528,-0.3527331528]","[0,0]","[0.3527331528,0]","[0,-0.3527331528]","[0.3527331528,-0.3527331528]",0,0,0,0,1,3,Tablet,11,9,9,1
,,,,,,,,,,,,,,,,,,,,38,001,2024-11-29_17h37.30.259,Attention_exp_legacy,2023.1.0,Win32,60.24096386,,,,,,,,,,[0.023958333333333335],[0.3611111111111111],[1],[0],[0],[2.7803999999761544],"[""Option1_label""]",Option1_label,2,3.7952,"[[-0.01875,0.3648148148148148],[-0.01875,0.3648148148148148],[-0.01875,0.3648148148148148],[-0.01875,0.3648148148148148],[-0.01875,0.3648148148148148],[-0.01875,0.3648148148148148],[-0.01875,0.3648148148148148],[-0.01875,0.3648148148148148],[-0.01875,0.3648148148148148],[-0.01875,0.3648148148148148],[-0.01875,0.3648148148148148],[-0.01875,0.3648148148148148],[-0.01875,0.3648148148148148],[-0.01875,0.3648148148148148],[-0.01875,0.3648148148148148],[-0.01875,0.3648148148148148],[-0.01875,0.3648148148148148],[-0.01875,0.3648148148148148],[-0.01875,0.3648148148148148],[-0.01875,0.3648148148148148],[-0.01875,0.3648148148148148],[-0.01875,0.3648148148148148],[-0.01875,0.3648148148148148],[-0.01875,0.3648148148148148],[-0.01875,0.3648148148148148],[-0.01875,0.3648148148148148],[-0.01875,0.3648148148148148],[-0.01875,0.3648148148148148],[-0.01875,0.3648148148148148],[-0.01875,0.3648148148148148],[-0.01875,0.3648148148148148],[-0.01875,0.3648148148148148],[-0.01875,0.3648148148148148],[-0.01875,0.3648148148148148],[-0.01875,0.3648148148148148],[-0.01875,0.3648148148148148],[-0.01875,0.3648148148148148],[-0.01875,0.3648148148148148],[-0.01875,0.3648148148148148],[-0.01875,0.3648148148148148],[-0.01875,0.3648148148148148],[-0.01875,0.3648148148148148],[-0.01875,0.3648148148148148],[-0.01875,0.3648148148148148],[-0.01875,0.3648148148148148],[-0.01875,0.3648148148148148],[-0.01875,0.3648148148148148],[-0.01875,0.3648148148148148],[-0.01875,0.3648148148148148],[-0.01875,0.3648148148148148],[-0.01875,0.3648148148148148],[-0.01875,0.3648148148148148],[-0.01875,0.3648148148148148],[-0.01875,0.3648148148148148],[-0.01875,0.3648148148148148],[-0.01875,0.3648148148148148],[-0.01875,0.3648148148148148],[-0.01875,0.3648148148148148],[-0.01875,0.3648148148148148],[-0.01875,0.3648148148148148],[-0.01875,0.3648148148148148],[-0.01875,0.3648148148148148],[-0.01875,0.3648148148148148],[-0.01875,0.3648148148148148],[-0.01875,0.3648148148148148],[-0.01875,0.3648148148148148],[-0.01875,0.3648148148148148],[-0.01875,0.3648148148148148],[-0.01875,0.3648148148148148],[-0.01875,0.3648148148148148],[-0.01875,0.3648148148148148],[-0.01875,0.3648148148148148],[-0.01875,0.3648148148148148],[-0.01875,0.3648148148148148],[-0.01875,0.3648148148148148],[-0.01875,0.3648148148148148],[-0.01875,0.3648148148148148],[-0.01875,0.3648148148148148],[-0.01875,0.3648148148148148],[-0.0125,0.3648148148148148],[0.009375,0.362962962962963],[0.01875,0.362962962962963],[0.026041666666666668,0.362962962962963],[0.046875,0.362962962962963],[0.06458333333333334,0.362962962962963],[0.0875,0.362962962962963],[0.11458333333333333,0.362962962962963],[0.15208333333333332,0.3611111111111111],[0.22291666666666668,0.3537037037037037],[0.24583333333333332,0.35],[0.278125,0.34814814814814815],[0.3020833333333333,0.34814814814814815],[0.32083333333333336,0.34814814814814815],[0.33125,0.34814814814814815],[0.334375,0.34814814814814815],[0.334375,0.34814814814814815],[0.334375,0.34814814814814815],[0.334375,0.34814814814814815],[0.334375,0.34814814814814815],[0.334375,0.34814814814814815],[0.334375,0.34814814814814815],[0.334375,0.34814814814814815],[0.334375,0.34814814814814815],[0.334375,0.34814814814814815],[0.334375,0.34814814814814815],[0.33229166666666665,0.34814814814814815],[0.3229166666666667,0.34814814814814815],[0.3145833333333333,0.34814814814814815],[0.2989583333333333,0.34814814814814815],[0.28125,0.34814814814814815],[0.25729166666666664,0.34814814814814815],[0.23229166666666667,0.35],[0.20416666666666666,0.3592592592592593],[0.178125,0.3611111111111111],[0.153125,0.3611111111111111],[0.128125,0.3611111111111111],[0.10208333333333333,0.3611111111111111],[0.06979166666666667,0.3611111111111111],[0.053125,0.3611111111111111],[0.042708333333333334,0.3611111111111111],[0.034375,0.3611111111111111],[0.028125,0.3611111111111111],[0.026041666666666668,0.3611111111111111],[0.023958333333333335,0.3611111111111111],[0.023958333333333335,0.3611111111111111],[0.023958333333333335,0.3611111111111111],[0.023958333333333335,0.3611111111111111],[0.023958333333333335,0.3611111111111111],[0.023958333333333335,0.3611111111111111],[0.023958333333333335,0.3611111111111111],[0.023958333333333335,0.3611111111111111],[0.023958333333333335,0.3611111111111111],[0.023958333333333335,0.3611111111111111],[0.023958333333333335,0.3611111111111111],[0.023958333333333335,0.3611111111111111],[0.023958333333333335,0.3611111111111111],[0.023958333333333335,0.3611111111111111],[0.023958333333333335,0.3611111111111111],[0.023958333333333335,0.3611111111111111],[0.023958333333333335,0.3611111111111111],[0.023958333333333335,0.3611111111111111],[0.023958333333333335,0.3611111111111111],[0.023958333333333335,0.3611111111111111],[0.023958333333333335,0.3611111111111111],[0.023958333333333335,0.3611111111111111],[0.023958333333333335,0.3611111111111111],[0.023958333333333335,0.3611111111111111],[0.023958333333333335,0.3611111111111111],[0.023958333333333335,0.3611111111111111],[0.023958333333333335,0.3611111111111111],[0.023958333333333335,0.3611111111111111],[0.023958333333333335,0.3611111111111111],[0.023958333333333335,0.3611111111111111],[0.023958333333333335,0.3611111111111111],[0.023958333333333335,0.3611111111111111],[0.023958333333333335,0.3611111111111111],[0.023958333333333335,0.3611111111111111],[0.023958333333333335,0.3611111111111111],[0.023958333333333335,0.3611111111111111],[0.023958333333333335,0.3611111111111111],[0.023958333333333335,0.3611111111111111],[0.023958333333333335,0.3611111111111111],[0.023958333333333335,0.3611111111111111],[0.023958333333333335,0.3611111111111111],[0.023958333333333335,0.3611111111111111],[0.023958333333333335,0.3611111111111111],[0.023958333333333335,0.3611111111111111],[0.023958333333333335,0.3611111111111111],[0.023958333333333335,0.3611111111111111],[0.023958333333333335,0.3611111111111111],[0.023958333333333335,0.3611111111111111],[0.023958333333333335,0.3611111111111111],[0.023958333333333335,0.3611111111111111],[0.023958333333333335,0.3611111111111111],[0.023958333333333335,0.3611111111111111],[0.023958333333333335,0.3611111111111111],[0.023958333333333335,0.3611111111111111],[0.023958333333333335,0.3611111111111111],[0.023958333333333335,0.3611111111111111],[0.023958333333333335,0.3611111111111111],[0.023958333333333335,0.3611111111111111],[0.023958333333333335,0.3611111111111111],[0.023958333333333335,0.3611111111111111],[0.023958333333333335,0.3611111111111111],[0.023958333333333335,0.3611111111111111],[0.023958333333333335,0.3611111111111111],[0.023958333333333335,0.3611111111111111],[0.023958333333333335,0.3611111111111111],[0.023958333333333335,0.3611111111111111],[0.023958333333333335,0.3611111111111111],[0.023958333333333335,0.3611111111111111],[0.023958333333333335,0.3611111111111111],[0.023958333333333335,0.3611111111111111],[0.023958333333333335,0.3611111111111111],[0.023958333333333335,0.3611111111111111],[0.023958333333333335,0.3611111111111111],[0.023958333333333335,0.3611111111111111],[0.023958333333333335,0.3611111111111111],[0.023958333333333335,0.3611111111111111],[0.023958333333333335,0.3611111111111111],[0.023958333333333335,0.3611111111111111],[0.023958333333333335,0.3611111111111111],[0.023958333333333335,0.3611111111111111],[0.023958333333333335,0.3611111111111111],[0.023958333333333335,0.3611111111111111],[0.023958333333333335,0.3611111111111111],[0.023958333333333335,0.3611111111111111],[0.023958333333333335,0.3611111111111111],[0.023958333333333335,0.3611111111111111],[0.023958333333333335,0.3611111111111111],[0.023958333333333335,0.3611111111111111],[0.023958333333333335,0.3611111111111111],[0.023958333333333335,0.3611111111111111],[0.023958333333333335,0.3611111111111111],[0.023958333333333335,0.3611111111111111],[0.023958333333333335,0.3611111111111111],[0.023958333333333335,0.3611111111111111],[0.023958333333333335,0.3611111111111111],[0.023958333333333335,0.3611111111111111],[0.023958333333333335,0.3611111111111111],[0.023958333333333335,0.3611111111111111],[0.023958333333333335,0.3611111111111111],[0.023958333333333335,0.3611111111111111],[0.023958333333333335,0.3611111111111111],[0.023958333333333335,0.3611111111111111],[0.023958333333333335,0.3611111111111111],[0.023958333333333335,0.3611111111111111],[0.023958333333333335,0.3611111111111111],[0.023958333333333335,0.3611111111111111]]","[[0.015208333333333357,0.4572222222222222],[0.015208333333333357,0.4572222222222222],[0.028437499999999952,0.4346296296296297],[0.041666666666666664,0.41203703703703703],[0.041666666666666664,0.3677777777777778],[0.041666666666666664,0.3235185185185186],[0.04572916666666664,0.2861111111111111],[0.033645833333333285,0.2581481481481481],[0.03270833333333331,0.24296296296296305],[0.01552083333333331,0.21888888888888897],[0.004791666666666691,0.20888888888888882],[-0.004062499999999977,0.21203703703703702],[-0.00625,0.23166666666666672],[-0.008437500000000023,0.2512962962962964],[0.0016666666666666904,0.3133333333333334],[0.015625,0.3942592592592592],[0.020833333333333332,0.4372222222222223],[0.03708333333333336,0.4794444444444444],[0.022604166666666713,0.5],[0.024374999999999977,0.5457407407407409],[0.05583333333333336,0.5672222222222222],[0.08989583333333329,0.5712962962962963],[0.08416666666666663,0.5485185185185186],[0.07843749999999995,0.5257407407407407],[0.050937499999999976,0.49314814814814806],[0.026041666666666668,0.452962962962963],[0.003541666666666643,0.4624074074074075],[-0.0009374999999999763,0.4705555555555556],[-0.0048958333333333805,0.49296296296296305],[-0.0048958333333333805,0.49296296296296305],[-0.02510416666666669,0.4901851851851853],[-0.02510416666666669,0.4901851851851853],[-0.05614583333333331,0.47537037037037044],[-0.05614583333333331,0.47537037037037044],[-0.05270833333333336,0.48648148148148157],[-0.022187499999999954,0.507037037037037],[-0.0010416666666666667,0.4987037037037036],[0.016250000000000025,0.4842592592592593],[0.030624999999999975,0.48092592592592603],[0.05635416666666669,0.459074074074074],[0.07354166666666657,0.45777777777777784],[0.09968750000000005,0.4601851851851852],[0.09489583333333323,0.43925925925925935],[0.0828125,0.43740740740740747],[0.07166666666666661,0.4457407407407408],[0.07166666666666661,0.4457407407407408],[0.06645833333333329,0.4572222222222222],[0.03677083333333329,0.4699999999999999],[-0.008333333333333333,0.5081481481481481],[-0.05697916666666671,0.5238888888888888],[-0.05697916666666671,0.5238888888888888],[-0.09906250000000003,0.5296296296296297],[-0.15666666666666665,0.5201851851851852],[-0.21427083333333338,0.5107407407407406],[-0.24093749999999994,0.5246296296296296],[-0.27156250000000004,0.5253703703703705],[-0.30437500000000006,0.5501851851851852],[-0.33718750000000003,0.575],[-0.3530208333333333,0.5644444444444444],[-0.35968749999999994,0.5548148148148149],[-0.3571875,0.5703703703703704],[-0.36781250000000004,0.5696296296296297],[-0.3757291666666667,0.6],[-0.3836458333333333,0.6303703703703704],[-0.39874999999999994,0.6348148148148147],[-0.40989583333333335,0.6524074074074073],[-0.3888541666666666,0.65],[-0.35885416666666664,0.6314814814814815],[-0.3333333333333333,0.6888888888888889],[-0.29750000000000004,0.7003703703703704],[-0.26197916666666665,0.6946296296296297],[-0.22489583333333332,0.722037037037037],[-0.16812499999999997,0.7037037037037037],[-0.13177083333333334,0.6874074074074075],[-0.13177083333333334,0.6874074074074075],[-0.05364583333333333,0.7105555555555556],[0.010416666666666666,0.712037037037037],[0.022291666666666644,0.6892592592592593],[0.022291666666666644,0.6892592592592593],[0.02520833333333338,0.6825925925925926],[0.05666666666666664,0.6372222222222222],[0.08406250000000005,0.6114814814814815],[0.08406250000000005,0.6114814814814815],[0.10166666666666657,0.5516666666666666],[0.09093749999999995,0.41999999999999993],[0.09093749999999995,0.41999999999999993],[0.06447916666666664,0.3103703703703704],[0.11208333333333324,0.22833333333333325],[0.12625000000000006,0.14740740740740746],[0.12625000000000006,0.14740740740740746],[0.10812499999999996,0.002777777777777778],[0.10812499999999996,0.002777777777777778],[0.14677083333333343,-0.0448148148148149],[0.1828125,-0.10481481481481486],[0.21260416666666657,-0.1411111111111111],[0.2289583333333333,-0.21129629629629634],[0.26802083333333326,-0.23296296296296298],[0.32364583333333335,-0.1653703703703704],[0.37052083333333335,-0.11518518518518517],[0.37052083333333335,-0.11518518518518517],[0.3484375,-0.07111111111111107],[0.3252083333333334,-0.041666666666666664],[0.35812499999999997,0.05740740740740741],[0.31520833333333326,0.09185185185185189],[0.31520833333333326,0.09185185185185189],[0.26843750000000005,0.10925925925925926],[0.24343750000000006,0.03759259259259251],[0.23187499999999991,-0.0001851851851852273],[0.18479166666666677,-0.009814814814814731],[0.17114583333333327,-0.049629629629629544],[0.17114583333333327,-0.049629629629629544],[0.15343749999999995,-0.006851851851851936],[0.14802083333333324,0.034074074074074034],[0.16875,-0.02370370370370362],[0.1727083333333333,-0.08388888888888892],[0.1727083333333333,-0.08388888888888892],[0.19572916666666676,-0.1764814814814815],[0.2022916666666667,-0.17037037037037037],[0.19802083333333323,-0.08037037037037033],[0.19802083333333323,-0.08037037037037033],[0.1814583333333334,-0.03740740740740749],[0.20385416666666673,-0.0016666666666666245],[0.18864583333333323,0.007592592592592635],[0.19072916666666656,-0.06851851851851852],[0.1765625,-0.13944444444444445],[0.13479166666666675,-0.10944444444444448],[0.11218750000000005,-0.08629629629629634],[0.0974999999999999,-0.07796296296296301],[0.11927083333333334,-0.0764814814814815],[0.12062499999999995,-0.06703703703703702],[0.15281250000000005,-0.11314814814814819],[0.15281250000000005,-0.11314814814814819],[0.13937499999999994,-0.16296296296296298],[0.15458333333333343,-0.16518518518518516],[0.18041666666666673,-0.23870370370370367],[0.21291666666666675,-0.42055555555555557],[0.2604166666666667,-0.5587037037037037],[0.28937499999999994,-0.6533333333333333],[0.3071875000000001,-0.7024074074074075],[0.31145833333333334,-0.8138888888888889],[0.31145833333333334,-0.8138888888888889],[0.3414583333333333,-0.8948148148148148],[0.3372916666666666,-0.9014814814814816],[0.35354166666666675,-0.9477777777777778],[0.3758333333333333,-0.9866666666666666],[0.3875,-0.9542592592592591],[0.40687499999999993,-0.7874074074074073],[0.4115624999999999,-0.6677777777777778],[0.4133333333333333,-0.6],[0.4133333333333333,-0.6],[0.41916666666666674,-0.5524074074074075],[0.4179166666666667,-0.507962962962963],[0.4179166666666667,-0.507962962962963],[0.40864583333333326,-0.5725925925925925],[0.41947916666666674,-0.5979629629629629],[0.4087500000000001,-0.5740740740740741],[0.4210416666666667,-0.6296296296296297],[0.43333333333333335,-0.6851851851851852],[0.44072916666666656,-0.7757407407407407],[0.4492708333333333,-0.865],[0.45968749999999997,-0.8874074074074074],[0.4705208333333334,-0.9355555555555556],[0.4860416666666666,-1.0257407407407406],[0.5034375,-1.0209259259259258],[0.5034375,-1.0209259259259258],[0.50625,-0.9796296296296296],[0.540625,-0.9707407407407408],[0.5380208333333333,-0.904074074074074],[0.5380208333333333,-0.904074074074074],[0.5030208333333335,-0.8222222222222222],[0.5030208333333335,-0.8222222222222222],[0.4730208333333332,-0.7524074074074074],[0.4730208333333332,-0.7524074074074074],[0.4599999999999999,-0.782962962962963],[0.4474999999999999,-0.8251851851851852],[0.4025000000000001,-0.7538888888888889],[0.4025000000000001,-0.7538888888888889],[0.34375,-0.6251851851851852],[0.275,-0.5005555555555555],[0.22843749999999996,-0.43499999999999994],[0.17697916666666677,-0.4235185185185185],[0.12270833333333328,-0.4137037037037037],[0.10770833333333343,-0.3581481481481481],[0.08604166666666657,-0.2953703703703704],[0.06354166666666666,-0.18833333333333332],[0.04791666666666667,-0.10314814814814813],[0.05625,-0.0712962962962963],[0.08479166666666677,-0.07981481481481485],[0.11395833333333343,-0.12611111111111115],[0.1310416666666666,-0.16074074074074077],[0.14958333333333323,-0.15055555555555558],[0.16614583333333333,-0.13277777777777774],[0.16677083333333323,-0.15648148148148147],[0.1788541666666667,-0.1933333333333333],[0.1586458333333333,-0.12314814814814815],[0.15177083333333338,-0.0824074074074074],[0.1421875,-0.0868518518518518],[0.12854166666666675,-0.06314814814814819],[0.11322916666666671,-0.014814814814814815],[0.10510416666666676,0.05648148148148148],[0.09416666666666676,0.09222222222222214],[0.08322916666666676,0.127962962962963],[0.07802083333333343,0.12333333333333338],[0.0728125000000001,0.11870370370370374],[0.0728125000000001,0.11870370370370374],[0.08135416666666657,0.05759259259259263],[0.07010416666666662,0.02833333333333325],[0.06885416666666658,-0.0007407407407406986],[0.05406249999999998,-0.009444444444444486],[0.05406249999999998,-0.009444444444444486],[0.03927083333333338,-0.018148148148148063],[-0.021458333333333357,-0.07574074074074069],[-0.08718750000000004,-0.09666666666666665],[-0.14031250000000003,-0.1007407407407407],[-0.19927083333333329,-0.11148148148148146],[-0.2582291666666666,-0.12222222222222222],[-0.3188541666666667,-0.1111111111111111],[-0.37302083333333336,-0.10240740740740743],[-0.40437500000000004,-0.06592592592592597],[-0.42218749999999994,-0.04981481481481477],[-0.41770833333333335,-0.03722222222222227],[-0.41770833333333335,-0.03722222222222227],[-0.3655208333333333,0.004629629629629629],[-0.3077083333333333,0.012037037037037037],[-0.265625,0.01907407407407399],[-0.265625,0.01907407407407399],[-0.22458333333333336,0.05259259259259255],[-0.1764583333333333,0.08277777777777787],[-0.12895833333333329,0.09148148148148144]]","[[0.015208333333333357,0.4572222222222222,0.00019999998807662678],[0.015208333333333357,0.4572222222222222,0.011899999976158426],[0.028437499999999952,0.4346296296296297,0.028699999988077707],[0.041666666666666664,0.41203703703703703,0.04519999998807833],[0.041666666666666664,0.3677777777777778,0.06210000002383964],[0.041666666666666664,0.3235185185185186,0.0788999999761586],[0.04572916666666664,0.2861111111111111,0.09689999997615928],[0.033645833333333285,0.2581481481481481,0.11299999999999955],[0.03270833333333331,0.24296296296296305,0.1331999999880793],[0.01552083333333331,0.21888888888888897,0.14910000002384294],[0.004791666666666691,0.20888888888888882,0.16489999997615712],[-0.004062499999999977,0.21203703703703702,0.18139999997615774],[-0.00625,0.23166666666666672,0.19719999998807936],[-0.008437500000000023,0.2512962962962964,0.21280000001191723],[0.0016666666666666904,0.3133333333333334,0.2306000000238413],[0.015625,0.3942592592592592,0.24510000002383947],[0.020833333333333332,0.4372222222222223,0.2641999999880795],[0.03708333333333336,0.4794444444444444,0.28010000002384317],[0.022604166666666713,0.5,0.2968000000119204],[0.024374999999999977,0.5457407407407409,0.3123000000119234],[0.05583333333333336,0.5672222222222222,0.3293000000119193],[0.08989583333333329,0.5712962962962963,0.3456000000238433],[0.08416666666666663,0.5485185185185186,0.3621999999880785],[0.07843749999999995,0.5257407407407407,0.3785000000000025],[0.050937499999999976,0.49314814814814806,0.3953999999761564],[0.026041666666666668,0.452962962962963,0.4141999999880781],[0.003541666666666643,0.4624074074074075,0.4323999999761554],[-0.0009374999999999763,0.4705555555555556,0.4493999999761584],[-0.0048958333333333805,0.49296296296296305,0.46639999997615433],[-0.0048958333333333805,0.49296296296296305,0.4796999999880782],[-0.02510416666666669,0.4901851851851853,0.4951999999880812],[-0.02510416666666669,0.4901851851851853,0.5120000000000005],[-0.05614583333333331,0.47537037037037044,0.5286000000238431],[-0.05614583333333331,0.47537037037037044,0.5453000000119204],[-0.05270833333333336,0.48648148148148157,0.5618999999761556],[-0.022187499999999954,0.507037037037037,0.5784999999999982],[-0.0010416666666666667,0.4987037037037036,0.5953000000119175],[0.016250000000000025,0.4842592592592593,0.6166999999880787],[0.030624999999999975,0.48092592592592603,0.6321000000238399],[0.05635416666666669,0.459074074074074,0.6493000000119196],[0.07354166666666657,0.45777777777777784,0.6649999999999991],[0.09968750000000005,0.4601851851851852,0.6828000000119232],[0.09489583333333323,0.43925925925925935,0.69760000002384],[0.0828125,0.43740740740740747,0.7126000000238406],[0.07166666666666661,0.4457407407407408,0.7313000000119203],[0.07166666666666661,0.4457407407407408,0.7451999999880812],[0.06645833333333329,0.4572222222222222,0.7620000000000005],[0.03677083333333329,0.4699999999999999,0.7785000000000011],[-0.008333333333333333,0.5081481481481481,0.7953000000119204],[-0.05697916666666671,0.5238888888888888,0.8178000000119212],[-0.05697916666666671,0.5238888888888888,0.8286999999880749],[-0.09906250000000003,0.5296296296296297,0.8451999999880755],[-0.15666666666666665,0.5201851851851852,0.8618999999761598],[-0.21427083333333338,0.5107407407407406,0.8788999999761558],[-0.24093749999999994,0.5246296296296296,0.8951999999880798],[-0.27156250000000004,0.5253703703703705,0.911899999976157],[-0.30437500000000006,0.5501851851851852,0.9311999999880811],[-0.33718750000000003,0.575,0.9506000000238402],[-0.3530208333333333,0.5644444444444444,0.9668000000119221],[-0.35968749999999994,0.5548148148148149,0.982899999976155],[-0.3571875,0.5703703703703704,0.9981000000238396],[-0.36781250000000004,0.5696296296296297,1.016300000011917],[-0.3757291666666667,0.6,1.0321999999880802],[-0.3836458333333333,0.6303703703703704,1.047100000023839],[-0.39874999999999994,0.6348148148148147,1.0621000000238396],[-0.40989583333333335,0.6524074074074073,1.078800000011917],[-0.3888541666666666,0.65,1.0958999999761545],[-0.35885416666666664,0.6314814814814815,1.1118000000119181],[-0.3333333333333333,0.6888888888888889,1.1289999999999978],[-0.29750000000000004,0.7003703703703704,1.1451999999880798],[-0.26197916666666665,0.6946296296296297,1.1623000000119177],[-0.22489583333333332,0.722037037037037,1.1803000000119184],[-0.16812499999999997,0.7037037037037037,1.195300000011919],[-0.13177083333333334,0.6874074074074075,1.2119999999999962],[-0.13177083333333334,0.6874074074074075,1.2288000000119226],[-0.05364583333333333,0.7105555555555556,1.2453000000119232],[0.010416666666666666,0.712037037037037,1.2618999999761584],[0.022291666666666644,0.6892592592592593,1.278600000023843],[0.022291666666666644,0.6892592592592593,1.2951000000238437],[0.02520833333333338,0.6825925925925926,1.3163000000119212],[0.05666666666666664,0.6372222222222222,1.333300000011917],[0.08406250000000005,0.6114814814814815,1.348699999988078],[0.08406250000000005,0.6114814814814815,1.3620000000000019],[0.10166666666666657,0.5516666666666666,1.3818000000119213],[0.09093749999999995,0.41999999999999993,1.39969999998808],[0.09093749999999995,0.41999999999999993,1.412100000023841],[0.06447916666666664,0.3103703703703704,1.4329999999999998],[0.11208333333333324,0.22833333333333325,1.4498999999761608],[0.12625000000000006,0.14740740740740746,1.4663000000119197],[0.12625000000000006,0.14740740740740746,1.4788000000119226],[0.10812499999999996,0.002777777777777778,1.5006000000238444],[0.10812499999999996,0.002777777777777778,1.5126000000238378],[0.14677083333333343,-0.0448148148148149,1.5288000000119197],[0.1828125,-0.10481481481481486,1.5453000000119204],[0.21260416666666657,-0.1411111111111111,1.5663999999761558],[0.2289583333333333,-0.21129629629629634,1.5813999999761563],[0.26802083333333326,-0.23296296296296298,1.5976999999880803],[0.32364583333333335,-0.1653703703703704,1.6148000000119183],[0.37052083333333335,-0.11518518518518517,1.6338999999761583],[0.37052083333333335,-0.11518518518518517,1.6453000000119218],[0.3484375,-0.07111111111111107,1.661899999976157],[0.3252083333333334,-0.041666666666666664,1.6784999999999997],[0.35812499999999997,0.05740740740740741,1.6953999999761606],[0.31520833333333326,0.09185185185185189,1.717399999976159],[0.31520833333333326,0.09185185185185189,1.7283999999761548],[0.26843750000000005,0.10925925925925926,1.7488999999761603],[0.24343750000000006,0.03759259259259251,1.7673000000119217],[0.23187499999999991,-0.0001851851851852273,1.7821000000238385],[0.18479166666666677,-0.009814814814814731,1.800199999988081],[0.17114583333333327,-0.049629629629629544,1.8168999999761581],[0.17114583333333327,-0.049629629629629544,1.8288999999761586],[0.15343749999999995,-0.006851851851851936,1.8453999999761592],[0.14802083333333324,0.034074074074074034,1.8653000000119206],[0.16875,-0.02370370370370362,1.8811000000238423],[0.1727083333333333,-0.08388888888888892,1.8954999999999984],[0.1727083333333333,-0.08388888888888892,1.911899999976157],[0.19572916666666676,-0.1764814814814815,1.9328000000119232],[0.2022916666666667,-0.17037037037037037,1.9495000000000005],[0.19802083333333323,-0.08037037037037033,1.966000000000001],[0.19802083333333323,-0.08037037037037033,1.9786000000238388],[0.1814583333333334,-0.03740740740740749,1.999199999988079],[0.20385416666666673,-0.0016666666666666245,2.015199999988077],[0.18864583333333323,0.007592592592592635,2.03219999998808],[0.19072916666666656,-0.06851851851851852,2.050300000011923],[0.1765625,-0.13944444444444445,2.0653000000119235],[0.13479166666666675,-0.10944444444444448,2.0786000000238403],[0.11218750000000005,-0.08629629629629634,2.0951999999880755],[0.0974999999999999,-0.07796296296296301,2.114199999988081],[0.11927083333333334,-0.0764814814814815,2.1315000000000026],[0.12062499999999995,-0.06703703703703702,2.147300000011917],[0.15281250000000005,-0.11314814814814819,2.1618000000119224],[0.15281250000000005,-0.11314814814814819,2.1786999999880763],[0.13937499999999994,-0.16296296296296298,2.195300000011919],[0.15458333333333343,-0.16518518518518516,2.2118000000119196],[0.18041666666666673,-0.23870370370370367,2.2291000000238412],[0.21291666666666675,-0.42055555555555557,2.2498000000119234],[0.2604166666666667,-0.5587037037037037,2.266199999988075],[0.28937499999999994,-0.6533333333333333,2.282600000023841],[0.3071875000000001,-0.7024074074074075,2.297699999988076],[0.31145833333333334,-0.8138888888888889,2.3138000000119234],[0.31145833333333334,-0.8138888888888889,2.3286000000238403],[0.3414583333333333,-0.8948148148148148,2.345100000023841],[0.3372916666666666,-0.9014814814814816,2.362499999999997],[0.35354166666666675,-0.9477777777777778,2.38060000002384],[0.3758333333333333,-0.9866666666666666,2.3984999999999985],[0.3875,-0.9542592592592591,2.4125000000000014],[0.40687499999999993,-0.7874074074074073,2.4286000000238417],[0.4115624999999999,-0.6677777777777778,2.445999999999998],[0.4133333333333333,-0.6,2.4641000000238407],[0.4133333333333333,-0.6,2.478600000023839],[0.41916666666666674,-0.5524074074074075,2.495199999988081],[0.4179166666666667,-0.507962962962963,2.517800000011917],[0.4179166666666667,-0.507962962962963,2.528500000000001],[0.40864583333333326,-0.5725925925925925,2.545600000023839],[0.41947916666666674,-0.5979629629629629,2.561800000011921],[0.4087500000000001,-0.5740740740740741,2.580199999988075],[0.4210416666666667,-0.6296296296296297,2.5988999999761546],[0.43333333333333335,-0.6851851851851852,2.614199999988081],[0.44072916666666656,-0.7757407407407407,2.631899999976156],[0.4492708333333333,-0.865,2.6484999999999985],[0.45968749999999997,-0.8874074074074074,2.6644999999999968],[0.4705208333333334,-0.9355555555555556,2.6801999999880763],[0.4860416666666666,-1.0257407407407406,2.6956999999880793],[0.5034375,-1.0209259259259258,2.7118000000119196],[0.5034375,-1.0209259259259258,2.728600000023839],[0.50625,-0.9796296296296296,2.7451000000238395],[0.540625,-0.9707407407407408,2.7620000000000005],[0.5380208333333333,-0.904074074074074,2.781699999988078],[0.5380208333333333,-0.904074074074074,2.800800000011918],[0.5030208333333335,-0.8222222222222222,2.820899999976156],[0.5030208333333335,-0.8222222222222222,2.828800000011917],[0.4730208333333332,-0.7524074074074074,2.8451999999880755],[0.4730208333333332,-0.7524074074074074,2.86189999997616],[0.4599999999999999,-0.782962962962963,2.8786000000238445],[0.4474999999999999,-0.8251851851851852,2.8951999999880798],[0.4025000000000001,-0.7538888888888889,2.911899999976157],[0.4025000000000001,-0.7538888888888889,2.9284999999999997],[0.34375,-0.6251851851851852,2.9456000000238376],[0.275,-0.5005555555555555,2.9618000000119196],[0.22843749999999996,-0.43499999999999994,2.978499999999997],[0.17697916666666677,-0.4235185185185185,2.9991000000238444],[0.12270833333333328,-0.4137037037037037,3.0136000000238425],[0.10770833333333343,-0.3581481481481481,3.030100000023843],[0.08604166666666657,-0.2953703703703704,3.0451999999880783],[0.06354166666666666,-0.18833333333333332,3.0623000000119234],[0.04791666666666667,-0.10314814814814813,3.0784999999999982],[0.05625,-0.0712962962962963,3.0953000000119175],[0.08479166666666677,-0.07981481481481485,3.112100000023844],[0.11395833333333343,-0.12611111111111115,3.12910000002384],[0.1310416666666666,-0.16074074074074077,3.145100000023838],[0.14958333333333323,-0.15055555555555558,3.161899999976157],[0.16614583333333333,-0.13277777777777774,3.1783999999761576],[0.16677083333333323,-0.15648148148148147,3.1953999999761606],[0.1788541666666667,-0.1933333333333333,3.211899999976154],[0.1586458333333333,-0.12314814814814815,3.228600000023839],[0.15177083333333338,-0.0824074074074074,3.245199999988081],[0.1421875,-0.0868518518518518,3.2620000000000005],[0.12854166666666675,-0.06314814814814819,3.278500000000001],[0.11322916666666671,-0.014814814814814815,3.2951999999880783],[0.10510416666666676,0.05648148148148148,3.3118999999761556],[0.09416666666666676,0.09222222222222214,3.328699999988075],[0.08322916666666676,0.127962962962963,3.345699999988078],[0.07802083333333343,0.12333333333333338,3.361699999988076],[0.0728125000000001,0.11870370370370374,3.3816000000238375],[0.0728125000000001,0.11870370370370374,3.3953999999761564],[0.08135416666666657,0.05759259259259263,3.4118000000119224],[0.07010416666666662,0.02833333333333325,3.4288000000119183],[0.06885416666666658,-0.0007407407407406986,3.4451000000238423],[0.05406249999999998,-0.009444444444444486,3.461899999976154],[0.05406249999999998,-0.009444444444444486,3.478499999999997],[0.03927083333333338,-0.018148148148148063,3.495399999976158],[-0.021458333333333357,-0.07574074074074069,3.514800000011917],[-0.08718750000000004,-0.09666666666666665,3.5321000000238385],[-0.14031250000000003,-0.1007407407407407,3.548100000023844],[-0.19927083333333329,-0.11148148148148146,3.5636999999880814],[-0.2582291666666666,-0.12222222222222222,3.578699999988075],[-0.3188541666666667,-0.1111111111111111,3.5953000000119175],[-0.37302083333333336,-0.10240740740740743,3.6153000000119206],[-0.40437500000000004,-0.06592592592592597,3.6315000000000026],[-0.42218749999999994,-0.04981481481481477,3.6483999999761565],[-0.41770833333333335,-0.03722222222222227,3.662100000023841],[-0.41770833333333335,-0.03722222222222227,3.6786000000238417],[-0.3655208333333333,0.004629629629629629,3.695300000011919],[-0.3077083333333333,0.012037037037037037,3.711899999976154],[-0.265625,0.01907407407407399,3.7313000000119203],[-0.265625,0.01907407407407399,3.7455],[-0.22458333333333336,0.05259259259259255,3.7618000000119167],[-0.1764583333333333,0.08277777777777787,3.778500000000001],[-0.12895833333333329,0.09148148148148144,3.7951999999880783]]","[0.00019999998807662678,0.011899999976158426,0.028699999988077707,0.04519999998807833,0.06210000002383964,0.0788999999761586,0.09689999997615928,0.11299999999999955,0.1331999999880793,0.14910000002384294,0.16489999997615712,0.18139999997615774,0.19719999998807936,0.21280000001191723,0.2306000000238413,0.24510000002383947,0.2641999999880795,0.28010000002384317,0.2968000000119204,0.3123000000119234,0.3293000000119193,0.3456000000238433,0.3621999999880785,0.3785000000000025,0.3953999999761564,0.4141999999880781,0.4323999999761554,0.4493999999761584,0.46639999997615433,0.4796999999880782,0.4951999999880812,0.5120000000000005,0.5286000000238431,0.5453000000119204,0.5618999999761556,0.5784999999999982,0.5953000000119175,0.6166999999880787,0.6321000000238399,0.6493000000119196,0.6649999999999991,0.6828000000119232,0.69760000002384,0.7126000000238406,0.7313000000119203,0.7451999999880812,0.7620000000000005,0.7785000000000011,0.7953000000119204,0.8178000000119212,0.8286999999880749,0.8451999999880755,0.8618999999761598,0.8788999999761558,0.8951999999880798,0.911899999976157,0.9311999999880811,0.9506000000238402,0.9668000000119221,0.982899999976155,0.9981000000238396,1.016300000011917,1.0321999999880802,1.047100000023839,1.0621000000238396,1.078800000011917,1.0958999999761545,1.1118000000119181,1.1289999999999978,1.1451999999880798,1.1623000000119177,1.1803000000119184,1.195300000011919,1.2119999999999962,1.2288000000119226,1.2453000000119232,1.2618999999761584,1.278600000023843,1.2951000000238437,1.3163000000119212,1.333300000011917,1.348699999988078,1.3620000000000019,1.3818000000119213,1.39969999998808,1.412100000023841,1.4329999999999998,1.4498999999761608,1.4663000000119197,1.4788000000119226,1.5006000000238444,1.5126000000238378,1.5288000000119197,1.5453000000119204,1.5663999999761558,1.5813999999761563,1.5976999999880803,1.6148000000119183,1.6338999999761583,1.6453000000119218,1.661899999976157,1.6784999999999997,1.6953999999761606,1.717399999976159,1.7283999999761548,1.7488999999761603,1.7673000000119217,1.7821000000238385,1.800199999988081,1.8168999999761581,1.8288999999761586,1.8453999999761592,1.8653000000119206,1.8811000000238423,1.8954999999999984,1.911899999976157,1.9328000000119232,1.9495000000000005,1.966000000000001,1.9786000000238388,1.999199999988079,2.015199999988077,2.03219999998808,2.050300000011923,2.0653000000119235,2.0786000000238403,2.0951999999880755,2.114199999988081,2.1315000000000026,2.147300000011917,2.1618000000119224,2.1786999999880763,2.195300000011919,2.2118000000119196,2.2291000000238412,2.2498000000119234,2.266199999988075,2.282600000023841,2.297699999988076,2.3138000000119234,2.3286000000238403,2.345100000023841,2.362499999999997,2.38060000002384,2.3984999999999985,2.4125000000000014,2.4286000000238417,2.445999999999998,2.4641000000238407,2.478600000023839,2.495199999988081,2.517800000011917,2.528500000000001,2.545600000023839,2.561800000011921,2.580199999988075,2.5988999999761546,2.614199999988081,2.631899999976156,2.6484999999999985,2.6644999999999968,2.6801999999880763,2.6956999999880793,2.7118000000119196,2.728600000023839,2.7451000000238395,2.7620000000000005,2.781699999988078,2.800800000011918,2.820899999976156,2.828800000011917,2.8451999999880755,2.86189999997616,2.8786000000238445,2.8951999999880798,2.911899999976157,2.9284999999999997,2.9456000000238376,2.9618000000119196,2.978499999999997,2.9991000000238444,3.0136000000238425,3.030100000023843,3.0451999999880783,3.0623000000119234,3.0784999999999982,3.0953000000119175,3.112100000023844,3.12910000002384,3.145100000023838,3.161899999976157,3.1783999999761576,3.1953999999761606,3.211899999976154,3.228600000023839,3.245199999988081,3.2620000000000005,3.278500000000001,3.2951999999880783,3.3118999999761556,3.328699999988075,3.345699999988078,3.361699999988076,3.3816000000238375,3.3953999999761564,3.4118000000119224,3.4288000000119183,3.4451000000238423,3.461899999976154,3.478499999999997,3.495399999976158,3.514800000011917,3.5321000000238385,3.548100000023844,3.5636999999880814,3.578699999988075,3.5953000000119175,3.6153000000119206,3.6315000000000026,3.6483999999761565,3.662100000023841,3.6786000000238417,3.695300000011919,3.711899999976154,3.7313000000119203,3.7455,3.7618000000119167,3.778500000000001,3.7951999999880783]","[1732873092546,1732873092557,1732873092574,1732873092590,1732873092607,1732873092624,1732873092642,1732873092658,1732873092678,1732873092694,1732873092710,1732873092729,1732873092745,1732873092760,1732873092778,1732873092793,1732873092812,1732873092828,1732873092844,1732873092860,1732873092877,1732873092893,1732873092910,1732873092926,1732873092943,1732873092962,1732873092980,1732873092997,1732873093014,1732873093027,1732873093043,1732873093060,1732873093076,1732873093093,1732873093110,1732873093126,1732873093143,1732873093164,1732873093180,1732873093197,1732873093213,1732873093231,1732873093245,1732873093260,1732873093279,1732873093293,1732873093310,1732873093326,1732873093343,1732873093365,1732873093376,1732873093393,1732873093410,1732873093427,1732873093443,1732873093460,1732873093479,1732873093498,1732873093514,1732873093531,1732873093546,1732873093564,1732873093580,1732873093595,1732873093610,1732873093626,1732873093643,1732873093659,1732873093677,1732873093693,1732873093710,1732873093728,1732873093743,1732873093760,1732873093776,1732873093793,1732873093810,1732873093826,1732873093843,1732873093864,1732873093881,1732873093896,1732873093910,1732873093929,1732873093947,1732873093960,1732873093981,1732873093998,1732873094014,1732873094026,1732873094048,1732873094060,1732873094076,1732873094093,1732873094114,1732873094129,1732873094145,1732873094162,1732873094181,1732873094193,1732873094210,1732873094226,1732873094243,1732873094265,1732873094276,1732873094297,1732873094315,1732873094330,1732873094348,1732873094365,1732873094376,1732873094393,1732873094413,1732873094429,1732873094443,1732873094460,1732873094480,1732873094497,1732873094514,1732873094526,1732873094547,1732873094563,1732873094580,1732873094598,1732873094613,1732873094626,1732873094643,1732873094662,1732873094679,1732873094695,1732873094709,1732873094726,1732873094743,1732873094760,1732873094777,1732873094797,1732873094814,1732873094830,1732873094845,1732873094861,1732873094876,1732873094893,1732873094910,1732873094928,1732873094946,1732873094960,1732873094976,1732873094994,1732873095012,1732873095026,1732873095043,1732873095066,1732873095076,1732873095093,1732873095109,1732873095128,1732873095147,1732873095162,1732873095180,1732873095196,1732873095212,1732873095228,1732873095243,1732873095259,1732873095276,1732873095293,1732873095310,1732873095329,1732873095349,1732873095369,1732873095376,1732873095393,1732873095410,1732873095426,1732873095443,1732873095460,1732873095476,1732873095493,1732873095509,1732873095526,1732873095547,1732873095561,1732873095578,1732873095593,1732873095610,1732873095626,1732873095643,1732873095660,1732873095677,1732873095693,1732873095710,1732873095726,1732873095743,1732873095760,1732873095776,1732873095793,1732873095810,1732873095826,1732873095843,1732873095860,1732873095876,1732873095893,1732873095909,1732873095929,1732873095943,1732873095959,1732873095976,1732873095993,1732873096010,1732873096026,1732873096043,1732873096063,1732873096080,1732873096096,1732873096111,1732873096126,1732873096143,1732873096163,1732873096179,1732873096196,1732873096210,1732873096226,1732873096243,1732873096260,1732873096279,1732873096293,1732873096309,1732873096326,1732873096343]","[[974.6,786.9],[974.6,786.9],[987.3,774.7],[1000,762.5],[1000,738.6],[1000,714.7],[1003.9,694.5],[992.3,679.4],[991.4,671.2],[974.9,658.2],[964.6,652.8],[956.1,654.5],[954,665.1],[951.9,675.7],[961.6,709.2],[975,752.9],[980,776.1],[995.6,798.9],[981.7,810],[983.4,834.7],[1013.6,846.3],[1046.3,848.5],[1040.8,836.2],[1035.3,823.9],[1008.9,806.3],[985,784.6],[963.4,789.7],[959.1,794.1],[955.3,806.2],[955.3,806.2],[935.9,804.7],[935.9,804.7],[906.1,796.7],[906.1,796.7],[909.4,802.7],[938.7,813.8],[959,809.3],[975.6,801.5],[989.4,799.7],[1014.1,787.9],[1030.6,787.2],[1055.7,788.5],[1051.1,777.2],[1039.5,776.2],[1028.8,780.7],[1028.8,780.7],[1023.8,786.9],[995.3,793.8],[952,814.4],[905.3,822.9],[905.3,822.9],[864.9,826],[809.6,820.9],[754.3,815.8],[728.7,823.3],[699.3,823.7],[667.8,837.1],[636.3,850.5],[621.1,844.8],[614.7,839.6],[617.1,848],[606.9,847.6],[599.3,864],[591.7,880.4],[577.2,882.8],[566.5,892.3],[586.7,891],[615.5,881],[640,912],[674.4,918.2],[708.5,915.1],[744.1,929.9],[798.6,920],[833.5,911.2],[833.5,911.2],[908.5,923.7],[970,924.5],[981.4,912.2],[981.4,912.2],[984.2,908.6],[1014.4,884.1],[1040.7,870.2],[1040.7,870.2],[1057.6,837.9],[1047.3,766.8],[1047.3,766.8],[1021.9,707.6],[1067.6,663.3],[1081.2,619.6],[1081.2,619.6],[1063.8,541.5],[1063.8,541.5],[1100.9,515.8],[1135.5,483.4],[1164.1,463.8],[1179.8,425.9],[1217.3,414.2],[1270.7,450.7],[1315.7,477.8],[1315.7,477.8],[1294.5,501.6],[1272.2,517.5],[1303.8,571],[1262.6,589.6],[1262.6,589.6],[1217.7,599],[1193.7,560.3],[1182.6,539.9],[1137.4,534.7],[1124.3,513.2],[1124.3,513.2],[1107.3,536.3],[1102.1,558.4],[1122,527.2],[1125.8,494.7],[1125.8,494.7],[1147.9,444.7],[1154.2,448],[1150.1,496.6],[1150.1,496.6],[1134.2,519.8],[1155.7,539.1],[1141.1,544.1],[1143.1,503],[1129.5,464.7],[1089.4,480.9],[1067.7,493.4],[1053.6,497.9],[1074.5,498.7],[1075.8,503.8],[1106.7,478.9],[1106.7,478.9],[1093.8,452],[1108.4,450.8],[1133.2,411.1],[1164.4,312.9],[1210,238.3],[1237.8,187.2],[1254.9,160.7],[1259,100.5],[1259,100.5],[1287.8,56.8],[1283.8,53.2],[1299.4,28.2],[1320.8,7.2],[1332,24.7],[1350.6,114.8],[1355.1,179.4],[1356.8,216],[1356.8,216],[1362.4,241.7],[1361.2,265.7],[1361.2,265.7],[1352.3,230.8],[1362.7,217.1],[1352.4,230],[1364.2,200],[1376,170],[1383.1,121.1],[1391.3,72.9],[1401.3,60.8],[1411.7,34.8],[1426.6,-13.9],[1443.3,-11.3],[1443.3,-11.3],[1446,11],[1479,15.8],[1476.5,51.8],[1476.5,51.8],[1442.9,96],[1442.9,96],[1414.1,133.7],[1414.1,133.7],[1401.6,117.2],[1389.6,94.4],[1346.4,132.9],[1346.4,132.9],[1290,202.4],[1224,269.7],[1179.3,305.1],[1129.9,311.3],[1077.8,316.6],[1063.4,346.6],[1042.6,380.5],[1021,438.3],[1006,484.3],[1014,501.5],[1041.4,496.9],[1069.4,471.9],[1085.8,453.2],[1103.6,458.7],[1119.5,468.3],[1120.1,455.5],[1131.7,435.6],[1112.3,473.5],[1105.7,495.5],[1096.5,493.1],[1083.4,505.9],[1068.7,532],[1060.9,570.5],[1050.4,589.8],[1039.9,609.1],[1034.9,606.6],[1029.9,604.1],[1029.9,604.1],[1038.1,571.1],[1027.3,555.3],[1026.1,539.6],[1011.9,534.9],[1011.9,534.9],[997.7,530.2],[939.4,499.1],[876.3,487.8],[825.3,485.6],[768.7,479.8],[712.1,474],[653.9,480],[601.9,484.7],[571.8,504.4],[554.7,513.1],[559,519.9],[559,519.9],[609.1,542.5],[664.6,546.5],[705,550.3],[705,550.3],[744.4,568.4],[790.6,584.7],[836.2,589.4]]","[0,0.3527331528]","[0.3527331528,0.3527331528]","[-0.3527331528,0]","[-0.3527331528,-0.3527331528]","[0,0]","[0.3527331528,0]","[0,-0.3527331528]","[0.3527331528,-0.3527331528]",0,1,1,1,1,3,Tablet,5,5,13,7
