inst1_resp.keys,inst1_resp.rt,calibrationMouse.x,calibrationMouse.y,calibrationMouse.leftButton,calibrationMouse.midButton,calibrationMouse.rightButton,calibrationClick.x,calibrationClick.y,calibrationClick.leftButton,calibrationClick.midButton,calibrationClick.rightButton,calibrationClick.clicked_name,trialsc.thisRepN,trialsc.thisTrialN,trialsc.thisN,trialsc.thisIndex,trialsc.ran,calibration_x,calibration_y,participant,session,date,expName,psychopyVersion,OS,frameRate,ScreenRes_pixels,Camera_pixels,mouse_2.x,mouse_2.y,mouse_2.leftButton,mouse_2.midButton,mouse_2.rightButton,mouse_2.time,mouse_2.clicked_name,mouse.x,mouse.y,mouse.leftButton,mouse.midButton,mouse.rightButton,mouse.time,mouse.clicked_name,Choice,Trial,TrialDuration,MOUSE_GAZE,ET_GAZE,ET_GAZE_x_T,time,unixTime,ET_GAZE_NF,Loc_Option1_label,Loc_Option2_label,Loc_Cost_label,Loc_Qual_label,Loc_Option1_cost,Loc_Option2_cost,Loc_Option1_quality,Loc_Option2_quality,trials.thisRepN,trials.thisTrialN,trials.thisN,trials.thisIndex,trials.ran,Block,Device,cost1,qual1,cost2,qual2
space,3.3479,0.034375,0.107407407,1,0,0,-0.326041667,-0.005555556,1,0,0,calibration_square,0,0,0,6,1,-0.33,0,38,001,2024-11-29_17h29.58.328,Attention_exp_legacy,2023.1.0,Win32,60.60606061,,,,,,,,,,,,,,,,,,,,,,,,,,,,,,,,,,,,,,,,,,,,
,,,,,,,-0.675,-0.003703704,1,0,0,calibration_square,0,1,1,2,1,-0.67,0,38,001,2024-11-29_17h29.58.328,Attention_exp_legacy,2023.1.0,Win32,60.60606061,,,,,,,,,,,,,,,,,,,,,,,,,,,,,,,,,,,,,,,,,,,,
,,,,,,,-0.00625,-0.675925926,1,0,0,calibration_square,0,2,2,9,1,0,-0.67,38,001,2024-11-29_17h29.58.328,Attention_exp_legacy,2023.1.0,Win32,60.60606061,,,,,,,,,,,,,,,,,,,,,,,,,,,,,,,,,,,,,,,,,,,,
,,,,,,,0.334375,-0.338888889,1,0,0,calibration_square,0,3,3,15,1,0.33,-0.33,38,001,2024-11-29_17h29.58.328,Attention_exp_legacy,2023.1.0,Win32,60.60606061,,,,,,,,,,,,,,,,,,,,,,,,,,,,,,,,,,,,,,,,,,,,
,,,,,,,0.001041667,0.657407407,1,0,0,,0,4,4,13,1,0,0.67,38,001,2024-11-29_17h29.58.328,Attention_exp_legacy,2023.1.0,Win32,60.60606061,,,,,,,,,,,,,,,,,,,,,,,,,,,,,,,,,,,,,,,,,,,,
,,,,,,,-0.6625,0.338888889,1,0,0,calibration_square,0,5,5,3,1,-0.67,0.33,38,001,2024-11-29_17h29.58.328,Attention_exp_legacy,2023.1.0,Win32,60.60606061,,,,,,,,,,,,,,,,,,,,,,,,,,,,,,,,,,,,,,,,,,,,
,,,,,,,0.329166667,0.338888889,1,0,0,calibration_square,0,6,6,17,1,0.33,0.33,38,001,2024-11-29_17h29.58.328,Attention_exp_legacy,2023.1.0,Win32,60.60606061,,,,,,,,,,,,,,,,,,,,,,,,,,,,,,,,,,,,,,,,,,,,
,,,,,,,-0.344791667,-0.666666667,1,0,0,,0,7,7,4,1,-0.33,-0.67,38,001,2024-11-29_17h29.58.328,Attention_exp_legacy,2023.1.0,Win32,60.60606061,,,,,,,,,,,,,,,,,,,,,,,,,,,,,,,,,,,,,,,,,,,,
,,,,,,,0.684375,-0.666666667,1,0,0,,0,8,8,20,1,0.67,-0.67,38,001,2024-11-29_17h29.58.328,Attention_exp_legacy,2023.1.0,Win32,60.60606061,,,,,,,,,,,,,,,,,,,,,,,,,,,,,,,,,,,,,,,,,,,,
,,,,,,,-0.34375,0.668518519,1,0,0,,0,9,9,8,1,-0.33,0.67,38,001,2024-11-29_17h29.58.328,Attention_exp_legacy,2023.1.0,Win32,60.60606061,,,,,,,,,,,,,,,,,,,,,,,,,,,,,,,,,,,,,,,,,,,,
,,,,,,,0.329166667,-0.668518519,1,0,0,calibration_square,0,10,10,14,1,0.33,-0.67,38,001,2024-11-29_17h29.58.328,Attention_exp_legacy,2023.1.0,Win32,60.60606061,,,,,,,,,,,,,,,,,,,,,,,,,,,,,,,,,,,,,,,,,,,,
,,,,,,,0.001041667,0.011111111,1,0,0,,0,11,11,11,1,0,0,38,001,2024-11-29_17h29.58.328,Attention_exp_legacy,2023.1.0,Win32,60.60606061,,,,,,,,,,,,,,,,,,,,,,,,,,,,,,,,,,,,,,,,,,,,
,,,,,,,-0.005208333,-0.333333333,1,0,0,calibration_square,0,12,12,10,1,0,-0.33,38,001,2024-11-29_17h29.58.328,Attention_exp_legacy,2023.1.0,Win32,60.60606061,,,,,,,,,,,,,,,,,,,,,,,,,,,,,,,,,,,,,,,,,,,,
,,,,,,,0.663541667,0.666666667,1,0,0,calibration_square,0,13,13,19,1,0.67,0.67,38,001,2024-11-29_17h29.58.328,Attention_exp_legacy,2023.1.0,Win32,60.60606061,,,,,,,,,,,,,,,,,,,,,,,,,,,,,,,,,,,,,,,,,,,,
,,,,,,,-0.00625,0.327777778,1,0,0,calibration_square,0,14,14,12,1,0,0.33,38,001,2024-11-29_17h29.58.328,Attention_exp_legacy,2023.1.0,Win32,60.60606061,,,,,,,,,,,,,,,,,,,,,,,,,,,,,,,,,,,,,,,,,,,,
,,,,,,,0.336458333,-0.012962963,1,0,0,,0,15,15,16,1,0.33,0,38,001,2024-11-29_17h29.58.328,Attention_exp_legacy,2023.1.0,Win32,60.60606061,,,,,,,,,,,,,,,,,,,,,,,,,,,,,,,,,,,,,,,,,,,,
,,,,,,,-0.325,-0.32037037,1,0,0,calibration_square,0,16,16,5,1,-0.33,-0.33,38,001,2024-11-29_17h29.58.328,Attention_exp_legacy,2023.1.0,Win32,60.60606061,,,,,,,,,,,,,,,,,,,,,,,,,,,,,,,,,,,,,,,,,,,,
,,,,,,,-0.672916667,-0.335185185,1,0,0,calibration_square,0,17,17,1,1,-0.67,-0.33,38,001,2024-11-29_17h29.58.328,Attention_exp_legacy,2023.1.0,Win32,60.60606061,,,,,,,,,,,,,,,,,,,,,,,,,,,,,,,,,,,,,,,,,,,,
,,,,,,,-0.34375,0.338888889,1,0,0,,0,18,18,7,1,-0.33,0.33,38,001,2024-11-29_17h29.58.328,Attention_exp_legacy,2023.1.0,Win32,60.60606061,,,,,,,,,,,,,,,,,,,,,,,,,,,,,,,,,,,,,,,,,,,,
,,,,,,,-0.670833333,-0.674074074,1,0,0,calibration_square,0,19,19,0,1,-0.67,-0.67,38,001,2024-11-29_17h29.58.328,Attention_exp_legacy,2023.1.0,Win32,60.60606061,,,,,,,,,,,,,,,,,,,,,,,,,,,,,,,,,,,,,,,,,,,,
,,,,,,,0.329166667,0.664814815,1,0,0,calibration_square,0,20,20,18,1,0.33,0.67,38,001,2024-11-29_17h29.58.328,Attention_exp_legacy,2023.1.0,Win32,60.60606061,,,,,,,,,,,,,,,,,,,,,,,,,,,,,,,,,,,,,,,,,,,,
,,,,,,,,,,,,,,,,,,,,38,001,2024-11-29_17h29.58.328,Attention_exp_legacy,2023.1.0,Win32,60.60606061,"[1920,1080]","[640,480]",[0.030208333333333334],[-0.5333333333333333],[1],[0],[0],[2.36789999997616],"[""StartButton""]",[0.175],[0.14629629629629629],[1],[0],[0],[4.954600000023838],"[""Option2_label""]",Option2_label,1,5.9622,"[[0.04375,-0.5],[0.04375,-0.5],[0.04375,-0.5],[0.04375,-0.5],[0.04375,-0.5],[0.04375,-0.5],[0.04375,-0.5],[0.04375,-0.5],[0.04375,-0.5],[0.04375,-0.5],[0.04375,-0.5],[0.04375,-0.5],[0.04375,-0.5],[0.04375,-0.5],[0.04375,-0.5],[0.04375,-0.5],[0.04375,-0.5],[0.04375,-0.5],[0.04375,-0.5],[0.04375,-0.5],[0.04375,-0.5],[0.04375,-0.5],[0.04375,-0.5],[0.04375,-0.5],[0.04375,-0.5],[0.04375,-0.5],[0.04375,-0.5],[0.04375,-0.5],[0.04375,-0.5],[0.04375,-0.5],[0.04375,-0.5],[0.04375,-0.5],[0.04375,-0.5],[0.04375,-0.5],[0.04375,-0.5],[0.04375,-0.5],[0.04375,-0.5],[0.04375,-0.5],[0.04375,-0.5],[0.04375,-0.5],[0.04375,-0.5],[0.04375,-0.5],[0.04375,-0.5],[0.04375,-0.5],[0.04375,-0.5],[0.04375,-0.5],[0.04375,-0.5],[0.04375,-0.5],[0.04375,-0.5],[0.04375,-0.5],[0.04375,-0.5],[0.04375,-0.5],[0.04375,-0.5],[0.04375,-0.5],[0.04375,-0.5],[0.04375,-0.5],[0.04375,-0.5],[0.04375,-0.5],[0.04375,-0.5],[0.04375,-0.5],[0.042708333333333334,-0.49444444444444446],[0.042708333333333334,-0.48148148148148145],[0.042708333333333334,-0.4666666666666667],[0.042708333333333334,-0.45740740740740743],[0.042708333333333334,-0.45185185185185184],[0.042708333333333334,-0.4462962962962963],[0.042708333333333334,-0.4462962962962963],[0.042708333333333334,-0.4462962962962963],[0.042708333333333334,-0.4462962962962963],[0.042708333333333334,-0.4462962962962963],[0.042708333333333334,-0.4462962962962963],[0.042708333333333334,-0.4462962962962963],[0.042708333333333334,-0.4462962962962963],[0.042708333333333334,-0.4462962962962963],[0.042708333333333334,-0.4462962962962963],[0.042708333333333334,-0.4462962962962963],[0.042708333333333334,-0.4462962962962963],[0.042708333333333334,-0.4462962962962963],[0.042708333333333334,-0.4462962962962963],[0.042708333333333334,-0.4462962962962963],[0.042708333333333334,-0.4462962962962963],[0.042708333333333334,-0.4462962962962963],[0.042708333333333334,-0.4462962962962963],[0.042708333333333334,-0.4462962962962963],[0.042708333333333334,-0.4462962962962963],[0.042708333333333334,-0.4462962962962963],[0.042708333333333334,-0.4462962962962963],[0.042708333333333334,-0.4425925925925926],[0.041666666666666664,-0.43333333333333335],[0.03958333333333333,-0.42407407407407405],[0.035416666666666666,-0.40185185185185185],[0.03229166666666667,-0.37777777777777777],[0.029166666666666667,-0.34814814814814815],[0.023958333333333335,-0.31851851851851853],[0.021875,-0.29074074074074074],[0.019791666666666666,-0.2740740740740741],[0.019791666666666666,-0.25555555555555554],[0.019791666666666666,-0.23148148148148148],[0.019791666666666666,-0.20555555555555555],[0.019791666666666666,-0.19074074074074074],[0.019791666666666666,-0.18333333333333332],[0.019791666666666666,-0.17592592592592593],[0.019791666666666666,-0.17037037037037037],[0.019791666666666666,-0.1685185185185185],[0.019791666666666666,-0.16666666666666666],[0.019791666666666666,-0.16666666666666666],[0.019791666666666666,-0.16666666666666666],[0.019791666666666666,-0.16666666666666666],[0.019791666666666666,-0.16666666666666666],[0.019791666666666666,-0.16666666666666666],[0.019791666666666666,-0.16666666666666666],[0.021875,-0.1648148148148148],[0.023958333333333335,-0.1648148148148148],[0.03854166666666667,-0.1685185185185185],[0.04375,-0.1685185185185185],[0.059375,-0.1685185185185185],[0.084375,-0.1685185185185185],[0.09583333333333334,-0.16666666666666666],[0.12395833333333334,-0.16111111111111112],[0.140625,-0.15555555555555556],[0.153125,-0.1537037037037037],[0.16041666666666668,-0.15185185185185185],[0.16458333333333333,-0.15185185185185185],[0.16770833333333332,-0.15185185185185185],[0.16979166666666667,-0.15],[0.17083333333333334,-0.15],[0.17083333333333334,-0.15],[0.17083333333333334,-0.15],[0.17083333333333334,-0.15],[0.17083333333333334,-0.15],[0.17083333333333334,-0.15],[0.17083333333333334,-0.15],[0.17083333333333334,-0.15],[0.17083333333333334,-0.15],[0.17083333333333334,-0.15],[0.17083333333333334,-0.15],[0.17083333333333334,-0.15],[0.17083333333333334,-0.15],[0.17083333333333334,-0.15],[0.17083333333333334,-0.15],[0.17083333333333334,-0.15],[0.17083333333333334,-0.15],[0.17291666666666666,-0.1425925925925926],[0.17291666666666666,-0.11296296296296296],[0.17291666666666666,-0.07407407407407407],[0.17708333333333334,-0.025925925925925925],[0.18125,0.016666666666666666],[0.18645833333333334,0.046296296296296294],[0.18958333333333333,0.07037037037037037],[0.19166666666666668,0.08888888888888889],[0.19270833333333334,0.10925925925925926],[0.19479166666666667,0.13148148148148148],[0.19791666666666666,0.1685185185185185],[0.2,0.18333333333333332],[0.2,0.18888888888888888],[0.20104166666666667,0.19074074074074074],[0.20104166666666667,0.19074074074074074],[0.20104166666666667,0.19074074074074074],[0.20104166666666667,0.19074074074074074],[0.20104166666666667,0.19074074074074074],[0.20104166666666667,0.19074074074074074],[0.20104166666666667,0.19074074074074074],[0.20104166666666667,0.19074074074074074],[0.2,0.19074074074074074],[0.19791666666666666,0.19074074074074074],[0.196875,0.19074074074074074],[0.19270833333333334,0.18888888888888888],[0.190625,0.18888888888888888],[0.18854166666666666,0.18888888888888888],[0.18645833333333334,0.18888888888888888],[0.18645833333333334,0.18888888888888888],[0.18645833333333334,0.18888888888888888],[0.18645833333333334,0.18888888888888888],[0.18645833333333334,0.18888888888888888],[0.18645833333333334,0.18888888888888888],[0.18645833333333334,0.18888888888888888],[0.18645833333333334,0.18888888888888888],[0.18645833333333334,0.18888888888888888],[0.18645833333333334,0.18888888888888888],[0.18645833333333334,0.18888888888888888],[0.18645833333333334,0.18888888888888888],[0.18333333333333332,0.18888888888888888],[0.16979166666666667,0.1814814814814815],[0.15104166666666666,0.17592592592592593],[0.12916666666666668,0.17222222222222222],[0.10833333333333334,0.1648148148148148],[0.090625,0.16111111111111112],[0.07708333333333334,0.15925925925925927],[0.065625,0.15925925925925927],[0.04583333333333333,0.15925925925925927],[0.030208333333333334,0.15925925925925927],[0.016666666666666666,0.15925925925925927],[0.003125,0.15925925925925927],[-0.00625,0.15925925925925927],[-0.014583333333333334,0.15925925925925927],[-0.022916666666666665,0.15925925925925927],[-0.03333333333333333,0.15925925925925927],[-0.035416666666666666,0.15925925925925927],[-0.035416666666666666,0.15925925925925927],[-0.035416666666666666,0.15925925925925927],[-0.035416666666666666,0.15925925925925927],[-0.035416666666666666,0.15925925925925927],[-0.035416666666666666,0.15925925925925927],[-0.027083333333333334,0.15925925925925927],[-0.0125,0.15925925925925927],[0.011458333333333333,0.1648148148148148],[0.040625,0.16666666666666666],[0.075,0.16666666666666666],[0.10520833333333333,0.16666666666666666],[0.128125,0.16666666666666666],[0.14479166666666668,0.16666666666666666],[0.15625,0.16296296296296298],[0.1625,0.15925925925925927],[0.16354166666666667,0.1574074074074074],[0.165625,0.1574074074074074],[0.16666666666666666,0.1574074074074074],[0.16770833333333332,0.1574074074074074],[0.16875,0.15555555555555556],[0.16979166666666667,0.15555555555555556],[0.171875,0.1537037037037037],[0.171875,0.1537037037037037],[0.171875,0.15185185185185185],[0.171875,0.15185185185185185],[0.171875,0.15185185185185185],[0.171875,0.15185185185185185],[0.171875,0.15185185185185185],[0.171875,0.15185185185185185],[0.171875,0.15185185185185185],[0.171875,0.15185185185185185],[0.171875,0.15185185185185185],[0.17291666666666666,0.15185185185185185],[0.17291666666666666,0.15185185185185185],[0.17291666666666666,0.15185185185185185],[0.17395833333333333,0.15],[0.17395833333333333,0.14814814814814814],[0.17395833333333333,0.14629629629629629],[0.175,0.14629629629629629],[0.175,0.14629629629629629],[0.175,0.14629629629629629],[0.175,0.14629629629629629],[0.175,0.14629629629629629],[0.175,0.14629629629629629],[0.175,0.14629629629629629],[0.175,0.14629629629629629],[0.175,0.14629629629629629],[0.175,0.14629629629629629],[0.175,0.14629629629629629],[0.175,0.14629629629629629],[0.175,0.14629629629629629],[0.175,0.14629629629629629],[0.175,0.14629629629629629],[0.175,0.14629629629629629],[0.175,0.14629629629629629],[0.175,0.14629629629629629],[0.175,0.14629629629629629],[0.175,0.14629629629629629],[0.175,0.14629629629629629],[0.175,0.14629629629629629],[0.175,0.14629629629629629],[0.175,0.14629629629629629],[0.175,0.14629629629629629],[0.175,0.14629629629629629],[0.175,0.14629629629629629],[0.175,0.14629629629629629],[0.175,0.14629629629629629],[0.175,0.14629629629629629],[0.175,0.14629629629629629],[0.175,0.14629629629629629],[0.175,0.14629629629629629],[0.175,0.14629629629629629],[0.175,0.14629629629629629],[0.175,0.14629629629629629],[0.175,0.14629629629629629],[0.175,0.14629629629629629],[0.175,0.14629629629629629],[0.175,0.14629629629629629],[0.175,0.14629629629629629],[0.175,0.14629629629629629],[0.175,0.14629629629629629],[0.175,0.14629629629629629],[0.175,0.14629629629629629],[0.175,0.14629629629629629],[0.175,0.14629629629629629],[0.175,0.14629629629629629],[0.175,0.14629629629629629],[0.175,0.14629629629629629],[0.175,0.14629629629629629],[0.175,0.14629629629629629],[0.175,0.14629629629629629],[0.175,0.14629629629629629],[0.175,0.14629629629629629],[0.175,0.14629629629629629],[0.175,0.14629629629629629],[0.175,0.14629629629629629],[0.175,0.14629629629629629],[0.175,0.14629629629629629],[0.175,0.14629629629629629],[0.175,0.14629629629629629],[0.175,0.14629629629629629],[0.175,0.14629629629629629],[0.175,0.14629629629629629],[0.175,0.14629629629629629],[0.175,0.14629629629629629],[0.175,0.14629629629629629],[0.175,0.14629629629629629],[0.175,0.14629629629629629],[0.175,0.14629629629629629],[0.175,0.14629629629629629],[0.175,0.14629629629629629],[0.175,0.14629629629629629],[0.175,0.14629629629629629],[0.175,0.14629629629629629],[0.175,0.14629629629629629],[0.175,0.14629629629629629],[0.175,0.14629629629629629],[0.175,0.14629629629629629],[0.175,0.14629629629629629],[0.175,0.14629629629629629],[0.175,0.14629629629629629],[0.175,0.14629629629629629],[0.175,0.14629629629629629],[0.175,0.14629629629629629],[0.175,0.14629629629629629],[0.175,0.14629629629629629],[0.175,0.14629629629629629],[0.175,0.14629629629629629],[0.175,0.14629629629629629],[0.175,0.14629629629629629],[0.175,0.14629629629629629],[0.175,0.14629629629629629],[0.175,0.14629629629629629],[0.175,0.14629629629629629],[0.175,0.14629629629629629],[0.175,0.14629629629629629],[0.175,0.14629629629629629],[0.175,0.14629629629629629],[0.175,0.14629629629629629],[0.175,0.14629629629629629],[0.175,0.14629629629629629],[0.175,0.14629629629629629],[0.175,0.14629629629629629],[0.175,0.14629629629629629],[0.175,0.14629629629629629],[0.175,0.14629629629629629],[0.175,0.14629629629629629],[0.175,0.14629629629629629],[0.175,0.14629629629629629],[0.175,0.14629629629629629],[0.175,0.14629629629629629],[0.175,0.14629629629629629],[0.175,0.14629629629629629],[0.175,0.14629629629629629],[0.175,0.14629629629629629],[0.175,0.14629629629629629],[0.175,0.14629629629629629],[0.175,0.14629629629629629],[0.175,0.14629629629629629],[0.175,0.14629629629629629]]","[[0.026979166666666644,-0.20111111111111116],[0.026979166666666644,-0.20111111111111116],[0.05,-0.20759259259259263],[0.05947916666666669,-0.20407407407407405],[0.05947916666666669,-0.20407407407407405],[0.036458333333333336,-0.1992592592592593],[0.04666666666666662,-0.2094444444444445],[0.042708333333333334,-0.2242592592592593],[-0.010312499999999976,-0.26537037037037037],[-0.00791666666666669,-0.26592592592592595],[-0.009791666666666643,-0.2607407407407408],[-0.013750000000000047,-0.2616666666666667],[0.034791666666666644,-0.22685185185185186],[0.022708333333333285,-0.24222222222222226],[0.024479166666666666,-0.2522222222222222],[0.05281250000000005,-0.24351851851851852],[0.03708333333333336,-0.2518518518518518],[0.03270833333333331,-0.2490740740740741],[0.07864583333333333,-0.22388888888888886],[0.0703125,-0.222037037037037],[0.06645833333333329,-0.2155555555555555],[0.07218749999999995,-0.20185185185185187],[0.07791666666666662,-0.1881481481481482],[0.08562500000000005,-0.16222222222222227],[0.09333333333333324,-0.13629629629629633],[0.09333333333333324,-0.13629629629629633],[0.10083333333333329,-0.12037037037037036],[0.10625,-0.11722222222222224],[0.109375,-0.10999999999999996],[0.11770833333333333,-0.09462962962962967],[0.12489583333333343,-0.09648148148148153],[0.1267708333333334,-0.09666666666666665],[0.1234375,-0.10240740740740743],[0.11447916666666676,-0.10037037037037035],[0.103125,-0.0940740740740741],[0.060000000000000026,-0.08314814814814811],[0.022708333333333285,-0.07333333333333338],[-0.0140625,-0.05055555555555547],[-0.04520833333333331,-0.04537037037037037],[-0.08156249999999995,-0.048333333333333374],[-0.08156249999999995,-0.048333333333333374],[-0.12354166666666669,-0.02814814814814823],[-0.16833333333333336,-0.03537037037037041],[-0.2015625,-0.01592592592592597],[-0.24010416666666667,-0.01962962962962967],[-0.24010416666666667,-0.01962962962962967],[-0.2757291666666667,-0.039629629629629584],[-0.24427083333333333,-0.05944444444444449],[-0.21937500000000001,-0.07370370370370373],[-0.19281250000000003,-0.08407407407407404],[-0.15760416666666663,-0.06944444444444445],[-0.11854166666666661,-0.06148148148148146],[-0.0733333333333333,-0.0801851851851852],[-0.06197916666666667,-0.08962962962962959],[-0.035520833333333356,-0.12092592592592595],[0.0171875,-0.1257407407407407],[0.06697916666666662,-0.11425925925925924],[0.08322916666666676,-0.10333333333333336],[0.09854166666666657,-0.1],[0.12041666666666657,-0.10462962962962963],[0.11239583333333343,-0.13203703703703706],[0.10989583333333333,-0.10037037037037035],[0.10062499999999991,-0.05611111111111113],[0.13333333333333333,0.004629629629629629],[0.13333333333333333,0.004629629629629629],[0.1412499999999999,0.07740740740740733],[0.13385416666666666,0.13907407407407413],[0.1224999999999999,0.16962962962962966],[0.109375,0.19592592592592584],[0.09666666666666662,0.26370370370370366],[0.075,0.33499999999999996],[0.06822916666666666,0.4131481481481482],[0.052083333333333336,0.4388888888888889],[0.043437500000000046,0.4588888888888888],[0.034791666666666644,0.4788888888888889],[0.011666666666666714,0.4551851851851851],[-0.011458333333333333,0.43148148148148147],[-0.029895833333333382,0.43259259259259264],[-0.04833333333333331,0.4337037037037038],[-0.07593749999999998,0.41648148148148145],[-0.10354166666666664,0.3992592592592593],[-0.12468750000000005,0.4038888888888889],[-0.12468750000000005,0.4038888888888889],[-0.14583333333333334,0.40851851851851856],[-0.1508333333333333,0.40185185185185185],[-0.1508333333333333,0.40185185185185185],[-0.15666666666666665,0.3874074074074075],[-0.15666666666666665,0.3874074074074075],[-0.18250000000000005,0.40777777777777785],[-0.1920833333333333,0.41944444444444445],[-0.20239583333333327,0.43740740740740747],[-0.21531250000000005,0.46648148148148144],[-0.21197916666666666,0.4744444444444445],[-0.18312499999999995,0.462037037037037],[-0.18312499999999995,0.462037037037037],[-0.14437500000000003,0.43074074074074076],[-0.134375,0.41333333333333344],[-0.1295833333333333,0.4227777777777777],[-0.13927083333333337,0.43444444444444447],[-0.13927083333333337,0.43444444444444447],[-0.09166666666666666,0.4105555555555556],[-0.04822916666666662,0.4087037037037038],[-0.04822916666666662,0.4087037037037038],[-0.024479166666666666,0.3864814814814816],[0.008437500000000023,0.3587037037037038],[0.03770833333333338,0.33259259259259266],[0.041770833333333354,0.32814814814814824],[0.014895833333333285,0.35351851851851845],[0.016770833333333356,0.36500000000000005],[0.034166666666666616,0.4125925925925925],[0.07166666666666661,0.44888888888888884],[0.06135416666666664,0.5062962962962962],[0.06135416666666664,0.5062962962962962],[0.019791666666666666,0.45851851851851855],[0.019791666666666666,0.45851851851851855],[-0.0020833333333333333,0.431111111111111],[0.024062500000000025,0.4462962962962963],[0.028125,0.44648148148148153],[0.03187500000000002,0.44537037037037036],[0.04114583333333333,0.38629629629629636],[0.058124999999999954,0.3537037037037037],[0.04916666666666671,0.25314814814814823],[0.042708333333333334,0.17962962962962964],[0.049687500000000044,0.10037037037037046],[0.07583333333333328,0.11296296296296296],[0.10260416666666666,0.15481481481481485],[0.06583333333333338,0.1455555555555556],[0.08072916666666667,0.15148148148148138],[0.09562499999999995,0.1574074074074074],[0.11041666666666666,0.19000000000000003],[0.11749999999999995,0.19611111111111107],[0.11166666666666672,0.20870370370370378],[0.09541666666666657,0.19703703703703698],[0.09937500000000009,0.20407407407407416],[0.10114583333333324,0.2153703703703703],[0.10479166666666657,0.2161111111111112],[0.1109375,0.22018518518518515],[0.10125000000000005,0.21944444444444444],[0.09156250000000009,0.21870370370370373],[0.09156250000000009,0.21870370370370373],[0.09364583333333343,0.205925925925926],[0.09145833333333328,0.20425925925925917],[0.10041666666666677,0.20907407407407402],[0.10041666666666677,0.20907407407407402],[0.11416666666666657,0.20796296296296288],[0.11416666666666657,0.20796296296296288],[0.13354166666666673,0.19685185185185178],[0.13354166666666673,0.19685185185185178],[0.16218750000000004,0.19296296296296306],[0.1638541666666666,0.18000000000000008],[0.17864583333333334,0.17592592592592593],[0.18677083333333327,0.144074074074074],[0.18895833333333342,0.11925925925925922],[0.19041666666666662,0.10055555555555547],[0.1961458333333333,0.07074074074074083],[0.21166666666666673,0.056666666666666705],[0.21166666666666673,0.056666666666666705],[0.21375000000000005,0.07037037037037037],[0.19968750000000005,0.08759259259259251],[0.1896874999999999,0.0764814814814814],[0.20416666666666666,0.055740740740740785],[0.20281250000000003,0.04148148148148144],[0.19802083333333323,0.057962962962962876],[0.2022916666666667,0.06111111111111111],[0.20479166666666657,0.049629629629629544],[0.21197916666666666,0.048333333333333374],[0.209375,0.03129629629629625],[0.21302083333333333,-0.006296296296296254],[0.21645833333333328,-0.04129629629629621],[0.20177083333333337,-0.03611111111111111],[0.18708333333333324,-0.03092592592592601],[0.19093749999999995,-0.06888888888888887],[0.19093749999999995,-0.06888888888888887],[0.19479166666666667,-0.10685185185185184],[0.18177083333333333,-0.09685185185185187],[0.17999999999999997,-0.08796296296296297],[0.17354166666666657,-0.08925925925925923],[0.16145833333333334,-0.06888888888888887],[0.14312500000000009,-0.0242592592592593],[0.14010416666666667,0.001851851851851852],[0.14010416666666667,0.001851851851851852],[0.14395833333333338,-0.0022222222222223064],[0.128125,-0.02555555555555547],[0.08802083333333334,0.022592592592592678],[0.08802083333333334,0.022592592592592678],[0.0515625,0.027037037037037078],[0.028854166666666715,-0.010185185185185186],[-0.01083333333333331,-0.016666666666666666],[-0.01083333333333331,-0.016666666666666666],[-0.022604166666666713,-0.004814814814814857],[-0.027499999999999976,-0.03259259259259263],[-0.027499999999999976,-0.03259259259259263],[-0.034791666666666644,-0.059999999999999956],[-0.058333333333333334,-0.08351851851851856],[-0.08177083333333333,-0.10018518518518522],[-0.09447916666666671,-0.10203703703703708],[-0.09593750000000002,-0.12222222222222222],[-0.0860416666666667,-0.11203703703703703],[-0.07458333333333336,-0.10925925925925926],[-0.05499999999999995,-0.09722222222222222],[-0.06333333333333328,-0.10351851851851848],[-0.06937500000000002,-0.07388888888888885],[-0.06124999999999995,-0.05611111111111113],[-0.04750000000000002,-0.0514814814814814],[-0.042604166666666644,-0.05092592592592592],[-0.042604166666666644,-0.05092592592592592],[-0.010208333333333286,-0.02388888888888885],[-0.010208333333333286,-0.02388888888888885],[0.0067708333333333336,-0.028518518518518478],[0.03958333333333333,-0.03166666666666671],[0.07083333333333333,-0.027407407407407325],[0.09812500000000005,0.007777777777777862],[0.10072916666666672,0.07777777777777778],[0.11958333333333329,0.14759259259259266],[0.11958333333333329,0.14759259259259266],[0.12781250000000005,0.1359259259259259],[0.14249999999999996,0.0962962962962963],[0.14249999999999996,0.0962962962962963],[0.1632291666666667,0.10388888888888893],[0.1599999999999999,0.022592592592592678],[0.18125,-0.03296296296296288],[0.1640625,-0.08703703703703704],[0.1466666666666666,-0.08740740740740739],[0.12781250000000005,-0.14500000000000002],[0.1336458333333333,-0.23740740740740737],[0.1336458333333333,-0.23740740740740737],[0.11364583333333324,-0.35537037037037034],[0.11458333333333333,-0.3731481481481482],[0.1021874999999999,-0.3542592592592593],[0.08010416666666677,-0.38722222222222225],[0.06343749999999998,-0.35333333333333333],[0.06343749999999998,-0.35333333333333333],[0.06791666666666671,-0.305],[0.06791666666666671,-0.305],[0.059895833333333336,-0.23962962962962958],[0.06489583333333329,-0.222037037037037],[0.07354166666666657,-0.18944444444444447],[0.07020833333333343,-0.1527777777777778],[0.07291666666666667,-0.10833333333333334],[0.05541666666666671,-0.07018518518518514],[0.04031250000000005,-0.015555555555555513],[0.05635416666666669,0.01592592592592597],[0.06312500000000003,0.052037037037037076],[0.036562500000000026,0.057777777777777865],[0.030104166666666644,0.05685185185185194],[0.01604166666666664,0.04666666666666675],[0.005833333333333357,0.027962962962963005],[0.0018749999999999527,0.006481481481481481],[0.00614583333333331,-0.03462962962962971],[0.0068750000000000235,-0.08111111111111113],[0.007604166666666619,-0.12759259259259256],[0.002916666666666619,-0.12888888888888894],[0.007500000000000047,-0.13481481481481483],[0.004479166666666619,-0.15388888888888894],[0.004479166666666619,-0.15388888888888894],[0.0014583333333333095,-0.17296296296296293],[0.011458333333333333,-0.2],[0.000416666666666643,-0.2270370370370371],[0.000416666666666643,-0.2270370370370371],[0.001145833333333357,-0.25166666666666665],[-0.002291666666666714,-0.225],[0.0006250000000000236,-0.17999999999999997],[0.0006250000000000236,-0.17999999999999997],[0.009687499999999953,-0.1374074074074074],[-0.002291666666666714,-0.09740740740740746],[-0.002291666666666714,-0.09740740740740746],[-0.00010416666666669035,-0.07740740740740742],[0.019687499999999976,-0.06425925925925924],[0.03947916666666664,-0.051111111111111156],[0.028645833333333332,-0.003703703703703704],[0.028645833333333332,-0.003703703703703704],[0.035000000000000024,0.05222222222222231],[0.052083333333333336,0.09814814814814815],[0.08083333333333324,0.10740740740740741],[0.08083333333333324,0.10740740740740741],[0.11677083333333324,0.08925925925925934],[0.1408333333333334,0.08870370370370366],[0.17718749999999991,0.07592592592592592],[0.19927083333333329,0.08611111111111111],[0.22156250000000005,0.12018518518518514],[0.24385416666666657,0.15425925925925918],[0.28718750000000004,0.1381481481481482],[0.32927083333333323,0.12296296296296293],[0.35270833333333323,0.11611111111111119],[0.36041666666666666,0.11425925925925934],[0.3486458333333334,0.14148148148148143],[0.34260416666666677,0.15351851851851847],[0.34260416666666677,0.15351851851851847],[0.3481250000000001,0.16407407407407412],[0.35479166666666656,0.17444444444444454],[0.3580208333333334,0.17703703703703708],[0.3580208333333334,0.17703703703703708],[0.3318749999999999,0.15111111111111114],[0.29656250000000006,0.1618518518518518],[0.2625,0.17166666666666675],[0.21437499999999995,0.19685185185185178],[0.1662499999999999,0.222037037037037],[0.13083333333333325,0.23296296296296287],[0.09541666666666657,0.24388888888888896],[0.04104166666666664,0.2625925925925925],[-0.014374999999999952,0.2785185185185185],[-0.06333333333333328,0.2814814814814815],[-0.0829166666666667,0.31296296296296294],[-0.0829166666666667,0.31296296296296294],[-0.07531249999999995,0.2857407407407407],[-0.06229166666666662,0.2733333333333334],[-0.03333333333333333,0.24351851851851852],[0.003125,0.20962962962962972],[0.04624999999999998,0.16296296296296298],[0.08885416666666662,0.13259259259259262],[0.11302083333333333,0.08814814814814818],[0.14427083333333332,0.03592592592592588],[0.17510416666666656,0.018888888888888972],[0.1977083333333333,-0.0001851851851852273],[0.19364583333333343,0.030000000000000086],[0.17020833333333343,0.032407407407407406],[0.16572916666666657,0.04888888888888885],[0.13406250000000006,0.06018518518518518],[0.10239583333333328,0.07148148148148152],[0.10239583333333328,0.07148148148148152],[0.09239583333333339,0.062037037037037036],[0.0834374999999999,0.04296296296296305],[0.09177083333333323,0.05592592592592601],[0.07770833333333324,0.021851851851851768],[0.08927083333333338,0.020555555555555598],[0.08927083333333338,0.020555555555555598],[0.06625000000000002,-0.007407407407407408],[0.06625000000000002,-0.007407407407407408],[0.07229166666666677,0.007407407407407408],[0.0546875,-0.018148148148148063],[0.07260416666666672,-0.030740740740740784],[0.07072916666666676,-0.036481481481481566],[0.04770833333333328,-0.03777777777777774],[0.04874999999999995,-0.027407407407407325],[0.035520833333333356,-0.0242592592592593],[0.03125,0.004444444444444402],[0.009583333333333381,0.002407407407407323],[0.02364583333333338,0.01574074074074074],[0.0265625,0.0022222222222223064],[0.034062500000000044,0.012962962962962963],[0.025729166666666713,0.019999999999999917],[0.03979166666666671,0.03148148148148148],[0.05385416666666672,0.04296296296296305],[0.07916666666666666,0.09314814814814806],[0.0943749999999999,0.12629629629629638],[0.1056250000000001,0.15129629629629637],[0.1056250000000001,0.15129629629629637],[0.11687500000000005,0.17629629629629637],[0.11687500000000005,0.17629629629629637],[0.1337500000000001,0.20629629629629626],[0.1466666666666666,0.23333333333333334],[0.16687500000000005,0.25333333333333324],[0.16687500000000005,0.25333333333333324],[0.18708333333333324,0.2733333333333334],[0.20104166666666667,0.2675925925925926],[0.19989583333333344,0.28425925925925927],[0.1837500000000001,0.26944444444444443],[0.17354166666666657,0.24074074074074073]]","[[0.026979166666666644,-0.20111111111111116,0.00030000001192576065],[0.026979166666666644,-0.20111111111111116,0.038300000011922464],[0.05,-0.20759259259259263,0.048500000000004206],[0.05947916666666669,-0.20407407407407405,0.06510000002384686],[0.05947916666666669,-0.20407407407407405,0.07850000000000534],[0.036458333333333336,-0.1992592592592593,0.0951999999880826],[0.04666666666666662,-0.2094444444444445,0.11180000001192525],[0.042708333333333334,-0.2242592592592593,0.1285000000000025],[-0.010312499999999976,-0.26537037037037037,0.1494000000357687],[-0.00791666666666669,-0.26592592592592595,0.16550000000000153],[-0.009791666666666643,-0.2607407407407408,0.18230000001192082],[-0.013750000000000047,-0.2616666666666667,0.19660000002384237],[0.034791666666666644,-0.22685185185185186,0.2119000000357687],[0.022708333333333285,-0.24222222222222226,0.22860000002384595],[0.024479166666666666,-0.2522222222222222,0.24510000002384658],[0.05281250000000005,-0.24351851851851852,0.26200000000000045],[0.03708333333333336,-0.2518518518518518,0.2793000000119221],[0.03270833333333331,-0.2490740740740741,0.2959999999999994],[0.07864583333333333,-0.22388888888888886,0.311900000035763],[0.0703125,-0.222037037037037,0.32860000002384737],[0.06645833333333329,-0.2155555555555555,0.3451999999880826],[0.07218749999999995,-0.20185185185185187,0.3661999999880834],[0.07791666666666662,-0.1881481481481482,0.381400000035768],[0.08562500000000005,-0.16222222222222227,0.3955000000000055],[0.09333333333333324,-0.13629629629629633,0.4160000000000039],[0.09333333333333324,-0.13629629629629633,0.42849999999999966],[0.10083333333333329,-0.12037037037037036,0.44530000001192604],[0.10625,-0.11722222222222224,0.4655000000000058],[0.109375,-0.10999999999999996,0.48160000002384606],[0.11770833333333333,-0.09462962962962967,0.4976000000238443],[0.12489583333333343,-0.09648148148148153,0.5120000000000005],[0.1267708333333334,-0.09666666666666665,0.5285000000000011],[0.1234375,-0.10240740740740743,0.5451999999880783],[0.11447916666666676,-0.10037037037037035,0.5665000000000049],[0.103125,-0.0940740740740741,0.5819000000357661],[0.060000000000000026,-0.08314814814814811,0.5979000000357644],[0.022708333333333285,-0.07333333333333338,0.614300000011923],[-0.0140625,-0.05055555555555547,0.631300000011926],[-0.04520833333333331,-0.04537037037037037,0.6496999999880799],[-0.08156249999999995,-0.048333333333333374,0.6681000000238413],[-0.08156249999999995,-0.048333333333333374,0.6784999999999997],[-0.12354166666666669,-0.02814814814814823,0.6954000000357681],[-0.16833333333333336,-0.03537037037037041,0.7140000000000057],[-0.2015625,-0.01592592592592597,0.7314000000357623],[-0.24010416666666667,-0.01962962962962967,0.7476000000238443],[-0.24010416666666667,-0.01962962962962967,0.7619000000357659],[-0.2757291666666667,-0.039629629629629584,0.7785000000000011],[-0.24427083333333333,-0.05944444444444449,0.7951999999880783],[-0.21937500000000001,-0.07370370370370373,0.811800000011921],[-0.19281250000000003,-0.08407407407407404,0.8285000000000053],[-0.15760416666666663,-0.06944444444444445,0.8451999999880826],[-0.11854166666666661,-0.06148148148148146,0.8620000000000019],[-0.0733333333333333,-0.0801851851851852,0.8785000000000025],[-0.06197916666666667,-0.08962962962962959,0.8951999999880798],[-0.035520833333333356,-0.12092592592592595,0.9133000000119225],[0.0171875,-0.1257407407407407,0.9284999999999997],[0.06697916666666662,-0.11425925925925924,0.945199999988084],[0.08322916666666676,-0.10333333333333336,0.9651000000238454],[0.09854166666666657,-0.1,0.9821000000238413],[0.12041666666666657,-0.10462962962962963,0.9966000000238466],[0.11239583333333343,-0.13203703703703706,1.015600000023845],[0.10989583333333333,-0.10037037037037035,1.031800000011927],[0.10062499999999991,-0.05611111111111113,1.0491999999880832],[0.13333333333333333,0.004629629629629629,1.0685000000000002],[0.13333333333333333,0.004629629629629629,1.078699999988082],[0.1412499999999999,0.07740740740740733,1.0955000000000013],[0.13385416666666666,0.13907407407407413,1.1131000000238416],[0.1224999999999999,0.16962962962962966,1.1285000000000025],[0.109375,0.19592592592592584,1.1453000000119218],[0.09666666666666662,0.26370370370370366,1.1641000000238435],[0.075,0.33499999999999996,1.1809000000357628],[0.06822916666666666,0.4131481481481482,1.195199999988084],[0.052083333333333336,0.4388888888888889,1.2119000000357687],[0.043437500000000046,0.4588888888888888,1.2289999999999992],[0.034791666666666644,0.4788888888888889,1.2476000000238443],[0.011666666666666714,0.4551851851851851,1.264800000011924],[-0.011458333333333333,0.43148148148148147,1.2800000000000011],[-0.029895833333333382,0.43259259259259264,1.2956000000238461],[-0.04833333333333331,0.4337037037037038,1.314800000011921],[-0.07593749999999998,0.41648148148148145,1.3285000000000053],[-0.10354166666666664,0.3992592592592593,1.3451999999880826],[-0.12468750000000005,0.4038888888888889,1.3620000000000019],[-0.12468750000000005,0.4038888888888889,1.3786000000238445],[-0.14583333333333334,0.40851851851851856,1.3953000000119218],[-0.1508333333333333,0.40185185185185185,1.413499999999999],[-0.1508333333333333,0.40185185185185185,1.4284999999999997],[-0.15666666666666665,0.3874074074074075,1.445300000011926],[-0.15666666666666665,0.3874074074074075,1.4664000000357689],[-0.18250000000000005,0.40777777777777785,1.4786999999880805],[-0.1920833333333333,0.41944444444444445,1.4954000000357652],[-0.20239583333333327,0.43740740740740747,1.517699999988082],[-0.21531250000000005,0.46648148148148144,1.5324000000357643],[-0.21197916666666666,0.4744444444444445,1.5488000000119229],[-0.18312499999999995,0.462037037037037,1.5651999999880815],[-0.18312499999999995,0.462037037037037,1.5834000000357662],[-0.14437500000000003,0.43074074074074076,1.5954000000357667],[-0.134375,0.41333333333333344,1.612100000023844],[-0.1295833333333333,0.4227777777777777,1.6288000000119212],[-0.13927083333333337,0.43444444444444447,1.6503000000119243],[-0.13927083333333337,0.43444444444444447,1.661999999999999],[-0.09166666666666666,0.4105555555555556,1.6786999999880834],[-0.04822916666666662,0.4087037037037038,1.6995000000000005],[-0.04822916666666662,0.4087037037037038,1.7120000000000033],[-0.024479166666666666,0.3864814814814816,1.7289000000357646],[0.008437500000000023,0.3587037037037038,1.748600000023842],[0.03770833333333338,0.33259259259259266,1.7661000000238474],[0.041770833333333354,0.32814814814814824,1.7824000000357643],[0.014895833333333285,0.35351851851851845,1.7981999999880784],[0.016770833333333356,0.36500000000000005,1.813199999988079],[0.034166666666666616,0.4125925925925925,1.8285000000000053],[0.07166666666666661,0.44888888888888884,1.8461000000238457],[0.06135416666666664,0.5062962962962962,1.8691999999880835],[0.06135416666666664,0.5062962962962962,1.8786999999880791],[0.019791666666666666,0.45851851851851855,1.902100000023843],[0.019791666666666666,0.45851851851851855,1.9125000000000014],[-0.0020833333333333333,0.431111111111111,1.9313000000119231],[0.024062500000000025,0.4462962962962963,1.9463000000119237],[0.028125,0.44648148148148153,1.96219999998808],[0.03187500000000002,0.44537037037037036,1.9813000000119203],[0.04114583333333333,0.38629629629629636,1.9960000000000022],[0.058124999999999954,0.3537037037037037,2.0121000000238425],[0.04916666666666671,0.25314814814814823,2.0306000000238456],[0.042708333333333334,0.17962962962962964,2.0454000000357624],[0.049687500000000044,0.10037037037037046,2.0660000000000025],[0.07583333333333328,0.11296296296296296,2.082800000011922],[0.10260416666666666,0.15481481481481485,2.0971000000238433],[0.06583333333333338,0.1455555555555556,2.1119000000357673],[0.08072916666666667,0.15148148148148138,2.131400000035768],[0.09562499999999995,0.1574074074074074,2.1451999999880798],[0.11041666666666666,0.19000000000000003,2.161999999999999],[0.11749999999999995,0.19611111111111107,2.1784999999999997],[0.11166666666666672,0.20870370370370378,2.195300000011926],[0.09541666666666657,0.19703703703703698,2.2118000000119267],[0.09937500000000009,0.20407407407407416,2.228500000000004],[0.10114583333333324,0.2153703703703703,2.245199999988081],[0.10479166666666657,0.2161111111111112,2.266300000011924],[0.1109375,0.22018518518518515,2.2799000000357665],[0.10125000000000005,0.21944444444444444,2.2953000000119204],[0.09156250000000009,0.21870370370370373,2.311900000035763],[0.09156250000000009,0.21870370370370373,2.3285000000000053],[0.09364583333333343,0.205925925925926,2.3451999999880826],[0.09145833333333328,0.20425925925925917,2.3619000000357673],[0.10041666666666677,0.20907407407407402,2.381300000011926],[0.10041666666666677,0.20907407407407402,2.395300000011922],[0.11416666666666657,0.20796296296296288,2.4121999999880828],[0.11416666666666657,0.20796296296296288,2.432400000035763],[0.13354166666666673,0.19685185185185178,2.4455000000000027],[0.13354166666666673,0.19685185185185178,2.46219999998808],[0.16218750000000004,0.19296296296296306,2.4810000000000016],[0.1638541666666666,0.18000000000000008,2.4954000000357652],[0.17864583333333334,0.17592592592592593,2.5121000000238425],[0.18677083333333327,0.144074074074074,2.5324000000357643],[0.18895833333333342,0.11925925925925922,2.547400000035765],[0.19041666666666662,0.10055555555555547,2.5626999999880837],[0.1961458333333333,0.07074074074074083,2.581800000011924],[0.21166666666666673,0.056666666666666705,2.5994000000357644],[0.21166666666666673,0.056666666666666705,2.6119000000357673],[0.21375000000000005,0.07037037037037037,2.6285000000000025],[0.19968750000000005,0.08759259259259251,2.6451999999880798],[0.1896874999999999,0.0764814814814814,2.662100000023841],[0.20416666666666666,0.055740740740740785,2.6784999999999997],[0.20281250000000003,0.04148148148148144,2.6951000000238423],[0.19802083333333323,0.057962962962962876,2.7119000000357687],[0.2022916666666667,0.06111111111111111,2.7313000000119203],[0.20479166666666657,0.049629629629629544,2.7471999999880836],[0.21197916666666666,0.048333333333333374,2.762199999988084],[0.209375,0.03129629629629625,2.778699999988085],[0.21302083333333333,-0.006296296296296254,2.798900000035765],[0.21645833333333328,-0.04129629629629621,2.814900000035763],[0.20177083333333337,-0.03611111111111111,2.8286000000238474],[0.18708333333333324,-0.03092592592592601,2.8456000000238433],[0.19093749999999995,-0.06888888888888887,2.862000000000002],[0.19093749999999995,-0.06888888888888887,2.8785000000000025],[0.19479166666666667,-0.10685185185185184,2.8951999999880798],[0.18177083333333333,-0.09685185185185187,2.9119000000357644],[0.17999999999999997,-0.08796296296296297,2.9284999999999997],[0.17354166666666657,-0.08925925925925923,2.9451000000238423],[0.16145833333333334,-0.06888888888888887,2.9620000000000033],[0.14312500000000009,-0.0242592592592593,2.978500000000004],[0.14010416666666667,0.001851851851851852,2.9951000000238466],[0.14010416666666667,0.001851851851851852,3.011900000035766],[0.14395833333333338,-0.0022222222222223064,3.030900000035764],[0.128125,-0.02555555555555547,3.046400000035767],[0.08802083333333334,0.022592592592592678,3.0651999999880815],[0.08802083333333334,0.022592592592592678,3.0830000000000055],[0.0515625,0.027037037037037078,3.0954000000357667],[0.028854166666666715,-0.010185185185185186,3.112000000000002],[-0.01083333333333331,-0.016666666666666666,3.131199999988084],[-0.01083333333333331,-0.016666666666666666,3.145300000011922],[-0.022604166666666713,-0.004814814814814857,3.162100000023841],[-0.027499999999999976,-0.03259259259259263,3.180600000023844],[-0.027499999999999976,-0.03259259259259263,3.195400000035768],[-0.034791666666666644,-0.059999999999999956,3.2121000000238453],[-0.058333333333333334,-0.08351851851851856,3.2286999999880805],[-0.08177083333333333,-0.10018518518518522,3.2476000000238443],[-0.09447916666666671,-0.10203703703703708,3.2644000000357636],[-0.09593750000000002,-0.12222222222222222,3.282600000023841],[-0.0860416666666667,-0.11203703703703703,3.3008000000119253],[-0.07458333333333336,-0.10925925925925926,3.3153000000119235],[-0.05499999999999995,-0.09722222222222222,3.3285000000000053],[-0.06333333333333328,-0.10351851851851848,3.3454000000357667],[-0.06937500000000002,-0.07388888888888885,3.363600000023844],[-0.06124999999999995,-0.05611111111111113,3.379800000011926],[-0.04750000000000002,-0.0514814814814814,3.3985000000000056],[-0.042604166666666644,-0.05092592592592592,3.418300000011925],[-0.042604166666666644,-0.05092592592592592,3.4308000000119208],[-0.010208333333333286,-0.02388888888888885,3.449400000035766],[-0.010208333333333286,-0.02388888888888885,3.46219999998808],[0.0067708333333333336,-0.028518518518518478,3.4788000000119226],[0.03958333333333333,-0.03166666666666671,3.495300000011923],[0.07083333333333333,-0.027407407407407325,3.5166000000238427],[0.09812500000000005,0.007777777777777862,3.5329000000357667],[0.10072916666666672,0.07777777777777778,3.5491000000238415],[0.11958333333333329,0.14759259259259266,3.5701000000238423],[0.11958333333333329,0.14759259259259266,3.5786000000238474],[0.12781250000000005,0.1359259259259259,3.5953000000119246],[0.14249999999999996,0.0962962962962963,3.612000000000002],[0.14249999999999996,0.0962962962962963,3.6321999999880816],[0.1632291666666667,0.10388888888888893,3.645300000011922],[0.1599999999999999,0.022592592592592678,3.662300000011925],[0.18125,-0.03296296296296288,3.6784999999999997],[0.1640625,-0.08703703703703704,3.697900000035766],[0.1466666666666666,-0.08740740740740739,3.7144000000357664],[0.12781250000000005,-0.14500000000000002,3.7301999999880806],[0.1336458333333333,-0.23740740740740737,3.746199999988079],[0.1336458333333333,-0.23740740740740737,3.7620000000000005],[0.11364583333333324,-0.35537037037037034,3.778500000000001],[0.11458333333333333,-0.3731481481481482,3.7951999999880783],[0.1021874999999999,-0.3542592592592593,3.811800000011921],[0.08010416666666677,-0.38722222222222225,3.8294000000357684],[0.06343749999999998,-0.35333333333333333,3.8500000000000014],[0.06343749999999998,-0.35333333333333333,3.8619000000357673],[0.06791666666666671,-0.305,3.8785000000000025],[0.06791666666666671,-0.305,3.895400000035764],[0.059895833333333336,-0.23962962962962958,3.915900000035762],[0.06489583333333329,-0.222037037037037,3.9311000000238465],[0.07354166666666657,-0.18944444444444447,3.947600000023847],[0.07020833333333343,-0.1527777777777778,3.9658000000119245],[0.07291666666666667,-0.10833333333333334,3.9818000000119227],[0.05541666666666671,-0.07018518518518514,3.9991000000238444],[0.04031250000000005,-0.015555555555555513,4.014800000011924],[0.05635416666666669,0.01592592592592597,4.032699999988083],[0.06312500000000003,0.052037037037037076,4.048000000000002],[0.036562500000000026,0.057777777777777865,4.0645000000000024],[0.030104166666666644,0.05685185185185194,4.080100000023847],[0.01604166666666664,0.04666666666666675,4.09619999998808],[0.005833333333333357,0.027962962962963005,4.114199999988081],[0.0018749999999999527,0.006481481481481481,4.130199999988079],[0.00614583333333331,-0.03462962962962971,4.145400000035764],[0.0068750000000000235,-0.08111111111111113,4.161900000035764],[0.007604166666666619,-0.12759259259259256,4.179800000011923],[0.002916666666666619,-0.12888888888888894,4.195300000011926],[0.007500000000000047,-0.13481481481481483,4.211900000035769],[0.004479166666666619,-0.15388888888888894,4.228600000023846],[0.004479166666666619,-0.15388888888888894,4.245100000023847],[0.0014583333333333095,-0.17296296296296293,4.261900000035766],[0.011458333333333333,-0.2,4.278900000035769],[0.000416666666666643,-0.2270370370370371,4.295100000023844],[0.000416666666666643,-0.2270370370370371,4.311900000035763],[0.001145833333333357,-0.25166666666666665,4.328500000000005],[-0.002291666666666714,-0.225,4.347000000000001],[0.0006250000000000236,-0.17999999999999997,4.363100000023842],[0.0006250000000000236,-0.17999999999999997,4.3785000000000025],[0.009687499999999953,-0.1374074074074074,4.395300000011922],[-0.002291666666666714,-0.09740740740740746,4.414500000000004],[-0.002291666666666714,-0.09740740740740746,4.4285],[-0.00010416666666669035,-0.07740740740740742,4.445300000011926],[0.019687499999999976,-0.06425925925925924,4.465300000011922],[0.03947916666666664,-0.051111111111111156,4.481500000000004],[0.028645833333333332,-0.003703703703703704,4.496300000011921],[0.028645833333333332,-0.003703703703703704,4.511800000011924],[0.035000000000000024,0.05222222222222231,4.528500000000001],[0.052083333333333336,0.09814814814814815,4.548100000023844],[0.08083333333333324,0.10740740740740741,4.564900000035763],[0.08083333333333324,0.10740740740740741,4.578600000023847],[0.11677083333333324,0.08925925925925934,4.595199999988083],[0.1408333333333334,0.08870370370370366,4.611800000011925],[0.17718749999999991,0.07592592592592592,4.6285000000000025],[0.19927083333333329,0.08611111111111111,4.645400000035764],[0.22156250000000005,0.12018518518518514,4.662400000035767],[0.24385416666666657,0.15425925925925918,4.678800000011925],[0.28718750000000004,0.1381481481481482,4.695199999988084],[0.32927083333333323,0.12296296296296293,4.712699999988082],[0.35270833333333323,0.11611111111111119,4.731000000000002],[0.36041666666666666,0.11425925925925934,4.747600000023844],[0.3486458333333334,0.14148148148148143,4.7629000000357635],[0.34260416666666677,0.15351851851851847,4.783199999988085],[0.34260416666666677,0.15351851851851847,4.795199999988078],[0.3481250000000001,0.16407407407407412,4.811800000011921],[0.35479166666666656,0.17444444444444454,4.83119999998808],[0.3580208333333334,0.17703703703703708,4.849600000023841],[0.3580208333333334,0.17703703703703708,4.8621999999880785],[0.3318749999999999,0.15111111111111114,4.8785000000000025],[0.29656250000000006,0.1618518518518518,4.895100000023845],[0.2625,0.17166666666666675,4.912199999988083],[0.21437499999999995,0.19685185185185178,4.9285],[0.1662499999999999,0.222037037037037,4.945100000023842],[0.13083333333333325,0.23296296296296287,4.962100000023845],[0.09541666666666657,0.24388888888888896,4.978600000023846],[0.04104166666666664,0.2625925925925925,4.995699999988084],[-0.014374999999999952,0.2785185185185185,5.011800000011924],[-0.06333333333333328,0.2814814814814815,5.0284000000357665],[-0.0829166666666667,0.31296296296296294,5.045100000023844],[-0.0829166666666667,0.31296296296296294,5.062199999988081],[-0.07531249999999995,0.2857407407407407,5.078500000000005],[-0.06229166666666662,0.2733333333333334,5.095199999988083],[-0.03333333333333333,0.24351851851851852,5.111900000035767],[0.003125,0.20962962962962972,5.132699999988084],[0.04624999999999998,0.16296296296296298,5.147900000035769],[0.08885416666666662,0.13259259259259262,5.163499999999999],[0.11302083333333333,0.08814814814814818,5.1818000000119255],[0.14427083333333332,0.03592592592592588,5.199199999988082],[0.17510416666666656,0.018888888888888972,5.213800000011922],[0.1977083333333333,-0.0001851851851852273,5.230199999988081],[0.19364583333333343,0.030000000000000086,5.245100000023847],[0.17020833333333343,0.032407407407407406,5.266600000023843],[0.16572916666666657,0.04888888888888885,5.282300000011922],[0.13406250000000006,0.06018518518518518,5.298000000000002],[0.10239583333333328,0.07148148148148152,5.314800000011921],[0.10239583333333328,0.07148148148148152,5.328500000000005],[0.09239583333333339,0.062037037037037036,5.345199999988083],[0.0834374999999999,0.04296296296296305,5.362000000000002],[0.09177083333333323,0.05592592592592601,5.378400000035768],[0.07770833333333324,0.021851851851851768,5.399400000035769],[0.08927083333333338,0.020555555555555598,5.417800000011923],[0.08927083333333338,0.020555555555555598,5.429699999988081],[0.06625000000000002,-0.007407407407407408,5.445300000011926],[0.06625000000000002,-0.007407407407407408,5.462000000000003],[0.07229166666666677,0.007407407407407408,5.478500000000004],[0.0546875,-0.018148148148148063,5.495199999988081],[0.07260416666666672,-0.030740740740740784,5.511800000011924],[0.07072916666666676,-0.036481481481481566,5.53069999998808],[0.04770833333333328,-0.03777777777777774,5.547400000035765],[0.04874999999999995,-0.027407407407407325,5.562400000035765],[0.035520833333333356,-0.0242592592592593,5.578500000000005],[0.03125,0.004444444444444402,5.596300000011922],[0.009583333333333381,0.002407407407407323,5.613500000000002],[0.02364583333333338,0.01574074074074074,5.629000000000005],[0.0265625,0.0022222222222223064,5.645100000023845],[0.034062500000000044,0.012962962962962963,5.664500000000004],[0.025729166666666713,0.019999999999999917,5.681300000011923],[0.03979166666666671,0.03148148148148148,5.695100000023842],[0.05385416666666672,0.04296296296296305,5.711800000011927],[0.07916666666666666,0.09314814814814806,5.728999999999999],[0.0943749999999999,0.12629629629629638,5.746300000011921],[0.1056250000000001,0.15129629629629637,5.766500000000001],[0.1056250000000001,0.15129629629629637,5.785100000023846],[0.11687500000000005,0.17629629629629637,5.803400000035765],[0.11687500000000005,0.17629629629629637,5.811900000035763],[0.1337500000000001,0.20629629629629626,5.828500000000005],[0.1466666666666666,0.23333333333333334,5.845100000023841],[0.16687500000000005,0.25333333333333324,5.861900000035767],[0.16687500000000005,0.25333333333333324,5.8785000000000025],[0.18708333333333324,0.2733333333333334,5.895100000023845],[0.20104166666666667,0.2675925925925926,5.911800000011922],[0.19989583333333344,0.28425925925925927,5.9285],[0.1837500000000001,0.26944444444444443,5.948100000023842],[0.17354166666666657,0.24074074074074073,5.96219999998808]]","[0.00030000001192576065,0.038300000011922464,0.048500000000004206,0.06510000002384686,0.07850000000000534,0.0951999999880826,0.11180000001192525,0.1285000000000025,0.1494000000357687,0.16550000000000153,0.18230000001192082,0.19660000002384237,0.2119000000357687,0.22860000002384595,0.24510000002384658,0.26200000000000045,0.2793000000119221,0.2959999999999994,0.311900000035763,0.32860000002384737,0.3451999999880826,0.3661999999880834,0.381400000035768,0.3955000000000055,0.4160000000000039,0.42849999999999966,0.44530000001192604,0.4655000000000058,0.48160000002384606,0.4976000000238443,0.5120000000000005,0.5285000000000011,0.5451999999880783,0.5665000000000049,0.5819000000357661,0.5979000000357644,0.614300000011923,0.631300000011926,0.6496999999880799,0.6681000000238413,0.6784999999999997,0.6954000000357681,0.7140000000000057,0.7314000000357623,0.7476000000238443,0.7619000000357659,0.7785000000000011,0.7951999999880783,0.811800000011921,0.8285000000000053,0.8451999999880826,0.8620000000000019,0.8785000000000025,0.8951999999880798,0.9133000000119225,0.9284999999999997,0.945199999988084,0.9651000000238454,0.9821000000238413,0.9966000000238466,1.015600000023845,1.031800000011927,1.0491999999880832,1.0685000000000002,1.078699999988082,1.0955000000000013,1.1131000000238416,1.1285000000000025,1.1453000000119218,1.1641000000238435,1.1809000000357628,1.195199999988084,1.2119000000357687,1.2289999999999992,1.2476000000238443,1.264800000011924,1.2800000000000011,1.2956000000238461,1.314800000011921,1.3285000000000053,1.3451999999880826,1.3620000000000019,1.3786000000238445,1.3953000000119218,1.413499999999999,1.4284999999999997,1.445300000011926,1.4664000000357689,1.4786999999880805,1.4954000000357652,1.517699999988082,1.5324000000357643,1.5488000000119229,1.5651999999880815,1.5834000000357662,1.5954000000357667,1.612100000023844,1.6288000000119212,1.6503000000119243,1.661999999999999,1.6786999999880834,1.6995000000000005,1.7120000000000033,1.7289000000357646,1.748600000023842,1.7661000000238474,1.7824000000357643,1.7981999999880784,1.813199999988079,1.8285000000000053,1.8461000000238457,1.8691999999880835,1.8786999999880791,1.902100000023843,1.9125000000000014,1.9313000000119231,1.9463000000119237,1.96219999998808,1.9813000000119203,1.9960000000000022,2.0121000000238425,2.0306000000238456,2.0454000000357624,2.0660000000000025,2.082800000011922,2.0971000000238433,2.1119000000357673,2.131400000035768,2.1451999999880798,2.161999999999999,2.1784999999999997,2.195300000011926,2.2118000000119267,2.228500000000004,2.245199999988081,2.266300000011924,2.2799000000357665,2.2953000000119204,2.311900000035763,2.3285000000000053,2.3451999999880826,2.3619000000357673,2.381300000011926,2.395300000011922,2.4121999999880828,2.432400000035763,2.4455000000000027,2.46219999998808,2.4810000000000016,2.4954000000357652,2.5121000000238425,2.5324000000357643,2.547400000035765,2.5626999999880837,2.581800000011924,2.5994000000357644,2.6119000000357673,2.6285000000000025,2.6451999999880798,2.662100000023841,2.6784999999999997,2.6951000000238423,2.7119000000357687,2.7313000000119203,2.7471999999880836,2.762199999988084,2.778699999988085,2.798900000035765,2.814900000035763,2.8286000000238474,2.8456000000238433,2.862000000000002,2.8785000000000025,2.8951999999880798,2.9119000000357644,2.9284999999999997,2.9451000000238423,2.9620000000000033,2.978500000000004,2.9951000000238466,3.011900000035766,3.030900000035764,3.046400000035767,3.0651999999880815,3.0830000000000055,3.0954000000357667,3.112000000000002,3.131199999988084,3.145300000011922,3.162100000023841,3.180600000023844,3.195400000035768,3.2121000000238453,3.2286999999880805,3.2476000000238443,3.2644000000357636,3.282600000023841,3.3008000000119253,3.3153000000119235,3.3285000000000053,3.3454000000357667,3.363600000023844,3.379800000011926,3.3985000000000056,3.418300000011925,3.4308000000119208,3.449400000035766,3.46219999998808,3.4788000000119226,3.495300000011923,3.5166000000238427,3.5329000000357667,3.5491000000238415,3.5701000000238423,3.5786000000238474,3.5953000000119246,3.612000000000002,3.6321999999880816,3.645300000011922,3.662300000011925,3.6784999999999997,3.697900000035766,3.7144000000357664,3.7301999999880806,3.746199999988079,3.7620000000000005,3.778500000000001,3.7951999999880783,3.811800000011921,3.8294000000357684,3.8500000000000014,3.8619000000357673,3.8785000000000025,3.895400000035764,3.915900000035762,3.9311000000238465,3.947600000023847,3.9658000000119245,3.9818000000119227,3.9991000000238444,4.014800000011924,4.032699999988083,4.048000000000002,4.0645000000000024,4.080100000023847,4.09619999998808,4.114199999988081,4.130199999988079,4.145400000035764,4.161900000035764,4.179800000011923,4.195300000011926,4.211900000035769,4.228600000023846,4.245100000023847,4.261900000035766,4.278900000035769,4.295100000023844,4.311900000035763,4.328500000000005,4.347000000000001,4.363100000023842,4.3785000000000025,4.395300000011922,4.414500000000004,4.4285,4.445300000011926,4.465300000011922,4.481500000000004,4.496300000011921,4.511800000011924,4.528500000000001,4.548100000023844,4.564900000035763,4.578600000023847,4.595199999988083,4.611800000011925,4.6285000000000025,4.645400000035764,4.662400000035767,4.678800000011925,4.695199999988084,4.712699999988082,4.731000000000002,4.747600000023844,4.7629000000357635,4.783199999988085,4.795199999988078,4.811800000011921,4.83119999998808,4.849600000023841,4.8621999999880785,4.8785000000000025,4.895100000023845,4.912199999988083,4.9285,4.945100000023842,4.962100000023845,4.978600000023846,4.995699999988084,5.011800000011924,5.0284000000357665,5.045100000023844,5.062199999988081,5.078500000000005,5.095199999988083,5.111900000035767,5.132699999988084,5.147900000035769,5.163499999999999,5.1818000000119255,5.199199999988082,5.213800000011922,5.230199999988081,5.245100000023847,5.266600000023843,5.282300000011922,5.298000000000002,5.314800000011921,5.328500000000005,5.345199999988083,5.362000000000002,5.378400000035768,5.399400000035769,5.417800000011923,5.429699999988081,5.445300000011926,5.462000000000003,5.478500000000004,5.495199999988081,5.511800000011924,5.53069999998808,5.547400000035765,5.562400000035765,5.578500000000005,5.596300000011922,5.613500000000002,5.629000000000005,5.645100000023845,5.664500000000004,5.681300000011923,5.695100000023842,5.711800000011927,5.728999999999999,5.746300000011921,5.766500000000001,5.785100000023846,5.803400000035765,5.811900000035763,5.828500000000005,5.845100000023841,5.861900000035767,5.8785000000000025,5.895100000023845,5.911800000011922,5.9285,5.948100000023842,5.96219999998808]","[1732872641588,1732872641618,1732872641628,1732872641645,1732872641658,1732872641675,1732872641692,1732872641708,1732872641729,1732872641745,1732872641762,1732872641776,1732872641792,1732872641808,1732872641825,1732872641845,1732872641862,1732872641879,1732872641894,1732872641911,1732872641928,1732872641949,1732872641964,1732872641978,1732872641999,1732872642011,1732872642028,1732872642048,1732872642064,1732872642080,1732872642094,1732872642111,1732872642128,1732872642149,1732872642164,1732872642181,1732872642197,1732872642214,1732872642232,1732872642251,1732872642261,1732872642278,1732872642297,1732872642314,1732872642330,1732872642344,1732872642361,1732872642378,1732872642394,1732872642411,1732872642428,1732872642444,1732872642461,1732872642478,1732872642496,1732872642511,1732872642528,1732872642548,1732872642565,1732872642579,1732872642598,1732872642614,1732872642632,1732872642651,1732872642661,1732872642678,1732872642696,1732872642711,1732872642728,1732872642747,1732872642763,1732872642778,1732872642794,1732872642812,1732872642830,1732872642847,1732872642863,1732872642878,1732872642897,1732872642911,1732872642928,1732872642945,1732872642961,1732872642978,1732872642996,1732872643011,1732872643028,1732872643049,1732872643061,1732872643078,1732872643100,1732872643115,1732872643131,1732872643148,1732872643166,1732872643178,1732872643195,1732872643211,1732872643233,1732872643245,1732872643261,1732872643282,1732872643295,1732872643311,1732872643331,1732872643349,1732872643365,1732872643381,1732872643396,1732872643411,1732872643429,1732872643452,1732872643461,1732872643485,1732872643495,1732872643514,1732872643529,1732872643545,1732872643564,1732872643579,1732872643595,1732872643613,1732872643628,1732872643649,1732872643665,1732872643680,1732872643694,1732872643714,1732872643728,1732872643744,1732872643761,1732872643778,1732872643794,1732872643811,1732872643828,1732872643849,1732872643862,1732872643878,1732872643894,1732872643911,1732872643928,1732872643945,1732872643964,1732872643978,1732872643995,1732872644015,1732872644028,1732872644045,1732872644064,1732872644078,1732872644095,1732872644115,1732872644130,1732872644145,1732872644164,1732872644182,1732872644194,1732872644211,1732872644228,1732872644245,1732872644261,1732872644278,1732872644294,1732872644314,1732872644330,1732872644345,1732872644361,1732872644381,1732872644397,1732872644411,1732872644428,1732872644444,1732872644461,1732872644478,1732872644494,1732872644511,1732872644528,1732872644545,1732872644561,1732872644578,1732872644594,1732872644613,1732872644629,1732872644648,1732872644666,1732872644678,1732872644695,1732872644714,1732872644728,1732872644745,1732872644763,1732872644778,1732872644795,1732872644811,1732872644830,1732872644847,1732872644865,1732872644883,1732872644898,1732872644911,1732872644928,1732872644946,1732872644962,1732872644981,1732872645001,1732872645013,1732872645032,1732872645045,1732872645061,1732872645078,1732872645099,1732872645115,1732872645132,1732872645153,1732872645161,1732872645178,1732872645195,1732872645215,1732872645228,1732872645245,1732872645261,1732872645280,1732872645297,1732872645313,1732872645329,1732872645345,1732872645361,1732872645378,1732872645394,1732872645412,1732872645432,1732872645444,1732872645461,1732872645478,1732872645498,1732872645514,1732872645530,1732872645548,1732872645564,1732872645582,1732872645597,1732872645615,1732872645631,1732872645647,1732872645663,1732872645679,1732872645697,1732872645713,1732872645728,1732872645744,1732872645762,1732872645778,1732872645794,1732872645811,1732872645828,1732872645844,1732872645861,1732872645878,1732872645894,1732872645911,1732872645930,1732872645946,1732872645961,1732872645978,1732872645997,1732872646011,1732872646028,1732872646048,1732872646064,1732872646079,1732872646094,1732872646111,1732872646131,1732872646147,1732872646161,1732872646178,1732872646194,1732872646211,1732872646228,1732872646245,1732872646261,1732872646278,1732872646295,1732872646313,1732872646330,1732872646345,1732872646366,1732872646378,1732872646394,1732872646414,1732872646432,1732872646445,1732872646461,1732872646478,1732872646495,1732872646511,1732872646528,1732872646545,1732872646561,1732872646578,1732872646594,1732872646611,1732872646628,1732872646645,1732872646661,1732872646678,1732872646694,1732872646715,1732872646730,1732872646746,1732872646764,1732872646782,1732872646796,1732872646813,1732872646828,1732872646849,1732872646865,1732872646881,1732872646897,1732872646911,1732872646928,1732872646944,1732872646961,1732872646982,1732872647000,1732872647012,1732872647028,1732872647045,1732872647061,1732872647078,1732872647094,1732872647113,1732872647130,1732872647145,1732872647161,1732872647179,1732872647196,1732872647212,1732872647228,1732872647247,1732872647264,1732872647278,1732872647294,1732872647312,1732872647329,1732872647349,1732872647368,1732872647386,1732872647394,1732872647411,1732872647428,1732872647444,1732872647461,1732872647478,1732872647494,1732872647511,1732872647531,1732872647545]","[[985.9,431.4],[985.9,431.4],[1008,427.9],[1017.1,429.8],[1017.1,429.8],[995,432.4],[1004.8,426.9],[1001,418.9],[950.1,396.7],[952.4,396.4],[950.6,399.2],[946.8,398.7],[993.4,417.5],[981.8,409.2],[983.5,403.8],[1010.7,408.5],[995.6,404],[991.4,405.5],[1035.5,419.1],[1027.5,420.1],[1023.8,423.6],[1029.3,431],[1034.8,438.4],[1042.2,452.4],[1049.6,466.4],[1049.6,466.4],[1056.8,475],[1062,476.7],[1065,480.6],[1073,488.9],[1079.9,487.9],[1081.7,487.8],[1078.5,484.7],[1069.9,485.8],[1059,489.2],[1017.6,495.1],[981.8,500.4],[946.5,512.7],[916.6,515.5],[881.7,513.9],[881.7,513.9],[841.4,524.8],[798.4,520.9],[766.5,531.4],[729.5,529.4],[729.5,529.4],[695.3,518.6],[725.5,507.9],[749.4,500.2],[774.9,494.6],[808.7,502.5],[846.2,506.8],[889.6,496.7],[900.5,491.6],[925.9,474.7],[976.5,472.1],[1024.3,478.3],[1039.9,484.2],[1054.6,486],[1075.6,483.5],[1067.9,468.7],[1065.5,485.8],[1056.6,509.7],[1088,542.5],[1088,542.5],[1095.6,581.8],[1088.5,615.1],[1077.6,631.6],[1065,645.8],[1052.8,682.4],[1032,720.9],[1025.5,763.1],[1010,777],[1001.7,787.8],[993.4,798.6],[971.2,785.8],[949,773],[931.3,773.6],[913.6,774.2],[887.1,764.9],[860.6,755.6],[840.3,758.1],[840.3,758.1],[820,760.6],[815.2,757],[815.2,757],[809.6,749.2],[809.6,749.2],[784.8,760.2],[775.6,766.5],[765.7,776.2],[753.3,791.9],[756.5,796.2],[784.2,789.5],[784.2,789.5],[821.4,772.6],[831,763.2],[835.6,768.3],[826.3,774.6],[826.3,774.6],[872,761.7],[913.7,760.7],[913.7,760.7],[936.5,748.7],[968.1,733.7],[996.2,719.6],[1000.1,717.2],[974.3,730.9],[976.1,737.1],[992.8,762.8],[1028.8,782.4],[1018.9,813.4],[1018.9,813.4],[979,787.6],[979,787.6],[958,772.8],[983.1,781],[987,781.1],[990.6,780.5],[999.5,748.6],[1015.8,731],[1007.2,676.7],[1001,637],[1007.7,594.2],[1032.8,601],[1058.5,623.6],[1023.2,618.6],[1037.5,621.8],[1051.8,625],[1066,642.6],[1072.8,645.9],[1067.2,652.7],[1051.6,646.4],[1055.4,650.2],[1057.1,656.3],[1060.6,656.7],[1066.5,658.9],[1057.2,658.5],[1047.9,658.1],[1047.9,658.1],[1049.9,651.2],[1047.8,650.3],[1056.4,652.9],[1056.4,652.9],[1069.6,652.3],[1069.6,652.3],[1088.2,646.3],[1088.2,646.3],[1115.7,644.2],[1117.3,637.2],[1131.5,635],[1139.3,617.8],[1141.4,604.4],[1142.8,594.3],[1148.3,578.2],[1163.2,570.6],[1163.2,570.6],[1165.2,578],[1151.7,587.3],[1142.1,581.3],[1156,570.1],[1154.7,562.4],[1150.1,571.3],[1154.2,573],[1156.6,566.8],[1163.5,566.1],[1161,556.9],[1164.5,536.6],[1167.8,517.7],[1153.7,520.5],[1139.6,523.3],[1143.3,502.8],[1143.3,502.8],[1147,482.3],[1134.5,487.7],[1132.8,492.5],[1126.6,491.8],[1115,502.8],[1097.4,526.9],[1094.5,541],[1094.5,541],[1098.2,538.8],[1083,526.2],[1044.5,552.2],[1044.5,552.2],[1009.5,554.6],[987.7,534.5],[949.6,531],[949.6,531],[938.3,537.4],[933.6,522.4],[933.6,522.4],[926.6,507.6],[904,494.9],[881.5,485.9],[869.3,484.9],[867.9,474],[877.4,479.5],[888.4,481],[907.2,487.5],[899.2,484.1],[893.4,500.1],[901.2,509.7],[914.4,512.2],[919.1,512.5],[919.1,512.5],[950.2,527.1],[950.2,527.1],[966.5,524.6],[998,522.9],[1028,525.2],[1054.2,544.2],[1056.7,582],[1074.8,619.7],[1074.8,619.7],[1082.7,613.4],[1096.8,592],[1096.8,592],[1116.7,596.1],[1113.6,552.2],[1134,522.2],[1117.5,493],[1100.8,492.8],[1082.7,461.7],[1088.3,411.8],[1088.3,411.8],[1069.1,348.1],[1070,338.5],[1058.1,348.7],[1036.9,330.9],[1020.9,349.2],[1020.9,349.2],[1025.2,375.3],[1025.2,375.3],[1017.5,410.6],[1022.3,420.1],[1030.6,437.7],[1027.4,457.5],[1030,481.5],[1013.2,502.1],[998.7,531.6],[1014.1,548.6],[1020.6,568.1],[995.1,571.2],[988.9,570.7],[975.4,565.2],[965.6,555.1],[961.8,543.5],[965.9,521.3],[966.6,496.2],[967.3,471.1],[962.8,470.4],[967.2,467.2],[964.3,456.9],[964.3,456.9],[961.4,446.6],[971,432],[960.4,417.4],[960.4,417.4],[961.1,404.1],[957.8,418.5],[960.6,442.8],[960.6,442.8],[969.3,465.8],[957.8,487.4],[957.8,487.4],[959.9,498.2],[978.9,505.3],[997.9,512.4],[987.5,538],[987.5,538],[993.6,568.2],[1010,593],[1037.6,598],[1037.6,598],[1072.1,588.2],[1095.2,587.9],[1130.1,581],[1151.3,586.5],[1172.7,604.9],[1194.1,623.3],[1235.7,614.6],[1276.1,606.4],[1298.6,602.7],[1306,601.7],[1294.7,616.4],[1288.9,622.9],[1288.9,622.9],[1294.2,628.6],[1300.6,634.2],[1303.7,635.6],[1303.7,635.6],[1278.6,621.6],[1244.7,627.4],[1212,632.7],[1165.8,646.3],[1119.6,659.9],[1085.6,665.8],[1051.6,671.7],[999.4,681.8],[946.2,690.4],[899.2,692],[880.4,709],[880.4,709],[887.7,694.3],[900.2,687.6],[928,671.5],[963,653.2],[1004.4,628],[1045.3,611.6],[1068.5,587.6],[1098.5,559.4],[1128.1,550.2],[1149.8,539.9],[1145.9,556.2],[1123.4,557.5],[1119.1,566.4],[1088.7,572.5],[1058.3,578.6],[1058.3,578.6],[1048.7,573.5],[1040.1,563.2],[1048.1,570.2],[1034.6,551.8],[1045.7,551.1],[1045.7,551.1],[1023.6,536],[1023.6,536],[1029.4,544],[1012.5,530.2],[1029.7,523.4],[1027.9,520.3],[1005.8,519.6],[1006.8,525.2],[994.1,526.9],[990,542.4],[969.2,541.3],[982.7,548.5],[985.5,541.2],[992.7,547],[984.7,550.8],[998.2,557],[1011.7,563.2],[1036,590.3],[1050.6,608.2],[1061.4,621.7],[1061.4,621.7],[1072.2,635.2],[1072.2,635.2],[1088.4,651.4],[1100.8,666],[1120.2,676.8],[1120.2,676.8],[1139.6,687.6],[1153,684.5],[1151.9,693.5],[1136.4,685.5],[1126.6,670]]","[0,0.151169218]","[0.151169218,0.151169218]","[-0.151169218,-0.151169218]","[-0.151169218,0]","[0,-0.151169218]","[0.151169218,-0.151169218]","[0,0]","[0.151169218,0]",0,0,0,0,1,2,Smartphone,7,1,11,9
