inst1_resp.keys,inst1_resp.rt,calibrationMouse.x,calibrationMouse.y,calibrationMouse.leftButton,calibrationMouse.midButton,calibrationMouse.rightButton,calibrationClick.x,calibrationClick.y,calibrationClick.leftButton,calibrationClick.midButton,calibrationClick.rightButton,calibrationClick.clicked_name,trialsc.thisRepN,trialsc.thisTrialN,trialsc.thisN,trialsc.thisIndex,trialsc.ran,calibration_x,calibration_y,participant,session,date,expName,psychopyVersion,OS,frameRate,ScreenRes_pixels,Camera_pixels,mouse_2.x,mouse_2.y,mouse_2.leftButton,mouse_2.midButton,mouse_2.rightButton,mouse_2.time,mouse_2.clicked_name,mouse.x,mouse.y,mouse.leftButton,mouse.midButton,mouse.rightButton,mouse.time,mouse.clicked_name,Choice,Trial,TrialDuration,MOUSE_GAZE,ET_GAZE,ET_GAZE_x_T,time,unixTime,ET_GAZE_NF,Loc_Option1_label,Loc_Option2_label,Loc_Cost_label,Loc_Qual_label,Loc_Option1_cost,Loc_Option2_cost,Loc_Option1_quality,Loc_Option2_quality,trials.thisRepN,trials.thisTrialN,trials.thisN,trials.thisIndex,trials.ran,Block,Device,cost1,qual1,cost2,qual2
space,5.9321,0.017708333,0.37962963,1,0,0,0.003125,0.664814815,1,0,0,calibration_square,0,0,0,13,1,0,0.67,10,001,2024-11-29_17h25.09.649,Attention_exp_legacy,2023.1.0,Win32,59.88023952,,,,,,,,,,,,,,,,,,,,,,,,,,,,,,,,,,,,,,,,,,,,
,,,,,,,-0.33125,0.005555556,1,0,0,calibration_square,0,1,1,6,1,-0.33,0,10,001,2024-11-29_17h25.09.649,Attention_exp_legacy,2023.1.0,Win32,59.88023952,,,,,,,,,,,,,,,,,,,,,,,,,,,,,,,,,,,,,,,,,,,,
,,,,,,,0.326041667,0,1,0,0,calibration_square,0,2,2,16,1,0.33,0,10,001,2024-11-29_17h25.09.649,Attention_exp_legacy,2023.1.0,Win32,59.88023952,,,,,,,,,,,,,,,,,,,,,,,,,,,,,,,,,,,,,,,,,,,,
,,,,,,,0.333333333,0.668518519,1,0,0,calibration_square,0,3,3,18,1,0.33,0.67,10,001,2024-11-29_17h25.09.649,Attention_exp_legacy,2023.1.0,Win32,59.88023952,,,,,,,,,,,,,,,,,,,,,,,,,,,,,,,,,,,,,,,,,,,,
,,,,,,,-0.333333333,-0.32962963,1,0,0,calibration_square,0,4,4,5,1,-0.33,-0.33,10,001,2024-11-29_17h25.09.649,Attention_exp_legacy,2023.1.0,Win32,59.88023952,,,,,,,,,,,,,,,,,,,,,,,,,,,,,,,,,,,,,,,,,,,,
,,,,,,,-0.672916667,-0.32037037,1,0,0,calibration_square,0,5,5,1,1,-0.67,-0.33,10,001,2024-11-29_17h25.09.649,Attention_exp_legacy,2023.1.0,Win32,59.88023952,,,,,,,,,,,,,,,,,,,,,,,,,,,,,,,,,,,,,,,,,,,,
,,,,,,,-0.676041667,-0.672222222,1,0,0,calibration_square,0,6,6,0,1,-0.67,-0.67,10,001,2024-11-29_17h25.09.649,Attention_exp_legacy,2023.1.0,Win32,59.88023952,,,,,,,,,,,,,,,,,,,,,,,,,,,,,,,,,,,,,,,,,,,,
,,,,,,,0.001041667,0.327777778,1,0,0,calibration_square,0,7,7,12,1,0,0.33,10,001,2024-11-29_17h25.09.649,Attention_exp_legacy,2023.1.0,Win32,59.88023952,,,,,,,,,,,,,,,,,,,,,,,,,,,,,,,,,,,,,,,,,,,,
,,,,,,,-0.005208333,-0.681481481,1,0,0,,0,8,8,9,1,0,-0.67,10,001,2024-11-29_17h25.09.649,Attention_exp_legacy,2023.1.0,Win32,59.88023952,,,,,,,,,,,,,,,,,,,,,,,,,,,,,,,,,,,,,,,,,,,,
,,,,,,,-0.676041667,0.322222222,1,0,0,calibration_square,0,9,9,3,1,-0.67,0.33,10,001,2024-11-29_17h25.09.649,Attention_exp_legacy,2023.1.0,Win32,59.88023952,,,,,,,,,,,,,,,,,,,,,,,,,,,,,,,,,,,,,,,,,,,,
,,,,,,,-0.001041667,-0.003703704,1,0,0,calibration_square,0,10,10,11,1,0,0,10,001,2024-11-29_17h25.09.649,Attention_exp_legacy,2023.1.0,Win32,59.88023952,,,,,,,,,,,,,,,,,,,,,,,,,,,,,,,,,,,,,,,,,,,,
,,,,,,,-0.002083333,-0.331481481,1,0,0,calibration_square,0,11,11,10,1,0,-0.33,10,001,2024-11-29_17h25.09.649,Attention_exp_legacy,2023.1.0,Win32,59.88023952,,,,,,,,,,,,,,,,,,,,,,,,,,,,,,,,,,,,,,,,,,,,
,,,,,,,-0.321875,-0.653703704,1,0,0,,0,12,12,4,1,-0.33,-0.67,10,001,2024-11-29_17h25.09.649,Attention_exp_legacy,2023.1.0,Win32,59.88023952,,,,,,,,,,,,,,,,,,,,,,,,,,,,,,,,,,,,,,,,,,,,
,,,,,,,0.341666667,-0.674074074,1,0,0,,0,13,13,14,1,0.33,-0.67,10,001,2024-11-29_17h25.09.649,Attention_exp_legacy,2023.1.0,Win32,59.88023952,,,,,,,,,,,,,,,,,,,,,,,,,,,,,,,,,,,,,,,,,,,,
,,,,,,,0.323958333,0.331481481,1,0,0,calibration_square,0,14,14,17,1,0.33,0.33,10,001,2024-11-29_17h25.09.649,Attention_exp_legacy,2023.1.0,Win32,59.88023952,,,,,,,,,,,,,,,,,,,,,,,,,,,,,,,,,,,,,,,,,,,,
,,,,,,,0.335416667,-0.331481481,1,0,0,calibration_square,0,15,15,15,1,0.33,-0.33,10,001,2024-11-29_17h25.09.649,Attention_exp_legacy,2023.1.0,Win32,59.88023952,,,,,,,,,,,,,,,,,,,,,,,,,,,,,,,,,,,,,,,,,,,,
,,,,,,,-0.340625,0.331481481,1,0,0,,0,16,16,7,1,-0.33,0.33,10,001,2024-11-29_17h25.09.649,Attention_exp_legacy,2023.1.0,Win32,59.88023952,,,,,,,,,,,,,,,,,,,,,,,,,,,,,,,,,,,,,,,,,,,,
,,,,,,,-0.325,0.67962963,1,0,0,calibration_square,0,17,17,8,1,-0.33,0.67,10,001,2024-11-29_17h25.09.649,Attention_exp_legacy,2023.1.0,Win32,59.88023952,,,,,,,,,,,,,,,,,,,,,,,,,,,,,,,,,,,,,,,,,,,,
,,,,,,,-0.680208333,-0.007407407,1,0,0,,0,18,18,2,1,-0.67,0,10,001,2024-11-29_17h25.09.649,Attention_exp_legacy,2023.1.0,Win32,59.88023952,,,,,,,,,,,,,,,,,,,,,,,,,,,,,,,,,,,,,,,,,,,,
,,,,,,,0.6625,0.675925926,1,0,0,calibration_square,0,19,19,19,1,0.67,0.67,10,001,2024-11-29_17h25.09.649,Attention_exp_legacy,2023.1.0,Win32,59.88023952,,,,,,,,,,,,,,,,,,,,,,,,,,,,,,,,,,,,,,,,,,,,
,,,,,,,0.680208333,-0.67962963,1,0,0,,0,20,20,20,1,0.67,-0.67,10,001,2024-11-29_17h25.09.649,Attention_exp_legacy,2023.1.0,Win32,59.88023952,,,,,,,,,,,,,,,,,,,,,,,,,,,,,,,,,,,,,,,,,,,,
,,,,,,,,,,,,,,,,,,,,10,001,2024-11-29_17h25.09.649,Attention_exp_legacy,2023.1.0,Win32,59.88023952,"[1920,1080]","[640,480]",[0.058333333333333334],[-0.5166666666666667],[1],[0],[0],[5.378299999952311],"[""StartButton""]",[-0.01875],[0.31666666666666665],[1],[0],[0],[2.2524999999999977],"[""Option1_label""]",Option1_label,1,3.2784,"[[0.057291666666666664,-0.4981481481481482],[0.057291666666666664,-0.4981481481481482],[0.057291666666666664,-0.4981481481481482],[0.057291666666666664,-0.4981481481481482],[0.057291666666666664,-0.4981481481481482],[0.057291666666666664,-0.4981481481481482],[0.057291666666666664,-0.4981481481481482],[0.057291666666666664,-0.4981481481481482],[0.057291666666666664,-0.4981481481481482],[0.057291666666666664,-0.4981481481481482],[0.057291666666666664,-0.4981481481481482],[0.057291666666666664,-0.4981481481481482],[0.057291666666666664,-0.4981481481481482],[0.057291666666666664,-0.4981481481481482],[0.057291666666666664,-0.4981481481481482],[0.057291666666666664,-0.4981481481481482],[0.057291666666666664,-0.4981481481481482],[0.057291666666666664,-0.4981481481481482],[0.057291666666666664,-0.4981481481481482],[0.057291666666666664,-0.4981481481481482],[0.057291666666666664,-0.4981481481481482],[0.057291666666666664,-0.4981481481481482],[0.057291666666666664,-0.4981481481481482],[0.057291666666666664,-0.4981481481481482],[0.057291666666666664,-0.4981481481481482],[0.057291666666666664,-0.4981481481481482],[0.057291666666666664,-0.4981481481481482],[0.057291666666666664,-0.4981481481481482],[0.051041666666666666,-0.4981481481481482],[0.04895833333333333,-0.4981481481481482],[0.04375,-0.5018518518518519],[0.04375,-0.5018518518518519],[0.042708333333333334,-0.5037037037037037],[0.042708333333333334,-0.5037037037037037],[0.042708333333333334,-0.5037037037037037],[0.042708333333333334,-0.5037037037037037],[0.042708333333333334,-0.5037037037037037],[0.042708333333333334,-0.5037037037037037],[0.042708333333333334,-0.5037037037037037],[0.042708333333333334,-0.5037037037037037],[0.041666666666666664,-0.5037037037037037],[0.040625,-0.5037037037037037],[0.03854166666666667,-0.5037037037037037],[0.034375,-0.5037037037037037],[0.030208333333333334,-0.5018518518518519],[0.028125,-0.4981481481481482],[0.028125,-0.4925925925925926],[0.026041666666666668,-0.4703703703703704],[0.025,-0.45],[0.025,-0.3925925925925926],[0.025,-0.2759259259259259],[0.03333333333333333,-0.11666666666666667],[0.051041666666666666,0.06481481481481481],[0.08125,0.2037037037037037],[0.14270833333333333,0.3648148148148148],[0.16666666666666666,0.40185185185185185],[0.22083333333333333,0.46111111111111114],[0.24479166666666666,0.4740740740740741],[0.26458333333333334,0.48148148148148145],[0.28229166666666666,0.48148148148148145],[0.29791666666666666,0.48148148148148145],[0.30833333333333335,0.48148148148148145],[0.31875,0.48703703703703705],[0.325,0.48703703703703705],[0.33125,0.49074074074074076],[0.3375,0.49074074074074076],[0.34791666666666665,0.4925925925925926],[0.35208333333333336,0.4925925925925926],[0.371875,0.4925925925925926],[0.384375,0.49074074074074076],[0.3958333333333333,0.48518518518518516],[0.40520833333333334,0.4777777777777778],[0.421875,0.45555555555555555],[0.44166666666666665,0.43148148148148147],[0.46770833333333334,0.40185185185185185],[0.49583333333333335,0.36666666666666664],[0.5229166666666667,0.3388888888888889],[0.525,0.337037037037037],[0.5260416666666666,0.337037037037037],[0.5260416666666666,0.337037037037037],[0.5260416666666666,0.337037037037037],[0.5260416666666666,0.337037037037037],[0.5260416666666666,0.337037037037037],[0.5260416666666666,0.337037037037037],[0.5177083333333333,0.337037037037037],[0.503125,0.3277777777777778],[0.48020833333333335,0.3111111111111111],[0.4395833333333333,0.26666666666666666],[0.3770833333333333,0.1925925925925926],[0.31666666666666665,0.1111111111111111],[0.26666666666666666,0.03333333333333333],[0.23541666666666666,-0.022222222222222223],[0.20833333333333334,-0.08333333333333333],[0.19895833333333332,-0.11666666666666667],[0.19479166666666667,-0.1574074074074074],[0.19479166666666667,-0.19444444444444445],[0.19479166666666667,-0.23333333333333334],[0.19479166666666667,-0.26296296296296295],[0.19479166666666667,-0.2851851851851852],[0.19479166666666667,-0.2962962962962963],[0.19479166666666667,-0.30185185185185187],[0.19479166666666667,-0.30185185185185187],[0.19479166666666667,-0.30185185185185187],[0.19479166666666667,-0.30185185185185187],[0.19166666666666668,-0.2611111111111111],[0.175,-0.18518518518518517],[0.146875,-0.09259259259259259],[0.11875,-0.009259259259259259],[0.096875,0.05555555555555555],[0.078125,0.10925925925925926],[0.06354166666666666,0.1574074074074074],[0.05625,0.18333333333333332],[0.04895833333333333,0.2037037037037037],[0.04479166666666667,0.21481481481481482],[0.03958333333333333,0.22592592592592592],[0.03854166666666667,0.22777777777777777],[0.035416666666666666,0.23333333333333334],[0.03333333333333333,0.2351851851851852],[0.030208333333333334,0.2388888888888889],[0.026041666666666668,0.24444444444444444],[0.016666666666666666,0.25925925925925924],[0.009375,0.2722222222222222],[0.0010416666666666667,0.28703703703703703],[-0.00625,0.2962962962962963],[-0.010416666666666666,0.3037037037037037],[-0.014583333333333334,0.30925925925925923],[-0.017708333333333333,0.31296296296296294],[-0.01875,0.31666666666666665],[-0.01875,0.31666666666666665],[-0.01875,0.31666666666666665],[-0.01875,0.31666666666666665],[-0.01875,0.31666666666666665],[-0.01875,0.31666666666666665],[-0.01875,0.31666666666666665],[-0.01875,0.31666666666666665],[-0.01875,0.31666666666666665],[-0.01875,0.31666666666666665],[-0.01875,0.31666666666666665],[-0.01875,0.31666666666666665],[-0.01875,0.31666666666666665],[-0.01875,0.31666666666666665],[-0.01875,0.31666666666666665],[-0.01875,0.31666666666666665],[-0.01875,0.31666666666666665],[-0.01875,0.31666666666666665],[-0.01875,0.31666666666666665],[-0.01875,0.31666666666666665],[-0.01875,0.31666666666666665],[-0.01875,0.31666666666666665],[-0.01875,0.31666666666666665],[-0.01875,0.31666666666666665],[-0.01875,0.31666666666666665],[-0.01875,0.31666666666666665],[-0.01875,0.31666666666666665],[-0.01875,0.31666666666666665],[-0.01875,0.31666666666666665],[-0.01875,0.31666666666666665],[-0.01875,0.31666666666666665],[-0.01875,0.31666666666666665],[-0.01875,0.31666666666666665],[-0.01875,0.31666666666666665],[-0.01875,0.31666666666666665],[-0.01875,0.31666666666666665],[-0.01875,0.31666666666666665],[-0.01875,0.31666666666666665],[-0.01875,0.31666666666666665],[-0.01875,0.31666666666666665],[-0.01875,0.31666666666666665],[-0.01875,0.31666666666666665],[-0.01875,0.31666666666666665],[-0.01875,0.31666666666666665],[-0.01875,0.31666666666666665],[-0.01875,0.31666666666666665],[-0.01875,0.31666666666666665],[-0.01875,0.31666666666666665],[-0.01875,0.31666666666666665],[-0.01875,0.31666666666666665],[-0.01875,0.31666666666666665],[-0.01875,0.31666666666666665],[-0.01875,0.31666666666666665],[-0.01875,0.31666666666666665],[-0.01875,0.31666666666666665],[-0.01875,0.31666666666666665],[-0.015625,0.32592592592592595],[-0.00625,0.34629629629629627],[0.0010416666666666667,0.3648148148148148],[0.011458333333333333,0.3851851851851852],[0.022916666666666665,0.4074074074074074],[0.03854166666666667,0.4444444444444444],[0.04583333333333333,0.46111111111111114],[0.04895833333333333,0.4685185185185185],[0.052083333333333336,0.4740740740740741],[0.053125,0.4759259259259259],[0.05520833333333333,0.47962962962962963],[0.05520833333333333,0.47962962962962963],[0.05520833333333333,0.47962962962962963]]","[[0.1564583333333334,0.2603703703703704],[0.1564583333333334,0.2603703703703704],[0.15489583333333337,0.22981481481481486],[0.14510416666666662,0.18574074074074065],[0.13333333333333333,0.12185185185185177],[0.13572916666666662,0.05722222222222218],[0.14354166666666662,0.030740740740740784],[0.14354166666666662,0.030740740740740784],[0.13916666666666658,0.020555555555555598],[0.1310416666666666,0.007777777777777862],[0.13489583333333333,0.002962962962963005],[0.14718749999999994,-0.02555555555555547],[0.13760416666666658,-0.038703703703703664],[0.1421875,-0.03166666666666671],[0.15895833333333323,0.0011111111111111532],[0.17770833333333325,0.053703703703703705],[0.17770833333333325,0.053703703703703705],[0.19572916666666676,0.10796296296296289],[0.19572916666666676,0.10796296296296289],[0.19833333333333342,0.09796296296296292],[0.20166666666666658,0.09499999999999992],[0.21520833333333325,0.10129629629629638],[0.23093750000000005,0.12851851851851848],[0.2537499999999999,0.14981481481481476],[0.27197916666666655,0.19148148148148145],[0.28875000000000006,0.21500000000000005],[0.2947916666666667,0.21333333333333343],[0.3006249999999999,0.22740740740740734],[0.3021874999999999,0.22259259259259268],[0.30979166666666674,0.30407407407407416],[0.3211458333333333,0.325],[0.3294791666666666,0.35037037037037044],[0.3294791666666666,0.35037037037037044],[0.29375,0.3479629629629629],[0.2421875,0.36148148148148157],[0.1977083333333333,0.369074074074074],[0.1474999999999999,0.3890740740740741],[0.09729166666666676,0.40907407407407403],[0.06333333333333328,0.42111111111111105],[0.026979166666666644,0.431111111111111],[0.026979166666666644,0.431111111111111],[-0.002499999999999976,0.39148148148148143],[-0.035416666666666666,0.42685185185185187],[-0.035416666666666666,0.42685185185185187],[-0.07239583333333334,0.4192592592592592],[-0.051874999999999956,0.4485185185185186],[-0.02687499999999995,0.44351851851851853],[-0.014895833333333285,0.44611111111111107],[-0.014895833333333285,0.44611111111111107],[0.010000000000000024,0.46277777777777773],[0.034895833333333334,0.4794444444444444],[0.05385416666666672,0.48925925925925934],[0.05385416666666672,0.48925925925925934],[0.08020833333333334,0.5183333333333333],[0.09343750000000005,0.4992592592592593],[0.1056250000000001,0.4587037037037038],[0.1056250000000001,0.4587037037037038],[0.14229166666666657,0.4235185185185186],[0.16447916666666676,0.39296296296296307],[0.19093749999999995,0.3866666666666666],[0.19093749999999995,0.3866666666666666],[0.21739583333333337,0.3464814814814815],[0.2633333333333333,0.18055555555555555],[0.30927083333333344,0.014629629629629588],[0.30927083333333344,0.014629629629629588],[0.3115624999999999,-0.04870370370370362],[0.3321875000000001,-0.15703703703703706],[0.3321875000000001,-0.15703703703703706],[0.3558333333333332,-0.16925925925925922],[0.36822916666666666,-0.18425925925925926],[0.37000000000000005,-0.23648148148148146],[0.3671875,-0.32018518518518513],[0.36437499999999995,-0.4038888888888889],[0.37822916666666656,-0.3851851851851852],[0.36124999999999996,-0.2874074074074074],[0.34041666666666665,-0.2007407407407407],[0.35750000000000004,-0.21148148148148146],[0.35750000000000004,-0.21148148148148146],[0.3549999999999999,-0.17814814814814814],[0.3549999999999999,-0.17814814814814814],[0.3623958333333334,-0.2507407407407407],[0.36781249999999993,-0.27148148148148155],[0.33572916666666663,-0.14240740740740737],[0.29718749999999994,-0.01444444444444436],[0.22979166666666656,0.09462962962962967],[0.22979166666666656,0.09462962962962967],[0.23833333333333329,0.03333333333333333],[0.24895833333333334,0.03888888888888889],[0.25104166666666666,0.0985185185185186],[0.25104166666666666,0.0985185185185186],[0.25802083333333337,0.0837037037037038],[0.23250000000000004,0.12222222222222222],[0.23427083333333343,0.15222222222222231],[0.23427083333333343,0.15222222222222231],[0.24927083333333327,0.1331481481481481],[0.2660416666666668,0.059999999999999956],[0.28458333333333335,-0.0001851851851852273],[0.28458333333333335,-0.0001851851851852273],[0.36614583333333334,-0.07962962962962963],[0.3375,-0.004814814814814857],[0.31239583333333343,0.04148148148148144],[0.31239583333333343,0.04148148148148144],[0.3125,-0.012222222222222264],[0.30968749999999995,0.02296296296296292],[0.33656249999999993,0.0235185185185186],[0.2986458333333334,0.10259259259259255],[0.24093749999999994,0.13777777777777775],[0.20572916666666666,0.14092592592592595],[0.17145833333333324,0.18351851851851855],[0.17145833333333324,0.18351851851851855],[0.1273958333333333,0.19685185185185178],[0.11291666666666676,0.15333333333333324],[0.06843750000000005,0.1301851851851851],[0.03739583333333331,0.1257407407407407],[0.008541666666666715,0.11222222222222226],[-0.016250000000000025,0.08092592592592601],[-0.016250000000000025,0.08092592592592601],[-0.014895833333333285,0.07703703703703708],[0.004479166666666619,0.08314814814814811],[0.02385416666666664,0.08925925925925934],[0.04125000000000002,0.002962962962963005],[0.03312499999999995,-0.006296296296296254],[0.03312499999999995,-0.006296296296296254],[0.03458333333333338,-0.08148148148148149],[0.06604166666666664,-0.17703703703703708],[0.07312500000000005,-0.16222222222222227],[0.07166666666666661,-0.1588888888888889],[0.0671875,-0.17370370370370372],[0.07583333333333328,-0.26500000000000007],[0.08624999999999995,-0.3224074074074075],[0.08624999999999995,-0.3224074074074075],[0.09937500000000009,-0.37648148148148153],[0.12218749999999995,-0.35851851851851857],[0.1428124999999999,-0.39166666666666666],[0.14812500000000003,-0.28722222222222227],[0.1622916666666666,-0.18425925925925926],[0.15885416666666666,-0.1853703703703704],[0.16395833333333343,-0.18592592592592588],[0.16395833333333343,-0.18592592592592588],[0.1765625,-0.21814814814814817],[0.1625,-0.12537037037037035],[0.1484375,-0.03259259259259263],[0.1484375,-0.03259259259259263],[0.12531249999999997,0.09296296296296305],[0.09281249999999991,0.17814814814814822],[0.0818749999999999,0.24166666666666667],[0.0818749999999999,0.24166666666666667],[0.06468750000000002,0.275],[0.04624999999999998,0.27259259259259266],[0.03135416666666669,0.2794444444444444],[0.03135416666666669,0.2794444444444444],[0.02687499999999995,0.33611111111111114],[-0.002708333333333357,0.4087037037037038],[-0.010104166666666714,0.3827777777777779],[-0.00302083333333331,0.3022222222222223],[-0.00302083333333331,0.3022222222222223],[-0.01583333333333338,0.24240740740740738],[-0.018333333333333358,0.16629629629629622],[-0.036145833333333384,0.14203703703703713],[-0.03895833333333331,0.08092592592592601],[-0.04572916666666664,0.07444444444444454],[-0.04031250000000005,0.09074074074074075],[-0.07447916666666667,0.05],[-0.08802083333333334,0.04314814814814806],[-0.05354166666666664,0.08537037037037042],[-0.021875,0.15185185185185185],[0.05593750000000005,0.147037037037037],[0.11208333333333324,0.1633333333333334],[0.16531250000000006,0.19092592592592597],[0.21364583333333323,0.2212962962962963],[0.25833333333333336,0.23425925925925925],[0.3134375000000001,0.21370370370370367],[0.38916666666666655,0.19981481481481478],[0.44427083333333334,0.1853703703703704],[0.4508333333333333,0.14000000000000004],[0.44500000000000006,0.10203703703703708],[0.44562499999999994,0.06703703703703712],[0.45760416666666665,0.027222222222222307],[0.4622916666666666,-0.006296296296296254],[0.4595833333333334,-0.028518518518518478],[0.4601041666666667,-0.025370370370370456],[0.4502083333333334,0.011296296296296339],[0.4144791666666668,-0.01962962962962967],[0.4144791666666668,-0.01962962962962967],[0.37947916666666665,-0.04759259259259268],[0.3696875000000001,-0.024629629629629547],[0.35031249999999997,-0.0020370370370370794],[0.35031249999999997,-0.0020370370370370794],[0.2929166666666667,-0.01962962962962967],[0.240625,0.0011111111111111532],[0.240625,0.0011111111111111532],[0.18041666666666673,-0.01574074074074074],[0.13052083333333328,-0.0544444444444444],[0.13052083333333328,-0.0544444444444444],[0.084375,-0.13537037037037042],[0.04541666666666669,-0.2]]","[[0.1564583333333334,0.2603703703703704,0.00020000004768405688],[0.1564583333333334,0.2603703703703704,0.041200000047680874],[0.15489583333333337,0.22981481481481486,0.0566000000238418],[0.14510416666666662,0.18574074074074065,0.07670000004767985],[0.13333333333333333,0.12185185185185177,0.09290000003576182],[0.13572916666666662,0.05722222222222218,0.10810000002383902],[0.14354166666666662,0.030740740740740784,0.12630000001191632],[0.14354166666666662,0.030740740740740784,0.13990000003575886],[0.13916666666666658,0.020555555555555598,0.15660000002383612],[0.1310416666666666,0.007777777777777862,0.17440000003576017],[0.13489583333333333,0.002962962962963005,0.18999999999999773],[0.14718749999999994,-0.02555555555555547,0.20810000002384044],[0.13760416666666658,-0.038703703703703664,0.22490000003575972],[0.1421875,-0.03166666666666671,0.24120000004768372],[0.15895833333333323,0.0011111111111111532,0.25790000003576097],[0.17770833333333325,0.053703703703703705,0.27530000001191723],[0.17770833333333325,0.053703703703703705,0.28990000003575744],[0.19572916666666676,0.10796296296296289,0.3064999999999998],[0.19572916666666676,0.10796296296296289,0.32320000004768445],[0.19833333333333342,0.09796296296296292,0.3399999999999963],[0.20166666666666658,0.09499999999999992,0.35890000003576006],[0.21520833333333325,0.10129629629629638,0.37590000003576307],[0.23093750000000005,0.12851851851851848,0.39160000002384265],[0.2537499999999999,0.14981481481481476,0.4077000000476829],[0.27197916666666655,0.19148148148148145,0.4256000000238416],[0.28875000000000006,0.21500000000000005,0.44060000002384214],[0.2947916666666667,0.21333333333333343,0.4567000000476824],[0.3006249999999999,0.22740740740740734,0.47320000004768303],[0.3021874999999999,0.22259259259259268,0.49330000001192076],[0.30979166666666674,0.30407407407407416,0.5082000000476796],[0.3211458333333333,0.325,0.5277000000476804],[0.3294791666666666,0.35037037037037044,0.5461000000238414],[0.3294791666666666,0.35037037037037044,0.5594999999999999],[0.29375,0.3479629629629629,0.573300000011919],[0.2421875,0.36148148148148157,0.5899999999999963],[0.1977083333333333,0.369074074074074,0.6064999999999969],[0.1474999999999999,0.3890740740740741,0.6232000000476816],[0.09729166666666676,0.40907407407407403,0.6406000000238379],[0.06333333333333328,0.42111111111111105,0.6564999999999941],[0.026979166666666644,0.431111111111111,0.6734000000357625],[0.026979166666666644,0.431111111111111,0.6931000000238399],[-0.002499999999999976,0.39148148148148143,0.7067000000476824],[-0.035416666666666666,0.42685185185185187,0.7234999999999943],[-0.035416666666666666,0.42685185185185187,0.7454000000357581],[-0.07239583333333334,0.4192592592592592,0.7567000000476796],[-0.051874999999999956,0.4485185185185186,0.7733000000119219],[-0.02687499999999995,0.44351851851851853,0.7929999999999993],[-0.014895833333333285,0.44611111111111107,0.8161000000238374],[-0.014895833333333285,0.44611111111111107,0.8249999999999957],[0.010000000000000024,0.46277777777777773,0.8399999999999963],[0.034895833333333334,0.4794444444444444,0.8586000000238414],[0.05385416666666672,0.48925925925925934,0.8734000000357582],[0.05385416666666672,0.48925925925925934,0.8900000000000006],[0.08020833333333334,0.5183333333333333,0.90980000001192],[0.09343750000000005,0.4992592592592593,0.9246000000238368],[0.1056250000000001,0.4587037037037038,0.9409000000357608],[0.1056250000000001,0.4587037037037038,0.9592000000476801],[0.14229166666666657,0.4235185185185186,0.9734000000357597],[0.16447916666666676,0.39296296296296307,0.9899999999999949],[0.19093749999999995,0.3866666666666666,1.0088000000119166],[0.19093749999999995,0.3866666666666666,1.0234000000357568],[0.21739583333333337,0.3464814814814815,1.0401000000238412],[0.2633333333333333,0.18055555555555555,1.0566000000238418],[0.30927083333333344,0.014629629629629588,1.0759000000357588],[0.30927083333333344,0.014629629629629588,1.0901000000238383],[0.3115624999999999,-0.04870370370370362,1.1069000000357576],[0.3321875000000001,-0.15703703703703706,1.1262000000476817],[0.3321875000000001,-0.15703703703703706,1.1404999999999959],[0.3558333333333332,-0.16925925925925922,1.1573000000119151],[0.36822916666666666,-0.18425925925925926,1.1737000000476812],[0.37000000000000005,-0.23648148148148146,1.1919000000357585],[0.3671875,-0.32018518518518513,1.2066000000238404],[0.36437499999999995,-0.4038888888888889,1.2233000000119176],[0.37822916666666656,-0.3851851851851852,1.242300000011916],[0.36124999999999996,-0.2874074074074074,1.2566000000238375],[0.34041666666666665,-0.2007407407407407,1.2734000000357568],[0.35750000000000004,-0.21148148148148146,1.2968000000119204],[0.35750000000000004,-0.21148148148148146,1.3068000000119184],[0.3549999999999999,-0.17814814814814814,1.323400000035761],[0.3549999999999999,-0.17814814814814814,1.3399000000357617],[0.3623958333333334,-0.2507407407407407,1.356499999999997],[0.36781249999999993,-0.27148148148148155,1.3732000000476816],[0.33572916666666663,-0.14240740740740737,1.3898000000119168],[0.29718749999999994,-0.01444444444444436,1.406499999999994],[0.22979166666666656,0.09462962962962967,1.4269999999999996],[0.22979166666666656,0.09462962962962967,1.4402000000476747],[0.23833333333333329,0.03333333333333333,1.4567000000476824],[0.24895833333333334,0.03888888888888889,1.4733000000119247],[0.25104166666666666,0.0985185185185186,1.493100000023837],[0.25104166666666666,0.0985185185185186,1.5067000000476796],[0.25802083333333337,0.0837037037037038,1.5234000000357568],[0.23250000000000004,0.12222222222222222,1.5436000000238366],[0.23427083333333343,0.15222222222222231,1.5585000000000022],[0.23427083333333343,0.15222222222222231,1.573300000011919],[0.24927083333333327,0.1331481481481481,1.5899999999999963],[0.2660416666666668,0.059999999999999956,1.609600000023839],[0.28458333333333335,-0.0001851851851852273,1.6254999999999953],[0.28458333333333335,-0.0001851851851852273,1.6402000000476775],[0.36614583333333334,-0.07962962962962963,1.6595000000000013],[0.3375,-0.004814814814814857,1.6749000000357555],[0.31239583333333343,0.04148148148148144,1.6914000000357632],[0.31239583333333343,0.04148148148148144,1.7064999999999984],[0.3125,-0.012222222222222264,1.7233000000119247],[0.30968749999999995,0.02296296296296292,1.7403000000119206],[0.33656249999999993,0.0235185185185186,1.7604000000357658],[0.2986458333333334,0.10259259259259255,1.7768000000119244],[0.24093749999999994,0.13777777777777775,1.793300000011918],[0.20572916666666666,0.14092592592592595,1.8082000000476839],[0.17145833333333324,0.18351851851851855,1.8262000000476846],[0.17145833333333324,0.18351851851851855,1.8402000000476804],[0.1273958333333333,0.19685185185185178,1.856700000047688],[0.11291666666666676,0.15333333333333324,1.8733000000119162],[0.06843750000000005,0.1301851851851851,1.8923000000119217],[0.03739583333333331,0.1257407407407407,1.9089000000357643],[0.008541666666666715,0.11222222222222226,1.9269999999999996],[-0.016250000000000025,0.08092592592592601,1.9464000000357586],[-0.016250000000000025,0.08092592592592601,1.9566000000238333],[-0.014895833333333285,0.07703703703703708,1.9736000000238434],[0.004479166666666619,0.08314814814814811,1.991499999999995],[0.02385416666666664,0.08925925925925934,2.009400000035761],[0.04125000000000002,0.002962962962963005,2.0246000000238453],[0.03312499999999995,-0.006296296296296254,2.044200000047688],[0.03312499999999995,-0.006296296296296254,2.0598000000119114],[0.03458333333333338,-0.08148148148148149,2.073300000011919],[0.06604166666666664,-0.17703703703703708,2.0899999999999963],[0.07312500000000005,-0.16222222222222227,2.106700000047688],[0.07166666666666661,-0.1588888888888889,2.1263000000119163],[0.0671875,-0.17370370370370372,2.142200000047687],[0.07583333333333328,-0.26500000000000007,2.1578000000119246],[0.08624999999999995,-0.3224074074074075,2.176900000035765],[0.08624999999999995,-0.3224074074074075,2.189800000011921],[0.09937500000000009,-0.37648148148148153,2.2064999999999984],[0.12218749999999995,-0.35851851851851857,2.223100000023841],[0.1428124999999999,-0.39166666666666666,2.2404000000357556],[0.14812500000000003,-0.28722222222222227,2.2599000000357634],[0.1622916666666666,-0.18425925925925926,2.274900000035764],[0.15885416666666666,-0.1853703703703704,2.291200000047688],[0.16395833333333343,-0.18592592592592588,2.3101000000238443],[0.16395833333333343,-0.18592592592592588,2.3232000000476845],[0.1765625,-0.21814814814814817,2.3399000000357617],[0.1625,-0.12537037037037035,2.356500000000004],[0.1484375,-0.03259259259259263,2.3731000000238325],[0.1484375,-0.03259259259259263,2.389900000035759],[0.12531249999999997,0.09296296296296305,2.406500000000001],[0.09281249999999991,0.17814814814814822,2.4232000000476788],[0.0818749999999999,0.24166666666666667,2.439900000035756],[0.0818749999999999,0.24166666666666667,2.4564999999999984],[0.06468750000000002,0.275,2.473100000023841],[0.04624999999999998,0.27259259259259266,2.4942000000476767],[0.03135416666666669,0.2794444444444444,2.510100000023833],[0.03135416666666669,0.2794444444444444,2.523300000011922],[0.02687499999999995,0.33611111111111114,2.539999999999999],[-0.002708333333333357,0.4087037037037038,2.5591000000238395],[-0.010104166666666714,0.3827777777777779,2.5738000000119214],[-0.00302083333333331,0.3022222222222223,2.593400000035764],[-0.00302083333333331,0.3022222222222223,2.606500000000004],[-0.01583333333333338,0.24240740740740738,2.6232000000476816],[-0.018333333333333358,0.16629629629629622,2.641900000035754],[-0.036145833333333384,0.14203703703703713,2.659100000023834],[-0.03895833333333331,0.08092592592592601,2.676499999999997],[-0.04572916666666664,0.07444444444444454,2.6911000000238445],[-0.04031250000000005,0.09074074074074075,2.7079000000357567],[-0.07447916666666667,0.05,2.726800000011913],[-0.08802083333333334,0.04314814814814806,2.743900000035758],[-0.05354166666666664,0.08537037037037042,2.760200000047682],[-0.021875,0.15185185185185185,2.775600000023836],[0.05593750000000005,0.147037037037037,2.7936000000238366],[0.11208333333333324,0.1633333333333334,2.8090000000000046],[0.16531250000000006,0.19092592592592597,2.8260000000000005],[0.21364583333333323,0.2212962962962963,2.842900000035762],[0.25833333333333336,0.23425925925925925,2.8590000000000018],[0.3134375000000001,0.21370370370370367,2.874400000035756],[0.38916666666666655,0.19981481481481478,2.889800000011924],[0.44427083333333334,0.1853703703703704,2.906500000000001],[0.4508333333333333,0.14000000000000004,2.9254999999999924],[0.44500000000000006,0.10203703703703708,2.9429999999999907],[0.44562499999999994,0.06703703703703712,2.9582000000476754],[0.45760416666666665,0.027222222222222307,2.973200000047676],[0.4622916666666666,-0.006296296296296254,2.9898000000119183],[0.4595833333333334,-0.028518518518518478,3.0069000000357633],[0.4601041666666667,-0.025370370370370456,3.0232000000476873],[0.4502083333333334,0.011296296296296339,3.0399000000357645],[0.4144791666666668,-0.01962962962962967,3.0564999999999927],[0.4144791666666668,-0.01962962962962967,3.0762000000476846],[0.37947916666666665,-0.04759259259259268,3.0899999999999963],[0.3696875000000001,-0.024629629629629547,3.106700000047688],[0.35031249999999997,-0.0020370370370370794,3.1272000000476865],[0.35031249999999997,-0.0020370370370370794,3.1401000000238426],[0.2929166666666667,-0.01962962962962967,3.1567000000476853],[0.240625,0.0011111111111111532,3.1796000000238465],[0.240625,0.0011111111111111532,3.189900000035756],[0.18041666666666673,-0.01574074074074074,3.206900000035766],[0.13052083333333328,-0.0544444444444444,3.224100000023846],[0.13052083333333328,-0.0544444444444444,3.243800000011923],[0.084375,-0.13537037037037042,3.2564999999999955],[0.04541666666666669,-0.2,3.2784000000357665]]","[0.00020000004768405688,0.041200000047680874,0.0566000000238418,0.07670000004767985,0.09290000003576182,0.10810000002383902,0.12630000001191632,0.13990000003575886,0.15660000002383612,0.17440000003576017,0.18999999999999773,0.20810000002384044,0.22490000003575972,0.24120000004768372,0.25790000003576097,0.27530000001191723,0.28990000003575744,0.3064999999999998,0.32320000004768445,0.3399999999999963,0.35890000003576006,0.37590000003576307,0.39160000002384265,0.4077000000476829,0.4256000000238416,0.44060000002384214,0.4567000000476824,0.47320000004768303,0.49330000001192076,0.5082000000476796,0.5277000000476804,0.5461000000238414,0.5594999999999999,0.573300000011919,0.5899999999999963,0.6064999999999969,0.6232000000476816,0.6406000000238379,0.6564999999999941,0.6734000000357625,0.6931000000238399,0.7067000000476824,0.7234999999999943,0.7454000000357581,0.7567000000476796,0.7733000000119219,0.7929999999999993,0.8161000000238374,0.8249999999999957,0.8399999999999963,0.8586000000238414,0.8734000000357582,0.8900000000000006,0.90980000001192,0.9246000000238368,0.9409000000357608,0.9592000000476801,0.9734000000357597,0.9899999999999949,1.0088000000119166,1.0234000000357568,1.0401000000238412,1.0566000000238418,1.0759000000357588,1.0901000000238383,1.1069000000357576,1.1262000000476817,1.1404999999999959,1.1573000000119151,1.1737000000476812,1.1919000000357585,1.2066000000238404,1.2233000000119176,1.242300000011916,1.2566000000238375,1.2734000000357568,1.2968000000119204,1.3068000000119184,1.323400000035761,1.3399000000357617,1.356499999999997,1.3732000000476816,1.3898000000119168,1.406499999999994,1.4269999999999996,1.4402000000476747,1.4567000000476824,1.4733000000119247,1.493100000023837,1.5067000000476796,1.5234000000357568,1.5436000000238366,1.5585000000000022,1.573300000011919,1.5899999999999963,1.609600000023839,1.6254999999999953,1.6402000000476775,1.6595000000000013,1.6749000000357555,1.6914000000357632,1.7064999999999984,1.7233000000119247,1.7403000000119206,1.7604000000357658,1.7768000000119244,1.793300000011918,1.8082000000476839,1.8262000000476846,1.8402000000476804,1.856700000047688,1.8733000000119162,1.8923000000119217,1.9089000000357643,1.9269999999999996,1.9464000000357586,1.9566000000238333,1.9736000000238434,1.991499999999995,2.009400000035761,2.0246000000238453,2.044200000047688,2.0598000000119114,2.073300000011919,2.0899999999999963,2.106700000047688,2.1263000000119163,2.142200000047687,2.1578000000119246,2.176900000035765,2.189800000011921,2.2064999999999984,2.223100000023841,2.2404000000357556,2.2599000000357634,2.274900000035764,2.291200000047688,2.3101000000238443,2.3232000000476845,2.3399000000357617,2.356500000000004,2.3731000000238325,2.389900000035759,2.406500000000001,2.4232000000476788,2.439900000035756,2.4564999999999984,2.473100000023841,2.4942000000476767,2.510100000023833,2.523300000011922,2.539999999999999,2.5591000000238395,2.5738000000119214,2.593400000035764,2.606500000000004,2.6232000000476816,2.641900000035754,2.659100000023834,2.676499999999997,2.6911000000238445,2.7079000000357567,2.726800000011913,2.743900000035758,2.760200000047682,2.775600000023836,2.7936000000238366,2.8090000000000046,2.8260000000000005,2.842900000035762,2.8590000000000018,2.874400000035756,2.889800000011924,2.906500000000001,2.9254999999999924,2.9429999999999907,2.9582000000476754,2.973200000047676,2.9898000000119183,3.0069000000357633,3.0232000000476873,3.0399000000357645,3.0564999999999927,3.0762000000476846,3.0899999999999963,3.106700000047688,3.1272000000476865,3.1401000000238426,3.1567000000476853,3.1796000000238465,3.189900000035756,3.206900000035766,3.224100000023846,3.243800000011923,3.2564999999999955,3.2784000000357665]","[1732872361701,1732872361735,1732872361751,1732872361771,1732872361787,1732872361802,1732872361820,1732872361834,1732872361851,1732872361868,1732872361884,1732872361902,1732872361919,1732872361935,1732872361952,1732872361969,1732872361984,1732872362001,1732872362017,1732872362034,1732872362053,1732872362070,1732872362086,1732872362102,1732872362119,1732872362135,1732872362151,1732872362167,1732872362187,1732872362202,1732872362222,1732872362240,1732872362253,1732872362267,1732872362284,1732872362300,1732872362317,1732872362335,1732872362350,1732872362367,1732872362387,1732872362401,1732872362417,1732872362439,1732872362451,1732872362467,1732872362487,1732872362510,1732872362519,1732872362534,1732872362553,1732872362567,1732872362584,1732872362604,1732872362619,1732872362635,1732872362653,1732872362667,1732872362684,1732872362703,1732872362717,1732872362734,1732872362751,1732872362770,1732872362784,1732872362801,1732872362820,1732872362834,1732872362851,1732872362868,1732872362886,1732872362901,1732872362917,1732872362936,1732872362951,1732872362967,1732872362991,1732872363001,1732872363017,1732872363034,1732872363051,1732872363067,1732872363084,1732872363100,1732872363121,1732872363134,1732872363151,1732872363167,1732872363187,1732872363201,1732872363217,1732872363238,1732872363252,1732872363267,1732872363284,1732872363304,1732872363319,1732872363334,1732872363353,1732872363369,1732872363385,1732872363400,1732872363417,1732872363434,1732872363454,1732872363471,1732872363487,1732872363502,1732872363520,1732872363534,1732872363551,1732872363567,1732872363586,1732872363603,1732872363621,1732872363640,1732872363651,1732872363668,1732872363685,1732872363703,1732872363719,1732872363738,1732872363754,1732872363767,1732872363784,1732872363801,1732872363820,1732872363836,1732872363852,1732872363871,1732872363884,1732872363900,1732872363917,1732872363934,1732872363954,1732872363969,1732872363985,1732872364004,1732872364017,1732872364034,1732872364050,1732872364067,1732872364084,1732872364100,1732872364117,1732872364134,1732872364150,1732872364167,1732872364188,1732872364204,1732872364217,1732872364234,1732872364253,1732872364268,1732872364287,1732872364301,1732872364317,1732872364336,1732872364353,1732872364370,1732872364385,1732872364402,1732872364421,1732872364438,1732872364454,1732872364470,1732872364488,1732872364503,1732872364520,1732872364537,1732872364553,1732872364568,1732872364584,1732872364600,1732872364619,1732872364637,1732872364652,1732872364667,1732872364684,1732872364701,1732872364717,1732872364734,1732872364750,1732872364770,1732872364784,1732872364801,1732872364821,1732872364834,1732872364851,1732872364874,1732872364884,1732872364901,1732872364918,1732872364938,1732872364950,1732872364972]","[[1110.2,680.6],[1110.2,680.6],[1108.7,664.1],[1099.3,640.3],[1088,605.8],[1090.3,570.9],[1097.8,556.6],[1097.8,556.6],[1093.6,551.1],[1085.8,544.2],[1089.5,541.6],[1101.3,526.2],[1092.1,519.1],[1096.5,522.9],[1112.6,540.6],[1130.6,569],[1130.6,569],[1147.9,598.3],[1147.9,598.3],[1150.4,592.9],[1153.6,591.3],[1166.6,594.7],[1181.7,609.4],[1203.6,620.9],[1221.1,643.4],[1237.2,656.1],[1243,655.2],[1248.6,662.8],[1250.1,660.2],[1257.4,704.2],[1268.3,715.5],[1276.3,729.2],[1276.3,729.2],[1242,727.9],[1192.5,735.2],[1149.8,739.3],[1101.6,750.1],[1053.4,760.9],[1020.8,767.4],[985.9,772.8],[985.9,772.8],[957.6,751.4],[926,770.5],[926,770.5],[890.5,766.4],[910.2,782.2],[934.2,779.5],[945.7,780.9],[945.7,780.9],[969.6,789.9],[993.5,798.9],[1011.7,804.2],[1011.7,804.2],[1037,819.9],[1049.7,809.6],[1061.4,787.7],[1061.4,787.7],[1096.6,768.7],[1117.9,752.2],[1143.3,748.8],[1143.3,748.8],[1168.7,727.1],[1212.8,637.5],[1256.9,547.9],[1256.9,547.9],[1259.1,513.7],[1278.9,455.2],[1278.9,455.2],[1301.6,448.6],[1313.5,440.5],[1315.2,412.3],[1312.5,367.1],[1309.8,321.9],[1323.1,332],[1306.8,384.8],[1286.8,431.6],[1303.2,425.8],[1303.2,425.8],[1300.8,443.8],[1300.8,443.8],[1307.9,404.6],[1313.1,393.4],[1282.3,463.1],[1245.3,532.2],[1180.6,591.1],[1180.6,591.1],[1188.8,558],[1199,561],[1201,593.2],[1201,593.2],[1207.7,585.2],[1183.2,606],[1184.9,622.2],[1184.9,622.2],[1199.3,611.9],[1215.4,572.4],[1233.2,539.9],[1233.2,539.9],[1311.5,497],[1284,537.4],[1259.9,562.4],[1259.9,562.4],[1260,533.4],[1257.3,552.4],[1283.1,552.7],[1246.7,595.4],[1191.3,614.4],[1157.5,616.1],[1124.6,639.1],[1124.6,639.1],[1082.3,646.3],[1068.4,622.8],[1025.7,610.3],[995.9,607.9],[968.2,600.6],[944.4,583.7],[944.4,583.7],[945.7,581.6],[964.3,584.9],[982.9,588.2],[999.6,541.6],[991.8,536.6],[991.8,536.6],[993.2,496],[1023.4,444.4],[1030.2,452.4],[1028.8,454.2],[1024.5,446.2],[1032.8,396.9],[1042.8,365.9],[1042.8,365.9],[1055.4,336.7],[1077.3,346.4],[1097.1,328.5],[1102.2,384.9],[1115.8,440.5],[1112.5,439.9],[1117.4,439.6],[1117.4,439.6],[1129.5,422.2],[1116,472.3],[1102.5,522.4],[1102.5,522.4],[1080.3,590.2],[1049.1,636.2],[1038.6,670.5],[1038.6,670.5],[1022.1,688.5],[1004.4,687.2],[990.1,690.9],[990.1,690.9],[985.8,721.5],[957.4,760.7],[950.3,746.7],[957.1,703.2],[957.1,703.2],[944.8,670.9],[942.4,629.8],[925.3,616.7],[922.6,583.7],[916.1,580.2],[921.3,589],[888.5,567],[875.5,563.3],[908.6,586.1],[939,622],[1013.7,619.4],[1067.6,628.2],[1118.7,643.1],[1165.1,659.5],[1208,666.5],[1260.9,655.4],[1333.6,647.9],[1386.5,640.1],[1392.8,615.6],[1387.2,595.1],[1387.8,576.2],[1399.3,554.7],[1403.8,536.6],[1401.2,524.6],[1401.7,526.3],[1392.2,546.1],[1357.9,529.4],[1357.9,529.4],[1324.3,514.3],[1314.9,526.7],[1296.3,538.9],[1296.3,538.9],[1241.2,529.4],[1191,540.6],[1191,540.6],[1133.2,531.5],[1085.3,510.6],[1085.3,510.6],[1041,466.9],[1003.6,432]]","[0,0.37864299999999995]","[0.37864299999999995,0.37864299999999995]","[-0.37864299999999995,0]","[-0.37864299999999995,-0.37864299999999995]","[0,0]","[0.37864299999999995,0]","[0,-0.37864299999999995]","[0.37864299999999995,-0.37864299999999995]",0,0,0,0,1,3,Laptop,11,9,9,1
,,,,,,,,,,,,,,,,,,,,10,001,2024-11-29_17h25.09.649,Attention_exp_legacy,2023.1.0,Win32,59.88023952,,,,,,,,,,[-0.011458333333333333],[0.39444444444444443],[1],[0],[0],[3.5796999999880583],"[""Option1_label""]",Option1_label,2,4.5841,"[[0.05625,0.4],[0.05625,0.4],[0.05625,0.4],[0.05625,0.4],[0.05625,0.4],[0.05625,0.4],[0.05625,0.4],[0.05625,0.4],[0.05625,0.4],[0.05625,0.4],[0.05625,0.4],[0.05625,0.4],[0.05625,0.4],[0.05625,0.4],[0.05625,0.4],[0.05625,0.4],[0.05625,0.4],[0.05625,0.4],[0.05625,0.4],[0.05625,0.4],[0.05625,0.4],[0.05625,0.4],[0.05625,0.4],[0.05625,0.4],[0.05625,0.4],[0.05625,0.4],[0.05625,0.4],[0.05625,0.4],[0.05625,0.4],[0.05625,0.4],[0.05625,0.4],[0.05625,0.4],[0.05625,0.4],[0.05625,0.3962962962962963],[0.05,0.37037037037037035],[0.040625,0.3351851851851852],[0.03125,0.29444444444444445],[0.025,0.25555555555555554],[0.020833333333333332,0.22407407407407406],[0.019791666666666666,0.20185185185185187],[0.01875,0.17962962962962964],[0.01875,0.16296296296296298],[0.01875,0.15],[0.01875,0.1388888888888889],[0.01875,0.12777777777777777],[0.01875,0.12037037037037036],[0.01875,0.1111111111111111],[0.01875,0.09814814814814815],[0.021875,0.08888888888888889],[0.021875,0.07777777777777778],[0.030208333333333334,0.05185185185185185],[0.042708333333333334,0.020370370370370372],[0.06666666666666667,-0.024074074074074074],[0.08645833333333333,-0.05185185185185185],[0.109375,-0.07962962962962963],[0.13125,-0.10185185185185185],[0.14895833333333333,-0.12407407407407407],[0.16979166666666667,-0.14444444444444443],[0.18854166666666666,-0.1574074074074074],[0.21354166666666666,-0.17407407407407408],[0.23020833333333332,-0.1814814814814815],[0.25104166666666666,-0.18518518518518517],[0.2760416666666667,-0.19074074074074074],[0.2875,-0.19444444444444445],[0.296875,-0.1962962962962963],[0.3104166666666667,-0.20185185185185187],[0.321875,-0.2037037037037037],[0.33229166666666665,-0.20555555555555555],[0.33958333333333335,-0.2074074074074074],[0.3458333333333333,-0.20925925925925926],[0.35,-0.2111111111111111],[0.35104166666666664,-0.2111111111111111],[0.35104166666666664,-0.2111111111111111],[0.35104166666666664,-0.2111111111111111],[0.35104166666666664,-0.2111111111111111],[0.35104166666666664,-0.2111111111111111],[0.35104166666666664,-0.2111111111111111],[0.35104166666666664,-0.2111111111111111],[0.35104166666666664,-0.2111111111111111],[0.35104166666666664,-0.2111111111111111],[0.35104166666666664,-0.2111111111111111],[0.35104166666666664,-0.2111111111111111],[0.35104166666666664,-0.2111111111111111],[0.35104166666666664,-0.2111111111111111],[0.35104166666666664,-0.2111111111111111],[0.35104166666666664,-0.2111111111111111],[0.35104166666666664,-0.2111111111111111],[0.35104166666666664,-0.2111111111111111],[0.35104166666666664,-0.2111111111111111],[0.35104166666666664,-0.2111111111111111],[0.35104166666666664,-0.2111111111111111],[0.35104166666666664,-0.2111111111111111],[0.35104166666666664,-0.2111111111111111],[0.35104166666666664,-0.2111111111111111],[0.346875,-0.2111111111111111],[0.3302083333333333,-0.20925925925925926],[0.29270833333333335,-0.20185185185185187],[0.21875,-0.17962962962962964],[0.10625,-0.14629629629629629],[0.07291666666666667,-0.13148148148148148],[0.0125,-0.1],[-0.007291666666666667,-0.09074074074074075],[-0.014583333333333334,-0.08518518518518518],[-0.015625,-0.08333333333333333],[-0.015625,-0.08333333333333333],[-0.015625,-0.08333333333333333],[-0.015625,-0.08333333333333333],[-0.015625,-0.08333333333333333],[-0.015625,-0.08333333333333333],[-0.015625,-0.08333333333333333],[-0.015625,-0.08333333333333333],[-0.016666666666666666,-0.08888888888888889],[-0.023958333333333335,-0.14074074074074075],[-0.03125,-0.1814814814814815],[-0.036458333333333336,-0.2222222222222222],[-0.041666666666666664,-0.2518518518518518],[-0.04375,-0.2777777777777778],[-0.04791666666666667,-0.29444444444444445],[-0.04895833333333333,-0.30185185185185187],[-0.05,-0.30925925925925923],[-0.051041666666666666,-0.30925925925925923],[-0.051041666666666666,-0.30925925925925923],[-0.051041666666666666,-0.30925925925925923],[-0.051041666666666666,-0.30925925925925923],[-0.051041666666666666,-0.30925925925925923],[-0.051041666666666666,-0.30925925925925923],[-0.051041666666666666,-0.30925925925925923],[-0.04791666666666667,-0.3148148148148148],[-0.035416666666666666,-0.32222222222222224],[-0.010416666666666666,-0.3333333333333333],[0.025,-0.3425925925925926],[0.084375,-0.3574074074074074],[0.13854166666666667,-0.37222222222222223],[0.19270833333333334,-0.3851851851851852],[0.221875,-0.3925925925925926],[0.24479166666666666,-0.39814814814814814],[0.25,-0.4],[0.25104166666666666,-0.4],[0.25104166666666666,-0.4],[0.25104166666666666,-0.4],[0.2520833333333333,-0.4],[0.2520833333333333,-0.4],[0.253125,-0.4],[0.253125,-0.4],[0.253125,-0.4],[0.253125,-0.4],[0.253125,-0.4],[0.253125,-0.4],[0.253125,-0.4],[0.253125,-0.4],[0.253125,-0.4],[0.253125,-0.4],[0.253125,-0.4],[0.253125,-0.4],[0.253125,-0.4],[0.253125,-0.4],[0.253125,-0.4],[0.253125,-0.4],[0.253125,-0.4],[0.253125,-0.4],[0.253125,-0.4],[0.253125,-0.4],[0.253125,-0.4],[0.253125,-0.4],[0.253125,-0.4],[0.253125,-0.4],[0.25625,-0.3888888888888889],[0.2604166666666667,-0.3611111111111111],[0.26666666666666666,-0.3148148148148148],[0.26979166666666665,-0.26296296296296295],[0.2833333333333333,-0.1648148148148148],[0.28541666666666665,-0.14074074074074075],[0.2916666666666667,-0.08148148148148149],[0.29375,-0.06666666666666667],[0.29375,-0.05925925925925926],[0.29375,-0.05555555555555555],[0.29375,-0.053703703703703705],[0.29375,-0.053703703703703705],[0.29375,-0.053703703703703705],[0.29375,-0.053703703703703705],[0.29375,-0.053703703703703705],[0.29375,-0.05185185185185185],[0.29375,-0.044444444444444446],[0.26666666666666666,-0.011111111111111112],[0.14583333333333334,0.16111111111111112],[0.06979166666666667,0.28703703703703703],[0.017708333333333333,0.38333333333333336],[-0.011458333333333333,0.45],[-0.025,0.48703703703703705],[-0.027083333333333334,0.5074074074074074],[-0.027083333333333334,0.524074074074074],[-0.027083333333333334,0.5333333333333333],[-0.023958333333333335,0.5425925925925926],[-0.021875,0.5462962962962963],[-0.020833333333333332,0.55],[-0.020833333333333332,0.55],[-0.019791666666666666,0.5518518518518518],[-0.01875,0.5518518518518518],[-0.01875,0.5518518518518518],[-0.01875,0.5518518518518518],[-0.01875,0.5518518518518518],[-0.015625,0.5518518518518518],[-0.014583333333333334,0.5425925925925926],[-0.0125,0.5277777777777778],[-0.011458333333333333,0.5018518518518519],[-0.011458333333333333,0.4703703703703704],[-0.011458333333333333,0.4222222222222222],[-0.011458333333333333,0.4111111111111111],[-0.011458333333333333,0.3962962962962963],[-0.011458333333333333,0.3962962962962963],[-0.011458333333333333,0.3962962962962963],[-0.011458333333333333,0.39444444444444443],[-0.011458333333333333,0.39444444444444443],[-0.011458333333333333,0.39444444444444443],[-0.011458333333333333,0.39444444444444443],[-0.011458333333333333,0.39444444444444443],[-0.011458333333333333,0.39444444444444443],[-0.011458333333333333,0.39444444444444443],[-0.011458333333333333,0.39444444444444443],[-0.011458333333333333,0.39444444444444443],[-0.011458333333333333,0.39444444444444443],[-0.011458333333333333,0.39444444444444443],[-0.011458333333333333,0.39444444444444443],[-0.011458333333333333,0.39444444444444443],[-0.011458333333333333,0.39444444444444443],[-0.011458333333333333,0.39444444444444443],[-0.011458333333333333,0.39444444444444443],[-0.011458333333333333,0.39444444444444443],[-0.011458333333333333,0.39444444444444443],[-0.011458333333333333,0.39444444444444443],[0.015625,0.35185185185185186],[0.034375,0.32222222222222224],[0.09791666666666667,0.19074074074074074],[0.16666666666666666,0.06296296296296296],[0.24479166666666666,-0.07407407407407407],[0.3104166666666667,-0.19074074074074074],[0.359375,-0.2777777777777778],[0.38333333333333336,-0.3277777777777778],[0.39791666666666664,-0.3592592592592593],[0.40625,-0.38333333333333336],[0.41041666666666665,-0.3907407407407407],[0.4114583333333333,-0.39444444444444443],[0.4114583333333333,-0.39444444444444443],[0.4114583333333333,-0.39444444444444443],[0.4114583333333333,-0.39444444444444443],[0.4114583333333333,-0.39444444444444443],[0.4114583333333333,-0.39444444444444443],[0.4114583333333333,-0.39444444444444443],[0.4114583333333333,-0.39444444444444443],[0.4114583333333333,-0.39444444444444443],[0.4114583333333333,-0.39444444444444443],[0.4114583333333333,-0.39444444444444443],[0.4114583333333333,-0.39444444444444443],[0.4114583333333333,-0.39444444444444443],[0.4114583333333333,-0.39444444444444443],[0.4114583333333333,-0.39444444444444443],[0.4114583333333333,-0.39444444444444443],[0.4114583333333333,-0.39444444444444443],[0.4114583333333333,-0.39444444444444443],[0.4114583333333333,-0.39444444444444443],[0.4114583333333333,-0.39444444444444443],[0.4114583333333333,-0.39444444444444443],[0.4114583333333333,-0.39444444444444443],[0.4114583333333333,-0.39444444444444443],[0.4114583333333333,-0.39444444444444443],[0.4114583333333333,-0.39444444444444443],[0.4114583333333333,-0.39444444444444443],[0.4114583333333333,-0.39444444444444443],[0.4114583333333333,-0.39444444444444443],[0.4114583333333333,-0.39444444444444443],[0.4114583333333333,-0.39444444444444443],[0.4114583333333333,-0.39444444444444443],[0.4114583333333333,-0.39444444444444443],[0.4114583333333333,-0.39444444444444443],[0.4114583333333333,-0.39444444444444443],[0.4114583333333333,-0.39444444444444443]]","[[0.0067708333333333336,-0.2722222222222222],[0.0067708333333333336,-0.2722222222222222],[0.028854166666666715,-0.3274074074074074],[0.019583333333333286,-0.3344444444444445],[0.0109375,-0.38629629629629636],[0.0007291666666667141,-0.4381481481481482],[-0.0009374999999999763,-0.43333333333333335],[-0.0026041666666666665,-0.42851851851851847],[-0.02020833333333331,-0.45555555555555555],[-0.02020833333333331,-0.45555555555555555],[-0.03687499999999998,-0.48037037037037034],[-0.03302083333333338,-0.4662962962962963],[-0.02322916666666662,-0.45129629629629625],[-0.017812500000000023,-0.40370370370370373],[0.0034374999999999527,-0.37833333333333335],[0.021354166666666667,-0.3425925925925926],[0.043333333333333356,-0.30629629629629623],[0.05677083333333333,-0.267037037037037],[0.05677083333333333,-0.267037037037037],[0.06124999999999995,-0.255],[0.065625,-0.24314814814814817],[0.07322916666666662,-0.22444444444444442],[0.05791666666666669,-0.22370370370370374],[0.03083333333333336,-0.2022222222222222],[0.008437500000000023,-0.20722222222222217],[-0.025833333333333285,-0.2],[-0.06739583333333338,-0.21277777777777773],[-0.11145833333333334,-0.22611111111111115],[-0.1547916666666667,-0.18592592592592588],[-0.18916666666666668,-0.11851851851851852],[-0.20572916666666666,-0.07555555555555557],[-0.24104166666666665,-0.06333333333333331],[-0.25281250000000005,-0.03314814814814811],[-0.28239583333333335,-0.01962962962962967],[-0.28239583333333335,-0.01962962962962967],[-0.2985416666666667,-0.04333333333333329],[-0.2773958333333333,-0.04796296296296292],[-0.23885416666666662,-0.03462962962962971],[-0.23885416666666662,-0.03462962962962971],[-0.19729166666666664,-0.02388888888888885],[-0.15010416666666668,-0.06833333333333329],[-0.1172916666666667,-0.11388888888888889],[-0.06749999999999995,-0.17166666666666663],[0.001145833333333357,-0.17259259259259258],[0.029791666666666692,-0.22092592592592594],[0.029791666666666692,-0.22092592592592594],[0.07625000000000005,-0.25259259259259254],[0.1009375000000001,-0.25333333333333335],[0.11843750000000004,-0.29962962962962963],[0.1258333333333333,-0.34388888888888886],[0.1258333333333333,-0.34388888888888886],[0.1252083333333334,-0.35240740740740745],[0.11749999999999995,-0.3351851851851852],[0.12447916666666667,-0.3274074074074074],[0.1015625,-0.2975925925925926],[0.1015625,-0.2975925925925926],[0.07635416666666663,-0.27870370370370373],[0.06541666666666662,-0.2574074074074074],[0.06541666666666662,-0.2574074074074074],[0.07000000000000005,-0.22999999999999998],[0.07000000000000005,-0.22999999999999998],[0.06020833333333329,-0.22777777777777777],[0.06020833333333329,-0.22777777777777777],[0.0787499999999999,-0.18277777777777776],[0.0978125000000001,-0.10796296296296298],[0.121875,-0.06629629629629631],[0.13072916666666667,-0.07611111111111116],[0.1490624999999999,-0.08796296296296297],[0.18791666666666676,-0.03185185185185194],[0.21552083333333344,-0.01648148148148144],[0.2529166666666666,0.03611111111111111],[0.25416666666666665,0.06703703703703712],[0.2868750000000001,0.15314814814814823],[0.2695833333333333,0.202962962962963],[0.2556250000000001,0.22870370370370371],[0.23864583333333325,0.25462962962962965],[0.23875000000000005,0.305925925925926],[0.22260416666666671,0.3638888888888889],[0.20322916666666657,0.3696296296296297],[0.1931250000000001,0.3918518518518519],[0.184375,0.40018518518518525],[0.19635416666666666,0.42962962962962964],[0.19927083333333329,0.4292592592592592],[0.19927083333333329,0.4292592592592592],[0.20208333333333334,0.4457407407407408],[0.15895833333333323,0.418888888888889],[0.12135416666666667,0.38870370370370366],[0.09135416666666671,0.3668518518518519],[0.06541666666666662,0.3461111111111111],[0.03343750000000002,0.32518518518518524],[-0.00010416666666669035,0.31055555555555564],[-0.034687499999999954,0.2737037037037036],[-0.059791666666666646,0.2485185185185186],[-0.08489583333333334,0.22333333333333338],[-0.10729166666666666,0.19944444444444454],[-0.10729166666666666,0.19944444444444454],[-0.04895833333333333,0.2037037037037037],[-0.0296875,0.2192592592592592],[-0.014791666666666713,0.2074074074074074],[-0.014791666666666713,0.2074074074074074],[0.002499999999999976,0.20037037037037045],[0.02322916666666662,0.17962962962962964],[0.04541666666666669,0.1648148148148148],[0.06864583333333343,0.17222222222222222],[0.06864583333333343,0.17222222222222222],[0.04916666666666671,0.18870370370370365],[0.0296875,0.2051851851851851],[-0.0017708333333333807,0.2433333333333333],[-0.06531250000000005,0.26907407407407397],[-0.1,0.334074074074074],[-0.1390625,0.42018518518518516],[-0.153125,0.4722222222222222],[-0.153125,0.4722222222222222],[-0.15968749999999995,0.4988888888888888],[-0.1469791666666667,0.5214814814814815],[-0.1342708333333333,0.544074074074074],[-0.1342708333333333,0.544074074074074],[-0.10322916666666669,0.5724074074074075],[-0.0811458333333333,0.6275925925925926],[-0.044062499999999956,0.5462962962962963],[-0.044062499999999956,0.5462962962962963],[-0.0171875,0.5592592592592592],[0.03218749999999997,0.5133333333333334],[0.06468750000000002,0.43148148148148147],[0.07458333333333324,0.3925925925925926],[0.0696875000000001,0.41500000000000004],[0.057500000000000044,0.3864814814814816],[0.033645833333333285,0.39166666666666666],[0.033645833333333285,0.39166666666666666],[0.013645833333333357,0.3683333333333333],[0.021562500000000047,0.31962962962962965],[0.013541666666666667,0.3907407407407407],[0.013541666666666667,0.3907407407407407],[0.01416666666666669,0.3801851851851851],[-0.008645833333333287,0.39388888888888896],[-0.015312500000000047,0.4324074074074074],[-0.017916666666666713,0.44962962962962955],[-0.0234375,0.4377777777777777],[-0.011979166666666667,0.48092592592592603],[-0.011979166666666667,0.48092592592592603],[0.00916666666666662,0.4925925925925926],[0.07447916666666667,0.4514814814814814],[0.10645833333333338,0.36666666666666664],[0.1382291666666667,0.3479629629629629],[0.1382291666666667,0.3479629629629629],[0.1709374999999999,0.3594444444444445],[0.19697916666666657,0.35759259259259263],[0.22374999999999995,0.3668518518518519],[0.2599999999999999,0.38851851851851843],[0.29625000000000007,0.4101851851851852],[0.3098958333333333,0.39962962962962956],[0.33833333333333326,0.3798148148148149],[0.33833333333333326,0.3798148148148149],[0.33354166666666674,0.40925925925925927],[0.35208333333333336,0.48407407407407405],[0.3733333333333334,0.47314814814814815],[0.38864583333333325,0.4412962962962962],[0.40437500000000004,0.4177777777777778],[0.40593750000000006,0.35759259259259263],[0.40499999999999997,0.3198148148148149],[0.39718749999999997,0.2942592592592592],[0.3877083333333334,0.2801851851851851],[0.3544791666666666,0.23925925925925934],[0.29812500000000003,0.19018518518518526],[0.23729166666666662,0.14944444444444452],[0.19104166666666675,0.06500000000000004],[0.15281250000000005,0.007407407407407408],[0.1466666666666666,0.009444444444444486],[0.13635416666666675,0.03333333333333333],[0.11260416666666657,0.03481481481481473],[0.10104166666666667,0.07018518518518514],[0.08489583333333334,0.11407407407407412],[0.103125,0.15333333333333324],[0.14833333333333343,0.23592592592592587],[0.17895833333333327,0.22611111111111115],[0.17895833333333327,0.22611111111111115],[0.20802083333333338,0.28703703703703703],[0.2484375,0.3427777777777778],[0.26437499999999997,0.3375925925925925],[0.28489583333333335,0.3638888888888889],[0.29791666666666666,0.37777777777777777],[0.3038541666666667,0.3346296296296297],[0.3038541666666667,0.3346296296296297],[0.3069791666666667,0.2933333333333333],[0.27468750000000003,0.26777777777777784],[0.25104166666666666,0.2301851851851851],[0.24385416666666657,0.2716666666666668],[0.24802083333333325,0.3050000000000001],[0.221875,0.30388888888888893],[0.221875,0.30388888888888893],[0.1990624999999999,0.2662962962962962],[0.21729166666666658,0.19240740740740736],[0.23052083333333329,0.1425925925925926],[0.24552083333333338,0.1037037037037037],[0.22927083333333323,0.01185185185185181],[0.225,-0.04277777777777782],[0.2171875,-0.11203703703703703],[0.2171875,-0.11203703703703703],[0.19270833333333334,-0.19444444444444445],[0.15458333333333343,-0.32592592592592595],[0.1521874999999999,-0.3881481481481482],[0.15989583333333332,-0.42000000000000004],[0.15989583333333332,-0.42000000000000004],[0.11052083333333323,-0.4609259259259259],[0.07364583333333338,-0.5135185185185185],[0.029270833333333357,-0.580925925925926],[0.022500000000000023,-0.5844444444444444],[0.021041666666666715,-0.5822222222222222],[0.017708333333333333,-0.6318518518518518],[0.028645833333333332,-0.6140740740740741],[0.041666666666666664,-0.5755555555555556],[0.029895833333333382,-0.5935185185185186],[-0.007291666666666667,-0.5898148148148148],[-0.014687500000000023,-0.5574074074074075],[-0.005104166666666643,-0.5496296296296297],[-0.0007291666666667141,-0.4898148148148148],[0.0014583333333333095,-0.4583333333333333],[-0.0016666666666666904,-0.447037037037037],[-0.002499999999999976,-0.362962962962963],[-0.007291666666666667,-0.33129629629629626],[-0.009791666666666643,-0.32314814814814813],[0.002916666666666619,-0.29148148148148145],[0.002916666666666619,-0.29148148148148145],[0.03677083333333329,-0.2655555555555555],[0.07062499999999995,-0.23962962962962958],[0.0890625,-0.15555555555555556],[0.125,-0.1242592592592593],[0.16041666666666668,-0.12037037037037036],[0.18645833333333334,-0.09518518518518514],[0.203125,-0.09944444444444442],[0.21729166666666658,-0.13944444444444445],[0.21729166666666658,-0.13944444444444445],[0.23052083333333329,-0.15685185185185183],[0.22000000000000006,-0.18407407407407403],[0.22000000000000006,-0.18407407407407403],[0.20625,-0.22888888888888892],[0.21197916666666666,-0.22333333333333338],[0.21614583333333334,-0.2512962962962963],[0.21614583333333334,-0.2512962962962963],[0.23125,-0.2959259259259259],[0.23125,-0.2959259259259259],[0.23302083333333337,-0.2566666666666667],[0.23302083333333337,-0.2566666666666667],[0.21593749999999995,-0.28129629629629627],[0.20104166666666667,-0.3059259259259259],[0.2055208333333333,-0.2588888888888889],[0.18083333333333323,-0.26222222222222225],[0.19333333333333325,-0.25259259259259254],[0.20833333333333334,-0.23555555555555555],[0.19729166666666675,-0.2959259259259259],[0.18802083333333333,-0.33185185185185184],[0.14968750000000006,-0.30703703703703705],[0.12385416666666677,-0.32314814814814813],[0.13354166666666673,-0.23074074074074077],[0.11395833333333343,-0.22388888888888886],[0.11395833333333343,-0.22388888888888886],[0.10489583333333338,-0.2640740740740741],[0.1196875000000001,-0.23129629629629625],[0.08322916666666676,-0.25759259259259265],[0.05375000000000003,-0.28592592592592586],[0.03583333333333331,-0.2507407407407407],[0.016145833333333335,-0.24000000000000005],[-0.0046875,-0.2807407407407408],[-0.025520833333333333,-0.32148148148148153],[-0.028645833333333332,-0.3881481481481482],[-0.0046875,-0.36925925925925923],[-0.04864583333333338,-0.3455555555555556],[-0.04864583333333338,-0.3455555555555556],[-0.08812500000000002,-0.3266666666666666],[-0.10249999999999998,-0.259074074074074],[-0.11447916666666665,-0.15499999999999997],[-0.11447916666666665,-0.15499999999999997],[-0.13145833333333337,-0.08740740740740739],[-0.1516666666666667,-0.030000000000000086],[-0.15739583333333335,0.050370370370370454],[-0.15750000000000006,0.11648148148148144]]","[[0.0067708333333333336,-0.2722222222222222,0.0003000000119186552],[0.0067708333333333336,-0.2722222222222222,0.014800000011916836],[0.028854166666666715,-0.3274074074074074,0.03149999999999409],[0.019583333333333286,-0.3344444444444445,0.04949999999999477],[0.0109375,-0.38629629629629636,0.06460000002383026],[0.0007291666666667141,-0.4381481481481482,0.08430000001190763],[-0.0009374999999999763,-0.43333333333333335,0.09830000001191763],[-0.0026041666666666665,-0.42851851851851847,0.11469999998807623],[-0.02020833333333331,-0.45555555555555555,0.13130000001191888],[-0.02020833333333331,-0.45555555555555555,0.1483000000119148],[-0.03687499999999998,-0.48037037037037034,0.1646999999880734],[-0.03302083333333338,-0.4662962962962963,0.18140000003575096],[-0.02322916666666662,-0.45129629629629625,0.1979999999999933],[-0.017812500000000023,-0.40370370370370373,0.2178000000119198],[0.0034374999999999527,-0.37833333333333335,0.23140000003576233],[0.021354166666666667,-0.3425925925925926,0.24810000002383958],[0.043333333333333356,-0.30629629629629623,0.2646999999880677],[0.05677083333333333,-0.267037037037037,0.28690000003575733],[0.05677083333333333,-0.267037037037037,0.297900000035753],[0.06124999999999995,-0.255,0.31469999998807907],[0.065625,-0.24314814814814817,0.33140000003575665],[0.07322916666666662,-0.22444444444444442,0.3499999999999943],[0.05791666666666669,-0.22370370370370374,0.367400000035758],[0.03083333333333336,-0.2022222222222222,0.3813000000119189],[0.008437500000000023,-0.20722222222222217,0.39799999999999613],[-0.025833333333333285,-0.2,0.4146999999880734],[-0.06739583333333338,-0.21277777777777773,0.43130000001191604],[-0.11145833333333334,-0.22611111111111115,0.4481000000238424],[-0.1547916666666667,-0.18592592592592588,0.4649000000357546],[-0.18916666666666668,-0.11851851851851852,0.4838000000119109],[-0.20572916666666666,-0.07555555555555557,0.5001999999880695],[-0.24104166666666665,-0.06333333333333331,0.5146000000238331],[-0.25281250000000005,-0.03314814814814811,0.5313000000119104],[-0.28239583333333335,-0.01962962962962967,0.5529000000357627],[-0.28239583333333335,-0.01962962962962967,0.564800000011914],[-0.2985416666666667,-0.04333333333333329,0.5814999999999912],[-0.2773958333333333,-0.04796296296296292,0.5981000000238339],[-0.23885416666666662,-0.03462962962962971,0.6199000000357557],[-0.23885416666666662,-0.03462962962962971,0.6314000000357538],[-0.19729166666666664,-0.02388888888888885,0.6484000000357497],[-0.15010416666666668,-0.06833333333333329,0.6683000000119108],[-0.1172916666666667,-0.11388888888888889,0.6849000000357535],[-0.06749999999999995,-0.17166666666666663,0.7021999999880677],[0.001145833333333357,-0.17259259259259258,0.7189999999999941],[0.029791666666666692,-0.22092592592592594,0.7343000000119133],[0.029791666666666692,-0.22092592592592594,0.7489999999999952],[0.07625000000000005,-0.25259259259259254,0.7649000000357518],[0.1009375000000001,-0.25333333333333335,0.7843000000119105],[0.11843750000000004,-0.29962962962962963,0.7999999999999972],[0.1258333333333333,-0.34388888888888886,0.8149000000357631],[0.1258333333333333,-0.34388888888888886,0.8314999999999912],[0.1252083333333334,-0.35240740740740745,0.8513000000119177],[0.11749999999999995,-0.3351851851851852,0.867400000035758],[0.12447916666666667,-0.3274074074074074,0.8831999999880793],[0.1015625,-0.2975925925925926,0.9044000000357499],[0.1015625,-0.2975925925925926,0.914999999999992],[0.07635416666666663,-0.27870370370370373,0.9316000000238347],[0.06541666666666662,-0.2574074074074074,0.9503000000119215],[0.06541666666666662,-0.2574074074074074,0.969100000023829],[0.07000000000000005,-0.22999999999999998,0.9816999999880665],[0.07000000000000005,-0.22999999999999998,0.9981999999880742],[0.06020833333333329,-0.22777777777777777,1.0259999999999962],[0.06020833333333329,-0.22777777777777777,1.037800000011913],[0.0787499999999999,-0.18277777777777776,1.0498000000119134],[0.0978125000000001,-0.10796296296296298,1.064800000011914],[0.121875,-0.06629629629629631,1.083400000035752],[0.13072916666666667,-0.07611111111111116,1.099600000023841],[0.1490624999999999,-0.08796296296296297,1.1148000000119112],[0.18791666666666676,-0.03185185185185194,1.1339000000357515],[0.21552083333333344,-0.01648148148148144,1.1491000000238358],[0.2529166666666666,0.03611111111111111,1.1648000000119083],[0.25416666666666665,0.06703703703703712,1.1841000000238324],[0.2868750000000001,0.15314814814814823,1.198400000035761],[0.2695833333333333,0.202962962962963,1.2146999999880705],[0.2556250000000001,0.22870370370370371,1.2313000000119132],[0.23864583333333325,0.25462962962962965,1.250699999988072],[0.23875000000000005,0.305925925925926,1.264600000023833],[0.22260416666666671,0.3638888888888889,1.2813000000119104],[0.20322916666666657,0.3696296296296297,1.2979999999999876],[0.1931250000000001,0.3918518518518519,1.3146000000238303],[0.184375,0.40018518518518525,1.3313000000119075],[0.19635416666666666,0.42962962962962964,1.347999999999999],[0.19927083333333329,0.4292592592592592,1.3646999999880762],[0.19927083333333329,0.4292592592592592,1.3813000000119189],[0.20208333333333334,0.4457407407407408,1.3979999999999961],[0.15895833333333323,0.418888888888889,1.4146999999880734],[0.12135416666666667,0.38870370370370366,1.4319000000357534],[0.09135416666666671,0.3668518518518519,1.4494000000357516],[0.06541666666666662,0.3461111111111111,1.464600000023836],[0.03343750000000002,0.32518518518518524,1.4813000000119132],[-0.00010416666666669035,0.31055555555555564,1.4979000000357559],[-0.034687499999999954,0.2737037037037036,1.5173000000119146],[-0.059791666666666646,0.2485185185185186,1.5339999999999918],[-0.08489583333333334,0.22333333333333338,1.5494000000357602],[-0.10729166666666666,0.19944444444444454,1.5668000000119093],[-0.10729166666666666,0.19944444444444454,1.581699999988075],[-0.04895833333333333,0.2037037037037037,1.5981999999880685],[-0.0296875,0.2192592592592592,1.617999999999995],[-0.014791666666666713,0.2074074074074074,1.635800000011912],[-0.014791666666666713,0.2074074074074074,1.6486000000238334],[0.002499999999999976,0.20037037037037045,1.6676999999880735],[0.02322916666666662,0.17962962962962964,1.6843000000119162],[0.04541666666666669,0.1648148148148148,1.699800000011919],[0.06864583333333343,0.17222222222222222,1.7209999999999894],[0.06864583333333343,0.17222222222222222,1.7313000000119132],[0.04916666666666671,0.18870370370370365,1.7479999999999905],[0.0296875,0.2051851851851851,1.7646999999880606],[-0.0017708333333333807,0.2433333333333333,1.7814000000357524],[-0.06531250000000005,0.26907407407407397,1.7984000000357483],[-0.1,0.334074074074074,1.814699999988072],[-0.1390625,0.42018518518518516,1.8313000000119004],[-0.153125,0.4722222222222222,1.8548000000119131],[-0.153125,0.4722222222222222,1.864800000011904],[-0.15968749999999995,0.4988888888888888,1.8816000000238304],[-0.1469791666666667,0.5214814814814815,1.8981999999880586],[-0.1342708333333333,0.544074074074074,1.9201999999880641],[-0.1342708333333333,0.544074074074074,1.9314000000357439],[-0.10322916666666669,0.5724074074074075,1.94819999998807],[-0.0811458333333333,0.6275925925925926,1.9693000000119056],[-0.044062499999999956,0.5462962962962963,1.986900000035753],[-0.044062499999999956,0.5462962962962963,1.9984000000357511],[-0.0171875,0.5592592592592592,2.0148000000119097],[0.03218749999999997,0.5133333333333334,2.035400000035743],[0.06468750000000002,0.43148148148148147,2.053100000023825],[0.07458333333333324,0.3925925925925926,2.0683000000119094],[0.0696875000000001,0.41500000000000004,2.0839000000357473],[0.057500000000000044,0.3864814814814816,2.100300000011906],[0.033645833333333285,0.39166666666666666,2.1221999999880623],[0.033645833333333285,0.39166666666666666,2.1316000000238304],[0.013645833333333357,0.3683333333333333,2.1481999999880586],[0.021562500000000047,0.31962962962962965,2.1649000000357503],[0.013541666666666667,0.3907407407407407,2.184300000011909],[0.013541666666666667,0.3907407407407407,2.1981000000238353],[0.01416666666666669,0.3801851851851851,2.2149000000357475],[-0.008645833333333287,0.39388888888888896,2.2349000000357435],[-0.015312500000000047,0.4324074074074074,2.251600000023835],[-0.017916666666666713,0.44962962962962955,2.2684999999999818],[-0.0234375,0.4377777777777777,2.286100000023829],[-0.011979166666666667,0.48092592592592603,2.301499999999983],[-0.011979166666666667,0.48092592592592603,2.314699999988072],[0.00916666666666662,0.4925925925925926,2.331499999999984],[0.07447916666666667,0.4514814814814814,2.348100000023827],[0.10645833333333338,0.36666666666666664,2.367999999999988],[0.1382291666666667,0.3479629629629629,2.3839000000357444],[0.1382291666666667,0.3479629629629629,2.398100000023824],[0.1709374999999999,0.3594444444444445,2.4146999999880663],[0.19697916666666657,0.35759259259259263,2.431400000035744],[0.22374999999999995,0.3668518518518519,2.4481000000238353],[0.2599999999999999,0.38851851851851843,2.469100000023822],[0.29625000000000007,0.4101851851851852,2.4841999999880713],[0.3098958333333333,0.39962962962962956,2.500900000035749],[0.33833333333333326,0.3798148148148149,2.516100000023833],[0.33833333333333326,0.3798148148148149,2.5313000000119033],[0.33354166666666674,0.40925925925925927,2.5481000000238296],[0.35208333333333336,0.48407407407407405,2.5651000000238255],[0.3733333333333334,0.47314814814814815,2.5813000000119004],[0.38864583333333325,0.4412962962962962,2.5996999999880686],[0.40437500000000004,0.4177777777777778,2.6161000000238275],[0.40593750000000006,0.35759259259259263,2.63269999998807],[0.40499999999999997,0.3198148148148149,2.6493000000119125],[0.39718749999999997,0.2942592592592592,2.666600000023827],[0.3877083333333334,0.2801851851851851,2.6831999999880694],[0.3544791666666666,0.23925925925925934,2.697999999999986],[0.29812500000000003,0.19018518518518526,2.7146999999880634],[0.23729166666666662,0.14944444444444452,2.7316999999880593],[0.19104166666666675,0.06500000000000004,2.7494999999999905],[0.15281250000000005,0.007407407407407408,2.7671999999880725],[0.1466666666666666,0.009444444444444486,2.781499999999987],[0.13635416666666675,0.03333333333333333,2.7986999999880666],[0.11260416666666657,0.03481481481481473,2.8181999999880603],[0.10104166666666667,0.07018518518518514,2.83330000001191],[0.08489583333333334,0.11407407407407412,2.848699999988064],[0.103125,0.15333333333333324,2.8693000000119113],[0.14833333333333343,0.23592592592592587,2.885100000023833],[0.17895833333333327,0.22611111111111115,2.9029999999999845],[0.17895833333333327,0.22611111111111115,2.9261999999880643],[0.20802083333333338,0.28703703703703703,2.931699999988062],[0.2484375,0.3427777777777778,2.9493000000119096],[0.26437499999999997,0.3375925925925925,2.964600000023829],[0.28489583333333335,0.3638888888888889,2.981300000011906],[0.29791666666666666,0.37777777777777777,2.999900000035744],[0.3038541666666667,0.3346296296296297,3.0196000000238215],[0.3038541666666667,0.3346296296296297,3.031499999999987],[0.3069791666666667,0.2933333333333333,3.0483000000119134],[0.27468750000000003,0.26777777777777784,3.064800000011907],[0.25104166666666666,0.2301851851851851,3.0846000000238334],[0.24385416666666657,0.2716666666666668,3.099199999988066],[0.24802083333333325,0.3050000000000001,3.114800000011904],[0.221875,0.30388888888888893,3.1314999999999813],[0.221875,0.30388888888888893,3.15180000001191],[0.1990624999999999,0.2662962962962962,3.164800000011901],[0.21729166666666658,0.19240740740740736,3.1814999999999927],[0.23052083333333329,0.1425925925925926,3.19819999998807],[0.24552083333333338,0.1037037037037037,3.217199999988061],[0.22927083333333323,0.01185185185185181,3.233499999999985],[0.225,-0.04277777777777782,3.2488000000119044],[0.2171875,-0.11203703703703703,3.266800000011905],[0.2171875,-0.11203703703703703,3.281600000023822],[0.19270833333333334,-0.19444444444444445,3.2979999999999805],[0.15458333333333343,-0.32592592592592595,3.314600000023823],[0.1521874999999999,-0.3881481481481482,3.3313000000119004],[0.15989583333333332,-0.42000000000000004,3.352600000023834],[0.15989583333333332,-0.42000000000000004,3.364800000011904],[0.11052083333333323,-0.4609259259259259,3.3814999999999813],[0.07364583333333338,-0.5135185185185185,3.3983000000119077],[0.029270833333333357,-0.580925925925926,3.4189000000357552],[0.022500000000000023,-0.5844444444444444,3.434400000035744],[0.021041666666666715,-0.5822222222222222,3.448400000035754],[0.017708333333333333,-0.6318518518518518,3.4648000000119126],[0.028645833333333332,-0.6140740740740741,3.4814000000357552],[0.041666666666666664,-0.5755555555555556,3.4986999999880695],[0.029895833333333382,-0.5935185185185186,3.5171000000238237],[-0.007291666666666667,-0.5898148148148148,3.5313000000119033],[-0.014687500000000023,-0.5574074074074075,3.5489999999999853],[-0.005104166666666643,-0.5496296296296297,3.564699999988072],[-0.0007291666666667141,-0.4898148148148148,3.5813000000119004],[0.0014583333333333095,-0.4583333333333333,3.597999999999992],[-0.0016666666666666904,-0.447037037037037,3.6146000000238345],[-0.002499999999999976,-0.362962962962963,3.6316000000238304],[-0.007291666666666667,-0.33129629629629626,3.648100000023824],[-0.009791666666666643,-0.32314814814814813,3.6646000000238317],[0.002916666666666619,-0.29148148148148145,3.681300000011909],[0.002916666666666619,-0.29148148148148145,3.6979000000357516],[0.03677083333333329,-0.2655555555555555,3.7146999999880634],[0.07062499999999995,-0.23962962962962958,3.731300000011906],[0.0890625,-0.15555555555555556,3.7479999999999833],[0.125,-0.1242592592592593,3.768400000035747],[0.16041666666666668,-0.12037037037037036,3.7841999999880684],[0.18645833333333334,-0.09518518518518514,3.799199999988069],[0.203125,-0.09944444444444442,3.814600000023823],[0.21729166666666658,-0.13944444444444445,3.8368000000119125],[0.21729166666666658,-0.13944444444444445,3.8484000000357454],[0.23052083333333329,-0.15685185185185183,3.864900000035753],[0.22000000000000006,-0.18407407407407403,3.8814000000357467],[0.22000000000000006,-0.18407407407407403,3.9011999999880587],[0.20625,-0.22888888888888892,3.914800000011901],[0.21197916666666666,-0.22333333333333338,3.9314999999999927],[0.21614583333333334,-0.2512962962962963,3.9511000000238212],[0.21614583333333334,-0.2512962962962963,3.9649000000357475],[0.23125,-0.2959259259259259,3.9816000000238247],[0.23125,-0.2959259259259259,3.998199999988067],[0.23302083333333337,-0.2566666666666667,4.0188000000119],[0.23302083333333337,-0.2566666666666667,4.031400000035752],[0.21593749999999995,-0.28129629629629627,4.0479999999999805],[0.20104166666666667,-0.3059259259259259,4.064600000023823],[0.2055208333333333,-0.2588888888888889,4.0813000000119],[0.18083333333333323,-0.26222222222222225,4.0983000000119105],[0.19333333333333325,-0.25259259259259254,4.1146000000238345],[0.20833333333333334,-0.23555555555555555,4.131499999999981],[0.19729166666666675,-0.2959259259259259,4.147999999999989],[0.18802083333333333,-0.33185185185185184,4.165199999988069],[0.14968750000000006,-0.30703703703703705,4.18119999998806],[0.12385416666666677,-0.32314814814814813,4.197999999999986],[0.13354166666666673,-0.23074074074074077,4.214699999988063],[0.11395833333333343,-0.22388888888888886,4.2341000000238225],[0.11395833333333343,-0.22388888888888886,4.247999999999983],[0.10489583333333338,-0.2640740740740741,4.264699999988061],[0.1196875000000001,-0.23129629629629625,4.281300000011903],[0.08322916666666676,-0.25759259259259265,4.2979999999999805],[0.05375000000000003,-0.28592592592592586,4.314999999999991],[0.03583333333333331,-0.2507407407407407,4.3313000000119],[0.016145833333333335,-0.24000000000000005,4.348100000023827],[-0.0046875,-0.2807407407407408,4.3646000000238345],[-0.025520833333333333,-0.32148148148148153,4.381199999988063],[-0.028645833333333332,-0.3881481481481482,4.397999999999989],[-0.0046875,-0.36925925925925923,4.414600000023832],[-0.04864583333333338,-0.3455555555555556,4.431400000035744],[-0.04864583333333338,-0.3455555555555556,4.448100000023835],[-0.08812500000000002,-0.3266666666666666,4.464600000023829],[-0.10249999999999998,-0.259074074074074,4.481300000011906],[-0.11447916666666665,-0.15499999999999997,4.497900000035749],[-0.11447916666666665,-0.15499999999999997,4.514499999999991],[-0.13145833333333337,-0.08740740740740739,4.531300000011903],[-0.1516666666666667,-0.030000000000000086,4.5479999999999805],[-0.15739583333333335,0.050370370370370454,4.564699999988072],[-0.15750000000000006,0.11648148148148144,4.584100000023831]]","[0.0003000000119186552,0.014800000011916836,0.03149999999999409,0.04949999999999477,0.06460000002383026,0.08430000001190763,0.09830000001191763,0.11469999998807623,0.13130000001191888,0.1483000000119148,0.1646999999880734,0.18140000003575096,0.1979999999999933,0.2178000000119198,0.23140000003576233,0.24810000002383958,0.2646999999880677,0.28690000003575733,0.297900000035753,0.31469999998807907,0.33140000003575665,0.3499999999999943,0.367400000035758,0.3813000000119189,0.39799999999999613,0.4146999999880734,0.43130000001191604,0.4481000000238424,0.4649000000357546,0.4838000000119109,0.5001999999880695,0.5146000000238331,0.5313000000119104,0.5529000000357627,0.564800000011914,0.5814999999999912,0.5981000000238339,0.6199000000357557,0.6314000000357538,0.6484000000357497,0.6683000000119108,0.6849000000357535,0.7021999999880677,0.7189999999999941,0.7343000000119133,0.7489999999999952,0.7649000000357518,0.7843000000119105,0.7999999999999972,0.8149000000357631,0.8314999999999912,0.8513000000119177,0.867400000035758,0.8831999999880793,0.9044000000357499,0.914999999999992,0.9316000000238347,0.9503000000119215,0.969100000023829,0.9816999999880665,0.9981999999880742,1.0259999999999962,1.037800000011913,1.0498000000119134,1.064800000011914,1.083400000035752,1.099600000023841,1.1148000000119112,1.1339000000357515,1.1491000000238358,1.1648000000119083,1.1841000000238324,1.198400000035761,1.2146999999880705,1.2313000000119132,1.250699999988072,1.264600000023833,1.2813000000119104,1.2979999999999876,1.3146000000238303,1.3313000000119075,1.347999999999999,1.3646999999880762,1.3813000000119189,1.3979999999999961,1.4146999999880734,1.4319000000357534,1.4494000000357516,1.464600000023836,1.4813000000119132,1.4979000000357559,1.5173000000119146,1.5339999999999918,1.5494000000357602,1.5668000000119093,1.581699999988075,1.5981999999880685,1.617999999999995,1.635800000011912,1.6486000000238334,1.6676999999880735,1.6843000000119162,1.699800000011919,1.7209999999999894,1.7313000000119132,1.7479999999999905,1.7646999999880606,1.7814000000357524,1.7984000000357483,1.814699999988072,1.8313000000119004,1.8548000000119131,1.864800000011904,1.8816000000238304,1.8981999999880586,1.9201999999880641,1.9314000000357439,1.94819999998807,1.9693000000119056,1.986900000035753,1.9984000000357511,2.0148000000119097,2.035400000035743,2.053100000023825,2.0683000000119094,2.0839000000357473,2.100300000011906,2.1221999999880623,2.1316000000238304,2.1481999999880586,2.1649000000357503,2.184300000011909,2.1981000000238353,2.2149000000357475,2.2349000000357435,2.251600000023835,2.2684999999999818,2.286100000023829,2.301499999999983,2.314699999988072,2.331499999999984,2.348100000023827,2.367999999999988,2.3839000000357444,2.398100000023824,2.4146999999880663,2.431400000035744,2.4481000000238353,2.469100000023822,2.4841999999880713,2.500900000035749,2.516100000023833,2.5313000000119033,2.5481000000238296,2.5651000000238255,2.5813000000119004,2.5996999999880686,2.6161000000238275,2.63269999998807,2.6493000000119125,2.666600000023827,2.6831999999880694,2.697999999999986,2.7146999999880634,2.7316999999880593,2.7494999999999905,2.7671999999880725,2.781499999999987,2.7986999999880666,2.8181999999880603,2.83330000001191,2.848699999988064,2.8693000000119113,2.885100000023833,2.9029999999999845,2.9261999999880643,2.931699999988062,2.9493000000119096,2.964600000023829,2.981300000011906,2.999900000035744,3.0196000000238215,3.031499999999987,3.0483000000119134,3.064800000011907,3.0846000000238334,3.099199999988066,3.114800000011904,3.1314999999999813,3.15180000001191,3.164800000011901,3.1814999999999927,3.19819999998807,3.217199999988061,3.233499999999985,3.2488000000119044,3.266800000011905,3.281600000023822,3.2979999999999805,3.314600000023823,3.3313000000119004,3.352600000023834,3.364800000011904,3.3814999999999813,3.3983000000119077,3.4189000000357552,3.434400000035744,3.448400000035754,3.4648000000119126,3.4814000000357552,3.4986999999880695,3.5171000000238237,3.5313000000119033,3.5489999999999853,3.564699999988072,3.5813000000119004,3.597999999999992,3.6146000000238345,3.6316000000238304,3.648100000023824,3.6646000000238317,3.681300000011909,3.6979000000357516,3.7146999999880634,3.731300000011906,3.7479999999999833,3.768400000035747,3.7841999999880684,3.799199999988069,3.814600000023823,3.8368000000119125,3.8484000000357454,3.864900000035753,3.8814000000357467,3.9011999999880587,3.914800000011901,3.9314999999999927,3.9511000000238212,3.9649000000357475,3.9816000000238247,3.998199999988067,4.0188000000119,4.031400000035752,4.0479999999999805,4.064600000023823,4.0813000000119,4.0983000000119105,4.1146000000238345,4.131499999999981,4.147999999999989,4.165199999988069,4.18119999998806,4.197999999999986,4.214699999988063,4.2341000000238225,4.247999999999983,4.264699999988061,4.281300000011903,4.2979999999999805,4.314999999999991,4.3313000000119,4.348100000023827,4.3646000000238345,4.381199999988063,4.397999999999989,4.414600000023832,4.431400000035744,4.448100000023835,4.464600000023829,4.481300000011906,4.497900000035749,4.514499999999991,4.531300000011903,4.5479999999999805,4.564699999988072,4.584100000023831]","[1732872365987,1732872366001,1732872366017,1732872366035,1732872366050,1732872366070,1732872366084,1732872366100,1732872366117,1732872366134,1732872366150,1732872366167,1732872366184,1732872366204,1732872366217,1732872366234,1732872366250,1732872366273,1732872366284,1732872366300,1732872366317,1732872366336,1732872366353,1732872366367,1732872366384,1732872366401,1732872366417,1732872366434,1732872366451,1732872366469,1732872366486,1732872366500,1732872366517,1732872366539,1732872366550,1732872366567,1732872366584,1732872366606,1732872366617,1732872366634,1732872366654,1732872366671,1732872366688,1732872366705,1732872366720,1732872366735,1732872366751,1732872366770,1732872366786,1732872366801,1732872366817,1732872366837,1732872366853,1732872366869,1732872366890,1732872366901,1732872366917,1732872366936,1732872366955,1732872366967,1732872366984,1732872367012,1732872367023,1732872367036,1732872367051,1732872367069,1732872367085,1732872367101,1732872367120,1732872367135,1732872367151,1732872367170,1732872367184,1732872367200,1732872367217,1732872367237,1732872367250,1732872367267,1732872367284,1732872367300,1732872367317,1732872367334,1732872367350,1732872367367,1732872367384,1732872367400,1732872367418,1732872367435,1732872367450,1732872367467,1732872367484,1732872367503,1732872367520,1732872367535,1732872367553,1732872367567,1732872367584,1732872367604,1732872367622,1732872367634,1732872367654,1732872367670,1732872367685,1732872367707,1732872367717,1732872367734,1732872367750,1732872367767,1732872367784,1732872367800,1732872367817,1732872367840,1732872367851,1732872367867,1732872367884,1732872367906,1732872367917,1732872367934,1732872367955,1732872367973,1732872367984,1732872368001,1732872368021,1732872368039,1732872368054,1732872368070,1732872368086,1732872368108,1732872368117,1732872368134,1732872368151,1732872368170,1732872368184,1732872368201,1732872368221,1732872368237,1732872368254,1732872368272,1732872368287,1732872368300,1732872368317,1732872368334,1732872368354,1732872368370,1732872368384,1732872368400,1732872368417,1732872368434,1732872368455,1732872368470,1732872368487,1732872368502,1732872368517,1732872368534,1732872368551,1732872368567,1732872368585,1732872368602,1732872368618,1732872368635,1732872368652,1732872368669,1732872368684,1732872368700,1732872368717,1732872368735,1732872368753,1732872368767,1732872368784,1732872368804,1732872368819,1732872368834,1732872368855,1732872368871,1732872368889,1732872368912,1732872368917,1732872368935,1732872368950,1732872368967,1732872368986,1732872369005,1732872369017,1732872369034,1732872369051,1732872369070,1732872369085,1732872369101,1732872369117,1732872369138,1732872369151,1732872369167,1732872369184,1732872369203,1732872369219,1732872369235,1732872369253,1732872369267,1732872369284,1732872369300,1732872369317,1732872369338,1732872369350,1732872369367,1732872369384,1732872369405,1732872369420,1732872369434,1732872369451,1732872369467,1732872369484,1732872369503,1732872369517,1732872369535,1732872369550,1732872369567,1732872369584,1732872369600,1732872369617,1732872369634,1732872369650,1732872369667,1732872369684,1732872369700,1732872369717,1732872369734,1732872369754,1732872369770,1732872369785,1732872369800,1732872369823,1732872369834,1732872369851,1732872369867,1732872369887,1732872369901,1732872369917,1732872369937,1732872369951,1732872369967,1732872369984,1732872370005,1732872370017,1732872370034,1732872370050,1732872370067,1732872370084,1732872370100,1732872370117,1732872370134,1732872370151,1732872370167,1732872370184,1732872370200,1732872370220,1732872370234,1732872370250,1732872370267,1732872370284,1732872370301,1732872370317,1732872370334,1732872370350,1732872370367,1732872370384,1732872370400,1732872370417,1732872370434,1732872370450,1732872370467,1732872370484,1732872370500,1732872370517,1732872370534,1732872370550,1732872370570]","[[966.5,393],[966.5,393],[987.7,363.2],[978.8,359.4],[970.5,331.4],[960.7,303.4],[959.1,306],[957.5,308.6],[940.6,294],[940.6,294],[924.6,280.6],[928.3,288.2],[937.7,296.3],[942.9,322],[963.3,335.7],[980.5,355],[1001.6,374.6],[1014.5,395.8],[1014.5,395.8],[1018.8,402.3],[1023,408.7],[1030.3,418.8],[1015.6,419.2],[989.6,430.8],[968.1,428.1],[935.2,432],[895.3,425.1],[853,417.9],[811.4,439.6],[778.4,476],[762.5,499.2],[728.6,505.8],[717.3,522.1],[688.9,529.4],[688.9,529.4],[673.4,516.6],[693.7,514.1],[730.7,521.3],[730.7,521.3],[770.6,527.1],[815.9,503.1],[847.4,478.5],[895.2,447.3],[961.1,446.8],[988.6,420.7],[988.6,420.7],[1033.2,403.6],[1056.9,403.2],[1073.7,378.2],[1080.8,354.3],[1080.8,354.3],[1080.2,349.7],[1072.8,359],[1079.5,363.2],[1057.5,379.3],[1057.5,379.3],[1033.3,389.5],[1022.8,401],[1022.8,401],[1027.2,415.8],[1027.2,415.8],[1017.8,417],[1017.8,417],[1035.6,441.3],[1053.9,481.7],[1077,504.2],[1085.5,498.9],[1103.1,492.5],[1140.4,522.8],[1166.9,531.1],[1202.8,559.5],[1204,576.2],[1235.4,622.7],[1218.8,649.6],[1205.4,663.5],[1189.1,677.5],[1189.2,705.2],[1173.7,736.5],[1155.1,739.6],[1145.4,751.6],[1137,756.1],[1148.5,772],[1151.3,771.8],[1151.3,771.8],[1154,780.7],[1112.6,766.2],[1076.5,749.9],[1047.7,738.1],[1022.8,726.9],[992.1,715.6],[959.9,707.7],[926.7,687.8],[902.6,674.2],[878.5,660.6],[857,647.7],[857,647.7],[913,650],[931.5,658.4],[945.8,652],[945.8,652],[962.4,648.2],[982.3,637],[1003.6,629],[1025.9,633],[1025.9,633],[1007.2,641.9],[988.5,650.8],[958.3,671.4],[897.3,685.3],[864,720.4],[826.5,766.9],[813,795],[813,795],[806.7,809.4],[818.9,821.6],[831.1,833.8],[831.1,833.8],[860.9,849.1],[882.1,878.9],[917.7,835],[917.7,835],[943.5,842],[990.9,817.2],[1022.1,773],[1031.6,752],[1026.9,764.1],[1015.2,748.7],[992.3,751.5],[992.3,751.5],[973.1,738.9],[980.7,712.6],[973,751],[973,751],[973.6,745.3],[951.7,752.7],[945.3,773.5],[942.8,782.8],[937.5,776.4],[948.5,799.7],[948.5,799.7],[968.8,806],[1031.5,783.8],[1062.2,738],[1092.7,727.9],[1092.7,727.9],[1124.1,734.1],[1149.1,733.1],[1174.8,738.1],[1209.6,749.8],[1244.4,761.5],[1257.5,755.8],[1284.8,745.1],[1284.8,745.1],[1280.2,761],[1298,801.4],[1318.4,795.5],[1333.1,778.3],[1348.2,765.6],[1349.7,733.1],[1348.8,712.7],[1341.3,698.9],[1332.2,691.3],[1300.3,669.2],[1246.2,642.7],[1187.8,620.7],[1143.4,575.1],[1106.7,544],[1100.8,545.1],[1090.9,558],[1068.1,558.8],[1057,577.9],[1041.5,601.6],[1059,622.8],[1102.4,667.4],[1131.8,662.1],[1131.8,662.1],[1159.7,695],[1198.5,725.1],[1213.8,722.3],[1233.5,736.5],[1246,744],[1251.7,720.7],[1251.7,720.7],[1254.7,698.4],[1223.7,684.6],[1201,664.3],[1194.1,686.7],[1198.1,704.7],[1173,704.1],[1173,704.1],[1151.1,683.8],[1168.6,643.9],[1181.3,617],[1195.7,596],[1180.1,546.4],[1176,516.9],[1168.5,479.5],[1168.5,479.5],[1145,435],[1108.4,364],[1106.1,330.4],[1113.5,313.2],[1113.5,313.2],[1066.1,291.1],[1030.7,262.7],[988.1,226.3],[981.6,224.4],[980.2,225.6],[977,198.8],[987.5,208.4],[1000,229.2],[988.7,219.5],[953,221.5],[945.9,239],[955.1,243.2],[959.3,275.5],[961.4,292.5],[958.4,298.6],[957.6,344],[953,361.1],[950.6,365.5],[962.8,382.6],[962.8,382.6],[995.3,396.6],[1027.8,410.6],[1045.5,456],[1080,472.9],[1114,475],[1139,488.6],[1155,486.3],[1168.6,464.7],[1168.6,464.7],[1181.3,455.3],[1171.2,440.6],[1171.2,440.6],[1158,416.4],[1163.5,419.4],[1167.5,404.3],[1167.5,404.3],[1182,380.2],[1182,380.2],[1183.7,401.4],[1183.7,401.4],[1167.3,388.1],[1153,374.8],[1157.3,400.2],[1133.6,398.4],[1145.6,403.6],[1160,412.8],[1149.4,380.2],[1140.5,360.8],[1103.7,374.2],[1078.9,365.5],[1088.2,415.4],[1069.4,419.1],[1069.4,419.1],[1060.7,397.4],[1074.9,415.1],[1039.9,400.9],[1011.6,385.6],[994.4,404.6],[975.5,410.4],[955.5,388.4],[935.5,366.4],[932.5,330.4],[955.5,340.6],[913.3,353.4],[913.3,353.4],[875.4,363.6],[861.6,400.1],[850.1,456.3],[850.1,456.3],[833.8,492.8],[814.4,523.8],[808.9,567.2],[808.8,602.9]]","[0,0.37864299999999995]","[0.37864299999999995,0.37864299999999995]","[-0.37864299999999995,0]","[-0.37864299999999995,-0.37864299999999995]","[0,0]","[0.37864299999999995,0]","[0,-0.37864299999999995]","[0.37864299999999995,-0.37864299999999995]",0,1,1,1,1,3,Laptop,5,5,13,7
