inst1_resp.keys,inst1_resp.rt,calibrationMouse.x,calibrationMouse.y,calibrationMouse.leftButton,calibrationMouse.midButton,calibrationMouse.rightButton,calibrationClick.x,calibrationClick.y,calibrationClick.leftButton,calibrationClick.midButton,calibrationClick.rightButton,calibrationClick.clicked_name,trialsc.thisRepN,trialsc.thisTrialN,trialsc.thisN,trialsc.thisIndex,trialsc.ran,calibration_x,calibration_y,participant,session,date,expName,psychopyVersion,OS,frameRate,ScreenRes_pixels,Camera_pixels,mouse_2.x,mouse_2.y,mouse_2.leftButton,mouse_2.midButton,mouse_2.rightButton,mouse_2.time,mouse_2.clicked_name,mouse.x,mouse.y,mouse.leftButton,mouse.midButton,mouse.rightButton,mouse.time,mouse.clicked_name,Choice,Trial,TrialDuration,MOUSE_GAZE,ET_GAZE,ET_GAZE_x_T,time,unixTime,ET_GAZE_NF,Loc_Option1_label,Loc_Option2_label,Loc_Cost_label,Loc_Qual_label,Loc_Option1_cost,Loc_Option2_cost,Loc_Option1_quality,Loc_Option2_quality,trials.thisRepN,trials.thisTrialN,trials.thisN,trials.thisIndex,trials.ran,Block,Device,cost1,qual1,cost2,qual2
space,2.4317,-0.329166667,-0.331481481,1,0,0,0.002083333,-0.67962963,1,0,0,calibration_square,0,0,0,9,1,0,-0.67,31,001,2024-11-29_17h45.06.489,Attention_exp_legacy,2023.1.0,Win32,59.88023952,,,,,,,,,,,,,,,,,,,,,,,,,,,,,,,,,,,,,,,,,,,,
,,,,,,,-0.315625,-0.661111111,1,0,0,,0,1,1,4,1,-0.33,-0.67,31,001,2024-11-29_17h45.06.489,Attention_exp_legacy,2023.1.0,Win32,59.88023952,,,,,,,,,,,,,,,,,,,,,,,,,,,,,,,,,,,,,,,,,,,,
,,,,,,,-0.334375,0.342592593,1,0,0,,0,2,2,7,1,-0.33,0.33,31,001,2024-11-29_17h45.06.489,Attention_exp_legacy,2023.1.0,Win32,59.88023952,,,,,,,,,,,,,,,,,,,,,,,,,,,,,,,,,,,,,,,,,,,,
,,,,,,,-0.676041667,0,1,0,0,calibration_square,0,3,3,2,1,-0.67,0,31,001,2024-11-29_17h45.06.489,Attention_exp_legacy,2023.1.0,Win32,59.88023952,,,,,,,,,,,,,,,,,,,,,,,,,,,,,,,,,,,,,,,,,,,,
,,,,,,,0.002083333,0.009259259,1,0,0,calibration_square,0,4,4,11,1,0,0,31,001,2024-11-29_17h45.06.489,Attention_exp_legacy,2023.1.0,Win32,59.88023952,,,,,,,,,,,,,,,,,,,,,,,,,,,,,,,,,,,,,,,,,,,,
,,,,,,,-0.672916667,-0.661111111,1,0,0,calibration_square,0,5,5,0,1,-0.67,-0.67,31,001,2024-11-29_17h45.06.489,Attention_exp_legacy,2023.1.0,Win32,59.88023952,,,,,,,,,,,,,,,,,,,,,,,,,,,,,,,,,,,,,,,,,,,,
,,,,,,,0.332291667,-0.662962963,1,0,0,calibration_square,0,6,6,14,1,0.33,-0.67,31,001,2024-11-29_17h45.06.489,Attention_exp_legacy,2023.1.0,Win32,59.88023952,,,,,,,,,,,,,,,,,,,,,,,,,,,,,,,,,,,,,,,,,,,,
,,,,,,,0.001041667,0.338888889,1,0,0,calibration_square,0,7,7,12,1,0,0.33,31,001,2024-11-29_17h45.06.489,Attention_exp_legacy,2023.1.0,Win32,59.88023952,,,,,,,,,,,,,,,,,,,,,,,,,,,,,,,,,,,,,,,,,,,,
,,,,,,,0.33125,-0.325925926,1,0,0,calibration_square,0,8,8,15,1,0.33,-0.33,31,001,2024-11-29_17h45.06.489,Attention_exp_legacy,2023.1.0,Win32,59.88023952,,,,,,,,,,,,,,,,,,,,,,,,,,,,,,,,,,,,,,,,,,,,
,,,,,,,-0.33125,0.675925926,1,0,0,calibration_square,0,9,9,8,1,-0.33,0.67,31,001,2024-11-29_17h45.06.489,Attention_exp_legacy,2023.1.0,Win32,59.88023952,,,,,,,,,,,,,,,,,,,,,,,,,,,,,,,,,,,,,,,,,,,,
,,,,,,,-0.665625,0.322222222,1,0,0,calibration_square,0,10,10,3,1,-0.67,0.33,31,001,2024-11-29_17h45.06.489,Attention_exp_legacy,2023.1.0,Win32,59.88023952,,,,,,,,,,,,,,,,,,,,,,,,,,,,,,,,,,,,,,,,,,,,
,,,,,,,0.330208333,0.005555556,1,0,0,calibration_square,0,11,11,16,1,0.33,0,31,001,2024-11-29_17h45.06.489,Attention_exp_legacy,2023.1.0,Win32,59.88023952,,,,,,,,,,,,,,,,,,,,,,,,,,,,,,,,,,,,,,,,,,,,
,,,,,,,0.00625,-0.325925926,1,0,0,calibration_square,0,12,12,10,1,0,-0.33,31,001,2024-11-29_17h45.06.489,Attention_exp_legacy,2023.1.0,Win32,59.88023952,,,,,,,,,,,,,,,,,,,,,,,,,,,,,,,,,,,,,,,,,,,,
,,,,,,,-0.675,-0.32037037,1,0,0,calibration_square,0,13,13,1,1,-0.67,-0.33,31,001,2024-11-29_17h45.06.489,Attention_exp_legacy,2023.1.0,Win32,59.88023952,,,,,,,,,,,,,,,,,,,,,,,,,,,,,,,,,,,,,,,,,,,,
,,,,,,,-0.334375,-0.001851852,1,0,0,calibration_square,0,14,14,6,1,-0.33,0,31,001,2024-11-29_17h45.06.489,Attention_exp_legacy,2023.1.0,Win32,59.88023952,,,,,,,,,,,,,,,,,,,,,,,,,,,,,,,,,,,,,,,,,,,,
,,,,,,,0.666666667,0.675925926,1,0,0,calibration_square,0,15,15,19,1,0.67,0.67,31,001,2024-11-29_17h45.06.489,Attention_exp_legacy,2023.1.0,Win32,59.88023952,,,,,,,,,,,,,,,,,,,,,,,,,,,,,,,,,,,,,,,,,,,,
,,,,,,,0.003125,0.662962963,1,0,0,calibration_square,0,16,16,13,1,0,0.67,31,001,2024-11-29_17h45.06.489,Attention_exp_legacy,2023.1.0,Win32,59.88023952,,,,,,,,,,,,,,,,,,,,,,,,,,,,,,,,,,,,,,,,,,,,
,,,,,,,0.321875,0.672222222,1,0,0,calibration_square,0,17,17,18,1,0.33,0.67,31,001,2024-11-29_17h45.06.489,Attention_exp_legacy,2023.1.0,Win32,59.88023952,,,,,,,,,,,,,,,,,,,,,,,,,,,,,,,,,,,,,,,,,,,,
,,,,,,,0.336458333,0.346296296,1,0,0,,0,18,18,17,1,0.33,0.33,31,001,2024-11-29_17h45.06.489,Attention_exp_legacy,2023.1.0,Win32,59.88023952,,,,,,,,,,,,,,,,,,,,,,,,,,,,,,,,,,,,,,,,,,,,
,,,,,,,-0.330208333,-0.344444444,1,0,0,,0,19,19,5,1,-0.33,-0.33,31,001,2024-11-29_17h45.06.489,Attention_exp_legacy,2023.1.0,Win32,59.88023952,,,,,,,,,,,,,,,,,,,,,,,,,,,,,,,,,,,,,,,,,,,,
,,,,,,,0.68125,-0.666666667,1,0,0,,0,20,20,20,1,0.67,-0.67,31,001,2024-11-29_17h45.06.489,Attention_exp_legacy,2023.1.0,Win32,59.88023952,,,,,,,,,,,,,,,,,,,,,,,,,,,,,,,,,,,,,,,,,,,,
,,,,,,,,,,,,,,,,,,,,31,001,2024-11-29_17h45.06.489,Attention_exp_legacy,2023.1.0,Win32,59.88023952,"[1920,1080]","[640,480]",[-0.010416666666666666],[-0.512962962962963],[1],[0],[0],[7.640499999999996],"[""StartButton""]",[0.025],[0.1537037037037037],[1],[0],[0],[4.516100000023862],"[""Option1_label""]",Option1_label,1,5.5271,"[[-0.00625,-0.5166666666666667],[-0.00625,-0.5166666666666667],[-0.00625,-0.5166666666666667],[-0.00625,-0.5166666666666667],[-0.00625,-0.5166666666666667],[-0.00625,-0.5166666666666667],[-0.00625,-0.5166666666666667],[-0.00625,-0.5166666666666667],[-0.00625,-0.5166666666666667],[-0.00625,-0.5166666666666667],[-0.00625,-0.5166666666666667],[-0.00625,-0.5166666666666667],[-0.00625,-0.5166666666666667],[-0.00625,-0.5166666666666667],[-0.00625,-0.5166666666666667],[-0.00625,-0.5166666666666667],[-0.00625,-0.5166666666666667],[-0.00625,-0.5166666666666667],[-0.00625,-0.5166666666666667],[-0.00625,-0.5166666666666667],[-0.00625,-0.5166666666666667],[-0.00625,-0.5166666666666667],[-0.00625,-0.5166666666666667],[-0.00625,-0.5166666666666667],[-0.00625,-0.5166666666666667],[-0.00625,-0.5166666666666667],[-0.00625,-0.5166666666666667],[-0.00625,-0.5166666666666667],[-0.00625,-0.5166666666666667],[-0.00625,-0.5166666666666667],[-0.00625,-0.5166666666666667],[-0.00625,-0.5166666666666667],[-0.00625,-0.5166666666666667],[-0.00625,-0.5166666666666667],[-0.00625,-0.5166666666666667],[-0.00625,-0.5166666666666667],[-0.00625,-0.5166666666666667],[-0.00625,-0.5166666666666667],[-0.00625,-0.5166666666666667],[-0.00625,-0.5166666666666667],[-0.00625,-0.5166666666666667],[-0.00625,-0.5166666666666667],[-0.00625,-0.5166666666666667],[-0.00625,-0.5166666666666667],[-0.00625,-0.5166666666666667],[-0.00625,-0.5166666666666667],[-0.00625,-0.5166666666666667],[-0.00625,-0.5166666666666667],[-0.00625,-0.5166666666666667],[-0.00625,-0.5166666666666667],[-0.00625,-0.5166666666666667],[-0.00625,-0.5166666666666667],[-0.00625,-0.5166666666666667],[-0.00625,-0.5166666666666667],[-0.00625,-0.5166666666666667],[-0.00625,-0.5166666666666667],[-0.00625,-0.5166666666666667],[-0.00625,-0.5166666666666667],[-0.00625,-0.5166666666666667],[-0.00625,-0.5166666666666667],[-0.00625,-0.5166666666666667],[-0.00625,-0.5166666666666667],[-0.00625,-0.5166666666666667],[-0.00625,-0.5166666666666667],[-0.00625,-0.5166666666666667],[-0.00625,-0.5166666666666667],[-0.00625,-0.5166666666666667],[-0.00625,-0.5166666666666667],[-0.00625,-0.5166666666666667],[-0.00625,-0.5166666666666667],[-0.00625,-0.5166666666666667],[-0.00625,-0.5166666666666667],[-0.00625,-0.5166666666666667],[-0.00625,-0.5166666666666667],[-0.00625,-0.5166666666666667],[-0.00625,-0.5166666666666667],[-0.00625,-0.5166666666666667],[-0.00625,-0.5166666666666667],[-0.00625,-0.5166666666666667],[-0.00625,-0.5166666666666667],[-0.00625,-0.5166666666666667],[-0.00625,-0.5166666666666667],[-0.00625,-0.5166666666666667],[-0.00625,-0.5166666666666667],[-0.00625,-0.5166666666666667],[-0.00625,-0.5166666666666667],[-0.00625,-0.5166666666666667],[-0.00625,-0.5166666666666667],[-0.00625,-0.5166666666666667],[-0.00625,-0.5166666666666667],[-0.00625,-0.5166666666666667],[-0.00625,-0.5166666666666667],[-0.00625,-0.5166666666666667],[-0.00625,-0.5166666666666667],[-0.00625,-0.5166666666666667],[-0.00625,-0.5166666666666667],[-0.00625,-0.5166666666666667],[-0.00625,-0.5166666666666667],[-0.00625,-0.5166666666666667],[-0.00625,-0.5166666666666667],[-0.00625,-0.5166666666666667],[-0.00625,-0.5166666666666667],[-0.00625,-0.5166666666666667],[-0.00625,-0.5166666666666667],[-0.00625,-0.5166666666666667],[-0.00625,-0.5166666666666667],[-0.00625,-0.5166666666666667],[-0.00625,-0.5166666666666667],[-0.00625,-0.5166666666666667],[-0.00625,-0.5166666666666667],[-0.00625,-0.5166666666666667],[-0.00625,-0.5166666666666667],[-0.00625,-0.5166666666666667],[-0.00625,-0.5166666666666667],[-0.00625,-0.5166666666666667],[-0.00625,-0.5166666666666667],[-0.00625,-0.5166666666666667],[-0.00625,-0.5166666666666667],[-0.00625,-0.5166666666666667],[-0.00625,-0.5166666666666667],[-0.00625,-0.5166666666666667],[-0.00625,-0.5166666666666667],[-0.00625,-0.5166666666666667],[-0.00625,-0.5166666666666667],[-0.00625,-0.5166666666666667],[-0.00625,-0.5166666666666667],[-0.00625,-0.5166666666666667],[-0.00625,-0.5166666666666667],[-0.00625,-0.5166666666666667],[-0.00625,-0.5166666666666667],[-0.00625,-0.5166666666666667],[-0.00625,-0.5166666666666667],[-0.00625,-0.5166666666666667],[-0.00625,-0.5166666666666667],[-0.00625,-0.5166666666666667],[-0.00625,-0.5166666666666667],[-0.00625,-0.5166666666666667],[-0.00625,-0.5166666666666667],[-0.00625,-0.5166666666666667],[-0.00625,-0.5166666666666667],[-0.00625,-0.5166666666666667],[-0.00625,-0.5166666666666667],[-0.00625,-0.5166666666666667],[-0.00625,-0.5166666666666667],[-0.00625,-0.5166666666666667],[-0.00625,-0.5166666666666667],[-0.00625,-0.5166666666666667],[-0.00625,-0.5166666666666667],[-0.00625,-0.5166666666666667],[-0.00625,-0.5166666666666667],[-0.00625,-0.5166666666666667],[-0.00625,-0.5166666666666667],[-0.00625,-0.5166666666666667],[-0.00625,-0.5166666666666667],[-0.00625,-0.5166666666666667],[-0.00625,-0.5166666666666667],[-0.00625,-0.5166666666666667],[-0.00625,-0.5166666666666667],[-0.00625,-0.5166666666666667],[-0.00625,-0.5166666666666667],[-0.00625,-0.5166666666666667],[-0.00625,-0.5166666666666667],[-0.00625,-0.5166666666666667],[-0.00625,-0.5166666666666667],[-0.00625,-0.5166666666666667],[-0.00625,-0.5166666666666667],[-0.00625,-0.5166666666666667],[-0.00625,-0.5166666666666667],[-0.00625,-0.5166666666666667],[-0.00625,-0.5166666666666667],[-0.00625,-0.5166666666666667],[-0.00625,-0.5166666666666667],[-0.00625,-0.5166666666666667],[-0.00625,-0.5166666666666667],[-0.00625,-0.5166666666666667],[-0.00625,-0.5166666666666667],[-0.00625,-0.5166666666666667],[-0.00625,-0.5166666666666667],[-0.00625,-0.5166666666666667],[-0.00625,-0.5166666666666667],[-0.00625,-0.5166666666666667],[-0.00625,-0.5166666666666667],[-0.00625,-0.5166666666666667],[-0.00625,-0.5166666666666667],[-0.00625,-0.5166666666666667],[-0.00625,-0.5166666666666667],[-0.00625,-0.5166666666666667],[-0.00625,-0.5166666666666667],[-0.00625,-0.5166666666666667],[-0.00625,-0.5166666666666667],[-0.00625,-0.5166666666666667],[-0.00625,-0.5166666666666667],[-0.00625,-0.5166666666666667],[-0.00625,-0.5166666666666667],[-0.005208333333333333,-0.5166666666666667],[-0.004166666666666667,-0.5166666666666667],[0.007291666666666667,-0.4962962962962963],[0.010416666666666666,-0.4888888888888889],[0.023958333333333335,-0.4666666666666667],[0.027083333333333334,-0.45555555555555555],[0.029166666666666667,-0.4203703703703704],[0.030208333333333334,-0.40555555555555556],[0.03125,-0.40370370370370373],[0.03125,-0.40370370370370373],[0.03125,-0.40370370370370373],[0.03125,-0.40370370370370373],[0.03125,-0.40370370370370373],[0.03125,-0.40370370370370373],[0.03125,-0.40370370370370373],[0.03125,-0.40370370370370373],[0.03125,-0.40370370370370373],[0.03125,-0.40370370370370373],[0.03125,-0.40370370370370373],[0.03125,-0.40370370370370373],[0.03125,-0.40370370370370373],[0.03125,-0.40370370370370373],[0.03125,-0.40370370370370373],[0.03125,-0.40370370370370373],[0.03125,-0.40370370370370373],[0.03125,-0.40370370370370373],[0.03125,-0.40370370370370373],[0.03125,-0.40370370370370373],[0.03125,-0.40370370370370373],[0.03125,-0.40370370370370373],[0.03125,-0.40370370370370373],[0.03125,-0.40370370370370373],[0.03125,-0.40370370370370373],[0.03125,-0.40370370370370373],[0.03125,-0.40370370370370373],[0.03125,-0.40370370370370373],[0.03125,-0.3962962962962963],[0.030208333333333334,-0.3925925925925926],[0.030208333333333334,-0.3907407407407407],[0.030208333333333334,-0.3907407407407407],[0.030208333333333334,-0.37592592592592594],[0.030208333333333334,-0.37037037037037035],[0.030208333333333334,-0.3351851851851852],[0.030208333333333334,-0.31666666666666665],[0.03125,-0.26296296296296295],[0.03854166666666667,-0.21296296296296297],[0.04479166666666667,-0.14444444444444443],[0.046875,-0.12222222222222222],[0.05,-0.06481481481481481],[0.05,-0.05185185185185185],[0.05,-0.05185185185185185],[0.05,0.003703703703703704],[0.051041666666666666,0.012962962962962963],[0.052083333333333336,0.046296296296296294],[0.052083333333333336,0.05740740740740741],[0.052083333333333336,0.08888888888888889],[0.052083333333333336,0.09444444444444444],[0.052083333333333336,0.10740740740740741],[0.052083333333333336,0.10925925925925926],[0.052083333333333336,0.1111111111111111],[0.052083333333333336,0.1111111111111111],[0.052083333333333336,0.11481481481481481],[0.051041666666666666,0.11851851851851852],[0.04791666666666667,0.12777777777777777],[0.046875,0.12962962962962962],[0.04479166666666667,0.13333333333333333],[0.04375,0.13518518518518519],[0.040625,0.13703703703703704],[0.0375,0.14074074074074075],[0.03229166666666667,0.14629629629629629],[0.030208333333333334,0.14814814814814814],[0.026041666666666668,0.1537037037037037],[0.025,0.1537037037037037],[0.025,0.1537037037037037],[0.025,0.1537037037037037],[0.025,0.1537037037037037],[0.025,0.1537037037037037],[0.025,0.1537037037037037],[0.025,0.1537037037037037],[0.025,0.1537037037037037],[0.025,0.1537037037037037],[0.025,0.1537037037037037],[0.025,0.1537037037037037],[0.025,0.1537037037037037],[0.025,0.1537037037037037],[0.025,0.1537037037037037],[0.025,0.1537037037037037],[0.025,0.1537037037037037],[0.025,0.1537037037037037],[0.025,0.1537037037037037],[0.025,0.1537037037037037],[0.025,0.1537037037037037],[0.025,0.1537037037037037],[0.025,0.1537037037037037],[0.025,0.1537037037037037],[0.025,0.1537037037037037],[0.025,0.1537037037037037],[0.025,0.1537037037037037],[0.025,0.1537037037037037],[0.025,0.1537037037037037],[0.025,0.1537037037037037],[0.025,0.1537037037037037],[0.025,0.1537037037037037],[0.025,0.1537037037037037],[0.025,0.1537037037037037],[0.025,0.1537037037037037],[0.025,0.1537037037037037],[0.025,0.1537037037037037],[0.025,0.1537037037037037],[0.025,0.1537037037037037],[0.01875,0.1537037037037037],[0.015625,0.1537037037037037],[0.008333333333333333,0.1537037037037037],[0.007291666666666667,0.1537037037037037],[0.005208333333333333,0.1537037037037037],[0.004166666666666667,0.1537037037037037],[0.004166666666666667,0.1537037037037037],[0.004166666666666667,0.1537037037037037],[0.004166666666666667,0.1537037037037037],[0.004166666666666667,0.1537037037037037],[0.004166666666666667,0.1537037037037037],[0.004166666666666667,0.1537037037037037],[0.004166666666666667,0.1537037037037037],[0.004166666666666667,0.1537037037037037],[0.004166666666666667,0.1537037037037037],[0.004166666666666667,0.1537037037037037],[0.0020833333333333333,0.1537037037037037],[0.0020833333333333333,0.1537037037037037],[0.0020833333333333333,0.1537037037037037],[0.0010416666666666667,0.1537037037037037],[-0.004166666666666667,0.15555555555555556],[-0.005208333333333333,0.15555555555555556],[-0.00625,0.1574074074074074],[-0.007291666666666667,0.15925925925925927],[-0.008333333333333333,0.16111111111111112],[-0.008333333333333333,0.16111111111111112],[-0.008333333333333333,0.16111111111111112]]","[[-0.5115625,0.04333333333333329],[-0.5115625,0.04333333333333329],[-0.5115625,0.04333333333333329],[-0.5073958333333334,0.060370370370370414],[-0.5073958333333334,0.060370370370370414],[-0.47458333333333336,0.027222222222222307],[-0.47458333333333336,0.027222222222222307],[-0.47104166666666664,0.02629629629629638],[-0.47104166666666664,0.02629629629629638],[-0.47104166666666664,0.02629629629629638],[-0.47104166666666664,0.02629629629629638],[-0.4514583333333333,-0.009259259259259259],[-0.4514583333333333,-0.009259259259259259],[-0.4295833333333333,-0.05388888888888893],[-0.4295833333333333,-0.05388888888888893],[-0.4133333333333333,-0.08462962962962961],[-0.4133333333333333,-0.08462962962962961],[-0.39968750000000003,-0.09166666666666666],[-0.39968750000000003,-0.09166666666666666],[-0.381875,-0.09981481481481477],[-0.381875,-0.09981481481481477],[-0.3651041666666667,-0.07555555555555557],[-0.3651041666666667,-0.07555555555555557],[-0.3664583333333333,-0.07296296296296292],[-0.3664583333333333,-0.07296296296296292],[-0.3814583333333334,-0.07185185185185188],[-0.3814583333333334,-0.07185185185185188],[-0.4111458333333334,-0.04740740740740745],[-0.4111458333333334,-0.04740740740740745],[-0.40656249999999994,-0.05240740740740743],[-0.40656249999999994,-0.05240740740740743],[-0.4092708333333333,-0.058333333333333334],[-0.4092708333333333,-0.058333333333333334],[-0.43875000000000003,-0.03166666666666671],[-0.43875000000000003,-0.03166666666666671],[-0.4616666666666667,-0.06555555555555552],[-0.4616666666666667,-0.06555555555555552],[-0.495,-0.10925925925925926],[-0.495,-0.10925925925925926],[-0.5039583333333334,-0.1381481481481482],[-0.5039583333333334,-0.1381481481481482],[-0.5142708333333333,-0.17074074074074072],[-0.5142708333333333,-0.17074074074074072],[-0.5172916666666667,-0.15870370370370368],[-0.5172916666666667,-0.15870370370370368],[-0.5036458333333333,-0.17074074074074072],[-0.5036458333333333,-0.17074074074074072],[-0.49,-0.18592592592592588],[-0.49,-0.18592592592592588],[-0.4938541666666667,-0.17999999999999997],[-0.4938541666666667,-0.17999999999999997],[-0.48854166666666665,-0.1712962962962963],[-0.48854166666666665,-0.1712962962962963],[-0.4909375,-0.1727777777777778],[-0.4909375,-0.1727777777777778],[-0.4896875,-0.14759259259259258],[-0.4896875,-0.14759259259259258],[-0.4483333333333333,-0.10574074074074079],[-0.4483333333333333,-0.10574074074074079],[-0.4460416666666667,-0.07666666666666662],[-0.4460416666666667,-0.07666666666666662],[-0.4460416666666667,-0.07666666666666662],[-0.46197916666666666,-0.07240740740740745],[-0.46197916666666666,-0.07240740740740745],[-0.47072916666666664,-0.11870370370370374],[-0.47072916666666664,-0.11870370370370374],[-0.4748958333333333,-0.14611111111111108],[-0.4748958333333333,-0.14611111111111108],[-0.4813541666666667,-0.1522222222222222],[-0.4813541666666667,-0.1522222222222222],[-0.5032291666666667,-0.18203703703703705],[-0.5032291666666667,-0.18203703703703705],[-0.4973958333333333,-0.19148148148148145],[-0.4973958333333333,-0.19148148148148145],[-0.47760416666666666,-0.2346296296296296],[-0.47760416666666666,-0.2346296296296296],[-0.45437500000000003,-0.25388888888888894],[-0.45437500000000003,-0.25388888888888894],[-0.4778125,-0.2770370370370371],[-0.4778125,-0.2770370370370371],[-0.46770833333333334,-0.30481481481481487],[-0.46770833333333334,-0.30481481481481487],[-0.4361458333333334,-0.3118518518518518],[-0.4361458333333334,-0.3118518518518518],[-0.4253124999999999,-0.3001851851851852],[-0.4253124999999999,-0.3001851851851852],[-0.41281249999999997,-0.2807407407407408],[-0.41281249999999997,-0.2807407407407408],[-0.3997916666666666,-0.2838888888888889],[-0.3997916666666666,-0.2838888888888889],[-0.3997916666666666,-0.2838888888888889],[-0.37072916666666667,-0.27092592592592596],[-0.37072916666666667,-0.27092592592592596],[-0.37072916666666667,-0.27092592592592596],[-0.37072916666666667,-0.27092592592592596],[-0.3802083333333333,-0.2785185185185185],[-0.3802083333333333,-0.2785185185185185],[-0.3732291666666666,-0.25999999999999995],[-0.3732291666666666,-0.25999999999999995],[-0.37124999999999997,-0.23925925925925923],[-0.37124999999999997,-0.23925925925925923],[-0.3438541666666667,-0.23851851851851855],[-0.3438541666666667,-0.23851851851851855],[-0.3501041666666667,-0.19074074074074074],[-0.3501041666666667,-0.19074074074074074],[-0.3388541666666666,-0.19759259259259257],[-0.3388541666666666,-0.19759259259259257],[-0.33958333333333335,-0.18425925925925926],[-0.33958333333333335,-0.18425925925925926],[-0.33958333333333335,-0.18425925925925926],[-0.33958333333333335,-0.18425925925925926],[-0.3467708333333333,-0.1742592592592593],[-0.3467708333333333,-0.1742592592592593],[-0.35916666666666663,-0.17],[-0.35916666666666663,-0.17],[-0.35885416666666664,-0.17851851851851847],[-0.35885416666666664,-0.17851851851851847],[-0.35885416666666664,-0.17851851851851847],[-0.35885416666666664,-0.17851851851851847],[-0.36447916666666663,-0.18666666666666668],[-0.36447916666666663,-0.18666666666666668],[-0.3841666666666666,-0.18592592592592588],[-0.3841666666666666,-0.18592592592592588],[-0.39739583333333334,-0.19907407407407407],[-0.39739583333333334,-0.19907407407407407],[-0.40593750000000006,-0.1977777777777778],[-0.40593750000000006,-0.1977777777777778],[-0.3997916666666666,-0.2381481481481482],[-0.3997916666666666,-0.2381481481481482],[-0.4158333333333334,-0.24129629629629631],[-0.4158333333333334,-0.24129629629629631],[-0.4165625,-0.252962962962963],[-0.4165625,-0.252962962962963],[-0.4165625,-0.252962962962963],[-0.4165625,-0.252962962962963],[-0.40750000000000003,-0.24981481481481477],[-0.40750000000000003,-0.24981481481481477],[-0.40750000000000003,-0.24981481481481477],[-0.40750000000000003,-0.24981481481481477],[-0.39895833333333336,-0.2381481481481482],[-0.39895833333333336,-0.2381481481481482],[-0.3963541666666667,-0.2537037037037037],[-0.3963541666666667,-0.2537037037037037],[-0.4,-0.25333333333333335],[-0.4,-0.25333333333333335],[-0.37864583333333335,-0.2681481481481482],[-0.37864583333333335,-0.2681481481481482],[-0.36822916666666666,-0.2627777777777777],[-0.36822916666666666,-0.2627777777777777],[-0.3676041666666666,-0.25148148148148153],[-0.3676041666666666,-0.25148148148148153],[-0.3676041666666666,-0.25148148148148153],[-0.35916666666666663,-0.23185185185185184],[-0.35916666666666663,-0.23185185185185184],[-0.365,-0.24444444444444444],[-0.365,-0.24444444444444444],[-0.3701041666666666,-0.25759259259259265],[-0.3701041666666666,-0.25759259259259265],[-0.3701041666666666,-0.25759259259259265],[-0.3701041666666666,-0.25759259259259265],[-0.3642708333333334,-0.29962962962962963],[-0.3642708333333334,-0.29962962962962963],[-0.3625,-0.2942592592592592],[-0.3625,-0.2942592592592592],[-0.3603125,-0.26777777777777784],[-0.3603125,-0.26777777777777784],[-0.3455208333333334,-0.2492592592592593],[-0.3455208333333334,-0.2492592592592593],[-0.34489583333333335,-0.24074074074074073],[-0.34489583333333335,-0.24074074074074073],[-0.34489583333333335,-0.24074074074074073],[-0.34489583333333335,-0.24074074074074073],[-0.33260416666666665,-0.21203703703703702],[-0.33260416666666665,-0.21203703703703702],[-0.3438541666666667,-0.24407407407407408],[-0.3438541666666667,-0.24407407407407408],[-0.3648958333333333,-0.25629629629629624],[-0.3648958333333333,-0.25629629629629624],[-0.3541666666666667,-0.225],[-0.3541666666666667,-0.225],[-0.34312499999999996,-0.22444444444444442],[-0.34312499999999996,-0.22444444444444442],[-0.34427083333333336,-0.20851851851851855],[-0.34427083333333336,-0.20851851851851855],[-0.35697916666666674,-0.19740740740740745],[-0.35697916666666674,-0.19740740740740745],[-0.3748958333333333,-0.17592592592592593],[-0.3748958333333333,-0.17592592592592593],[-0.37854166666666667,-0.17333333333333337],[-0.37854166666666667,-0.17333333333333337],[-0.37854166666666667,-0.17333333333333337],[-0.37854166666666667,-0.17333333333333337],[-0.34645833333333337,-0.18499999999999997],[-0.34645833333333337,-0.18499999999999997],[-0.3390625,-0.21851851851851853],[-0.3390625,-0.21851851851851853],[-0.30114583333333333,-0.11740740740740736],[-0.30114583333333333,-0.11740740740740736],[-0.26135416666666667,-0.053148148148148125],[-0.26135416666666667,-0.053148148148148125],[-0.2627083333333334,0.009814814814814731],[-0.2627083333333334,0.009814814814814731],[-0.2203125,0.0816666666666667],[-0.2203125,0.0816666666666667],[-0.20145833333333332,0.1544444444444444],[-0.20145833333333332,0.1544444444444444],[-0.20145833333333332,0.1544444444444444],[-0.20145833333333332,0.1544444444444444],[-0.15739583333333335,0.17925925925925917],[-0.15739583333333335,0.17925925925925917],[-0.1,0.24018518518518528],[-0.1,0.24018518518518528],[-0.1,0.24018518518518528],[-0.1,0.24018518518518528],[-0.08479166666666664,0.26962962962962966],[-0.08479166666666664,0.26962962962962966],[-0.08479166666666664,0.26962962962962966],[-0.08479166666666664,0.26962962962962966],[-0.07218749999999995,0.34148148148148144],[-0.07218749999999995,0.34148148148148144],[-0.07604166666666666,0.3912962962962962],[-0.07604166666666666,0.3912962962962962],[-0.07104166666666671,0.3942592592592592],[-0.07104166666666671,0.3942592592592592],[-0.07104166666666671,0.3942592592592592],[-0.07104166666666671,0.3942592592592592],[-0.09354166666666662,0.38555555555555565],[-0.09354166666666662,0.38555555555555565],[-0.0828125,0.3709259259259258],[-0.0828125,0.3709259259259258],[-0.10885416666666667,0.352962962962963],[-0.10885416666666667,0.352962962962963],[-0.078125,0.37592592592592594],[-0.078125,0.37592592592592594],[-0.04354166666666662,0.4087037037037038],[-0.04354166666666662,0.4087037037037038],[-0.05145833333333331,0.3827777777777779],[-0.05145833333333331,0.3827777777777779],[-0.03135416666666669,0.37111111111111106],[-0.03135416666666669,0.37111111111111106],[-0.034895833333333334,0.3653703703703703],[-0.034895833333333334,0.3653703703703703],[-0.022812499999999975,0.3772222222222223],[-0.022812499999999975,0.3772222222222223],[-0.022812499999999975,0.3772222222222223],[-0.03322916666666664,0.38555555555555565],[-0.03322916666666664,0.38555555555555565],[-0.003125,0.35777777777777786],[-0.003125,0.35777777777777786],[0.004375000000000047,0.3290740740740742],[0.004375000000000047,0.3290740740740742],[0.02510416666666669,0.33351851851851855],[0.02510416666666669,0.33351851851851855],[-0.0002083333333333807,0.29074074074074074],[-0.0002083333333333807,0.29074074074074074],[-0.02802083333333331,0.23185185185185195],[-0.02802083333333331,0.23185185185185195],[-0.017916666666666713,0.17925925925925917],[-0.017916666666666713,0.17925925925925917],[-0.01260416666666669,0.14462962962962966],[-0.01260416666666669,0.14462962962962966],[-0.024479166666666666,0.11629629629629622],[-0.024479166666666666,0.11629629629629622],[-0.012916666666666642,0.06111111111111111],[-0.012916666666666642,0.06111111111111111],[0.008437500000000023,-0.0294444444444444],[0.008437500000000023,-0.0294444444444444],[0.0140625,-0.04462962962962967],[0.0140625,-0.04462962962962967],[0.03447916666666669,-0.041666666666666664],[0.03447916666666669,-0.041666666666666664],[0.03447916666666669,-0.041666666666666664],[0.03447916666666669,-0.041666666666666664],[0.03447916666666669,-0.041666666666666664],[0.03447916666666669,-0.041666666666666664],[0.03447916666666669,-0.041666666666666664],[0.033645833333333285,-0.072037037037037],[0.033645833333333285,-0.072037037037037],[0.033645833333333285,-0.072037037037037],[0.044479166666666715,-0.06166666666666669],[0.044479166666666715,-0.06166666666666669],[0.04072916666666669,-0.02111111111111107],[0.04072916666666669,-0.02111111111111107],[0.04812500000000005,-0.02296296296296292],[0.04812500000000005,-0.02296296296296292],[0.03729166666666662,0.002407407407407323],[0.03729166666666662,0.002407407407407323],[0.051041666666666666,0.012777777777777735],[0.051041666666666666,0.012777777777777735],[0.051041666666666666,0.012777777777777735],[0.051979166666666646,0.02629629629629638],[0.051979166666666646,0.02629629629629638],[0.030208333333333334,0.03740740740740749],[0.030208333333333334,0.03740740740740749],[0.013541666666666667,0.06444444444444436],[0.013541666666666667,0.06444444444444436],[0.008020833333333382,0.053703703703703705],[0.008020833333333382,0.053703703703703705],[0.005520833333333286,0.03166666666666671],[0.005520833333333286,0.03166666666666671],[0.0067708333333333336,0.005555555555555556],[0.0067708333333333336,0.005555555555555556],[0.02947916666666662,-0.041111111111111195],[0.02947916666666662,-0.041111111111111195],[-0.0015625,-0.03185185185185194],[-0.0015625,-0.03185185185185194],[0.01583333333333338,-0.05129629629629638],[0.01583333333333338,-0.05129629629629638],[0.02312500000000005,-0.09055555555555551],[0.02312500000000005,-0.09055555555555551],[0.017708333333333333,-0.06722222222222224],[0.017708333333333333,-0.06722222222222224],[0.030624999999999975,-0.056851851851851834],[0.030624999999999975,-0.056851851851851834],[0.0328125,-0.06388888888888888],[0.0328125,-0.06388888888888888],[0.04708333333333338,-0.06796296296296295],[0.04708333333333338,-0.06796296296296295],[0.04635416666666667,-0.037037037037037035],[0.04635416666666667,-0.037037037037037035],[0.05281250000000005,-0.01796296296296305],[0.05281250000000005,-0.01796296296296305],[0.05281250000000005,-0.01796296296296305],[0.05281250000000005,-0.01796296296296305],[0.013125000000000024,0.05185185185185185],[0.013125000000000024,0.05185185185185185],[0.013125000000000024,0.05185185185185185],[0.013125000000000024,0.05185185185185185],[0.03677083333333329,0.060370370370370414],[0.03677083333333329,0.060370370370370414],[0.022812499999999975,0.052037037037037076]]","[[-0.5115625,0.04333333333333329,0.00019999998806952135],[-0.5115625,0.04333333333333329,0.03830000001191536],[-0.5115625,0.04333333333333329,0.040399999976159506],[-0.5073958333333334,0.060370370370370414,0.07439999997615132],[-0.5073958333333334,0.060370370370370414,0.08169999998807498],[-0.47458333333333336,0.027222222222222307,0.10859999996422687],[-0.47458333333333336,0.027222222222222307,0.11559999996423187],[-0.47104166666666664,0.02629629629629638,0.1431999999880702],[-0.47104166666666664,0.02629629629629638,0.15209999996423562],[-0.47104166666666664,0.02629629629629638,0.15669999998807782],[-0.47104166666666664,0.02629629629629638,0.17419999998807612],[-0.4514583333333333,-0.009259259259259259,0.20769999998807975],[-0.4514583333333333,-0.009259259259259259,0.21530000001192207],[-0.4295833333333333,-0.05388888888888893,0.24059999996423187],[-0.4295833333333333,-0.05388888888888893,0.24839999997615791],[-0.4133333333333333,-0.08462962962962961,0.27619999998808],[-0.4133333333333333,-0.08462962962962961,0.2839999999999918],[-0.39968750000000003,-0.09166666666666666,0.3085999999642297],[-0.39968750000000003,-0.09166666666666666,0.315399999976151],[-0.381875,-0.09981481481481477,0.340999999999994],[-0.381875,-0.09981481481481477,0.3488999999761546],[-0.3651041666666667,-0.07555555555555557,0.37530000001191866],[-0.3651041666666667,-0.07555555555555557,0.38180000001192127],[-0.3664583333333333,-0.07296296296296292,0.40749999999999886],[-0.3664583333333333,-0.07296296296296292,0.4160999999642314],[-0.3814583333333334,-0.07185185185185188,0.44080000001191877],[-0.3814583333333334,-0.07185185185185188,0.4475999999642255],[-0.4111458333333334,-0.04740740740740745,0.47539999997614757],[-0.4111458333333334,-0.04740740740740745,0.48289999997615496],[-0.40656249999999994,-0.05240740740740743,0.5074999999999932],[-0.40656249999999994,-0.05240740740740743,0.5188999999761563],[-0.4092708333333333,-0.058333333333333334,0.5425999999642386],[-0.4092708333333333,-0.058333333333333334,0.5558999999761483],[-0.43875000000000003,-0.03166666666666671,0.575499999999991],[-0.43875000000000003,-0.03166666666666671,0.5820999999642282],[-0.4616666666666667,-0.06555555555555552,0.6073999999761526],[-0.4616666666666667,-0.06555555555555552,0.6180999999642296],[-0.495,-0.10925925925925926,0.6421999999880796],[-0.495,-0.10925925925925926,0.6501999999880752],[-0.5039583333333334,-0.1381481481481482,0.6763999999761552],[-0.5039583333333334,-0.1381481481481482,0.6849999999999881],[-0.5142708333333333,-0.17074074074074072,0.708899999976154],[-0.5142708333333333,-0.17074074074074072,0.7160999999642286],[-0.5172916666666667,-0.15870370370370368,0.7410999999642343],[-0.5172916666666667,-0.15870370370370368,0.748099999964225],[-0.5036458333333333,-0.17074074074074072,0.7740999999642355],[-0.5036458333333333,-0.17074074074074072,0.7810999999642263],[-0.49,-0.18592592592592588,0.8073999999761554],[-0.49,-0.18592592592592588,0.8140999999642275],[-0.4938541666666667,-0.17999999999999997,0.840899999976159],[-0.4938541666666667,-0.17999999999999997,0.847999999999999],[-0.48854166666666665,-0.1712962962962963,0.8754999999999882],[-0.48854166666666665,-0.1712962962962963,0.8821999999880745],[-0.4909375,-0.1727777777777778,0.9088999999761569],[-0.4909375,-0.1727777777777778,0.9163000000119155],[-0.4896875,-0.14759259259259258,0.9406999999880696],[-0.4896875,-0.14759259259259258,0.9486999999880794],[-0.4483333333333333,-0.10574074074074079,0.9761999999880686],[-0.4483333333333333,-0.10574074074074079,0.9843999999761479],[-0.4460416666666667,-0.07666666666666662,1.0093999999761607],[-0.4460416666666667,-0.07666666666666662,1.0159999999999982],[-0.4460416666666667,-0.07666666666666662,1.02469999998808],[-0.46197916666666666,-0.07240740740740745,1.0590999999642392],[-0.46197916666666666,-0.07240740740740745,1.0670000000000002],[-0.47072916666666664,-0.11870370370370374,1.0933000000119293],[-0.47072916666666664,-0.11870370370370374,1.1006999999880875],[-0.4748958333333333,-0.14611111111111108,1.1243999999761556],[-0.4748958333333333,-0.14611111111111108,1.131899999976163],[-0.4813541666666667,-0.1522222222222222,1.1583999999761616],[-0.4813541666666667,-0.1522222222222222,1.168300000011918],[-0.5032291666666667,-0.18203703703703705,1.1931999999880745],[-0.5032291666666667,-0.18203703703703705,1.1999999999999957],[-0.4973958333333333,-0.19148148148148145,1.2261999999880757],[-0.4973958333333333,-0.19148148148148145,1.233800000011918],[-0.47760416666666666,-0.2346296296296296,1.2590000000000074],[-0.47760416666666666,-0.2346296296296296,1.266199999988082],[-0.45437500000000003,-0.25388888888888894,1.2926999999880806],[-0.45437500000000003,-0.25388888888888894,1.3010999999642436],[-0.4778125,-0.2770370370370371,1.3258999999761656],[-0.4778125,-0.2770370370370371,1.3330000000000055],[-0.46770833333333334,-0.30481481481481487,1.3591999999880855],[-0.46770833333333334,-0.30481481481481487,1.368699999988074],[-0.4361458333333334,-0.3118518518518518,1.3908000000119287],[-0.4361458333333334,-0.3118518518518518,1.3999999999999986],[-0.4253124999999999,-0.3001851851851852,1.42589999997616],[-0.4253124999999999,-0.3001851851851852,1.4335000000000022],[-0.41281249999999997,-0.2807407407407408,1.4593999999761635],[-0.41281249999999997,-0.2807407407407408,1.4661999999880848],[-0.3997916666666666,-0.2838888888888889,1.4933999999761554],[-0.3997916666666666,-0.2838888888888889,1.5045000000000002],[-0.3997916666666666,-0.2838888888888889,1.5103000000119167],[-0.37072916666666667,-0.27092592592592596,1.5429999999999993],[-0.37072916666666667,-0.27092592592592596,1.5511999999880786],[-0.37072916666666667,-0.27092592592592596,1.5566999999880764],[-0.37072916666666667,-0.27092592592592596,1.5748000000119262],[-0.3802083333333333,-0.2785185185185185,1.6075999999642434],[-0.3802083333333333,-0.2785185185185185,1.614199999988081],[-0.3732291666666666,-0.25999999999999995,1.641199999988082],[-0.3732291666666666,-0.25999999999999995,1.6488000000119243],[-0.37124999999999997,-0.23925925925925923,1.67589999997616],[-0.37124999999999997,-0.23925925925925923,1.6831999999880836],[-0.3438541666666667,-0.23851851851851855,1.710800000011922],[-0.3438541666666667,-0.23851851851851855,1.7178999999761615],[-0.3501041666666667,-0.19074074074074074,1.7431999999880858],[-0.3501041666666667,-0.19074074074074074,1.750000000000007],[-0.3388541666666666,-0.19759259259259257,1.7740999999642426],[-0.3388541666666666,-0.19759259259259257,1.7820999999642382],[-0.33958333333333335,-0.18425925925925926,1.8098999999761602],[-0.33958333333333335,-0.18425925925925926,1.8173999999761534],[-0.33958333333333335,-0.18425925925925926,1.8235000000000028],[-0.33958333333333335,-0.18425925925925926,1.8413000000119197],[-0.3467708333333333,-0.1742592592592593,1.874099999964237],[-0.3467708333333333,-0.1742592592592593,1.8810000000000073],[-0.35916666666666663,-0.17,1.9073999999761568],[-0.35916666666666663,-0.17,1.916599999964241],[-0.35885416666666664,-0.17851851851851847,1.9430999999642395],[-0.35885416666666664,-0.17851851851851847,1.9500999999642445],[-0.35885416666666664,-0.17851851851851847,1.956699999988082],[-0.35885416666666664,-0.17851851851851847,1.974499999999999],[-0.36447916666666663,-0.18666666666666668,2.0094999999999956],[-0.36447916666666663,-0.18666666666666668,2.0165000000000006],[-0.3841666666666666,-0.18592592592592588,2.04080000001192],[-0.3841666666666666,-0.18592592592592588,2.049399999976167],[-0.39739583333333334,-0.19907407407407407,2.074000000000005],[-0.39739583333333334,-0.19907407407407407,2.081899999976166],[-0.40593750000000006,-0.1977777777777778,2.109399999976155],[-0.40593750000000006,-0.1977777777777778,2.117300000011916],[-0.3997916666666666,-0.2381481481481482,2.1431999999880773],[-0.3997916666666666,-0.2381481481481482,2.1501999999880823],[-0.4158333333333334,-0.24129629629629631,2.1761999999880786],[-0.4158333333333334,-0.24129629629629631,2.183800000011921],[-0.4165625,-0.252962962962963,2.2093999999761635],[-0.4165625,-0.252962962962963,2.217000000000006],[-0.4165625,-0.252962962962963,2.2233999999761593],[-0.4165625,-0.252962962962963,2.2410999999642414],[-0.40750000000000003,-0.24981481481481477,2.2766999999880753],[-0.40750000000000003,-0.24981481481481477,2.2833999999761616],[-0.40750000000000003,-0.24981481481481477,2.2900999999642337],[-0.40750000000000003,-0.24981481481481477,2.307599999964232],[-0.39895833333333336,-0.2381481481481482,2.3426999999880778],[-0.39895833333333336,-0.2381481481481482,2.3500000000000014],[-0.3963541666666667,-0.2537037037037037,2.3761999999880814],[-0.3963541666666667,-0.2537037037037037,2.3831999999880864],[-0.4,-0.25333333333333335,2.407500000000006],[-0.4,-0.25333333333333335,2.4144999999999968],[-0.37864583333333335,-0.2681481481481482,2.4425000000000026],[-0.37864583333333335,-0.2681481481481482,2.449300000011924],[-0.36822916666666666,-0.2627777777777777,2.4740999999642455],[-0.36822916666666666,-0.2627777777777777,2.4820000000000064],[-0.3676041666666666,-0.25148148148148153,2.511800000011924],[-0.3676041666666666,-0.25148148148148153,2.523099999964238],[-0.3676041666666666,-0.25148148148148153,2.53069999998808],[-0.35916666666666663,-0.23185185185185184,2.5588999999761555],[-0.35916666666666663,-0.23185185185185184,2.5656999999880767],[-0.365,-0.24444444444444444,2.5936999999880825],[-0.365,-0.24444444444444444,2.6019999999999968],[-0.3701041666666666,-0.25759259259259265,2.626399999976165],[-0.3701041666666666,-0.25759259259259265,2.6333000000119213],[-0.3701041666666666,-0.25759259259259265,2.6400000000000077],[-0.3701041666666666,-0.25759259259259265,2.6578000000119246],[-0.3642708333333334,-0.29962962962962963,2.6946999999880816],[-0.3642708333333334,-0.29962962962962963,2.702300000011924],[-0.3625,-0.2942592592592592,2.7263999999761594],[-0.3625,-0.2942592592592592,2.7363000000119158],[-0.3603125,-0.26777777777777784,2.7573000000119166],[-0.3603125,-0.26777777777777784,2.764699999988075],[-0.3455208333333334,-0.2492592592592593,2.7938000000119203],[-0.3455208333333334,-0.2492592592592593,2.8023000000119183],[-0.34489583333333335,-0.24074074074074073,2.8261999999880842],[-0.34489583333333335,-0.24074074074074073,2.833300000011924],[-0.34489583333333335,-0.24074074074074073,2.840099999964245],[-0.34489583333333335,-0.24074074074074073,2.8575999999642434],[-0.33260416666666665,-0.21203703703703702,2.8906999999880796],[-0.33260416666666665,-0.21203703703703702,2.898699999988075],[-0.3438541666666667,-0.24407407407407408,2.925699999988076],[-0.3438541666666667,-0.24407407407407408,2.9333000000119185],[-0.3648958333333333,-0.25629629629629624,2.957399999976154],[-0.3648958333333333,-0.25629629629629624,2.96519999998808],[-0.3541666666666667,-0.225,2.990800000011923],[-0.3541666666666667,-0.225,3.0000999999642417],[-0.34312499999999996,-0.22444444444444442,3.0258000000119196],[-0.34312499999999996,-0.22444444444444442,3.0326999999880755],[-0.34427083333333336,-0.20851851851851855,3.059099999964239],[-0.34427083333333336,-0.20851851851851855,3.0665999999642324],[-0.35697916666666674,-0.19740740740740745,3.0906999999880824],[-0.35697916666666674,-0.19740740740740745,3.098699999988078],[-0.3748958333333333,-0.17592592592592593,3.125800000011928],[-0.3748958333333333,-0.17592592592592593,3.1338999999761583],[-0.37854166666666667,-0.17333333333333337,3.1615999999642455],[-0.37854166666666667,-0.17333333333333337,3.1688000000119203],[-0.37854166666666667,-0.17333333333333337,3.173399999976162],[-0.37854166666666667,-0.17333333333333337,3.1909999999999954],[-0.34645833333333337,-0.18499999999999997,3.2261999999880757],[-0.34645833333333337,-0.18499999999999997,3.232999999999997],[-0.3390625,-0.21851851851851853,3.2630999999642327],[-0.3390625,-0.21851851851851853,3.27169999998808],[-0.30114583333333333,-0.11740740740740736,3.2933999999761667],[-0.30114583333333333,-0.11740740740740736,3.301499999999997],[-0.26135416666666667,-0.053148148148148125,3.3300000000000054],[-0.26135416666666667,-0.053148148148148125,3.337599999964233],[-0.2627083333333334,0.009814814814814731,3.359699999988088],[-0.2627083333333334,0.009814814814814731,3.367199999988081],[-0.2203125,0.0816666666666667,3.395300000011922],[-0.2203125,0.0816666666666667,3.4024999999999963],[-0.20145833333333332,0.1544444444444444,3.4263999999761623],[-0.20145833333333332,0.1544444444444444,3.433500000000002],[-0.20145833333333332,0.1544444444444444,3.440000000000005],[-0.20145833333333332,0.1544444444444444,3.4575999999642377],[-0.15739583333333335,0.17925925925925917,3.490599999964239],[-0.15739583333333335,0.17925925925925917,3.5004999999999953],[-0.1,0.24018518518518528,3.5241999999880775],[-0.1,0.24018518518518528,3.534599999964236],[-0.1,0.24018518518518528,3.5400999999642337],[-0.1,0.24018518518518528,3.557599999964232],[-0.08479166666666664,0.26962962962962966,3.5930999999642452],[-0.08479166666666664,0.26962962962962966,3.6006999999880875],[-0.08479166666666664,0.26962962962962966,3.6066999999880878],[-0.08479166666666664,0.26962962962962966,3.625800000011928],[-0.07218749999999995,0.34148148148148144,3.657399999976157],[-0.07218749999999995,0.34148148148148144,3.6653999999761666],[-0.07604166666666666,0.3912962962962962,3.690800000011926],[-0.07604166666666666,0.3912962962962962,3.6988000000119214],[-0.07104166666666671,0.3942592592592592,3.7261999999880757],[-0.07104166666666671,0.3942592592592592,3.7340999999642364],[-0.07104166666666671,0.3942592592592592,3.740000000000002],[-0.07104166666666671,0.3942592592592592,3.757599999964235],[-0.09354166666666662,0.38555555555555565,3.7906999999880853],[-0.09354166666666662,0.38555555555555565,3.798000000000009],[-0.0828125,0.3709259259259258,3.8245000000000076],[-0.0828125,0.3709259259259258,3.8333999999761588],[-0.10885416666666667,0.352962962962963,3.860500000000009],[-0.10885416666666667,0.352962962962963,3.867399999976165],[-0.078125,0.37592592592592594,3.8931999999880773],[-0.078125,0.37592592592592594,3.9006999999880847],[-0.04354166666666662,0.4087037037037038,3.929300000011928],[-0.04354166666666662,0.4087037037037038,3.936800000011921],[-0.05145833333333331,0.3827777777777779,3.9603000000119195],[-0.05145833333333331,0.3827777777777779,3.969099999964236],[-0.03135416666666669,0.37111111111111106,3.995899999976153],[-0.03135416666666669,0.37111111111111106,4.003999999999998],[-0.034895833333333334,0.3653703703703703,4.027599999964245],[-0.034895833333333334,0.3653703703703703,4.037099999964234],[-0.022812499999999975,0.3772222222222223,4.064199999988084],[-0.022812499999999975,0.3772222222222223,4.072499999999998],[-0.022812499999999975,0.3772222222222223,4.074800000011926],[-0.03322916666666664,0.38555555555555565,4.109699999988088],[-0.03322916666666664,0.38555555555555565,4.126199999988081],[-0.003125,0.35777777777777786,4.14259999996424],[-0.003125,0.35777777777777786,4.149499999999996],[0.004375000000000047,0.3290740740740742,4.178599999964241],[0.004375000000000047,0.3290740740740742,4.185399999976163],[0.02510416666666669,0.33351851851851855,4.20919999998808],[0.02510416666666669,0.33351851851851855,4.216599999964238],[-0.0002083333333333807,0.29074074074074074,4.245399999976165],[-0.0002083333333333807,0.29074074074074074,4.2520000000000024],[-0.02802083333333331,0.23185185185185195,4.275899999976154],[-0.02802083333333331,0.23185185185185195,4.283399999976162],[-0.017916666666666713,0.17925925925925917,4.311899999976156],[-0.017916666666666713,0.17925925925925917,4.319199999988079],[-0.01260416666666669,0.14462962962962966,4.342800000011927],[-0.01260416666666669,0.14462962962962966,4.3498999999761665],[-0.024479166666666666,0.11629629629629622,4.379099999964232],[-0.024479166666666666,0.11629629629629622,4.386800000011924],[-0.012916666666666642,0.06111111111111111,4.409399999976166],[-0.012916666666666642,0.06111111111111111,4.418399999976167],[0.008437500000000023,-0.0294444444444444,4.445199999988084],[0.008437500000000023,-0.0294444444444444,4.452000000000005],[0.0140625,-0.04462962962962967,4.476000000000006],[0.0140625,-0.04462962962962967,4.483099999964246],[0.03447916666666669,-0.041666666666666664,4.511099999964237],[0.03447916666666669,-0.041666666666666664,4.522899999976154],[0.03447916666666669,-0.041666666666666664,4.526699999988075],[0.03447916666666669,-0.041666666666666664,4.541000000000004],[0.03447916666666669,-0.041666666666666664,4.557499999999997],[0.03447916666666669,-0.041666666666666664,4.57409999996424],[0.03447916666666669,-0.041666666666666664,4.590800000011917],[0.033645833333333285,-0.072037037037037,4.624000000000002],[0.033645833333333285,-0.072037037037037,4.633699999988075],[0.033645833333333285,-0.072037037037037,4.657300000011922],[0.044479166666666715,-0.06166666666666669,4.675800000011925],[0.044479166666666715,-0.06166666666666669,4.682300000011928],[0.04072916666666669,-0.02111111111111107,4.7093999999761635],[0.04072916666666669,-0.02111111111111107,4.716800000011922],[0.04812500000000005,-0.02296296296296292,4.740800000011923],[0.04812500000000005,-0.02296296296296292,4.750800000011928],[0.03729166666666662,0.002407407407407323,4.776899999976159],[0.03729166666666662,0.002407407407407323,4.797699999988076],[0.051041666666666666,0.012777777777777735,4.812099999964239],[0.051041666666666666,0.012777777777777735,4.821999999999996],[0.051041666666666666,0.012777777777777735,4.827599999964242],[0.051979166666666646,0.02629629629629638,4.857199999988076],[0.051979166666666646,0.02629629629629638,4.864899999976167],[0.030208333333333334,0.03740740740740749,4.891899999976154],[0.030208333333333334,0.03740740740740749,4.898800000011924],[0.013541666666666667,0.06444444444444436,4.9239999999999995],[0.013541666666666667,0.06444444444444436,4.932499999999997],[0.008020833333333382,0.053703703703703705,4.958500000000008],[0.008020833333333382,0.053703703703703705,4.96519999998808],[0.005520833333333286,0.03166666666666671,4.991899999976162],[0.005520833333333286,0.03166666666666671,4.999099999964237],[0.0067708333333333336,0.005555555555555556,5.025300000011917],[0.0067708333333333336,0.005555555555555556,5.032199999988087],[0.02947916666666662,-0.041111111111111195,5.058599999964237],[0.02947916666666662,-0.041111111111111195,5.0653000000119235],[-0.0015625,-0.03185185185185194,5.0938000000119175],[-0.0015625,-0.03185185185185194,5.100599999964238],[0.01583333333333338,-0.05129629629629638,5.125699999988079],[0.01583333333333338,-0.05129629629629638,5.134699999988079],[0.02312500000000005,-0.09055555555555551,5.160599999964241],[0.02312500000000005,-0.09055555555555551,5.167699999988081],[0.017708333333333333,-0.06722222222222224,5.192399999976153],[0.017708333333333333,-0.06722222222222224,5.199199999988075],[0.030624999999999975,-0.056851851851851834,5.225599999964238],[0.030624999999999975,-0.056851851851851834,5.23239999997616],[0.0328125,-0.06388888888888888,5.258699999988075],[0.0328125,-0.06388888888888888,5.266099999964233],[0.04708333333333338,-0.06796296296296295,5.292399999976162],[0.04708333333333338,-0.06796296296296295,5.299199999988083],[0.04635416666666667,-0.037037037037037035,5.3265999999642375],[0.04635416666666667,-0.037037037037037035,5.3330000000000055],[0.05281250000000005,-0.01796296296296305,5.360300000011925],[0.05281250000000005,-0.01796296296296305,5.366800000011928],[0.05281250000000005,-0.01796296296296305,5.373300000011916],[0.05281250000000005,-0.01796296296296305,5.391199999988082],[0.013125000000000024,0.05185185185185185,5.426499999999997],[0.013125000000000024,0.05185185185185185,5.4333000000119185],[0.013125000000000024,0.05185185185185185,5.440199999988074],[0.013125000000000024,0.05185185185185185,5.457800000011922],[0.03677083333333329,0.060370370370370414,5.493899999976158],[0.03677083333333329,0.060370370370370414,5.501399999976165],[0.022812499999999975,0.052037037037037076,5.527099999964243]]","[0.00019999998806952135,0.03830000001191536,0.040399999976159506,0.07439999997615132,0.08169999998807498,0.10859999996422687,0.11559999996423187,0.1431999999880702,0.15209999996423562,0.15669999998807782,0.17419999998807612,0.20769999998807975,0.21530000001192207,0.24059999996423187,0.24839999997615791,0.27619999998808,0.2839999999999918,0.3085999999642297,0.315399999976151,0.340999999999994,0.3488999999761546,0.37530000001191866,0.38180000001192127,0.40749999999999886,0.4160999999642314,0.44080000001191877,0.4475999999642255,0.47539999997614757,0.48289999997615496,0.5074999999999932,0.5188999999761563,0.5425999999642386,0.5558999999761483,0.575499999999991,0.5820999999642282,0.6073999999761526,0.6180999999642296,0.6421999999880796,0.6501999999880752,0.6763999999761552,0.6849999999999881,0.708899999976154,0.7160999999642286,0.7410999999642343,0.748099999964225,0.7740999999642355,0.7810999999642263,0.8073999999761554,0.8140999999642275,0.840899999976159,0.847999999999999,0.8754999999999882,0.8821999999880745,0.9088999999761569,0.9163000000119155,0.9406999999880696,0.9486999999880794,0.9761999999880686,0.9843999999761479,1.0093999999761607,1.0159999999999982,1.02469999998808,1.0590999999642392,1.0670000000000002,1.0933000000119293,1.1006999999880875,1.1243999999761556,1.131899999976163,1.1583999999761616,1.168300000011918,1.1931999999880745,1.1999999999999957,1.2261999999880757,1.233800000011918,1.2590000000000074,1.266199999988082,1.2926999999880806,1.3010999999642436,1.3258999999761656,1.3330000000000055,1.3591999999880855,1.368699999988074,1.3908000000119287,1.3999999999999986,1.42589999997616,1.4335000000000022,1.4593999999761635,1.4661999999880848,1.4933999999761554,1.5045000000000002,1.5103000000119167,1.5429999999999993,1.5511999999880786,1.5566999999880764,1.5748000000119262,1.6075999999642434,1.614199999988081,1.641199999988082,1.6488000000119243,1.67589999997616,1.6831999999880836,1.710800000011922,1.7178999999761615,1.7431999999880858,1.750000000000007,1.7740999999642426,1.7820999999642382,1.8098999999761602,1.8173999999761534,1.8235000000000028,1.8413000000119197,1.874099999964237,1.8810000000000073,1.9073999999761568,1.916599999964241,1.9430999999642395,1.9500999999642445,1.956699999988082,1.974499999999999,2.0094999999999956,2.0165000000000006,2.04080000001192,2.049399999976167,2.074000000000005,2.081899999976166,2.109399999976155,2.117300000011916,2.1431999999880773,2.1501999999880823,2.1761999999880786,2.183800000011921,2.2093999999761635,2.217000000000006,2.2233999999761593,2.2410999999642414,2.2766999999880753,2.2833999999761616,2.2900999999642337,2.307599999964232,2.3426999999880778,2.3500000000000014,2.3761999999880814,2.3831999999880864,2.407500000000006,2.4144999999999968,2.4425000000000026,2.449300000011924,2.4740999999642455,2.4820000000000064,2.511800000011924,2.523099999964238,2.53069999998808,2.5588999999761555,2.5656999999880767,2.5936999999880825,2.6019999999999968,2.626399999976165,2.6333000000119213,2.6400000000000077,2.6578000000119246,2.6946999999880816,2.702300000011924,2.7263999999761594,2.7363000000119158,2.7573000000119166,2.764699999988075,2.7938000000119203,2.8023000000119183,2.8261999999880842,2.833300000011924,2.840099999964245,2.8575999999642434,2.8906999999880796,2.898699999988075,2.925699999988076,2.9333000000119185,2.957399999976154,2.96519999998808,2.990800000011923,3.0000999999642417,3.0258000000119196,3.0326999999880755,3.059099999964239,3.0665999999642324,3.0906999999880824,3.098699999988078,3.125800000011928,3.1338999999761583,3.1615999999642455,3.1688000000119203,3.173399999976162,3.1909999999999954,3.2261999999880757,3.232999999999997,3.2630999999642327,3.27169999998808,3.2933999999761667,3.301499999999997,3.3300000000000054,3.337599999964233,3.359699999988088,3.367199999988081,3.395300000011922,3.4024999999999963,3.4263999999761623,3.433500000000002,3.440000000000005,3.4575999999642377,3.490599999964239,3.5004999999999953,3.5241999999880775,3.534599999964236,3.5400999999642337,3.557599999964232,3.5930999999642452,3.6006999999880875,3.6066999999880878,3.625800000011928,3.657399999976157,3.6653999999761666,3.690800000011926,3.6988000000119214,3.7261999999880757,3.7340999999642364,3.740000000000002,3.757599999964235,3.7906999999880853,3.798000000000009,3.8245000000000076,3.8333999999761588,3.860500000000009,3.867399999976165,3.8931999999880773,3.9006999999880847,3.929300000011928,3.936800000011921,3.9603000000119195,3.969099999964236,3.995899999976153,4.003999999999998,4.027599999964245,4.037099999964234,4.064199999988084,4.072499999999998,4.074800000011926,4.109699999988088,4.126199999988081,4.14259999996424,4.149499999999996,4.178599999964241,4.185399999976163,4.20919999998808,4.216599999964238,4.245399999976165,4.2520000000000024,4.275899999976154,4.283399999976162,4.311899999976156,4.319199999988079,4.342800000011927,4.3498999999761665,4.379099999964232,4.386800000011924,4.409399999976166,4.418399999976167,4.445199999988084,4.452000000000005,4.476000000000006,4.483099999964246,4.511099999964237,4.522899999976154,4.526699999988075,4.541000000000004,4.557499999999997,4.57409999996424,4.590800000011917,4.624000000000002,4.633699999988075,4.657300000011922,4.675800000011925,4.682300000011928,4.7093999999761635,4.716800000011922,4.740800000011923,4.750800000011928,4.776899999976159,4.797699999988076,4.812099999964239,4.821999999999996,4.827599999964242,4.857199999988076,4.864899999976167,4.891899999976154,4.898800000011924,4.9239999999999995,4.932499999999997,4.958500000000008,4.96519999998808,4.991899999976162,4.999099999964237,5.025300000011917,5.032199999988087,5.058599999964237,5.0653000000119235,5.0938000000119175,5.100599999964238,5.125699999988079,5.134699999988079,5.160599999964241,5.167699999988081,5.192399999976153,5.199199999988075,5.225599999964238,5.23239999997616,5.258699999988075,5.266099999964233,5.292399999976162,5.299199999988083,5.3265999999642375,5.3330000000000055,5.360300000011925,5.366800000011928,5.373300000011916,5.391199999988082,5.426499999999997,5.4333000000119185,5.440199999988074,5.457800000011922,5.493899999976158,5.501399999976165,5.527099999964243]","[1732873564574,1732873564605,1732873564607,1732873564641,1732873564649,1732873564676,1732873564683,1732873564710,1732873564719,1732873564724,1732873564741,1732873564775,1732873564782,1732873564808,1732873564815,1732873564843,1732873564851,1732873564876,1732873564882,1732873564908,1732873564916,1732873564942,1732873564949,1732873564974,1732873564983,1732873565008,1732873565015,1732873565042,1732873565050,1732873565075,1732873565086,1732873565110,1732873565123,1732873565143,1732873565149,1732873565174,1732873565185,1732873565209,1732873565217,1732873565243,1732873565252,1732873565276,1732873565283,1732873565308,1732873565315,1732873565341,1732873565348,1732873565374,1732873565381,1732873565408,1732873565415,1732873565443,1732873565449,1732873565476,1732873565483,1732873565508,1732873565516,1732873565543,1732873565551,1732873565576,1732873565583,1732873565592,1732873565626,1732873565634,1732873565660,1732873565668,1732873565691,1732873565699,1732873565725,1732873565735,1732873565760,1732873565767,1732873565793,1732873565801,1732873565826,1732873565833,1732873565860,1732873565868,1732873565893,1732873565900,1732873565926,1732873565936,1732873565958,1732873565967,1732873565993,1732873566000,1732873566026,1732873566033,1732873566060,1732873566072,1732873566077,1732873566110,1732873566118,1732873566124,1732873566142,1732873566175,1732873566181,1732873566208,1732873566216,1732873566243,1732873566250,1732873566278,1732873566285,1732873566310,1732873566317,1732873566341,1732873566349,1732873566377,1732873566384,1732873566390,1732873566408,1732873566441,1732873566448,1732873566474,1732873566484,1732873566510,1732873566517,1732873566524,1732873566542,1732873566577,1732873566583,1732873566608,1732873566616,1732873566641,1732873566649,1732873566677,1732873566684,1732873566710,1732873566717,1732873566743,1732873566751,1732873566776,1732873566784,1732873566790,1732873566808,1732873566844,1732873566850,1732873566857,1732873566875,1732873566910,1732873566917,1732873566943,1732873566950,1732873566975,1732873566982,1732873567009,1732873567016,1732873567041,1732873567049,1732873567079,1732873567090,1732873567098,1732873567126,1732873567133,1732873567161,1732873567169,1732873567193,1732873567200,1732873567207,1732873567225,1732873567262,1732873567269,1732873567293,1732873567303,1732873567324,1732873567332,1732873567361,1732873567369,1732873567393,1732873567400,1732873567407,1732873567425,1732873567458,1732873567466,1732873567493,1732873567500,1732873567524,1732873567532,1732873567558,1732873567567,1732873567593,1732873567600,1732873567626,1732873567634,1732873567658,1732873567666,1732873567693,1732873567701,1732873567729,1732873567736,1732873567740,1732873567758,1732873567793,1732873567800,1732873567830,1732873567839,1732873567860,1732873567869,1732873567897,1732873567905,1732873567927,1732873567934,1732873567962,1732873567970,1732873567993,1732873568001,1732873568007,1732873568025,1732873568058,1732873568068,1732873568091,1732873568102,1732873568107,1732873568125,1732873568160,1732873568168,1732873568174,1732873568193,1732873568224,1732873568232,1732873568258,1732873568266,1732873568293,1732873568301,1732873568307,1732873568325,1732873568358,1732873568365,1732873568391,1732873568400,1732873568428,1732873568434,1732873568460,1732873568468,1732873568496,1732873568504,1732873568527,1732873568536,1732873568563,1732873568571,1732873568595,1732873568604,1732873568631,1732873568639,1732873568642,1732873568677,1732873568693,1732873568710,1732873568716,1732873568746,1732873568752,1732873568776,1732873568784,1732873568812,1732873568819,1732873568843,1732873568850,1732873568879,1732873568886,1732873568910,1732873568917,1732873568946,1732873568954,1732873568976,1732873568985,1732873569012,1732873569019,1732873569043,1732873569050,1732873569078,1732873569090,1732873569094,1732873569108,1732873569125,1732873569141,1732873569158,1732873569191,1732873569201,1732873569224,1732873569243,1732873569249,1732873569276,1732873569284,1732873569308,1732873569318,1732873569344,1732873569365,1732873569379,1732873569389,1732873569395,1732873569424,1732873569432,1732873569459,1732873569466,1732873569491,1732873569500,1732873569526,1732873569532,1732873569559,1732873569566,1732873569592,1732873569599,1732873569626,1732873569632,1732873569661,1732873569668,1732873569693,1732873569702,1732873569728,1732873569735,1732873569759,1732873569766,1732873569793,1732873569799,1732873569826,1732873569833,1732873569859,1732873569866,1732873569894,1732873569900,1732873569927,1732873569934,1732873569940,1732873569958,1732873569994,1732873570000,1732873570007,1732873570025,1732873570061,1732873570068,1732873570094]","[[468.9,563.4],[468.9,563.4],[468.9,563.4],[472.9,572.6],[472.9,572.6],[504.4,554.7],[504.4,554.7],[507.8,554.2],[507.8,554.2],[507.8,554.2],[507.8,554.2],[526.6,535],[526.6,535],[547.6,510.9],[547.6,510.9],[563.2,494.3],[563.2,494.3],[576.3,490.5],[576.3,490.5],[593.4,486.1],[593.4,486.1],[609.5,499.2],[609.5,499.2],[608.2,500.6],[608.2,500.6],[593.8,501.2],[593.8,501.2],[565.3,514.4],[565.3,514.4],[569.7,511.7],[569.7,511.7],[567.1,508.5],[567.1,508.5],[538.8,522.9],[538.8,522.9],[516.8,504.6],[516.8,504.6],[484.8,481],[484.8,481],[476.2,465.4],[476.2,465.4],[466.3,447.8],[466.3,447.8],[463.4,454.3],[463.4,454.3],[476.5,447.8],[476.5,447.8],[489.6,439.6],[489.6,439.6],[485.9,442.8],[485.9,442.8],[491,447.5],[491,447.5],[488.7,446.7],[488.7,446.7],[489.9,460.3],[489.9,460.3],[529.6,482.9],[529.6,482.9],[531.8,498.6],[531.8,498.6],[531.8,498.6],[516.5,500.9],[516.5,500.9],[508.1,475.9],[508.1,475.9],[504.1,461.1],[504.1,461.1],[497.9,457.8],[497.9,457.8],[476.9,441.7],[476.9,441.7],[482.5,436.6],[482.5,436.6],[501.5,413.3],[501.5,413.3],[523.8,402.9],[523.8,402.9],[501.3,390.4],[501.3,390.4],[511,375.4],[511,375.4],[541.3,371.6],[541.3,371.6],[551.7,377.9],[551.7,377.9],[563.7,388.4],[563.7,388.4],[576.2,386.7],[576.2,386.7],[576.2,386.7],[604.1,393.7],[604.1,393.7],[604.1,393.7],[604.1,393.7],[595,389.6],[595,389.6],[601.7,399.6],[601.7,399.6],[603.6,410.8],[603.6,410.8],[629.9,411.2],[629.9,411.2],[623.9,437],[623.9,437],[634.7,433.3],[634.7,433.3],[634,440.5],[634,440.5],[634,440.5],[634,440.5],[627.1,445.9],[627.1,445.9],[615.2,448.2],[615.2,448.2],[615.5,443.6],[615.5,443.6],[615.5,443.6],[615.5,443.6],[610.1,439.2],[610.1,439.2],[591.2,439.6],[591.2,439.6],[578.5,432.5],[578.5,432.5],[570.3,433.2],[570.3,433.2],[576.2,411.4],[576.2,411.4],[560.8,409.7],[560.8,409.7],[560.1,403.4],[560.1,403.4],[560.1,403.4],[560.1,403.4],[568.8,405.1],[568.8,405.1],[568.8,405.1],[568.8,405.1],[577,411.4],[577,411.4],[579.5,403],[579.5,403],[576,403.2],[576,403.2],[596.5,395.2],[596.5,395.2],[606.5,398.1],[606.5,398.1],[607.1,404.2],[607.1,404.2],[607.1,404.2],[615.2,414.8],[615.2,414.8],[609.6,408],[609.6,408],[604.7,400.9],[604.7,400.9],[604.7,400.9],[604.7,400.9],[610.3,378.2],[610.3,378.2],[612,381.1],[612,381.1],[614.1,395.4],[614.1,395.4],[628.3,405.4],[628.3,405.4],[628.9,410],[628.9,410],[628.9,410],[628.9,410],[640.7,425.5],[640.7,425.5],[629.9,408.2],[629.9,408.2],[609.7,401.6],[609.7,401.6],[620,418.5],[620,418.5],[630.6,418.8],[630.6,418.8],[629.5,427.4],[629.5,427.4],[617.3,433.4],[617.3,433.4],[600.1,445],[600.1,445],[596.6,446.4],[596.6,446.4],[596.6,446.4],[596.6,446.4],[627.4,440.1],[627.4,440.1],[634.5,422],[634.5,422],[670.9,476.6],[670.9,476.6],[709.1,511.3],[709.1,511.3],[707.8,545.3],[707.8,545.3],[748.5,584.1],[748.5,584.1],[766.6,623.4],[766.6,623.4],[766.6,623.4],[766.6,623.4],[808.9,636.8],[808.9,636.8],[864,669.7],[864,669.7],[864,669.7],[864,669.7],[878.6,685.6],[878.6,685.6],[878.6,685.6],[878.6,685.6],[890.7,724.4],[890.7,724.4],[887,751.3],[887,751.3],[891.8,752.9],[891.8,752.9],[891.8,752.9],[891.8,752.9],[870.2,748.2],[870.2,748.2],[880.5,740.3],[880.5,740.3],[855.5,730.6],[855.5,730.6],[885,743],[885,743],[918.2,760.7],[918.2,760.7],[910.6,746.7],[910.6,746.7],[929.9,740.4],[929.9,740.4],[926.5,737.3],[926.5,737.3],[938.1,743.7],[938.1,743.7],[938.1,743.7],[928.1,748.2],[928.1,748.2],[957,733.2],[957,733.2],[964.2,717.7],[964.2,717.7],[984.1,720.1],[984.1,720.1],[959.8,697],[959.8,697],[933.1,665.2],[933.1,665.2],[942.8,636.8],[942.8,636.8],[947.9,618.1],[947.9,618.1],[936.5,602.8],[936.5,602.8],[947.6,573],[947.6,573],[968.1,524.1],[968.1,524.1],[973.5,515.9],[973.5,515.9],[993.1,517.5],[993.1,517.5],[993.1,517.5],[993.1,517.5],[993.1,517.5],[993.1,517.5],[993.1,517.5],[992.3,501.1],[992.3,501.1],[992.3,501.1],[1002.7,506.7],[1002.7,506.7],[999.1,528.6],[999.1,528.6],[1006.2,527.6],[1006.2,527.6],[995.8,541.3],[995.8,541.3],[1009,546.9],[1009,546.9],[1009,546.9],[1009.9,554.2],[1009.9,554.2],[989,560.2],[989,560.2],[973,574.8],[973,574.8],[967.7,569],[967.7,569],[965.3,557.1],[965.3,557.1],[966.5,543],[966.5,543],[988.3,517.8],[988.3,517.8],[958.5,522.8],[958.5,522.8],[975.2,512.3],[975.2,512.3],[982.2,491.1],[982.2,491.1],[977,503.7],[977,503.7],[989.4,509.3],[989.4,509.3],[991.5,505.5],[991.5,505.5],[1005.2,503.3],[1005.2,503.3],[1004.5,520],[1004.5,520],[1010.7,530.3],[1010.7,530.3],[1010.7,530.3],[1010.7,530.3],[972.6,568],[972.6,568],[972.6,568],[972.6,568],[995.3,572.6],[995.3,572.6],[981.9,568.1]]","[0,0.151169218]","[0.151169218,0.151169218]","[-0.151169218,0]","[-0.151169218,-0.151169218]","[0,0]","[0.151169218,0]","[0,-0.151169218]","[0.151169218,-0.151169218]",0,0,0,0,1,3,Smartphone,11,9,9,1
