inst1_resp.keys,inst1_resp.rt,calibrationMouse.x,calibrationMouse.y,calibrationMouse.leftButton,calibrationMouse.midButton,calibrationMouse.rightButton,calibrationClick.x,calibrationClick.y,calibrationClick.leftButton,calibrationClick.midButton,calibrationClick.rightButton,calibrationClick.clicked_name,trialsc.thisRepN,trialsc.thisTrialN,trialsc.thisN,trialsc.thisIndex,trialsc.ran,calibration_x,calibration_y,participant,session,date,expName,psychopyVersion,OS,frameRate,ScreenRes_pixels,Camera_pixels,mouse_2.x,mouse_2.y,mouse_2.leftButton,mouse_2.midButton,mouse_2.rightButton,mouse_2.time,mouse_2.clicked_name,mouse.x,mouse.y,mouse.leftButton,mouse.midButton,mouse.rightButton,mouse.time,mouse.clicked_name,Choice,Trial,TrialDuration,MOUSE_GAZE,ET_GAZE,ET_GAZE_x_T,time,unixTime,ET_GAZE_NF,Loc_Option1_label,Loc_Option2_label,Loc_Cost_label,Loc_Qual_label,Loc_Option1_cost,Loc_Option2_cost,Loc_Option1_quality,Loc_Option2_quality,trials.thisRepN,trials.thisTrialN,trials.thisN,trials.thisIndex,trials.ran,Block,Device,cost1,qual1,cost2,qual2
space,1.8009,0.166666667,-0.085185185,1,0,0,-0.329166667,-0.666666667,1,0,0,calibration_square,0,0,0,4,1,-0.33,-0.67,42,001,2024-11-29_17h49.35.581,Attention_exp_legacy,2023.1.0,Win32,59.52380952,,,,,,,,,,,,,,,,,,,,,,,,,,,,,,,,,,,,,,,,,,,,
,,,,,,,0.005208333,-0.67037037,1,0,0,calibration_square,0,1,1,9,1,0,-0.67,42,001,2024-11-29_17h49.35.581,Attention_exp_legacy,2023.1.0,Win32,59.52380952,,,,,,,,,,,,,,,,,,,,,,,,,,,,,,,,,,,,,,,,,,,,
,,,,,,,0.330208333,-0.662962963,1,0,0,calibration_square,0,2,2,14,1,0.33,-0.67,42,001,2024-11-29_17h49.35.581,Attention_exp_legacy,2023.1.0,Win32,59.52380952,,,,,,,,,,,,,,,,,,,,,,,,,,,,,,,,,,,,,,,,,,,,
,,,,,,,0.672916667,-0.67037037,1,0,0,calibration_square,0,3,3,20,1,0.67,-0.67,42,001,2024-11-29_17h49.35.581,Attention_exp_legacy,2023.1.0,Win32,59.52380952,,,,,,,,,,,,,,,,,,,,,,,,,,,,,,,,,,,,,,,,,,,,
,,,,,,,-0.0125,0.338888889,1,0,0,,0,4,4,12,1,0,0.33,42,001,2024-11-29_17h49.35.581,Attention_exp_legacy,2023.1.0,Win32,59.52380952,,,,,,,,,,,,,,,,,,,,,,,,,,,,,,,,,,,,,,,,,,,,
,,,,,,,0.332291667,-0.32962963,1,0,0,calibration_square,0,5,5,15,1,0.33,-0.33,42,001,2024-11-29_17h49.35.581,Attention_exp_legacy,2023.1.0,Win32,59.52380952,,,,,,,,,,,,,,,,,,,,,,,,,,,,,,,,,,,,,,,,,,,,
,,,,,,,0.004166667,0.005555556,1,0,0,calibration_square,0,6,6,11,1,0,0,42,001,2024-11-29_17h49.35.581,Attention_exp_legacy,2023.1.0,Win32,59.52380952,,,,,,,,,,,,,,,,,,,,,,,,,,,,,,,,,,,,,,,,,,,,
,,,,,,,0.333333333,0.009259259,1,0,0,calibration_square,0,7,7,16,1,0.33,0,42,001,2024-11-29_17h49.35.581,Attention_exp_legacy,2023.1.0,Win32,59.52380952,,,,,,,,,,,,,,,,,,,,,,,,,,,,,,,,,,,,,,,,,,,,
,,,,,,,-0.332291667,0.333333333,1,0,0,calibration_square,0,8,8,7,1,-0.33,0.33,42,001,2024-11-29_17h49.35.581,Attention_exp_legacy,2023.1.0,Win32,59.52380952,,,,,,,,,,,,,,,,,,,,,,,,,,,,,,,,,,,,,,,,,,,,
,,,,,,,-0.329166667,-0.001851852,1,0,0,calibration_square,0,9,9,6,1,-0.33,0,42,001,2024-11-29_17h49.35.581,Attention_exp_legacy,2023.1.0,Win32,59.52380952,,,,,,,,,,,,,,,,,,,,,,,,,,,,,,,,,,,,,,,,,,,,
,,,,,,,0.328125,0.681481481,1,0,0,,0,10,10,18,1,0.33,0.67,42,001,2024-11-29_17h49.35.581,Attention_exp_legacy,2023.1.0,Win32,59.52380952,,,,,,,,,,,,,,,,,,,,,,,,,,,,,,,,,,,,,,,,,,,,
,,,,,,,-0.670833333,-0.331481481,1,0,0,calibration_square,0,11,11,1,1,-0.67,-0.33,42,001,2024-11-29_17h49.35.581,Attention_exp_legacy,2023.1.0,Win32,59.52380952,,,,,,,,,,,,,,,,,,,,,,,,,,,,,,,,,,,,,,,,,,,,
,,,,,,,0.672916667,0.685185185,1,0,0,,0,12,12,19,1,0.67,0.67,42,001,2024-11-29_17h49.35.581,Attention_exp_legacy,2023.1.0,Win32,59.52380952,,,,,,,,,,,,,,,,,,,,,,,,,,,,,,,,,,,,,,,,,,,,
,,,,,,,-0.659375,-0.675925926,1,0,0,,0,13,13,0,1,-0.67,-0.67,42,001,2024-11-29_17h49.35.581,Attention_exp_legacy,2023.1.0,Win32,59.52380952,,,,,,,,,,,,,,,,,,,,,,,,,,,,,,,,,,,,,,,,,,,,
,,,,,,,0.008333333,-0.322222222,1,0,0,calibration_square,0,14,14,10,1,0,-0.33,42,001,2024-11-29_17h49.35.581,Attention_exp_legacy,2023.1.0,Win32,59.52380952,,,,,,,,,,,,,,,,,,,,,,,,,,,,,,,,,,,,,,,,,,,,
,,,,,,,-0.33125,-0.322222222,1,0,0,calibration_square,0,15,15,5,1,-0.33,-0.33,42,001,2024-11-29_17h49.35.581,Attention_exp_legacy,2023.1.0,Win32,59.52380952,,,,,,,,,,,,,,,,,,,,,,,,,,,,,,,,,,,,,,,,,,,,
,,,,,,,-0.671875,-0.009259259,1,0,0,calibration_square,0,16,16,2,1,-0.67,0,42,001,2024-11-29_17h49.35.581,Attention_exp_legacy,2023.1.0,Win32,59.52380952,,,,,,,,,,,,,,,,,,,,,,,,,,,,,,,,,,,,,,,,,,,,
,,,,,,,0.00625,0.683333333,1,0,0,,0,17,17,13,1,0,0.67,42,001,2024-11-29_17h49.35.581,Attention_exp_legacy,2023.1.0,Win32,59.52380952,,,,,,,,,,,,,,,,,,,,,,,,,,,,,,,,,,,,,,,,,,,,
,,,,,,,0.329166667,0.340740741,1,0,0,,0,18,18,17,1,0.33,0.33,42,001,2024-11-29_17h49.35.581,Attention_exp_legacy,2023.1.0,Win32,59.52380952,,,,,,,,,,,,,,,,,,,,,,,,,,,,,,,,,,,,,,,,,,,,
,,,,,,,-0.673958333,0.337037037,1,0,0,calibration_square,0,19,19,3,1,-0.67,0.33,42,001,2024-11-29_17h49.35.581,Attention_exp_legacy,2023.1.0,Win32,59.52380952,,,,,,,,,,,,,,,,,,,,,,,,,,,,,,,,,,,,,,,,,,,,
,,,,,,,-0.319791667,0.668518519,1,0,0,,0,20,20,8,1,-0.33,0.67,42,001,2024-11-29_17h49.35.581,Attention_exp_legacy,2023.1.0,Win32,59.52380952,,,,,,,,,,,,,,,,,,,,,,,,,,,,,,,,,,,,,,,,,,,,
,,,,,,,,,,,,,,,,,,,,42,001,2024-11-29_17h49.35.581,Attention_exp_legacy,2023.1.0,Win32,59.52380952,"[1920,1080]","[640,480]",[0.03958333333333333],[-0.5203703703703704],[1],[0],[0],[3.0961000000238386],"[""StartButton""]",[0.05625],[0.34444444444444444],[1],[0],[0],[5.317600000023845],"[""Option1_label""]",Option1_label,1,6.346,"[[0.03958333333333333,-0.5203703703703704],[0.03958333333333333,-0.5203703703703704],[0.03958333333333333,-0.5203703703703704],[0.03958333333333333,-0.5203703703703704],[0.03958333333333333,-0.5203703703703704],[0.03958333333333333,-0.5203703703703704],[0.03958333333333333,-0.5203703703703704],[0.03958333333333333,-0.5203703703703704],[0.03958333333333333,-0.5203703703703704],[0.03958333333333333,-0.5203703703703704],[0.03958333333333333,-0.5203703703703704],[0.03958333333333333,-0.5203703703703704],[0.03958333333333333,-0.5203703703703704],[0.03958333333333333,-0.5203703703703704],[0.03958333333333333,-0.5203703703703704],[0.03958333333333333,-0.5203703703703704],[0.03958333333333333,-0.5203703703703704],[0.03958333333333333,-0.5203703703703704],[0.03958333333333333,-0.5203703703703704],[0.03958333333333333,-0.5203703703703704],[0.03958333333333333,-0.5203703703703704],[0.03958333333333333,-0.5203703703703704],[0.03958333333333333,-0.5203703703703704],[0.03958333333333333,-0.5203703703703704],[0.03958333333333333,-0.5203703703703704],[0.03958333333333333,-0.5203703703703704],[0.03958333333333333,-0.5203703703703704],[0.03958333333333333,-0.5203703703703704],[0.03958333333333333,-0.5203703703703704],[0.03958333333333333,-0.5203703703703704],[0.03958333333333333,-0.5203703703703704],[0.03958333333333333,-0.5203703703703704],[0.03958333333333333,-0.5203703703703704],[0.03958333333333333,-0.5203703703703704],[0.03958333333333333,-0.5203703703703704],[0.03958333333333333,-0.5203703703703704],[0.03958333333333333,-0.5203703703703704],[0.03958333333333333,-0.5203703703703704],[0.03958333333333333,-0.5203703703703704],[0.03958333333333333,-0.5203703703703704],[0.03958333333333333,-0.5203703703703704],[0.03958333333333333,-0.5203703703703704],[0.03958333333333333,-0.5203703703703704],[0.03958333333333333,-0.5203703703703704],[0.03958333333333333,-0.5203703703703704],[0.03958333333333333,-0.5203703703703704],[0.03958333333333333,-0.5203703703703704],[0.03958333333333333,-0.5203703703703704],[0.03958333333333333,-0.5203703703703704],[0.03958333333333333,-0.5203703703703704],[0.03958333333333333,-0.5203703703703704],[0.03958333333333333,-0.5203703703703704],[0.03958333333333333,-0.5203703703703704],[0.03958333333333333,-0.5203703703703704],[0.03958333333333333,-0.5203703703703704],[0.03958333333333333,-0.5203703703703704],[0.03958333333333333,-0.5203703703703704],[0.03958333333333333,-0.5203703703703704],[0.03958333333333333,-0.5203703703703704],[0.03958333333333333,-0.5203703703703704],[0.03958333333333333,-0.5203703703703704],[0.03958333333333333,-0.5203703703703704],[0.03958333333333333,-0.5203703703703704],[0.03958333333333333,-0.5203703703703704],[0.03958333333333333,-0.5203703703703704],[0.03958333333333333,-0.5203703703703704],[0.03958333333333333,-0.5203703703703704],[0.03958333333333333,-0.5203703703703704],[0.03958333333333333,-0.5203703703703704],[0.03958333333333333,-0.5203703703703704],[0.03958333333333333,-0.5203703703703704],[0.03958333333333333,-0.5203703703703704],[0.03958333333333333,-0.5203703703703704],[0.03958333333333333,-0.5203703703703704],[0.03958333333333333,-0.5203703703703704],[0.03958333333333333,-0.5203703703703704],[0.03958333333333333,-0.5203703703703704],[0.03958333333333333,-0.5203703703703704],[0.03958333333333333,-0.5203703703703704],[0.03958333333333333,-0.5203703703703704],[0.03958333333333333,-0.5203703703703704],[0.03958333333333333,-0.5203703703703704],[0.03958333333333333,-0.5203703703703704],[0.03958333333333333,-0.5203703703703704],[0.03958333333333333,-0.5203703703703704],[0.03958333333333333,-0.5203703703703704],[0.03958333333333333,-0.5203703703703704],[0.03958333333333333,-0.5203703703703704],[0.03958333333333333,-0.5203703703703704],[0.03958333333333333,-0.5203703703703704],[0.03958333333333333,-0.5203703703703704],[0.03958333333333333,-0.5203703703703704],[0.03958333333333333,-0.5203703703703704],[0.03958333333333333,-0.5203703703703704],[0.03958333333333333,-0.5203703703703704],[0.03958333333333333,-0.5203703703703704],[0.03958333333333333,-0.5203703703703704],[0.03958333333333333,-0.5203703703703704],[0.03958333333333333,-0.5203703703703704],[0.03958333333333333,-0.5203703703703704],[0.03958333333333333,-0.5203703703703704],[0.03958333333333333,-0.5203703703703704],[0.03958333333333333,-0.5203703703703704],[0.03958333333333333,-0.5203703703703704],[0.03958333333333333,-0.5203703703703704],[0.03958333333333333,-0.5203703703703704],[0.03958333333333333,-0.5203703703703704],[0.03958333333333333,-0.5203703703703704],[0.03958333333333333,-0.5203703703703704],[0.03958333333333333,-0.5203703703703704],[0.03958333333333333,-0.5203703703703704],[0.03958333333333333,-0.5203703703703704],[0.03958333333333333,-0.5203703703703704],[0.03958333333333333,-0.5203703703703704],[0.03958333333333333,-0.5203703703703704],[0.03958333333333333,-0.5203703703703704],[0.03958333333333333,-0.5203703703703704],[0.03958333333333333,-0.5203703703703704],[0.03958333333333333,-0.5203703703703704],[0.03958333333333333,-0.5203703703703704],[0.03958333333333333,-0.5203703703703704],[0.03958333333333333,-0.5203703703703704],[0.03958333333333333,-0.5203703703703704],[0.03958333333333333,-0.5203703703703704],[0.03958333333333333,-0.5203703703703704],[0.03958333333333333,-0.5203703703703704],[0.03958333333333333,-0.5203703703703704],[0.03958333333333333,-0.5203703703703704],[0.03958333333333333,-0.5203703703703704],[0.03958333333333333,-0.5203703703703704],[0.03958333333333333,-0.5203703703703704],[0.03958333333333333,-0.5203703703703704],[0.03958333333333333,-0.5203703703703704],[0.03958333333333333,-0.5203703703703704],[0.03958333333333333,-0.5203703703703704],[0.03958333333333333,-0.5203703703703704],[0.03958333333333333,-0.5203703703703704],[0.03958333333333333,-0.5203703703703704],[0.03958333333333333,-0.5203703703703704],[0.03958333333333333,-0.5203703703703704],[0.03958333333333333,-0.5203703703703704],[0.03958333333333333,-0.5203703703703704],[0.03958333333333333,-0.5203703703703704],[0.03958333333333333,-0.5203703703703704],[0.03958333333333333,-0.5203703703703704],[0.03958333333333333,-0.5203703703703704],[0.03958333333333333,-0.5203703703703704],[0.03958333333333333,-0.5203703703703704],[0.03958333333333333,-0.5203703703703704],[0.03958333333333333,-0.5203703703703704],[0.03958333333333333,-0.5203703703703704],[0.03958333333333333,-0.5203703703703704],[0.03958333333333333,-0.5203703703703704],[0.03958333333333333,-0.5203703703703704],[0.03958333333333333,-0.5203703703703704],[0.03958333333333333,-0.5203703703703704],[0.03958333333333333,-0.5203703703703704],[0.03958333333333333,-0.5203703703703704],[0.03958333333333333,-0.5203703703703704],[0.03958333333333333,-0.5203703703703704],[0.03958333333333333,-0.5203703703703704],[0.03958333333333333,-0.5203703703703704],[0.03958333333333333,-0.5203703703703704],[0.03958333333333333,-0.5203703703703704],[0.03958333333333333,-0.5203703703703704],[0.03958333333333333,-0.5203703703703704],[0.03958333333333333,-0.5203703703703704],[0.03958333333333333,-0.5203703703703704],[0.03958333333333333,-0.5203703703703704],[0.03958333333333333,-0.5203703703703704],[0.03958333333333333,-0.5203703703703704],[0.03958333333333333,-0.5203703703703704],[0.03958333333333333,-0.5203703703703704],[0.03958333333333333,-0.5203703703703704],[0.03958333333333333,-0.5203703703703704],[0.03958333333333333,-0.5203703703703704],[0.03958333333333333,-0.5203703703703704],[0.03958333333333333,-0.5203703703703704],[0.03958333333333333,-0.5203703703703704],[0.03958333333333333,-0.5203703703703704],[0.03958333333333333,-0.5203703703703704],[0.03958333333333333,-0.5203703703703704],[0.03958333333333333,-0.5203703703703704],[0.03958333333333333,-0.5203703703703704],[0.03958333333333333,-0.5203703703703704],[0.03958333333333333,-0.5203703703703704],[0.03958333333333333,-0.5203703703703704],[0.03958333333333333,-0.5203703703703704],[0.03958333333333333,-0.5203703703703704],[0.03958333333333333,-0.5203703703703704],[0.03958333333333333,-0.5203703703703704],[0.03958333333333333,-0.5203703703703704],[0.03958333333333333,-0.5203703703703704],[0.03958333333333333,-0.5203703703703704],[0.03958333333333333,-0.5203703703703704],[0.03958333333333333,-0.5203703703703704],[0.03958333333333333,-0.5203703703703704],[0.03958333333333333,-0.5203703703703704],[0.03958333333333333,-0.5203703703703704],[0.03958333333333333,-0.5203703703703704],[0.03958333333333333,-0.5203703703703704],[0.03958333333333333,-0.5203703703703704],[0.03958333333333333,-0.5203703703703704],[0.03958333333333333,-0.5203703703703704],[0.03958333333333333,-0.5203703703703704],[0.03958333333333333,-0.5203703703703704],[0.03958333333333333,-0.5203703703703704],[0.03958333333333333,-0.5203703703703704],[0.03958333333333333,-0.5203703703703704],[0.03958333333333333,-0.5203703703703704],[0.03958333333333333,-0.5203703703703704],[0.03958333333333333,-0.5203703703703704],[0.03958333333333333,-0.5203703703703704],[0.03958333333333333,-0.5203703703703704],[0.03958333333333333,-0.5203703703703704],[0.03958333333333333,-0.5203703703703704],[0.03958333333333333,-0.5203703703703704],[0.03958333333333333,-0.5203703703703704],[0.03958333333333333,-0.5203703703703704],[0.03958333333333333,-0.5203703703703704],[0.03958333333333333,-0.5203703703703704],[0.03958333333333333,-0.5203703703703704],[0.03958333333333333,-0.5203703703703704],[0.03958333333333333,-0.5203703703703704],[0.03958333333333333,-0.5203703703703704],[0.03958333333333333,-0.5203703703703704],[0.03958333333333333,-0.5203703703703704],[0.03958333333333333,-0.5203703703703704],[0.03958333333333333,-0.5203703703703704],[0.03958333333333333,-0.5203703703703704],[0.03958333333333333,-0.5203703703703704],[0.03958333333333333,-0.5203703703703704],[0.03958333333333333,-0.5203703703703704],[0.03958333333333333,-0.5203703703703704],[0.03958333333333333,-0.5203703703703704],[0.03958333333333333,-0.5203703703703704],[0.03958333333333333,-0.5203703703703704],[0.03958333333333333,-0.5203703703703704],[0.03958333333333333,-0.5203703703703704],[0.03958333333333333,-0.5203703703703704],[0.03958333333333333,-0.5203703703703704],[0.03958333333333333,-0.5203703703703704],[0.03958333333333333,-0.5203703703703704],[0.03958333333333333,-0.5203703703703704],[0.03958333333333333,-0.5203703703703704],[0.03958333333333333,-0.5203703703703704],[0.03958333333333333,-0.5203703703703704],[0.03958333333333333,-0.5203703703703704],[0.03958333333333333,-0.5203703703703704],[0.03958333333333333,-0.5203703703703704],[0.03958333333333333,-0.5203703703703704],[0.03958333333333333,-0.5203703703703704],[0.03958333333333333,-0.5203703703703704],[0.03958333333333333,-0.5203703703703704],[0.03958333333333333,-0.5203703703703704],[0.03958333333333333,-0.5203703703703704],[0.03958333333333333,-0.5148148148148148],[0.0375,-0.5074074074074074],[0.036458333333333336,-0.5018518518518519],[0.035416666666666666,-0.4962962962962963],[0.034375,-0.49074074074074076],[0.034375,-0.4703703703703704],[0.034375,-0.42407407407407405],[0.0625,-0.24814814814814815],[0.071875,-0.17407407407407408],[0.09270833333333334,-0.03888888888888889],[0.10416666666666667,0.07407407407407407],[0.10729166666666666,0.17407407407407408],[0.10729166666666666,0.20925925925925926],[0.10729166666666666,0.22962962962962963],[0.10625,0.2462962962962963],[0.10520833333333333,0.25925925925925924],[0.10104166666666667,0.2759259259259259],[0.096875,0.29259259259259257],[0.09583333333333334,0.30185185185185187],[0.08854166666666667,0.31666666666666665],[0.08541666666666667,0.32407407407407407],[0.08229166666666667,0.3277777777777778],[0.07916666666666666,0.3314814814814815],[0.07395833333333333,0.3351851851851852],[0.06770833333333333,0.3388888888888889],[0.0625,0.3425925925925926],[0.06041666666666667,0.34444444444444444],[0.058333333333333334,0.34444444444444444],[0.058333333333333334,0.34444444444444444],[0.057291666666666664,0.34444444444444444],[0.05625,0.34444444444444444],[0.05625,0.34444444444444444],[0.05625,0.34444444444444444],[0.05625,0.34444444444444444],[0.05625,0.34444444444444444],[0.05625,0.34444444444444444],[0.05625,0.34444444444444444],[0.05625,0.34444444444444444],[0.05625,0.34444444444444444],[0.05625,0.34444444444444444],[0.05625,0.34444444444444444],[0.05625,0.34444444444444444],[0.05625,0.34444444444444444],[0.05625,0.34444444444444444],[0.05625,0.34444444444444444],[0.05625,0.34444444444444444],[0.05625,0.34444444444444444],[0.05625,0.34444444444444444],[0.05625,0.34444444444444444],[0.05625,0.34444444444444444],[0.05625,0.34444444444444444],[0.05625,0.34444444444444444],[0.05625,0.34444444444444444],[0.05625,0.34444444444444444],[0.05625,0.34444444444444444],[0.05625,0.34444444444444444],[0.05625,0.34444444444444444],[0.05625,0.34444444444444444],[0.05625,0.34444444444444444],[0.05625,0.34444444444444444],[0.05625,0.34444444444444444],[0.05625,0.34444444444444444],[0.05625,0.34444444444444444],[0.05625,0.34444444444444444],[0.05625,0.34444444444444444],[0.05625,0.34444444444444444],[0.05625,0.34444444444444444],[0.05625,0.34444444444444444],[0.05625,0.34444444444444444],[0.05625,0.34444444444444444],[0.05625,0.34444444444444444],[0.05625,0.34444444444444444],[0.05625,0.34444444444444444],[0.05625,0.34444444444444444],[0.05625,0.34444444444444444],[0.05625,0.34444444444444444],[0.05625,0.34444444444444444],[0.05625,0.34444444444444444],[0.05625,0.34444444444444444],[0.05625,0.34444444444444444],[0.05625,0.34444444444444444],[0.05625,0.34444444444444444],[0.05625,0.34444444444444444],[0.05625,0.34444444444444444],[0.05625,0.34444444444444444],[0.05625,0.34444444444444444],[0.05625,0.34444444444444444],[0.05625,0.34444444444444444],[0.05625,0.34444444444444444],[0.05625,0.34444444444444444],[0.05625,0.34444444444444444],[0.05625,0.34444444444444444],[0.05625,0.34444444444444444],[0.05625,0.34444444444444444],[0.05625,0.34444444444444444],[0.05625,0.34444444444444444],[0.05625,0.34444444444444444],[0.05625,0.34444444444444444],[0.05625,0.34444444444444444],[0.05625,0.34444444444444444],[0.05625,0.34444444444444444],[0.05625,0.34444444444444444],[0.05625,0.34444444444444444],[0.05625,0.34444444444444444],[0.05625,0.34444444444444444],[0.05625,0.34444444444444444],[0.05625,0.34444444444444444],[0.05625,0.34444444444444444],[0.05625,0.34444444444444444],[0.05625,0.34444444444444444],[0.05625,0.34444444444444444],[0.05625,0.34444444444444444],[0.05625,0.34444444444444444],[0.05625,0.34444444444444444],[0.05625,0.34444444444444444],[0.05625,0.34444444444444444],[0.05625,0.34444444444444444],[0.05625,0.34444444444444444],[0.05625,0.34444444444444444],[0.05625,0.34444444444444444],[0.05625,0.34444444444444444],[0.05625,0.34444444444444444],[0.05625,0.34444444444444444],[0.05625,0.34444444444444444],[0.05625,0.34444444444444444]]","[[0.09541666666666657,0.28296296296296286],[0.09541666666666657,0.28296296296296286],[0.09541666666666657,0.28296296296296286],[0.0828125,0.2964814814814815],[0.0734375,0.32611111111111113],[0.08406250000000005,0.31925925925925924],[0.08947916666666676,0.31740740740740736],[0.09385416666666657,0.3014814814814814],[0.10604166666666662,0.33000000000000007],[0.08687500000000009,0.2962962962962963],[0.08552083333333324,0.28351851851851856],[0.07531249999999995,0.23555555555555563],[0.07531249999999995,0.23555555555555563],[0.051770833333333384,0.22925925925925916],[0.05260416666666667,0.21388888888888888],[0.04885416666666664,0.1816666666666667],[0.03677083333333329,0.2064814814814815],[0.029895833333333382,0.18870370370370365],[0.024062500000000025,0.18499999999999997],[0.010000000000000024,0.1492592592592593],[0.03427083333333331,0.17388888888888884],[0.03427083333333331,0.17388888888888884],[0.03250000000000005,0.15833333333333333],[0.043124999999999976,0.18425925925925926],[0.05677083333333333,0.20851851851851855],[0.06572916666666669,0.17833333333333326],[0.07468750000000005,0.14814814814814814],[0.06927083333333334,0.11685185185185189],[0.0678124999999999,0.1124074074074075],[0.058854166666666666,0.0911111111111112],[0.04656250000000005,0.056296296296296254],[0.024062500000000025,0.020370370370370372],[0.005104166666666643,0.004259259259259175],[0.005104166666666643,0.004259259259259175],[-0.024895833333333308,-0.0294444444444444],[-0.06822916666666666,-0.028703703703703703],[-0.11072916666666661,0.004074074074074159],[-0.15874999999999997,0.041111111111111195],[-0.20406249999999998,0.058703703703703786],[-0.25,0.07111111111111107],[-0.2951041666666666,0.08092592592592601],[-0.2951041666666666,0.08092592592592601],[-0.338125,0.08203703703703695],[-0.3625,0.11462962962962958],[-0.39302083333333326,0.14722222222222223],[-0.41302083333333334,0.19277777777777783],[-0.4227083333333333,0.20555555555555555],[-0.4227083333333333,0.2035185185185185],[-0.4171875,0.19722222222222222],[-0.4171875,0.19722222222222222],[-0.4013541666666666,0.18314814814814812],[-0.39427083333333335,0.1714814814814815],[-0.3805208333333333,0.17925925925925917],[-0.3640625,0.18425925925925926],[-0.3570833333333333,0.16833333333333328],[-0.30572916666666666,0.18055555555555555],[-0.25447916666666665,0.175],[-0.23031250000000003,0.13574074074074066],[-0.21583333333333338,0.11129629629629634],[-0.20093749999999996,0.11185185185185181],[-0.19635416666666666,0.12018518518518514],[-0.17718750000000003,0.10999999999999996],[-0.1296875,0.1331481481481481],[-0.11531250000000005,0.13444444444444448],[-0.11000000000000003,0.1368518518518518],[-0.13687499999999997,0.10629629629629625],[-0.1638541666666666,0.10351851851851848],[-0.15364583333333334,0.11962962962962967],[-0.14343750000000005,0.13574074074074066],[-0.11968749999999997,0.14296296296296304],[-0.11968749999999997,0.14296296296296304],[-0.09593750000000002,0.15018518518518523],[-0.08708333333333336,0.13666666666666658],[-0.09416666666666665,0.15166666666666662],[-0.09416666666666665,0.15166666666666662],[-0.07541666666666665,0.19222222222222213],[-0.030104166666666644,0.22481481481481477],[-0.030104166666666644,0.22481481481481477],[0.0010416666666666667,0.2553703703703703],[0.03343750000000002,0.2511111111111112],[0.05572916666666667,0.2616666666666666],[0.05697916666666671,0.3055555555555556],[0.05697916666666671,0.3055555555555556],[0.042499999999999954,0.31203703703703706],[0.03947916666666664,0.31796296296296306],[0.05010416666666669,0.38944444444444437],[0.04833333333333331,0.3990740740740741],[0.04906250000000002,0.41648148148148145],[0.035104166666666714,0.4324074074074074],[0.035312499999999976,0.4503703703703705],[0.025833333333333285,0.4383333333333334],[0.0109375,0.43796296296296294],[0.0375,0.407037037037037],[0.03895833333333331,0.4262962962962964],[0.028958333333333287,0.44611111111111107],[0.03781249999999995,0.4107407407407407],[0.04666666666666662,0.37537037037037047],[0.06218750000000005,0.3172222222222221],[0.0740624999999999,0.2705555555555556],[0.08552083333333324,0.24259259259259258],[0.09177083333333323,0.26444444444444437],[0.10583333333333324,0.26722222222222214],[0.08791666666666677,0.2716666666666668],[0.10031249999999996,0.23537037037037042],[0.11062500000000004,0.20907407407407402],[0.11520833333333323,0.1883333333333334],[0.1178124999999999,0.20166666666666663],[0.11937499999999991,0.22074074074074082],[0.10229166666666671,0.19981481481481478],[0.10614583333333343,0.1824074074074074],[0.09874999999999995,0.13777777777777775],[0.08302083333333338,0.0787037037037037],[0.11989583333333324,0.054259259259259174],[0.15333333333333338,0.041666666666666664],[0.19416666666666677,0.03129629629629625],[0.19416666666666677,0.03129629629629625],[0.21729166666666658,0.0418518518518519],[0.25625,0.025370370370370456],[0.29489583333333325,0.018518518518518517],[0.3349999999999999,0.022037037037036994],[0.35604166666666665,0.020185185185185143],[0.42218749999999994,0.025370370370370456],[0.48895833333333344,0.05185185185185185],[0.48895833333333344,0.05185185185185185],[0.5107291666666666,0.0448148148148149],[0.5323958333333333,0.019444444444444445],[0.5555208333333332,-0.016666666666666666],[0.5555208333333332,-0.016666666666666666],[0.5775000000000001,-0.05333333333333336],[0.5733333333333335,-0.0824074074074074],[0.5515625,-0.09444444444444444],[0.5515625,-0.09444444444444444],[0.573125,-0.08722222222222227],[0.573125,-0.08722222222222227],[0.5768749999999999,-0.08907407407407411],[0.5768749999999999,-0.08907407407407411],[0.5683333333333332,-0.11037037037037041],[0.564375,-0.13148148148148148],[0.5548958333333334,-0.13722222222222227],[0.5372916666666666,-0.11574074074074074],[0.5131249999999999,-0.08629629629629634],[0.4422916666666666,0.011481481481481566],[0.3837500000000001,0.09462962962962967],[0.35572916666666665,0.0868518518518518],[0.3023958333333333,0.08629629629629634],[0.28125,0.11870370370370374],[0.25281250000000005,0.1896296296296296],[0.20281250000000003,0.26944444444444443],[0.1622916666666666,0.32833333333333325],[0.15614583333333343,0.37240740740740746],[0.14979166666666663,0.407037037037037],[0.19885416666666675,0.31851851851851853],[0.24791666666666667,0.2300000000000001],[0.2924999999999999,0.1757407407407407],[0.31833333333333325,0.2007407407407407],[0.2946875000000001,0.14833333333333337],[0.26749999999999996,0.0911111111111112],[0.28718750000000004,0.08000000000000008],[0.28718750000000004,0.08000000000000008],[0.3068749999999999,0.06888888888888897],[0.2943749999999999,0.006851851851851936],[0.28187499999999993,-0.055185185185185205],[0.26510416666666664,-0.025185185185185227],[0.24833333333333343,0.004814814814814857],[0.24833333333333343,0.004814814814814857],[0.22218749999999995,0.07759259259259255],[0.23135416666666658,0.02907407407407416],[0.2671875,0.01185185185185181],[0.30479166666666657,-0.006666666666666709],[0.3064583333333334,-0.01777777777777782],[0.3081249999999999,-0.028888888888888933],[0.2994791666666667,-0.011111111111111112],[0.2855208333333332,0.02370370370370362],[0.2693749999999999,0.0198148148148149],[0.25322916666666656,0.01592592592592597],[0.2275000000000001,0.03037037037037033],[0.2275000000000001,0.03037037037037033],[0.18520833333333328,0.0868518518518518],[0.16937499999999991,0.11611111111111119],[0.1599999999999999,0.13481481481481472],[0.1599999999999999,0.13481481481481472],[0.17583333333333329,0.08611111111111111],[0.1805208333333333,0.05925925925925926],[0.20260416666666667,0.05259259259259255],[0.2107291666666666,0.051666666666666625],[0.22468750000000004,0.03425925925925926],[0.2352083333333333,0.04870370370370362],[0.23833333333333329,0.06925925925925921],[0.24145833333333327,0.08981481481481482],[0.22083333333333333,0.16592592592592598],[0.2381249999999999,0.17537037037037045],[0.23177083333333334,0.1933333333333333],[0.2365624999999999,0.18944444444444436],[0.23739583333333342,0.20037037037037045],[0.25750000000000006,0.18851851851851845],[0.278125,0.18796296296296297],[0.3021874999999999,0.15555555555555556],[0.3580208333333334,0.06425925925925935],[0.40499999999999997,-0.01314814814814819],[0.46770833333333334,-0.11574074074074074],[0.48427083333333343,-0.1398148148148148],[0.5064583333333333,-0.15703703703703706],[0.5286458333333334,-0.1742592592592593],[0.5598958333333334,-0.20759259259259263],[0.5911458333333334,-0.24092592592592596],[0.6072916666666667,-0.2644444444444445],[0.6234375,-0.287962962962963],[0.6204166666666666,-0.2727777777777778],[0.6228125000000001,-0.2270370370370371],[0.6228125000000001,-0.17759259259259255],[0.6147916666666667,-0.14333333333333328],[0.6144791666666668,-0.13759259259259263],[0.6141666666666665,-0.13185185185185183],[0.5932291666666667,-0.11074074074074076],[0.5722916666666668,-0.08962962962962959],[0.5740624999999999,-0.07388888888888885],[0.5849999999999999,-0.0787037037037037],[0.5849999999999999,-0.0787037037037037],[0.5833333333333334,-0.07037037037037037],[0.5809375,-0.09611111111111106],[0.5694791666666668,-0.12333333333333338],[0.5627083333333334,-0.09666666666666665],[0.5527083333333332,-0.06888888888888887],[0.5454166666666665,-0.06833333333333329],[0.5480208333333333,-0.06277777777777774],[0.5580208333333334,-0.025],[0.5529166666666666,0.015555555555555513],[0.5382291666666668,0.04407407407407399],[0.5361458333333334,0.05944444444444449],[0.5340625,0.07351851851851861],[0.5315624999999999,0.11129629629629634],[0.5264583333333335,0.057962962962962876],[0.5210416666666667,0.022037037037036994],[0.5210416666666667,0.022037037037036994],[0.5185416666666666,0.027222222222222307],[0.5223958333333333,0.001851851851851852],[0.5133333333333333,-0.04666666666666675],[0.510625,-0.1],[0.5083333333333333,-0.12074074074074072],[0.5073958333333333,-0.14648148148148152],[0.510625,-0.18129629629629626],[0.51125,-0.2227777777777778],[0.5178124999999999,-0.21185185185185182],[0.5238541666666667,-0.182962962962963],[0.5242708333333332,-0.16796296296296295],[0.5215625,-0.16925925925925922],[0.5243750000000001,-0.17962962962962964],[0.5134375000000001,-0.1479629629629629],[0.5025000000000001,-0.11629629629629631],[0.5004166666666667,-0.12370370370370372],[0.5015625,-0.12037037037037036],[0.5008333333333332,-0.11666666666666667],[0.5008333333333332,-0.11666666666666667],[0.490625,-0.09537037037037037],[0.490625,-0.09537037037037037],[0.4809375000000001,-0.09203703703703701],[0.4560416666666666,-0.06351851851851854],[0.4287499999999999,-0.018518518518518517],[0.4287499999999999,-0.018518518518518517],[0.4014583333333334,0.026481481481481398],[0.3658333333333334,0.10314814814814824],[0.3676041666666668,0.09814814814814815],[0.35916666666666663,0.13722222222222227],[0.3090625000000001,0.19407407407407398],[0.3090625000000001,0.19407407407407398],[0.2638541666666666,0.23351851851851857],[0.21614583333333334,0.26888888888888896],[0.1462500000000001,0.3085185185185186],[0.09156250000000009,0.3229629629629629],[0.05677083333333333,0.3322222222222222],[0.05677083333333333,0.3322222222222222],[0.05447916666666662,0.3520370370370371],[0.05166666666666669,0.28648148148148156],[0.03843749999999998,0.3022222222222223],[0.0036458333333333334,0.2705555555555556],[0.013437499999999976,0.23407407407407405],[0.01895833333333338,0.20055555555555546],[0.01895833333333338,0.20055555555555546],[0.03447916666666669,0.19277777777777783],[0.07218749999999995,0.18074074074074079],[0.11427083333333338,0.1300000000000001],[0.12645833333333342,0.06333333333333342],[0.10614583333333343,-0.013888888888888888],[0.10614583333333343,-0.013888888888888888],[0.08885416666666662,-0.02111111111111107],[0.06697916666666662,-0.01796296296296305],[0.06302083333333333,-0.023148148148148147],[0.044166666666666646,-0.04351851851851852],[0.041875000000000044,-0.07462962962962966],[0.014583333333333334,-0.19648148148148153],[0.009791666666666643,-0.28129629629629627],[-0.022708333333333285,-0.317037037037037],[-0.022708333333333285,-0.32629629629629625],[-0.018124999999999978,-0.3527777777777778],[0.016562499999999977,-0.44462962962962965],[0.016666666666666666,-0.5270370370370371],[0.02041666666666669,-0.5537037037037037],[0.016250000000000025,-0.5559259259259259],[0.016250000000000025,-0.5559259259259259],[-0.0002083333333333807,-0.5503703703703704],[0.004479166666666619,-0.47018518518518515],[-0.01083333333333331,-0.4335185185185186],[-0.002812500000000047,-0.4072222222222222],[-0.002812500000000047,-0.4072222222222222],[-0.013541666666666667,-0.3672222222222222],[-0.03770833333333338,-0.3811111111111111],[-0.059687499999999956,-0.32944444444444443],[-0.059687499999999956,-0.32944444444444443],[-0.0829166666666667,-0.33296296296296296],[-0.09635416666666667,-0.30351851851851847],[-0.09312499999999997,-0.30703703703703705],[-0.09020833333333336,-0.30777777777777776],[-0.09020833333333336,-0.30777777777777776],[-0.08145833333333338,-0.3316666666666667],[-0.08770833333333337,-0.30481481481481487],[-0.08770833333333337,-0.30481481481481487],[-0.07875000000000003,-0.3411111111111111],[-0.07875000000000003,-0.3411111111111111],[-0.07864583333333333,-0.34500000000000003],[-0.07864583333333333,-0.34500000000000003],[-0.065625,-0.33611111111111114],[-0.07583333333333328,-0.35407407407407404],[-0.08031250000000002,-0.29611111111111105],[-0.08531249999999997,-0.3020370370370371],[-0.08229166666666667,-0.28851851851851856],[-0.07697916666666664,-0.2985185185185185],[-0.07166666666666661,-0.3085185185185186],[-0.05604166666666662,-0.3655555555555555],[-0.03427083333333331,-0.3427777777777778],[-0.014374999999999952,-0.375],[0.005729166666666666,-0.3096296296296296],[0.035416666666666666,-0.27555555555555555],[0.06218750000000005,-0.30111111111111116],[0.08364583333333328,-0.28203703703703703],[0.08479166666666677,-0.2764814814814815],[0.07052083333333338,-0.26592592592592595],[0.0709374999999999,-0.2455555555555556],[0.03833333333333329,-0.19018518518518515],[-0.00614583333333331,-0.13629629629629633],[-0.03447916666666669,-0.09814814814814815],[-0.06708333333333331,-0.0992592592592593],[-0.12541666666666665,-0.09351851851851851],[-0.17312500000000006,-0.06833333333333329],[-0.21749999999999994,-0.0455555555555556],[-0.24958333333333335,-0.028703703703703703],[-0.259375,-0.012777777777777735],[-0.28229166666666666,0.004814814814814857],[-0.2391666666666667,0.032407407407407406],[-0.20270833333333335,0.027962962962963005],[-0.1788541666666667,0.07666666666666662],[-0.14635416666666667,0.11444444444444436],[-0.10291666666666661,0.15203703703703708],[-0.06989583333333335,0.15351851851851847],[-0.04708333333333338,0.1485185185185186],[-0.014999999999999977,0.1449999999999999],[0.008229166666666643,0.1581481481481481],[0.02385416666666664,0.18314814814814812],[0.01906249999999995,0.1714814814814815],[0.02687499999999995,0.13555555555555565],[0.02781250000000005,0.15148148148148138],[0.02781250000000005,0.15148148148148138],[0.02010416666666662,0.17833333333333326],[0.02302083333333336,0.14685185185185176],[0.03843749999999998,0.2024074074074073],[0.04864583333333338,0.2609259259259259],[0.06135416666666664,0.25685185185185194],[0.06677083333333324,0.25870370370370377],[0.07677083333333339,0.23796296296296296],[0.07677083333333339,0.23796296296296296],[0.07635416666666663,0.2116666666666666],[0.07354166666666657,0.21592592592592597],[0.08083333333333324,0.15462962962962962],[0.08083333333333324,0.15462962962962962],[0.07958333333333342,0.0985185185185186],[0.07958333333333342,0.0985185185185186],[0.08499999999999991,0.10648148148148148],[0.08875000000000005,0.06296296296296296],[0.10062499999999991,0.011666666666666582],[0.10197916666666676,0.008888888888888804],[0.11062500000000004,0.0001851851851852273],[0.11427083333333338,0.005185185185185101]]","[[0.09541666666666657,0.28296296296296286,0.00019999998807662678],[0.09541666666666657,0.28296296296296286,0.0415999999642338],[0.09541666666666657,0.28296296296296286,0.043799999952312874],[0.0828125,0.2964814814814815,0.05999999999999517],[0.0734375,0.32611111111111113,0.07719999998807481],[0.08406250000000005,0.31925925925925924,0.09659999996423352],[0.08947916666666676,0.31740740740740736,0.11269999998807378],[0.09385416666666657,0.3014814814814814,0.12699999999999534],[0.10604166666666662,0.33000000000000007,0.14569999998807504],[0.08687500000000009,0.2962962962962963,0.16139999997615462],[0.08552083333333324,0.28351851851851856,0.17679999995231555],[0.07531249999999995,0.23555555555555563,0.19489999997615826],[0.07531249999999995,0.23555555555555563,0.21019999998807748],[0.051770833333333384,0.22925925925925916,0.2267999999523127],[0.05260416666666667,0.21388888888888888,0.24499999999999744],[0.04885416666666664,0.1816666666666667,0.2621999999880771],[0.03677083333333329,0.2064814814814815,0.2793999999761567],[0.029895833333333382,0.18870370370370365,0.29719999998807367],[0.024062500000000025,0.18499999999999997,0.31339999997615564],[0.010000000000000024,0.1492592592592593,0.3299999999999983],[0.03427083333333331,0.17388888888888884,0.34729999995231253],[0.03427083333333331,0.17388888888888884,0.35999999999999943],[0.03250000000000005,0.15833333333333333,0.3767999999523113],[0.043124999999999976,0.18425925925925926,0.39339999997615394],[0.05677083333333333,0.20851851851851855,0.4102999999523149],[0.06572916666666669,0.17833333333333326,0.4305999999642367],[0.07468750000000005,0.14814814814814814,0.4456999999880793],[0.06927083333333334,0.11685185185185189,0.46009999996423545],[0.0678124999999999,0.1124074074074075,0.4766999999880781],[0.058854166666666666,0.0911111111111112,0.4976999999880789],[0.04656250000000005,0.056296296296296254,0.5126999999880795],[0.024062500000000025,0.020370370370370372,0.5271999999880776],[0.005104166666666643,0.004259259259259175,0.5433999999761596],[0.005104166666666643,0.004259259259259175,0.5600999999642369],[-0.024895833333333308,-0.0294444444444444,0.5767999999523141],[-0.06822916666666666,-0.028703703703703703,0.5940999999642358],[-0.11072916666666661,0.004074074074074159,0.6101999999880761],[-0.15874999999999997,0.041111111111111195,0.6304999999999978],[-0.20406249999999998,0.058703703703703786,0.6460999999642354],[-0.25,0.07111111111111107,0.6612999999523126],[-0.2951041666666666,0.08092592592592601,0.6791999999880787],[-0.2951041666666666,0.08092592592592601,0.6935999999642348],[-0.338125,0.08203703703703695,0.7100999999642355],[-0.3625,0.11462962962962958,0.7267999999523127],[-0.39302083333333326,0.14722222222222223,0.7434999999999974],[-0.41302083333333334,0.19277777777777783,0.7609999999999957],[-0.4227083333333333,0.20555555555555555,0.7781999999880753],[-0.4227083333333333,0.2035185185185185,0.7949999999999946],[-0.4171875,0.19722222222222222,0.8115999999642369],[-0.4171875,0.19722222222222222,0.8267999999523141],[-0.4013541666666666,0.18314814814814812,0.8434999999999988],[-0.39427083333333335,0.1714814814814815,0.860099999964234],[-0.3805208333333333,0.17925925925925917,0.8766999999880767],[-0.3640625,0.18425925925925926,0.8950999999642377],[-0.3570833333333333,0.16833333333333328,0.9114999999999966],[-0.30572916666666666,0.18055555555555555,0.9275999999642366],[-0.25447916666666665,0.175,0.9441999999880792],[-0.23031250000000003,0.13574074074074066,0.9604999999999961],[-0.21583333333333338,0.11129629629629634,0.9769999999999968],[-0.20093749999999996,0.11185185185185181,0.9933999999761554],[-0.19635416666666666,0.12018518518518514,1.0100999999642326],[-0.17718750000000003,0.10999999999999996,1.0274999999999963],[-0.1296875,0.1331481481481481,1.0433999999761596],[-0.11531250000000005,0.13444444444444448,1.0600999999642369],[-0.11000000000000003,0.1368518518518518,1.0767999999523141],[-0.13687499999999997,0.10629629629629625,1.0937999999523171],[-0.1638541666666666,0.10351851851851848,1.1131999999880762],[-0.15364583333333334,0.11962962962962967,1.1301999999880792],[-0.14343750000000005,0.13574074074074066,1.1452999999523144],[-0.11968749999999997,0.14296296296296304,1.1606999999880756],[-0.11968749999999997,0.14296296296296304,1.1767999999523155],[-0.09593750000000002,0.15018518518518523,1.1936999999880769],[-0.08708333333333336,0.13666666666666658,1.212799999952317],[-0.09416666666666665,0.15166666666666662,1.2326999999880783],[-0.09416666666666665,0.15166666666666662,1.2433999999761554],[-0.07541666666666665,0.19222222222222213,1.2600999999642326],[-0.030104166666666644,0.22481481481481477,1.2774999999999963],[-0.030104166666666644,0.22481481481481477,1.2949999999999946],[0.0010416666666666667,0.2553703703703703,1.3118999999761556],[0.03343750000000002,0.2511111111111112,1.3266999999880795],[0.05572916666666667,0.2616666666666666,1.3433999999761568],[0.05697916666666671,0.3055555555555556,1.360099999964234],[0.05697916666666671,0.3055555555555556,1.3766999999880767],[0.042499999999999954,0.31203703703703706,1.393499999999996],[0.03947916666666664,0.31796296296296306,1.4127999999523126],[0.05010416666666669,0.38944444444444437,1.4267999999523155],[0.04833333333333331,0.3990740740740741,1.4436999999880769],[0.04906250000000002,0.41648148148148145,1.4600000000000009],[0.035104166666666714,0.4324074074074074,1.4767999999523127],[0.035312499999999976,0.4503703703703705,1.4934999999999974],[0.025833333333333285,0.4383333333333334,1.5102999999523163],[0.0109375,0.43796296296296294,1.526799999952317],[0.0375,0.407037037037037,1.5433999999761596],[0.03895833333333331,0.4262962962962964,1.5600999999642369],[0.028958333333333287,0.44611111111111107,1.5775000000000006],[0.03781249999999995,0.4107407407407407,1.5961999999880803],[0.04666666666666662,0.37537037037037047,1.6112999999523154],[0.06218750000000005,0.3172222222222221,1.6267999999523113],[0.0740624999999999,0.2705555555555556,1.643399999976154],[0.08552083333333324,0.24259259259259258,1.6600999999642383],[0.09177083333333323,0.26444444444444437,1.6766999999880738],[0.10583333333333324,0.26722222222222214,1.6933999999761582],[0.08791666666666677,0.2716666666666668,1.7101999999880775],[0.10031249999999996,0.23537037037037042,1.7267999999523127],[0.11062500000000004,0.20907407407407402,1.7433999999761554],[0.11520833333333323,0.1883333333333334,1.7600999999642326],[0.1178124999999999,0.20166666666666663,1.7766999999880753],[0.11937499999999991,0.22074074074074082,1.7934999999999945],[0.10229166666666671,0.19981481481481478,1.8099999999999952],[0.10614583333333343,0.1824074074074074,1.8266999999880795],[0.09874999999999995,0.13777777777777775,1.8433999999761568],[0.08302083333333338,0.0787037037037037,1.8626999999880738],[0.11989583333333324,0.054259259259259174,1.8766999999880767],[0.15333333333333338,0.041666666666666664,1.893499999999996],[0.19416666666666677,0.03129629629629625,1.9100999999642383],[0.19416666666666677,0.03129629629629625,1.9268999999761576],[0.21729166666666658,0.0418518518518519,1.9433999999761582],[0.25625,0.025370370370370456,1.9600999999642355],[0.29489583333333325,0.018518518518518517,1.976699999988078],[0.3349999999999999,0.022037037037036994,1.9933999999761554],[0.35604166666666665,0.020185185185185143,2.009999999999998],[0.42218749999999994,0.025370370370370456,2.0266999999880753],[0.48895833333333344,0.05185185185185185,2.0433999999761596],[0.48895833333333344,0.05185185185185185,2.060099999964237],[0.5107291666666666,0.0448148148148149,2.0766999999880795],[0.5323958333333333,0.019444444444444445,2.093499999999999],[0.5555208333333332,-0.016666666666666666,2.110099999964234],[0.5555208333333332,-0.016666666666666666,2.1266999999880767],[0.5775000000000001,-0.05333333333333336,2.143499999999996],[0.5733333333333335,-0.0824074074074074,2.1600999999642383],[0.5515625,-0.09444444444444444,2.179699999988074],[0.5515625,-0.09444444444444444,2.1939999999999955],[0.573125,-0.08722222222222227,2.2101999999880775],[0.573125,-0.08722222222222227,2.2267999999523127],[0.5768749999999999,-0.08907407407407411,2.2434999999999974],[0.5768749999999999,-0.08907407407407411,2.259999999999998],[0.5683333333333332,-0.11037037037037041,2.276799999952317],[0.564375,-0.13148148148148148,2.2933999999761596],[0.5548958333333334,-0.13722222222222227,2.310199999988079],[0.5372916666666666,-0.11574074074074074,2.326899999976156],[0.5131249999999999,-0.08629629629629634,2.343499999999999],[0.4422916666666666,0.011481481481481566,2.360199999988076],[0.3837500000000001,0.09462962962962967,2.3766999999880767],[0.35572916666666665,0.0868518518518518,2.3958999999761588],[0.3023958333333333,0.08629629629629634,2.4116999999880804],[0.28125,0.11870370370370374,2.4269999999999996],[0.25281250000000005,0.1896296296296296,2.4435000000000002],[0.20281250000000003,0.26944444444444443,2.4600999999642355],[0.1622916666666666,0.32833333333333325,2.4767999999523127],[0.15614583333333343,0.37240740740740746,2.4933999999761554],[0.14979166666666663,0.407037037037037,2.5100999999642326],[0.19885416666666675,0.31851851851851853,2.526799999952317],[0.24791666666666667,0.2300000000000001,2.5433999999761596],[0.2924999999999999,0.1757407407407407,2.559999999999995],[0.31833333333333325,0.2007407407407407,2.580199999988075],[0.2946875000000001,0.14833333333333337,2.597899999976157],[0.26749999999999996,0.0911111111111112,2.614099999964232],[0.28718750000000004,0.08000000000000008,2.6290999999642324],[0.28718750000000004,0.08000000000000008,2.643399999976154],[0.3068749999999999,0.06888888888888897,2.6600999999642383],[0.2943749999999999,0.006851851851851936,2.6779999999999973],[0.28187499999999993,-0.055185185185185205,2.6935000000000002],[0.26510416666666664,-0.025185185185185227,2.7100999999642355],[0.24833333333333343,0.004814814814814857,2.7267999999523127],[0.24833333333333343,0.004814814814814857,2.7434999999999974],[0.22218749999999995,0.07759259259259255,2.759999999999998],[0.23135416666666658,0.02907407407407416,2.7766999999880753],[0.2671875,0.01185185185185181,2.793999999999997],[0.30479166666666657,-0.006666666666666709,2.8104999999999976],[0.3064583333333334,-0.01777777777777782,2.826799999952314],[0.3081249999999999,-0.028888888888888933,2.8433999999761568],[0.2994791666666667,-0.011111111111111112,2.8599999999999994],[0.2855208333333332,0.02370370370370362,2.8767999999523113],[0.2693749999999999,0.0198148148148149,2.8960999999642354],[0.25322916666666656,0.01592592592592597,2.913399999976157],[0.2275000000000001,0.03037037037037033,2.931099999964232],[0.2275000000000001,0.03037037037037033,2.9435000000000002],[0.18520833333333328,0.0868518518518518,2.9600999999642355],[0.16937499999999991,0.11611111111111119,2.976699999988078],[0.1599999999999999,0.13481481481481472,2.993599999964232],[0.1599999999999999,0.13481481481481472,3.0100999999642326],[0.17583333333333329,0.08611111111111111,3.0266999999880753],[0.1805208333333333,0.05925925925925926,3.0433999999761596],[0.20260416666666667,0.05259259259259255,3.059999999999995],[0.2107291666666666,0.051666666666666625,3.0813999999761563],[0.22468750000000004,0.03425925925925926,3.097999999999999],[0.2352083333333333,0.04870370370370362,3.113899999976155],[0.23833333333333329,0.06925925925925921,3.1274999999999977],[0.24145833333333327,0.08981481481481482,3.1446999999880774],[0.22083333333333333,0.16592592592592598,3.1613999999761546],[0.2381249999999999,0.17537037037037045,3.1767999999523155],[0.23177083333333334,0.1933333333333333,3.1935000000000002],[0.2365624999999999,0.18944444444444436,3.214299999952317],[0.23739583333333342,0.20037037037037045,3.2308999999761596],[0.25750000000000006,0.18851851851851845,3.247399999976153],[0.278125,0.18796296296296297,3.2624999999999957],[0.3021874999999999,0.15555555555555556,3.2778999999761567],[0.3580208333333334,0.06425925925925935,3.294699999988076],[0.40499999999999997,-0.01314814814814819,3.3114999999999952],[0.46770833333333334,-0.11574074074074074,3.327999999999996],[0.48427083333333343,-0.1398148148148148,3.343899999976159],[0.5064583333333333,-0.15703703703703706,3.360099999964234],[0.5286458333333334,-0.1742592592592593,3.3766999999880767],[0.5598958333333334,-0.20759259259259263,3.393499999999996],[0.5911458333333334,-0.24092592592592596,3.4099999999999966],[0.6072916666666667,-0.2644444444444445,3.4271999999880762],[0.6234375,-0.287962962962963,3.443399999976158],[0.6204166666666666,-0.2727777777777778,3.4600999999642355],[0.6228125000000001,-0.2270370370370371,3.476699999988078],[0.6228125000000001,-0.17759259259259255,3.495399999976158],[0.6147916666666667,-0.14333333333333328,3.511399999976156],[0.6144791666666668,-0.13759259259259263,3.5266999999880753],[0.6141666666666665,-0.13185185185185183,3.5436999999880783],[0.5932291666666667,-0.11074074074074076,3.5619999999999976],[0.5722916666666668,-0.08962962962962959,3.580799999952312],[0.5740624999999999,-0.07388888888888885,3.596399999976157],[0.5849999999999999,-0.0787037037037037,3.611099999964239],[0.5849999999999999,-0.0787037037037037,3.6266999999880767],[0.5833333333333334,-0.07037037037037037,3.643399999976154],[0.5809375,-0.09611111111111106,3.6599999999999966],[0.5694791666666668,-0.12333333333333338,3.676699999988074],[0.5627083333333334,-0.09666666666666665,3.6978999999761584],[0.5527083333333332,-0.06888888888888887,3.712599999964233],[0.5454166666666665,-0.06833333333333329,3.7280000000000015],[0.5480208333333333,-0.06277777777777774,3.7434999999999974],[0.5580208333333334,-0.025,3.759999999999998],[0.5529166666666666,0.015555555555555513,3.776799999952317],[0.5382291666666668,0.04407407407407399,3.7933999999761596],[0.5361458333333334,0.05944444444444449,3.809999999999995],[0.5340625,0.07351851851851861,3.8311999999880797],[0.5315624999999999,0.11129629629629634,3.8475999999642383],[0.5264583333333335,0.057962962962962876,3.8646999999880762],[0.5210416666666667,0.022037037037036994,3.881899999976156],[0.5210416666666667,0.022037037037036994,3.893499999999996],[0.5185416666666666,0.027222222222222307,3.9100999999642383],[0.5223958333333333,0.001851851851851852,3.926699999988074],[0.5133333333333333,-0.04666666666666675,3.943399999976158],[0.510625,-0.1,3.961999999999996],[0.5083333333333333,-0.12074074074074072,3.980299999952315],[0.5073958333333333,-0.14648148148148152,3.997299999952311],[0.510625,-0.18129629629629626,4.012599999964237],[0.51125,-0.2227777777777778,4.030899999976157],[0.5178124999999999,-0.21185185185185182,4.045999999999999],[0.5238541666666667,-0.182962962962963,4.061399999976153],[0.5242708333333332,-0.16796296296296295,4.076799999952314],[0.5215625,-0.16925925925925922,4.0951999999880755],[0.5243750000000001,-0.17962962962962964,4.111799999952318],[0.5134375000000001,-0.1479629629629629,4.127899999976158],[0.5025000000000001,-0.11629629629629631,4.14369999998808],[0.5004166666666667,-0.12370370370370372,4.162599999964236],[0.5015625,-0.12037037037037036,4.179699999988074],[0.5008333333333332,-0.11666666666666667,4.199699999988077],[0.5008333333333332,-0.11666666666666667,4.2101999999880775],[0.490625,-0.09537037037037037,4.226799999952313],[0.490625,-0.09537037037037037,4.243499999999997],[0.4809375000000001,-0.09203703703703701,4.260099999964233],[0.4560416666666666,-0.06351851851851854,4.279399999976157],[0.4287499999999999,-0.018518518518518517,4.2989999999999995],[0.4287499999999999,-0.018518518518518517,4.310199999988079],[0.4014583333333334,0.026481481481481398,4.330199999988075],[0.3658333333333334,0.10314814814814824,4.3466999999880755],[0.3676041666666668,0.09814814814814815,4.361999999999995],[0.35916666666666663,0.13722222222222227,4.381899999976156],[0.3090625000000001,0.19407407407407398,4.398699999988075],[0.3090625000000001,0.19407407407407398,4.410299999952315],[0.2638541666666666,0.23351851851851857,4.426899999976158],[0.21614583333333334,0.26888888888888896,4.4465],[0.1462500000000001,0.3085185185185186,4.4616999999880775],[0.09156250000000009,0.3229629629629629,4.478499999999997],[0.05677083333333333,0.3322222222222222,4.499899999976158],[0.05677083333333333,0.3322222222222222,4.510299999952316],[0.05447916666666662,0.3520370370370371,4.526899999976159],[0.05166666666666669,0.28648148148148156,4.5434999999999945],[0.03843749999999998,0.3022222222222223,4.563099999964237],[0.0036458333333333334,0.2705555555555556,4.580500000000001],[0.013437499999999976,0.23407407407407405,4.597399999976155],[0.01895833333333338,0.20055555555555546,4.616699999988079],[0.01895833333333338,0.20055555555555546,4.626899999976153],[0.03447916666666669,0.19277777777777783,4.643599999964238],[0.07218749999999995,0.18074074074074079,4.66019999998808],[0.11427083333333338,0.1300000000000001,4.679499999999997],[0.12645833333333342,0.06333333333333342,4.696599999964235],[0.10614583333333343,-0.013888888888888888,4.716099999964236],[0.10614583333333343,-0.013888888888888888,4.726799999952313],[0.08885416666666662,-0.02111111111111107,4.743399999976155],[0.06697916666666662,-0.01796296296296305,4.763799999952312],[0.06302083333333333,-0.023148148148148147,4.781399999976159],[0.044166666666666646,-0.04351851851851852,4.797999999999995],[0.041875000000000044,-0.07462962962962966,4.813499999999998],[0.014583333333333334,-0.19648148148148153,4.828699999988075],[0.009791666666666643,-0.28129629629629627,4.845699999988078],[-0.022708333333333285,-0.317037037037037,4.8614999999999995],[-0.022708333333333285,-0.32629629629629625,4.877499999999998],[-0.018124999999999978,-0.3527777777777778,4.893499999999996],[0.016562499999999977,-0.44462962962962965,4.910299999952315],[0.016666666666666666,-0.5270370370370371,4.926699999988074],[0.02041666666666669,-0.5537037037037037,4.943399999976158],[0.016250000000000025,-0.5559259259259259,4.960000000000001],[0.016250000000000025,-0.5559259259259259,4.976699999988078],[-0.0002083333333333807,-0.5503703703703704,4.993499999999997],[0.004479166666666619,-0.47018518518518515,5.010299999952316],[-0.01083333333333331,-0.4335185185185186,5.026699999988075],[-0.002812500000000047,-0.4072222222222222,5.04339999997616],[-0.002812500000000047,-0.4072222222222222,5.059999999999995],[-0.013541666666666667,-0.3672222222222222,5.0766999999880795],[-0.03770833333333338,-0.3811111111111111,5.093899999976159],[-0.059687499999999956,-0.32944444444444443,5.110299999952318],[-0.059687499999999956,-0.32944444444444443,5.126699999988077],[-0.0829166666666667,-0.33296296296296296,5.143499999999996],[-0.09635416666666667,-0.30351851851851847,5.161499999999997],[-0.09312499999999997,-0.30703703703703705,5.179699999988074],[-0.09020833333333336,-0.30777777777777776,5.199399999976158],[-0.09020833333333336,-0.30777777777777776,5.2100999999642355],[-0.08145833333333338,-0.3316666666666667,5.226799999952313],[-0.08770833333333337,-0.30481481481481487,5.248899999976153],[-0.08770833333333337,-0.30481481481481487,5.267799999952317],[-0.07875000000000003,-0.3411111111111111,5.286399999976155],[-0.07875000000000003,-0.3411111111111111,5.29339999997616],[-0.07864583333333333,-0.34500000000000003,5.310099999964237],[-0.07864583333333333,-0.34500000000000003,5.326799999952314],[-0.065625,-0.33611111111111114,5.343499999999999],[-0.07583333333333328,-0.35407407407407404,5.359999999999999],[-0.08031250000000002,-0.29611111111111105,5.376699999988077],[-0.08531249999999997,-0.3020370370370371,5.397299999952317],[-0.08229166666666667,-0.28851851851851856,5.414799999952315],[-0.07697916666666664,-0.2985185185185185,5.43],[-0.07166666666666661,-0.3085185185185186,5.444199999988079],[-0.05604166666666662,-0.3655555555555555,5.460000000000001],[-0.03427083333333331,-0.3427777777777778,5.476699999988078],[-0.014374999999999952,-0.375,5.493399999976155],[0.005729166666666666,-0.3096296296296296,5.510099999964233],[0.035416666666666666,-0.27555555555555555,5.526899999976159],[0.06218750000000005,-0.30111111111111116,5.54339999997616],[0.08364583333333328,-0.28203703703703703,5.561299999952311],[0.08479166666666677,-0.2764814814814815,5.5766999999880795],[0.07052083333333338,-0.26592592592592595,5.594299999952312],[0.0709374999999999,-0.2455555555555556,5.610099999964234],[0.03833333333333329,-0.19018518518518515,5.626699999988077],[-0.00614583333333331,-0.13629629629629633,5.643399999976154],[-0.03447916666666669,-0.09814814814814815,5.660799999952317],[-0.06708333333333331,-0.0992592592592593,5.677],[-0.12541666666666665,-0.09351851851851851,5.693399999976158],[-0.17312500000000006,-0.06833333333333329,5.710000000000001],[-0.21749999999999994,-0.0455555555555556,5.726799999952313],[-0.24958333333333335,-0.028703703703703703,5.743399999976155],[-0.259375,-0.012777777777777735,5.759999999999998],[-0.28229166666666666,0.004814814814814857,5.776699999988075],[-0.2391666666666667,0.032407407407407406,5.794599999964234],[-0.20270833333333335,0.027962962962963005,5.811399999976153],[-0.1788541666666667,0.07666666666666662,5.8266999999880795],[-0.14635416666666667,0.11444444444444436,5.843299999952315],[-0.10291666666666661,0.15203703703703708,5.859999999999999],[-0.06989583333333335,0.15351851851851847,5.876699999988077],[-0.04708333333333338,0.1485185185185186,5.893299999952312],[-0.014999999999999977,0.1449999999999999,5.91019999998808],[0.008229166666666643,0.1581481481481481,5.926599999964232],[0.02385416666666664,0.18314814814814812,5.947299999952314],[0.01906249999999995,0.1714814814814815,5.96069999998808],[0.02687499999999995,0.13555555555555565,5.977299999952315],[0.02781250000000005,0.15148148148148138,5.993399999976155],[0.02781250000000005,0.15148148148148138,6.009999999999998],[0.02010416666666662,0.17833333333333326,6.026699999988075],[0.02302083333333336,0.14685185185185176,6.043299999952318],[0.03843749999999998,0.2024074074074073,6.059999999999995],[0.04864583333333338,0.2609259259259259,6.077099999964233],[0.06135416666666664,0.25685185185185194,6.093399999976157],[0.06677083333333324,0.25870370370370377,6.109999999999999],[0.07677083333333339,0.23796296296296296,6.127099999964237],[0.07677083333333339,0.23796296296296296,6.143499999999996],[0.07635416666666663,0.2116666666666666,6.159999999999997],[0.07354166666666657,0.21592592592592597,6.176599999964232],[0.08083333333333324,0.15462962962962962,6.193399999976158],[0.08083333333333324,0.15462962962962962,6.2100999999642355],[0.07958333333333342,0.0985185185185186,6.226899999976155],[0.07958333333333342,0.0985185185185186,6.243399999976155],[0.08499999999999991,0.10648148148148148,6.260099999964233],[0.08875000000000005,0.06296296296296296,6.276699999988075],[0.10062499999999991,0.011666666666666582,6.2934999999999945],[0.10197916666666676,0.008888888888888804,6.309999999999995],[0.11062500000000004,0.0001851851851852273,6.326799999952314],[0.11427083333333338,0.005185185185185101,6.3459999999999965]]","[0.00019999998807662678,0.0415999999642338,0.043799999952312874,0.05999999999999517,0.07719999998807481,0.09659999996423352,0.11269999998807378,0.12699999999999534,0.14569999998807504,0.16139999997615462,0.17679999995231555,0.19489999997615826,0.21019999998807748,0.2267999999523127,0.24499999999999744,0.2621999999880771,0.2793999999761567,0.29719999998807367,0.31339999997615564,0.3299999999999983,0.34729999995231253,0.35999999999999943,0.3767999999523113,0.39339999997615394,0.4102999999523149,0.4305999999642367,0.4456999999880793,0.46009999996423545,0.4766999999880781,0.4976999999880789,0.5126999999880795,0.5271999999880776,0.5433999999761596,0.5600999999642369,0.5767999999523141,0.5940999999642358,0.6101999999880761,0.6304999999999978,0.6460999999642354,0.6612999999523126,0.6791999999880787,0.6935999999642348,0.7100999999642355,0.7267999999523127,0.7434999999999974,0.7609999999999957,0.7781999999880753,0.7949999999999946,0.8115999999642369,0.8267999999523141,0.8434999999999988,0.860099999964234,0.8766999999880767,0.8950999999642377,0.9114999999999966,0.9275999999642366,0.9441999999880792,0.9604999999999961,0.9769999999999968,0.9933999999761554,1.0100999999642326,1.0274999999999963,1.0433999999761596,1.0600999999642369,1.0767999999523141,1.0937999999523171,1.1131999999880762,1.1301999999880792,1.1452999999523144,1.1606999999880756,1.1767999999523155,1.1936999999880769,1.212799999952317,1.2326999999880783,1.2433999999761554,1.2600999999642326,1.2774999999999963,1.2949999999999946,1.3118999999761556,1.3266999999880795,1.3433999999761568,1.360099999964234,1.3766999999880767,1.393499999999996,1.4127999999523126,1.4267999999523155,1.4436999999880769,1.4600000000000009,1.4767999999523127,1.4934999999999974,1.5102999999523163,1.526799999952317,1.5433999999761596,1.5600999999642369,1.5775000000000006,1.5961999999880803,1.6112999999523154,1.6267999999523113,1.643399999976154,1.6600999999642383,1.6766999999880738,1.6933999999761582,1.7101999999880775,1.7267999999523127,1.7433999999761554,1.7600999999642326,1.7766999999880753,1.7934999999999945,1.8099999999999952,1.8266999999880795,1.8433999999761568,1.8626999999880738,1.8766999999880767,1.893499999999996,1.9100999999642383,1.9268999999761576,1.9433999999761582,1.9600999999642355,1.976699999988078,1.9933999999761554,2.009999999999998,2.0266999999880753,2.0433999999761596,2.060099999964237,2.0766999999880795,2.093499999999999,2.110099999964234,2.1266999999880767,2.143499999999996,2.1600999999642383,2.179699999988074,2.1939999999999955,2.2101999999880775,2.2267999999523127,2.2434999999999974,2.259999999999998,2.276799999952317,2.2933999999761596,2.310199999988079,2.326899999976156,2.343499999999999,2.360199999988076,2.3766999999880767,2.3958999999761588,2.4116999999880804,2.4269999999999996,2.4435000000000002,2.4600999999642355,2.4767999999523127,2.4933999999761554,2.5100999999642326,2.526799999952317,2.5433999999761596,2.559999999999995,2.580199999988075,2.597899999976157,2.614099999964232,2.6290999999642324,2.643399999976154,2.6600999999642383,2.6779999999999973,2.6935000000000002,2.7100999999642355,2.7267999999523127,2.7434999999999974,2.759999999999998,2.7766999999880753,2.793999999999997,2.8104999999999976,2.826799999952314,2.8433999999761568,2.8599999999999994,2.8767999999523113,2.8960999999642354,2.913399999976157,2.931099999964232,2.9435000000000002,2.9600999999642355,2.976699999988078,2.993599999964232,3.0100999999642326,3.0266999999880753,3.0433999999761596,3.059999999999995,3.0813999999761563,3.097999999999999,3.113899999976155,3.1274999999999977,3.1446999999880774,3.1613999999761546,3.1767999999523155,3.1935000000000002,3.214299999952317,3.2308999999761596,3.247399999976153,3.2624999999999957,3.2778999999761567,3.294699999988076,3.3114999999999952,3.327999999999996,3.343899999976159,3.360099999964234,3.3766999999880767,3.393499999999996,3.4099999999999966,3.4271999999880762,3.443399999976158,3.4600999999642355,3.476699999988078,3.495399999976158,3.511399999976156,3.5266999999880753,3.5436999999880783,3.5619999999999976,3.580799999952312,3.596399999976157,3.611099999964239,3.6266999999880767,3.643399999976154,3.6599999999999966,3.676699999988074,3.6978999999761584,3.712599999964233,3.7280000000000015,3.7434999999999974,3.759999999999998,3.776799999952317,3.7933999999761596,3.809999999999995,3.8311999999880797,3.8475999999642383,3.8646999999880762,3.881899999976156,3.893499999999996,3.9100999999642383,3.926699999988074,3.943399999976158,3.961999999999996,3.980299999952315,3.997299999952311,4.012599999964237,4.030899999976157,4.045999999999999,4.061399999976153,4.076799999952314,4.0951999999880755,4.111799999952318,4.127899999976158,4.14369999998808,4.162599999964236,4.179699999988074,4.199699999988077,4.2101999999880775,4.226799999952313,4.243499999999997,4.260099999964233,4.279399999976157,4.2989999999999995,4.310199999988079,4.330199999988075,4.3466999999880755,4.361999999999995,4.381899999976156,4.398699999988075,4.410299999952315,4.426899999976158,4.4465,4.4616999999880775,4.478499999999997,4.499899999976158,4.510299999952316,4.526899999976159,4.5434999999999945,4.563099999964237,4.580500000000001,4.597399999976155,4.616699999988079,4.626899999976153,4.643599999964238,4.66019999998808,4.679499999999997,4.696599999964235,4.716099999964236,4.726799999952313,4.743399999976155,4.763799999952312,4.781399999976159,4.797999999999995,4.813499999999998,4.828699999988075,4.845699999988078,4.8614999999999995,4.877499999999998,4.893499999999996,4.910299999952315,4.926699999988074,4.943399999976158,4.960000000000001,4.976699999988078,4.993499999999997,5.010299999952316,5.026699999988075,5.04339999997616,5.059999999999995,5.0766999999880795,5.093899999976159,5.110299999952318,5.126699999988077,5.143499999999996,5.161499999999997,5.179699999988074,5.199399999976158,5.2100999999642355,5.226799999952313,5.248899999976153,5.267799999952317,5.286399999976155,5.29339999997616,5.310099999964237,5.326799999952314,5.343499999999999,5.359999999999999,5.376699999988077,5.397299999952317,5.414799999952315,5.43,5.444199999988079,5.460000000000001,5.476699999988078,5.493399999976155,5.510099999964233,5.526899999976159,5.54339999997616,5.561299999952311,5.5766999999880795,5.594299999952312,5.610099999964234,5.626699999988077,5.643399999976154,5.660799999952317,5.677,5.693399999976158,5.710000000000001,5.726799999952313,5.743399999976155,5.759999999999998,5.776699999988075,5.794599999964234,5.811399999976153,5.8266999999880795,5.843299999952315,5.859999999999999,5.876699999988077,5.893299999952312,5.91019999998808,5.926599999964232,5.947299999952314,5.96069999998808,5.977299999952315,5.993399999976155,6.009999999999998,6.026699999988075,6.043299999952318,6.059999999999995,6.077099999964233,6.093399999976157,6.109999999999999,6.127099999964237,6.143499999999996,6.159999999999997,6.176599999964232,6.193399999976158,6.2100999999642355,6.226899999976155,6.243399999976155,6.260099999964233,6.276699999988075,6.2934999999999945,6.309999999999995,6.326799999952314,6.3459999999999965]","[1732873820914,1732873820947,1732873820949,1732873820965,1732873820982,1732873821002,1732873821018,1732873821032,1732873821051,1732873821066,1732873821082,1732873821100,1732873821115,1732873821132,1732873821150,1732873821167,1732873821184,1732873821202,1732873821218,1732873821235,1732873821252,1732873821265,1732873821282,1732873821298,1732873821315,1732873821336,1732873821351,1732873821365,1732873821382,1732873821403,1732873821418,1732873821432,1732873821448,1732873821465,1732873821482,1732873821499,1732873821515,1732873821535,1732873821551,1732873821566,1732873821584,1732873821598,1732873821615,1732873821632,1732873821648,1732873821666,1732873821683,1732873821700,1732873821717,1732873821732,1732873821748,1732873821765,1732873821782,1732873821800,1732873821817,1732873821832,1732873821849,1732873821865,1732873821882,1732873821898,1732873821915,1732873821932,1732873821948,1732873821965,1732873821982,1732873821999,1732873822018,1732873822035,1732873822050,1732873822066,1732873822082,1732873822099,1732873822118,1732873822138,1732873822148,1732873822165,1732873822182,1732873822200,1732873822217,1732873822232,1732873822248,1732873822265,1732873822282,1732873822298,1732873822318,1732873822332,1732873822349,1732873822365,1732873822382,1732873822398,1732873822415,1732873822432,1732873822448,1732873822465,1732873822482,1732873822501,1732873822516,1732873822532,1732873822548,1732873822565,1732873822582,1732873822598,1732873822615,1732873822632,1732873822648,1732873822665,1732873822682,1732873822698,1732873822715,1732873822732,1732873822748,1732873822768,1732873822782,1732873822798,1732873822815,1732873822832,1732873822848,1732873822865,1732873822882,1732873822898,1732873822915,1732873822932,1732873822948,1732873822965,1732873822982,1732873822998,1732873823015,1732873823032,1732873823048,1732873823065,1732873823085,1732873823099,1732873823115,1732873823132,1732873823148,1732873823165,1732873823182,1732873823198,1732873823215,1732873823232,1732873823248,1732873823265,1732873823282,1732873823301,1732873823317,1732873823332,1732873823348,1732873823365,1732873823382,1732873823398,1732873823415,1732873823432,1732873823448,1732873823465,1732873823485,1732873823503,1732873823519,1732873823534,1732873823548,1732873823565,1732873823583,1732873823598,1732873823615,1732873823632,1732873823648,1732873823665,1732873823682,1732873823699,1732873823715,1732873823732,1732873823748,1732873823765,1732873823782,1732873823801,1732873823818,1732873823836,1732873823848,1732873823865,1732873823882,1732873823898,1732873823915,1732873823932,1732873823948,1732873823965,1732873823986,1732873824003,1732873824019,1732873824032,1732873824050,1732873824066,1732873824082,1732873824098,1732873824119,1732873824136,1732873824152,1732873824167,1732873824183,1732873824200,1732873824216,1732873824233,1732873824249,1732873824265,1732873824282,1732873824298,1732873824315,1732873824332,1732873824348,1732873824365,1732873824382,1732873824400,1732873824416,1732873824432,1732873824449,1732873824467,1732873824486,1732873824501,1732873824516,1732873824532,1732873824548,1732873824565,1732873824582,1732873824603,1732873824617,1732873824633,1732873824648,1732873824665,1732873824682,1732873824698,1732873824715,1732873824736,1732873824753,1732873824770,1732873824787,1732873824798,1732873824815,1732873824832,1732873824848,1732873824867,1732873824885,1732873824902,1732873824918,1732873824936,1732873824951,1732873824966,1732873824982,1732873825000,1732873825017,1732873825033,1732873825049,1732873825068,1732873825085,1732873825105,1732873825115,1732873825132,1732873825148,1732873825165,1732873825184,1732873825204,1732873825215,1732873825235,1732873825252,1732873825267,1732873825287,1732873825304,1732873825315,1732873825332,1732873825351,1732873825367,1732873825383,1732873825405,1732873825415,1732873825432,1732873825448,1732873825468,1732873825485,1732873825502,1732873825522,1732873825532,1732873825548,1732873825565,1732873825584,1732873825601,1732873825621,1732873825632,1732873825648,1732873825669,1732873825686,1732873825703,1732873825718,1732873825734,1732873825751,1732873825766,1732873825782,1732873825798,1732873825815,1732873825832,1732873825848,1732873825865,1732873825882,1732873825898,1732873825915,1732873825932,1732873825948,1732873825965,1732873825982,1732873825999,1732873826015,1732873826032,1732873826048,1732873826066,1732873826085,1732873826104,1732873826115,1732873826132,1732873826154,1732873826173,1732873826191,1732873826198,1732873826215,1732873826232,1732873826248,1732873826265,1732873826282,1732873826302,1732873826320,1732873826335,1732873826349,1732873826365,1732873826382,1732873826398,1732873826415,1732873826432,1732873826448,1732873826466,1732873826482,1732873826499,1732873826515,1732873826532,1732873826548,1732873826566,1732873826582,1732873826598,1732873826615,1732873826632,1732873826648,1732873826665,1732873826682,1732873826699,1732873826716,1732873826732,1732873826748,1732873826765,1732873826782,1732873826798,1732873826815,1732873826832,1732873826852,1732873826866,1732873826882,1732873826898,1732873826915,1732873826932,1732873826948,1732873826965,1732873826982,1732873826998,1732873827015,1732873827032,1732873827048,1732873827065,1732873827082,1732873827098,1732873827115,1732873827132,1732873827148,1732873827165,1732873827182,1732873827198,1732873827215,1732873827232,1732873827251]","[[1051.6,692.8],[1051.6,692.8],[1051.6,692.8],[1039.5,700.1],[1030.5,716.1],[1040.7,712.4],[1045.9,711.4],[1050.1,702.8],[1061.8,718.2],[1043.4,700],[1042.1,693.1],[1032.3,667.2],[1032.3,667.2],[1009.7,663.8],[1010.5,655.5],[1006.9,638.1],[995.3,651.5],[988.7,641.9],[983.1,639.9],[969.6,620.6],[992.9,633.9],[992.9,633.9],[991.2,625.5],[1001.4,639.5],[1014.5,652.6],[1023.1,636.3],[1031.7,620],[1026.5,603.1],[1025.1,600.7],[1016.5,589.2],[1004.7,570.4],[983.1,551],[964.9,542.3],[964.9,542.3],[936.1,524.1],[894.5,524.5],[853.7,542.2],[807.6,562.2],[764.1,571.7],[720,578.4],[676.7,583.7],[676.7,583.7],[635.4,584.3],[612,601.9],[582.7,619.5],[563.5,644.1],[554.2,651],[554.2,649.9],[559.5,646.5],[559.5,646.5],[574.7,638.9],[581.5,632.6],[594.7,636.8],[610.5,639.5],[617.2,630.9],[666.5,637.5],[715.7,634.5],[738.9,613.3],[752.8,600.1],[767.1,600.4],[771.5,604.9],[789.9,599.4],[835.5,611.9],[849.3,612.6],[854.4,613.9],[828.6,597.4],[802.7,595.9],[812.5,604.6],[822.3,613.3],[845.1,617.2],[845.1,617.2],[867.9,621.1],[876.4,613.8],[869.6,621.9],[869.6,621.9],[887.6,643.8],[931.1,661.4],[931.1,661.4],[961,677.9],[992.1,675.6],[1013.5,681.3],[1014.7,705],[1014.7,705],[1000.8,708.5],[997.9,711.7],[1008.1,750.3],[1006.4,755.5],[1007.1,764.9],[993.7,773.5],[993.9,783.2],[984.8,776.7],[970.5,776.5],[996,759.8],[997.4,770.2],[987.8,780.9],[996.3,761.8],[1004.8,742.7],[1019.7,711.3],[1031.1,686.1],[1042.1,671],[1048.1,682.8],[1061.6,684.3],[1044.4,686.7],[1056.3,667.1],[1066.2,652.9],[1070.6,641.7],[1073.1,648.9],[1074.6,659.2],[1058.2,647.9],[1061.9,638.5],[1054.8,614.4],[1039.7,582.5],[1075.1,569.3],[1107.2,562.5],[1146.4,556.9],[1146.4,556.9],[1168.6,562.6],[1206,553.7],[1243.1,550],[1281.6,551.9],[1301.8,550.9],[1365.3,553.7],[1429.4,568],[1429.4,568],[1450.3,564.2],[1471.1,550.5],[1493.3,531],[1493.3,531],[1514.4,511.2],[1510.4,495.5],[1489.5,489],[1489.5,489],[1510.2,492.9],[1510.2,492.9],[1513.8,491.9],[1513.8,491.9],[1505.6,480.4],[1501.8,469],[1492.7,465.9],[1475.8,477.5],[1452.6,493.4],[1384.6,546.2],[1328.4,591.1],[1301.5,586.9],[1250.3,586.6],[1230,604.1],[1202.7,642.4],[1154.7,685.5],[1115.8,717.3],[1109.9,741.1],[1103.8,759.8],[1150.9,712],[1198,664.2],[1240.8,634.9],[1265.6,648.4],[1242.9,620.1],[1216.8,589.2],[1235.7,583.2],[1235.7,583.2],[1254.6,577.2],[1242.6,543.7],[1230.6,510.2],[1214.5,526.4],[1198.4,542.6],[1198.4,542.6],[1173.3,581.9],[1182.1,555.7],[1216.5,546.4],[1252.6,536.4],[1254.2,530.4],[1255.8,524.4],[1247.5,534],[1234.1,552.8],[1218.6,550.7],[1203.1,548.6],[1178.4,556.4],[1178.4,556.4],[1137.8,586.9],[1122.6,602.7],[1113.6,612.8],[1113.6,612.8],[1128.8,586.5],[1133.3,572],[1154.5,568.4],[1162.3,567.9],[1175.7,558.5],[1185.8,566.3],[1188.8,577.4],[1191.8,588.5],[1172,629.6],[1188.6,634.7],[1182.5,644.4],[1187.1,642.3],[1187.9,648.2],[1207.2,641.8],[1227,641.5],[1250.1,624],[1303.7,574.7],[1348.8,532.9],[1409,477.5],[1424.9,464.5],[1446.2,455.2],[1467.5,445.9],[1497.5,427.9],[1527.5,409.9],[1543,397.2],[1558.5,384.5],[1555.6,392.7],[1557.9,417.4],[1557.9,444.1],[1550.2,462.6],[1549.9,465.7],[1549.6,468.8],[1529.5,480.2],[1509.4,491.6],[1511.1,500.1],[1521.6,497.5],[1521.6,497.5],[1520,502],[1517.7,488.1],[1506.7,473.4],[1500.2,487.8],[1490.6,502.8],[1483.6,503.1],[1486.1,506.1],[1495.7,526.5],[1490.8,548.4],[1476.7,563.8],[1474.7,572.1],[1472.7,579.7],[1470.3,600.1],[1465.4,571.3],[1460.2,551.9],[1460.2,551.9],[1457.8,554.7],[1461.5,541],[1452.8,514.8],[1450.2,486],[1448,474.8],[1447.1,460.9],[1450.2,442.1],[1450.8,419.7],[1457.1,425.6],[1462.9,441.2],[1463.3,449.3],[1460.7,448.6],[1463.4,443],[1452.9,460.1],[1442.4,477.2],[1440.4,473.2],[1441.5,475],[1440.8,477],[1440.8,477],[1431,488.5],[1431,488.5],[1421.7,490.3],[1397.8,505.7],[1371.6,530],[1371.6,530],[1345.4,554.3],[1311.2,595.7],[1312.9,593],[1304.8,614.1],[1256.7,644.8],[1256.7,644.8],[1213.3,666.1],[1167.5,685.2],[1100.4,706.6],[1047.9,714.4],[1014.5,719.4],[1014.5,719.4],[1012.3,730.1],[1009.6,694.7],[996.9,703.2],[963.5,686.1],[972.9,666.4],[978.2,648.3],[978.2,648.3],[993.1,644.1],[1029.3,637.6],[1069.7,610.2],[1081.4,574.2],[1061.9,532.5],[1061.9,532.5],[1045.3,528.6],[1024.3,530.3],[1020.5,527.5],[1002.4,516.5],[1000.2,499.7],[974,433.9],[969.4,388.1],[938.2,368.8],[938.2,363.8],[942.6,349.5],[975.9,299.9],[976,255.4],[979.6,241],[975.6,239.8],[975.6,239.8],[959.8,242.8],[964.3,286.1],[949.6,305.9],[957.3,320.1],[957.3,320.1],[947,341.7],[923.8,334.2],[902.7,362.1],[902.7,362.1],[880.4,360.2],[867.5,376.1],[870.6,374.2],[873.4,373.8],[873.4,373.8],[881.8,360.9],[875.8,375.4],[875.8,375.4],[884.4,355.8],[884.4,355.8],[884.5,353.7],[884.5,353.7],[897,358.5],[887.2,348.8],[882.9,380.1],[878.1,376.9],[881,384.2],[886.1,378.8],[891.2,373.4],[906.2,342.6],[927.1,354.9],[946.2,337.5],[965.5,372.8],[994,391.2],[1019.7,377.4],[1040.3,387.7],[1041.4,390.7],[1027.7,396.4],[1028.1,407.4],[996.8,437.3],[954.1,466.4],[926.9,487],[895.6,486.4],[839.6,489.5],[793.8,503.1],[751.2,515.4],[720.4,524.5],[711,533.1],[689,542.6],[730.4,557.5],[765.4,555.1],[788.3,581.4],[819.5,601.8],[861.2,622.1],[892.9,622.9],[914.8,620.2],[945.6,618.3],[967.9,625.4],[982.9,638.9],[978.3,632.6],[985.8,613.2],[986.7,621.8],[986.7,621.8],[979.3,636.3],[982.1,619.3],[996.9,649.3],[1006.7,680.9],[1018.9,678.7],[1024.1,679.7],[1033.7,668.5],[1033.7,668.5],[1033.3,654.3],[1030.6,656.6],[1037.6,623.5],[1037.6,623.5],[1036.4,593.2],[1036.4,593.2],[1041.6,597.5],[1045.2,574],[1056.6,546.3],[1057.9,544.8],[1066.2,540.1],[1069.7,542.8]]","[0,0.3527331528]","[0.3527331528,0.3527331528]","[-0.3527331528,0]","[-0.3527331528,-0.3527331528]","[0,0]","[0.3527331528,0]","[0,-0.3527331528]","[0.3527331528,-0.3527331528]",0,0,0,0,1,1,Tablet,7,7,15,9
