inst1_resp.keys,inst1_resp.rt,calibrationMouse.x,calibrationMouse.y,calibrationMouse.leftButton,calibrationMouse.midButton,calibrationMouse.rightButton,calibrationClick.x,calibrationClick.y,calibrationClick.leftButton,calibrationClick.midButton,calibrationClick.rightButton,trialsc.thisRepN,trialsc.thisTrialN,trialsc.thisN,trialsc.thisIndex,trialsc.ran,calibration_x,calibration_y,participant,session,date,expName,psychopyVersion,OS,frameRate,calibrationClick.clicked_name,ScreenRes_pixels,Camera_pixels,mouse_2.x,mouse_2.y,mouse_2.leftButton,mouse_2.midButton,mouse_2.rightButton,mouse_2.time,mouse_2.clicked_name,mouse.x,mouse.y,mouse.leftButton,mouse.midButton,mouse.rightButton,mouse.time,mouse.clicked_name,Choice,Trial,TrialDuration,MOUSE_GAZE,ET_GAZE,ET_GAZE_x_T,time,unixTime,ET_GAZE_NF,Loc_Option1_label,Loc_Option2_label,Loc_Cost_label,Loc_Qual_label,Loc_Option1_cost,Loc_Option2_cost,Loc_Option1_quality,Loc_Option2_quality,trials.thisRepN,trials.thisTrialN,trials.thisN,trials.thisIndex,trials.ran,Block,Device,cost1,qual1,cost2,qual2
space,2.5295,0.011458333,0.168518519,1,0,0,0.661458333,0.681481481,1,0,0,0,0,0,19,1,0.67,0.67,32,001,2024-11-29_18h54.13.983,Attention_exp_legacy,2023.1.0,Win32,59.88023952,,,,,,,,,,,,,,,,,,,,,,,,,,,,,,,,,,,,,,,,,,,,,
,,,,,,,0.330208333,-0.662962963,1,0,0,0,1,1,14,1,0.33,-0.67,32,001,2024-11-29_18h54.13.983,Attention_exp_legacy,2023.1.0,Win32,59.88023952,calibration_square,,,,,,,,,,,,,,,,,,,,,,,,,,,,,,,,,,,,,,,,,,,,
,,,,,,,-0.3375,0.02037037,1,0,0,0,2,2,6,1,-0.33,0,32,001,2024-11-29_18h54.13.983,Attention_exp_legacy,2023.1.0,Win32,59.88023952,,,,,,,,,,,,,,,,,,,,,,,,,,,,,,,,,,,,,,,,,,,,,
,,,,,,,-0.665625,0.003703704,1,0,0,0,3,3,2,1,-0.67,0,32,001,2024-11-29_18h54.13.983,Attention_exp_legacy,2023.1.0,Win32,59.88023952,calibration_square,,,,,,,,,,,,,,,,,,,,,,,,,,,,,,,,,,,,,,,,,,,,
,,,,,,,-0.004166667,0.007407407,1,0,0,0,4,4,11,1,0,0,32,001,2024-11-29_18h54.13.983,Attention_exp_legacy,2023.1.0,Win32,59.88023952,calibration_square,,,,,,,,,,,,,,,,,,,,,,,,,,,,,,,,,,,,,,,,,,,,
,,,,,,,-0.671875,-0.685185185,1,0,0,0,5,5,0,1,-0.67,-0.67,32,001,2024-11-29_18h54.13.983,Attention_exp_legacy,2023.1.0,Win32,59.88023952,,,,,,,,,,,,,,,,,,,,,,,,,,,,,,,,,,,,,,,,,,,,,
,,,,,,,-0.325,0.324074074,1,0,0,0,6,6,7,1,-0.33,0.33,32,001,2024-11-29_18h54.13.983,Attention_exp_legacy,2023.1.0,Win32,59.88023952,calibration_square,,,,,,,,,,,,,,,,,,,,,,,,,,,,,,,,,,,,,,,,,,,,
,,,,,,,-0.660416667,0.32962963,1,0,0,0,7,7,3,1,-0.67,0.33,32,001,2024-11-29_18h54.13.983,Attention_exp_legacy,2023.1.0,Win32,59.88023952,calibration_square,,,,,,,,,,,,,,,,,,,,,,,,,,,,,,,,,,,,,,,,,,,,
,,,,,,,-0.673958333,-0.316666667,1,0,0,0,8,8,1,1,-0.67,-0.33,32,001,2024-11-29_18h54.13.983,Attention_exp_legacy,2023.1.0,Win32,59.88023952,,,,,,,,,,,,,,,,,,,,,,,,,,,,,,,,,,,,,,,,,,,,,
,,,,,,,-0.327083333,-0.32962963,1,0,0,0,9,9,5,1,-0.33,-0.33,32,001,2024-11-29_18h54.13.983,Attention_exp_legacy,2023.1.0,Win32,59.88023952,calibration_square,,,,,,,,,,,,,,,,,,,,,,,,,,,,,,,,,,,,,,,,,,,,
,,,,,,,-0.007291667,0.331481481,1,0,0,0,10,10,12,1,0,0.33,32,001,2024-11-29_18h54.13.983,Attention_exp_legacy,2023.1.0,Win32,59.88023952,calibration_square,,,,,,,,,,,,,,,,,,,,,,,,,,,,,,,,,,,,,,,,,,,,
,,,,,,,0.336458333,-0.007407407,1,0,0,0,11,11,16,1,0.33,0,32,001,2024-11-29_18h54.13.983,Attention_exp_legacy,2023.1.0,Win32,59.88023952,calibration_square,,,,,,,,,,,,,,,,,,,,,,,,,,,,,,,,,,,,,,,,,,,,
,,,,,,,0.009375,-0.333333333,1,0,0,0,12,12,10,1,0,-0.33,32,001,2024-11-29_18h54.13.983,Attention_exp_legacy,2023.1.0,Win32,59.88023952,calibration_square,,,,,,,,,,,,,,,,,,,,,,,,,,,,,,,,,,,,,,,,,,,,
,,,,,,,-0.007291667,0.674074074,1,0,0,0,13,13,13,1,0,0.67,32,001,2024-11-29_18h54.13.983,Attention_exp_legacy,2023.1.0,Win32,59.88023952,calibration_square,,,,,,,,,,,,,,,,,,,,,,,,,,,,,,,,,,,,,,,,,,,,
,,,,,,,0.316666667,0.32962963,1,0,0,0,14,14,17,1,0.33,0.33,32,001,2024-11-29_18h54.13.983,Attention_exp_legacy,2023.1.0,Win32,59.88023952,,,,,,,,,,,,,,,,,,,,,,,,,,,,,,,,,,,,,,,,,,,,,
,,,,,,,0.664583333,-0.67037037,1,0,0,0,15,15,20,1,0.67,-0.67,32,001,2024-11-29_18h54.13.983,Attention_exp_legacy,2023.1.0,Win32,59.88023952,calibration_square,,,,,,,,,,,,,,,,,,,,,,,,,,,,,,,,,,,,,,,,,,,,
,,,,,,,0,-0.662962963,1,0,0,0,16,16,9,1,0,-0.67,32,001,2024-11-29_18h54.13.983,Attention_exp_legacy,2023.1.0,Win32,59.88023952,calibration_square,,,,,,,,,,,,,,,,,,,,,,,,,,,,,,,,,,,,,,,,,,,,
,,,,,,,-0.321875,-0.65,1,0,0,0,17,17,4,1,-0.33,-0.67,32,001,2024-11-29_18h54.13.983,Attention_exp_legacy,2023.1.0,Win32,59.88023952,,,,,,,,,,,,,,,,,,,,,,,,,,,,,,,,,,,,,,,,,,,,,
,,,,,,,0.325,-0.32962963,1,0,0,0,18,18,15,1,0.33,-0.33,32,001,2024-11-29_18h54.13.983,Attention_exp_legacy,2023.1.0,Win32,59.88023952,calibration_square,,,,,,,,,,,,,,,,,,,,,,,,,,,,,,,,,,,,,,,,,,,,
,,,,,,,-0.333333333,0.666666667,1,0,0,0,19,19,8,1,-0.33,0.67,32,001,2024-11-29_18h54.13.983,Attention_exp_legacy,2023.1.0,Win32,59.88023952,calibration_square,,,,,,,,,,,,,,,,,,,,,,,,,,,,,,,,,,,,,,,,,,,,
,,,,,,,0.327083333,0.67037037,1,0,0,0,20,20,18,1,0.33,0.67,32,001,2024-11-29_18h54.13.983,Attention_exp_legacy,2023.1.0,Win32,59.88023952,calibration_square,,,,,,,,,,,,,,,,,,,,,,,,,,,,,,,,,,,,,,,,,,,,
,,,,,,,,,,,,,,,,,,,32,001,2024-11-29_18h54.13.983,Attention_exp_legacy,2023.1.0,Win32,59.88023952,,"[1920,1080]","[640,480]",[-0.034375],[-0.512962962962963],[1],[0],[0],[2.1157000000476884],"[""StartButton""]",[0.3645833333333333],[0.37407407407407406],[1],[0],[0],[4.052699999988079],"[""Option2_label""]",Option2_label,1,5.064,"[[-0.034375,-0.5148148148148148],[-0.034375,-0.5148148148148148],[-0.034375,-0.5148148148148148],[-0.034375,-0.5148148148148148],[-0.034375,-0.5148148148148148],[-0.034375,-0.5148148148148148],[-0.034375,-0.5148148148148148],[-0.034375,-0.5148148148148148],[-0.034375,-0.5148148148148148],[-0.034375,-0.5148148148148148],[-0.034375,-0.5148148148148148],[-0.034375,-0.5148148148148148],[-0.034375,-0.5148148148148148],[-0.034375,-0.5148148148148148],[-0.034375,-0.5148148148148148],[-0.034375,-0.5148148148148148],[-0.034375,-0.5148148148148148],[-0.034375,-0.5148148148148148],[-0.034375,-0.5148148148148148],[-0.034375,-0.5148148148148148],[-0.034375,-0.5148148148148148],[-0.034375,-0.5148148148148148],[-0.034375,-0.5148148148148148],[-0.034375,-0.5148148148148148],[-0.034375,-0.5148148148148148],[-0.034375,-0.5148148148148148],[-0.034375,-0.5148148148148148],[-0.034375,-0.5148148148148148],[-0.034375,-0.5148148148148148],[-0.034375,-0.5148148148148148],[-0.034375,-0.5148148148148148],[-0.034375,-0.5148148148148148],[-0.034375,-0.5148148148148148],[-0.034375,-0.5148148148148148],[-0.034375,-0.5148148148148148],[-0.034375,-0.5148148148148148],[-0.034375,-0.5148148148148148],[-0.034375,-0.5148148148148148],[-0.034375,-0.5148148148148148],[-0.034375,-0.5148148148148148],[-0.034375,-0.5148148148148148],[-0.034375,-0.5148148148148148],[-0.034375,-0.5148148148148148],[-0.034375,-0.5148148148148148],[-0.034375,-0.5148148148148148],[-0.034375,-0.5148148148148148],[-0.034375,-0.5148148148148148],[-0.034375,-0.5148148148148148],[-0.034375,-0.5148148148148148],[-0.034375,-0.5148148148148148],[-0.034375,-0.5148148148148148],[-0.034375,-0.5148148148148148],[-0.034375,-0.5148148148148148],[-0.034375,-0.5148148148148148],[-0.034375,-0.5148148148148148],[-0.034375,-0.5148148148148148],[-0.034375,-0.5148148148148148],[-0.034375,-0.5148148148148148],[-0.034375,-0.5148148148148148],[-0.034375,-0.5148148148148148],[-0.034375,-0.5148148148148148],[-0.034375,-0.5148148148148148],[-0.034375,-0.5148148148148148],[-0.034375,-0.5148148148148148],[-0.034375,-0.5148148148148148],[-0.034375,-0.5148148148148148],[-0.034375,-0.5148148148148148],[-0.034375,-0.5148148148148148],[-0.034375,-0.5148148148148148],[-0.034375,-0.5148148148148148],[-0.034375,-0.5148148148148148],[-0.034375,-0.5148148148148148],[-0.034375,-0.5148148148148148],[-0.034375,-0.5148148148148148],[-0.034375,-0.5148148148148148],[-0.034375,-0.5148148148148148],[-0.034375,-0.5148148148148148],[-0.034375,-0.5148148148148148],[-0.034375,-0.5148148148148148],[-0.034375,-0.5148148148148148],[-0.034375,-0.5148148148148148],[-0.034375,-0.5148148148148148],[-0.034375,-0.5148148148148148],[-0.034375,-0.5148148148148148],[-0.034375,-0.5148148148148148],[-0.034375,-0.5148148148148148],[-0.034375,-0.5148148148148148],[-0.034375,-0.5148148148148148],[-0.034375,-0.5148148148148148],[-0.034375,-0.5148148148148148],[-0.034375,-0.5148148148148148],[-0.034375,-0.5148148148148148],[-0.034375,-0.5148148148148148],[-0.034375,-0.5148148148148148],[-0.034375,-0.5148148148148148],[-0.034375,-0.5148148148148148],[-0.034375,-0.5148148148148148],[-0.034375,-0.5148148148148148],[-0.034375,-0.5148148148148148],[-0.034375,-0.5148148148148148],[-0.034375,-0.5148148148148148],[-0.034375,-0.5148148148148148],[-0.034375,-0.5148148148148148],[-0.034375,-0.5148148148148148],[-0.034375,-0.5148148148148148],[-0.034375,-0.5148148148148148],[-0.034375,-0.5148148148148148],[-0.034375,-0.5148148148148148],[-0.034375,-0.5148148148148148],[-0.034375,-0.5148148148148148],[-0.034375,-0.5148148148148148],[-0.034375,-0.5148148148148148],[-0.034375,-0.5148148148148148],[-0.034375,-0.5148148148148148],[-0.034375,-0.5148148148148148],[-0.034375,-0.5148148148148148],[-0.034375,-0.5148148148148148],[-0.034375,-0.5148148148148148],[-0.034375,-0.5148148148148148],[-0.034375,-0.5148148148148148],[-0.034375,-0.5148148148148148],[-0.034375,-0.5148148148148148],[-0.034375,-0.5148148148148148],[-0.034375,-0.5148148148148148],[-0.034375,-0.5148148148148148],[-0.034375,-0.5148148148148148],[-0.034375,-0.5148148148148148],[-0.034375,-0.5148148148148148],[-0.034375,-0.5148148148148148],[-0.034375,-0.5148148148148148],[-0.034375,-0.5148148148148148],[-0.034375,-0.5148148148148148],[-0.034375,-0.5148148148148148],[-0.034375,-0.5148148148148148],[-0.034375,-0.5148148148148148],[-0.034375,-0.5148148148148148],[-0.034375,-0.5148148148148148],[-0.034375,-0.5148148148148148],[-0.034375,-0.5148148148148148],[-0.034375,-0.5148148148148148],[-0.034375,-0.5148148148148148],[-0.034375,-0.5148148148148148],[-0.034375,-0.5148148148148148],[-0.034375,-0.5148148148148148],[-0.034375,-0.5148148148148148],[-0.034375,-0.5148148148148148],[-0.034375,-0.5148148148148148],[-0.034375,-0.5148148148148148],[-0.034375,-0.5148148148148148],[-0.034375,-0.5148148148148148],[-0.034375,-0.5148148148148148],[-0.034375,-0.5148148148148148],[-0.034375,-0.5148148148148148],[-0.034375,-0.5148148148148148],[-0.034375,-0.5148148148148148],[-0.034375,-0.5148148148148148],[-0.034375,-0.5148148148148148],[-0.034375,-0.5148148148148148],[-0.034375,-0.5148148148148148],[-0.034375,-0.5148148148148148],[-0.034375,-0.5148148148148148],[-0.034375,-0.5148148148148148],[-0.034375,-0.5148148148148148],[-0.034375,-0.5148148148148148],[-0.034375,-0.5148148148148148],[-0.034375,-0.5148148148148148],[-0.034375,-0.5148148148148148],[-0.034375,-0.5148148148148148],[-0.034375,-0.5148148148148148],[-0.034375,-0.5148148148148148],[-0.034375,-0.5148148148148148],[-0.034375,-0.5148148148148148],[-0.034375,-0.5148148148148148],[-0.034375,-0.5148148148148148],[-0.034375,-0.5148148148148148],[-0.034375,-0.5148148148148148],[-0.034375,-0.5148148148148148],[-0.034375,-0.5148148148148148],[-0.034375,-0.5148148148148148],[-0.034375,-0.5148148148148148],[-0.034375,-0.5148148148148148],[-0.034375,-0.5148148148148148],[-0.034375,-0.5148148148148148],[-0.034375,-0.5148148148148148],[-0.034375,-0.5148148148148148],[-0.034375,-0.5148148148148148],[-0.034375,-0.5148148148148148],[-0.034375,-0.5148148148148148],[-0.034375,-0.5148148148148148],[-0.034375,-0.5148148148148148],[-0.034375,-0.5148148148148148],[-0.034375,-0.5148148148148148],[-0.034375,-0.5148148148148148],[-0.034375,-0.5148148148148148],[-0.034375,-0.5148148148148148],[-0.034375,-0.5148148148148148],[-0.034375,-0.5148148148148148],[-0.034375,-0.5148148148148148],[-0.034375,-0.5148148148148148],[-0.034375,-0.5148148148148148],[-0.034375,-0.5148148148148148],[-0.034375,-0.5148148148148148],[-0.034375,-0.5148148148148148],[-0.034375,-0.5148148148148148],[-0.034375,-0.5148148148148148],[-0.034375,-0.5148148148148148],[-0.034375,-0.5148148148148148],[-0.034375,-0.5148148148148148],[-0.034375,-0.5148148148148148],[-0.034375,-0.5148148148148148],[-0.034375,-0.5148148148148148],[-0.034375,-0.5148148148148148],[-0.034375,-0.5148148148148148],[-0.034375,-0.5148148148148148],[-0.03333333333333333,-0.5148148148148148],[0.04479166666666667,-0.42777777777777776],[0.13958333333333334,-0.32592592592592595],[0.18958333333333333,-0.2777777777777778],[0.29583333333333334,-0.13333333333333333],[0.3385416666666667,-0.06481481481481481],[0.365625,0.003703703703703704],[0.37916666666666665,0.05],[0.38645833333333335,0.07777777777777778],[0.3875,0.1037037037037037],[0.3875,0.12037037037037036],[0.3875,0.13703703703703704],[0.3875,0.1685185185185185],[0.3875,0.1814814814814815],[0.3875,0.20555555555555555],[0.384375,0.22962962962962963],[0.3802083333333333,0.2537037037037037],[0.36875,0.2814814814814815],[0.3645833333333333,0.29444444444444445],[0.36041666666666666,0.3055555555555556],[0.36041666666666666,0.31666666666666665],[0.36041666666666666,0.3296296296296296],[0.36041666666666666,0.3388888888888889],[0.36041666666666666,0.34814814814814815],[0.3614583333333333,0.3611111111111111],[0.3625,0.3648148148148148],[0.36354166666666665,0.37222222222222223],[0.36354166666666665,0.37222222222222223],[0.3645833333333333,0.37407407407407406],[0.3645833333333333,0.37407407407407406],[0.3645833333333333,0.37407407407407406],[0.3645833333333333,0.37407407407407406],[0.3645833333333333,0.37407407407407406],[0.3645833333333333,0.37407407407407406],[0.36354166666666665,0.37407407407407406],[0.36354166666666665,0.37407407407407406],[0.36354166666666665,0.37407407407407406],[0.36354166666666665,0.37407407407407406],[0.36354166666666665,0.37407407407407406],[0.36354166666666665,0.37407407407407406],[0.36354166666666665,0.37407407407407406],[0.36354166666666665,0.37407407407407406],[0.36354166666666665,0.37407407407407406],[0.36354166666666665,0.37407407407407406],[0.36354166666666665,0.37407407407407406],[0.36354166666666665,0.37407407407407406],[0.36354166666666665,0.37407407407407406],[0.36354166666666665,0.37407407407407406],[0.36354166666666665,0.37407407407407406],[0.36354166666666665,0.37407407407407406],[0.36354166666666665,0.37407407407407406],[0.36354166666666665,0.37407407407407406],[0.36354166666666665,0.37407407407407406],[0.36354166666666665,0.37407407407407406],[0.36354166666666665,0.37407407407407406],[0.36354166666666665,0.37407407407407406],[0.36354166666666665,0.37407407407407406],[0.36354166666666665,0.37407407407407406],[0.36354166666666665,0.37407407407407406],[0.36354166666666665,0.37407407407407406],[0.36354166666666665,0.37407407407407406],[0.36354166666666665,0.37407407407407406],[0.36354166666666665,0.37407407407407406],[0.36354166666666665,0.37407407407407406],[0.36354166666666665,0.37407407407407406],[0.36354166666666665,0.37407407407407406],[0.36354166666666665,0.37407407407407406],[0.36354166666666665,0.37407407407407406],[0.36354166666666665,0.37407407407407406],[0.36354166666666665,0.37407407407407406],[0.36354166666666665,0.37407407407407406],[0.36354166666666665,0.37407407407407406],[0.36354166666666665,0.37407407407407406],[0.36354166666666665,0.37407407407407406],[0.36354166666666665,0.37407407407407406],[0.36354166666666665,0.37407407407407406],[0.36354166666666665,0.37407407407407406],[0.36354166666666665,0.37407407407407406],[0.36354166666666665,0.37407407407407406],[0.36354166666666665,0.37407407407407406],[0.36354166666666665,0.37407407407407406],[0.36354166666666665,0.37407407407407406],[0.36354166666666665,0.37407407407407406],[0.36354166666666665,0.37407407407407406],[0.36354166666666665,0.37407407407407406],[0.36354166666666665,0.37407407407407406],[0.36354166666666665,0.37407407407407406],[0.36354166666666665,0.37407407407407406],[0.36354166666666665,0.37407407407407406],[0.36354166666666665,0.37407407407407406]]","[[0.015625,0.010370370370370412],[0.015625,0.010370370370370412],[0.015625,0.010370370370370412],[0.02520833333333338,0.00722222222222218],[0.024791666666666618,-0.006481481481481481],[0.024791666666666618,-0.006481481481481481],[0.015416666666666618,-0.016111111111111194],[0.02177083333333331,-0.04537037037037037],[0.027708333333333356,-0.07240740740740745],[0.033645833333333285,-0.09944444444444442],[0.033645833333333285,-0.09944444444444442],[0.035104166666666714,-0.10111111111111115],[0.035104166666666714,-0.10185185185185185],[0.02791666666666662,-0.14018518518518516],[0.02677083333333338,-0.19000000000000003],[0.010625000000000048,-0.2131481481481482],[0.004479166666666619,-0.2257407407407407],[0.007291666666666667,-0.23407407407407405],[-0.005624999999999976,-0.2227777777777778],[-0.016666666666666666,-0.2088888888888889],[-0.027708333333333356,-0.19500000000000003],[-0.027708333333333356,-0.19500000000000003],[-0.04718749999999995,-0.20833333333333334],[-0.04781249999999997,-0.1948148148148148],[-0.06645833333333329,-0.17222222222222222],[-0.06645833333333329,-0.17222222222222222],[-0.08666666666666671,-0.16425925925925924],[-0.11635416666666672,-0.1537037037037037],[-0.15187499999999995,-0.1588888888888889],[-0.15187499999999995,-0.1588888888888889],[-0.19562499999999997,-0.16796296296296295],[-0.23093750000000005,-0.16148148148148145],[-0.2617708333333333,-0.17851851851851847],[-0.2617708333333333,-0.17851851851851847],[-0.29260416666666667,-0.1955555555555556],[-0.31187499999999996,-0.18666666666666668],[-0.3414583333333333,-0.19722222222222222],[-0.35479166666666667,-0.1962962962962963],[-0.36656249999999996,-0.18074074074074079],[-0.34614583333333326,-0.18129629629629626],[-0.3198958333333334,-0.1661111111111111],[-0.3198958333333334,-0.1661111111111111],[-0.3123958333333333,-0.17],[-0.3076041666666666,-0.2022222222222222],[-0.29812500000000003,-0.22018518518518515],[-0.2598958333333333,-0.20425925925925928],[-0.22281249999999997,-0.1905555555555555],[-0.1951041666666666,-0.205],[-0.1951041666666666,-0.205],[-0.1686458333333333,-0.23722222222222225],[-0.13781249999999995,-0.2614814814814815],[-0.12333333333333331,-0.28129629629629627],[-0.11875,-0.31500000000000006],[-0.09333333333333335,-0.3266666666666666],[-0.051770833333333384,-0.33111111111111113],[-0.008958333333333356,-0.33851851851851855],[-0.006979166666666714,-0.3794444444444444],[-0.006979166666666714,-0.4168518518518519],[-0.0046875,-0.43444444444444447],[0.003333333333333381,-0.4475925925925926],[-0.0007291666666667141,-0.45444444444444443],[0.01260416666666669,-0.48777777777777775],[0.01260416666666669,-0.48777777777777775],[0.03583333333333331,-0.5072222222222221],[0.06072916666666662,-0.4892592592592592],[0.057187499999999974,-0.49796296296296294],[0.057187499999999974,-0.49796296296296294],[0.05364583333333333,-0.5066666666666667],[0.06416666666666669,-0.49018518518518517],[0.07739583333333329,-0.5005555555555555],[0.090625,-0.5109259259259259],[0.090625,-0.5109259259259259],[0.11687500000000005,-0.4014814814814815],[0.17927083333333324,-0.255],[0.17927083333333324,-0.255],[0.21875,-0.09388888888888887],[0.26760416666666675,0.07240740740740745],[0.31270833333333337,0.1983333333333334],[0.3336458333333333,0.3568518518518519],[0.3545833333333334,0.5153703703703703],[0.3329166666666666,0.6199999999999999],[0.3094791666666666,0.7451851851851852],[0.2860416666666666,0.8703703703703703],[0.22645833333333343,0.8694444444444445],[0.14312500000000009,0.7985185185185186],[0.06156250000000003,0.730925925925926],[-0.029375000000000047,0.6581481481481481],[-0.10604166666666662,0.5668518518518519],[-0.15197916666666664,0.4751851851851852],[-0.20989583333333334,0.38574074074074066],[-0.22718750000000001,0.32462962962962955],[-0.2367708333333333,0.26500000000000007],[-0.24145833333333327,0.19185185185185188],[-0.24635416666666668,0.14648148148148152],[-0.23937499999999995,0.09962962962962954],[-0.24739583333333334,0.04425925925925922],[-0.2578125,0.01518518518518527],[-0.28250000000000003,0.004629629629629629],[-0.2811458333333333,0.007407407407407408],[-0.2678125,0.007962962962962878],[-0.26437499999999997,-0.007962962962962878],[-0.26593749999999994,-0.021296296296296296],[-0.25843750000000004,-0.039629629629629584],[-0.22541666666666665,-0.07018518518518514],[-0.2061458333333333,-0.072037037037037],[-0.16510416666666666,-0.058333333333333334],[-0.12166666666666662,-0.07092592592592595],[-0.12166666666666662,-0.07092592592592595],[-0.06656249999999998,-0.05462962962962963],[-0.06656249999999998,-0.05462962962962963],[-0.03697916666666667,-0.0705555555555556],[-0.020729166666666642,-0.0868518518518518],[0.0203125,-0.07074074074074072],[0.05583333333333336,-0.05351851851851848],[0.0625,-0.023148148148148147],[0.0625,-0.023148148148148147],[0.0865624999999999,0.005000000000000084],[0.1296875,0.025185185185185227],[0.1710416666666667,0.05555555555555555],[0.1710416666666667,0.05555555555555555],[0.20760416666666662,0.07166666666666675],[0.22447916666666667,0.069074074074074],[0.24083333333333337,0.08537037037037042],[0.27072916666666674,0.1007407407407407],[0.27677083333333335,0.09259259259259259],[0.2846874999999999,0.08555555555555563],[0.3162499999999999,0.08444444444444449],[0.3162499999999999,0.08444444444444449],[0.3265625,0.08129629629629626],[0.32135416666666666,0.07444444444444454],[0.31583333333333335,0.06018518518518518],[0.31583333333333335,0.06018518518518518],[0.3063541666666666,0.05814814814814811],[0.30572916666666666,0.03592592592592588],[0.31052083333333325,0.024814814814814772],[0.3178124999999999,0.0294444444444444],[0.3349999999999999,0.04018518518518527],[0.35135416666666663,0.030000000000000086],[0.3625,0.02833333333333325],[0.3709374999999999,0.02907407407407416],[0.37302083333333325,0.03296296296296288],[0.3875,0.05388888888888893],[0.41072916666666665,0.07685185185185185],[0.42729166666666674,0.09611111111111106],[0.4384375000000001,0.10425925925925918],[0.44083333333333335,0.07833333333333325],[0.4502083333333334,0.05907407407407403],[0.45729166666666665,0.07537037037037045],[0.39854166666666657,0.04259259259259259],[0.34249999999999997,0.007407407407407408],[0.2724999999999999,-0.020740740740740823],[0.18916666666666657,-0.06722222222222224],[0.10593750000000005,-0.1418518518518519],[0.028541666666666642,-0.20277777777777778],[-0.04885416666666664,-0.26370370370370366],[-0.12479166666666662,-0.28592592592592586],[-0.12479166666666662,-0.28592592592592586],[-0.20864583333333328,-0.3133333333333333],[-0.2919791666666666,-0.382962962962963],[-0.31010416666666674,-0.3861111111111111],[-0.31010416666666674,-0.3861111111111111],[-0.3289583333333333,-0.3809259259259259],[-0.32354166666666667,-0.3742592592592593],[-0.3203125,-0.355],[-0.3203125,-0.355],[-0.3171875,-0.30759259259259264],[-0.3146875,-0.26944444444444443],[-0.31375000000000003,-0.23777777777777773],[-0.31375000000000003,-0.23777777777777773],[-0.31187499999999996,-0.22462962962962965],[-0.2833333333333333,-0.1794444444444444],[-0.2521875,-0.10666666666666672],[-0.246875,-0.0933333333333333],[-0.24083333333333337,-0.0883333333333333],[-0.24385416666666668,-0.09314814814814817],[-0.24125000000000002,-0.10870370370370368],[-0.24208333333333332,-0.11462962962962958],[-0.24229166666666668,-0.11129629629629634],[-0.2157291666666667,-0.07981481481481485],[-0.18458333333333338,-0.06981481481481479],[-0.20020833333333338,-0.09814814814814815],[-0.18916666666666668,-0.10611111111111113],[-0.15520833333333334,-0.08111111111111113],[-0.14166666666666666,-0.06425925925925924],[-0.12937500000000005,-0.04611111111111107],[-0.12531249999999997,-0.049629629629629544],[-0.10114583333333335,-0.04870370370370362],[-0.08020833333333334,-0.030000000000000086],[-0.08447916666666669,-0.03296296296296288],[-0.08447916666666669,-0.03296296296296288],[-0.06677083333333336,-0.016851851851851896],[-0.0203125,0.004629629629629629],[-0.0005208333333333333,0.005740740740740783],[0.0140625,0.002777777777777778],[0.050520833333333334,-0.0011111111111111532],[0.08697916666666666,-0.005000000000000084],[0.14260416666666675,0.032777777777777864],[0.14260416666666675,0.032777777777777864],[0.1740624999999999,0.051666666666666625],[0.20697916666666671,0.048333333333333374],[0.2203125,0.03944444444444436],[0.2203125,0.03944444444444436],[0.2107291666666666,0.032407407407407406],[0.17822916666666658,0.039629629629629584],[0.14572916666666677,0.04685185185185177],[0.14572916666666677,0.04685185185185177],[0.11645833333333329,0.052037037037037076],[0.0896874999999999,0.07574074074074069],[0.06291666666666665,0.09944444444444453],[0.06291666666666665,0.09944444444444453],[0.02010416666666662,0.08888888888888889],[-0.01083333333333331,0.09537037037037037],[-0.03999999999999997,0.10629629629629625],[-0.03999999999999997,0.10629629629629625],[-0.05791666666666669,0.1007407407407407],[-0.06625000000000002,0.14814814814814814],[-0.051145833333333356,0.1557407407407408],[-0.051145833333333356,0.1557407407407408],[-0.03604166666666669,0.1633333333333334],[-0.016666666666666666,0.1633333333333334],[0.009583333333333381,0.14240740740740737],[0.009583333333333381,0.14240740740740737],[0.05343749999999995,0.1205555555555556],[0.08645833333333333,0.13240740740740742],[0.10656249999999995,0.12611111111111115],[0.14854166666666657,0.09740740740740746],[0.19885416666666675,0.09074074074074075],[0.19885416666666675,0.09074074074074075],[0.23145833333333338,0.0698148148148149],[0.23145833333333338,0.0698148148148149],[0.25447916666666665,0.050370370370370454],[0.28447916666666656,0.005000000000000084],[0.31218750000000006,-0.026666666666666623],[0.3492708333333333,-0.05592592592592591],[0.36875,-0.08425925925925926],[0.3963541666666667,-0.1270370370370371],[0.3963541666666667,-0.1270370370370371],[0.4287499999999999,-0.17185185185185187],[0.44020833333333326,-0.20777777777777776],[0.44020833333333326,-0.20777777777777776],[0.4344791666666666,-0.2183333333333333],[0.4292708333333332,-0.28111111111111114],[0.4292708333333332,-0.28111111111111114],[0.43552083333333325,-0.32018518518518513],[0.4453125,-0.3242592592592593],[0.45510416666666675,-0.32833333333333337],[0.4197916666666667,-0.3264814814814815],[0.3844791666666666,-0.32462962962962966],[0.3797916666666666,-0.33370370370370367],[0.36697916666666663,-0.33666666666666667],[0.36697916666666663,-0.33666666666666667],[0.3532291666666666,-0.32611111111111113],[0.35916666666666663,-0.3675925925925926],[0.3729166666666667,-0.3785185185185185],[0.3729166666666667,-0.3785185185185185],[0.37562499999999993,-0.3881481481481482],[0.3693749999999999,-0.39740740740740743],[0.3637500000000001,-0.38333333333333336],[0.3637500000000001,-0.38333333333333336],[0.36479166666666674,-0.35462962962962963],[0.3862499999999999,-0.33722222222222226],[0.36302083333333335,-0.3001851851851852],[0.35166666666666657,-0.26129629629629636],[0.3628124999999999,-0.24203703703703702],[0.36697916666666663,-0.20129629629629628],[0.3709374999999999,-0.17759259259259255],[0.3709374999999999,-0.17759259259259255],[0.38406250000000003,-0.13777777777777775],[0.3654166666666666,-0.13222222222222219],[0.3345833333333334,-0.10611111111111113],[0.3345833333333334,-0.10611111111111113],[0.3180208333333333,-0.05],[0.28760416666666655,0.006851851851851936],[0.27229166666666677,0.044999999999999915],[0.2569791666666667,0.08314814814814811],[0.2150000000000001,0.09425925925925922],[0.2150000000000001,0.09425925925925922],[0.17687499999999995,0.12740740740740733],[0.14177083333333323,0.15555555555555556],[0.07166666666666661,0.18462962962962973],[0.04520833333333331,0.22148148148148153],[0.02322916666666662,0.2264814814814814],[0.005416666666666714,0.18907407407407412],[-0.01114583333333338,0.13499999999999995],[-0.009062500000000048,0.08722222222222227],[-0.015416666666666618,0.02962962962962963],[-0.017604166666666643,0.018703703703703747],[-0.017604166666666643,0.018703703703703747],[-0.010312499999999976,0.018148148148148063],[-0.024374999999999977,0.029814814814814856],[-0.01229166666666662,0.012037037037037037],[-0.013645833333333357,0.011296296296296339],[0.007083333333333286,-0.00592592592592601],[0.012187500000000047,-0.03814814814814819],[0.005833333333333357,-0.03685185185185181],[0.005833333333333357,-0.03685185185185181],[-0.01583333333333338,-0.038703703703703664],[-0.018437500000000048,-0.05259259259259255],[-0.021041666666666715,-0.06648148148148143],[-0.021041666666666715,-0.06648148148148143],[-0.0328125,-0.0940740740740741],[-0.03927083333333338,-0.11185185185185181],[-0.04604166666666672,-0.11722222222222224],[-0.03697916666666667,-0.14870370370370373]]","[[0.015625,0.010370370370370412,0.00019999998807662678],[0.015625,0.010370370370370412,0.037199999988082766],[0.015625,0.010370370370370412,0.04350000000000165],[0.02520833333333338,0.00722222222222218,0.0601000000238443],[0.024791666666666618,-0.006481481481481481,0.07750000000000057],[0.024791666666666618,-0.006481481481481481,0.0934999999999988],[0.015416666666666618,-0.016111111111111194,0.11019999998807606],[0.02177083333333331,-0.04537037037037037,0.13049999999999784],[0.027708333333333356,-0.07240740740740745,0.1483000000119219],[0.033645833333333285,-0.09944444444444442,0.16360000002384112],[0.033645833333333285,-0.09944444444444442,0.17689999997615757],[0.035104166666666714,-0.10111111111111115,0.19350000000000023],[0.035104166666666714,-0.10185185185185185,0.21099999999999852],[0.02791666666666662,-0.14018518518518516,0.22910000002384123],[0.02677083333333338,-0.19000000000000003,0.24380000001192315],[0.010625000000000048,-0.2131481481481482,0.259999999999998],[0.004479166666666619,-0.2257407407407407,0.276899999976159],[0.007291666666666667,-0.23407407407407405,0.2959999999999994],[-0.005624999999999976,-0.2227777777777778,0.3101999999880789],[-0.016666666666666666,-0.2088888888888889,0.32680000001192155],[-0.027708333333333356,-0.19500000000000003,0.3446999999880802],[-0.027708333333333356,-0.19500000000000003,0.35999999999999943],[-0.04718749999999995,-0.20833333333333334,0.3768000000119187],[-0.04781249999999997,-0.1948148148148148,0.3965000000000032],[-0.06645833333333329,-0.17222222222222222,0.41330000001192246],[-0.06645833333333329,-0.17222222222222222,0.42669999998808095],[-0.08666666666666671,-0.16425925925925924,0.4435000000000002],[-0.11635416666666672,-0.1537037037037037,0.4601999999880775],[-0.15187499999999995,-0.1588888888888889,0.47980000001192025],[-0.15187499999999995,-0.1588888888888889,0.49339999997615536],[-0.19562499999999997,-0.16796296296296295,0.51010000002384],[-0.23093750000000005,-0.16148148148148145,0.5266999999880824],[-0.2617708333333333,-0.17851851851851847,0.5433999999761596],[-0.2617708333333333,-0.17851851851851847,0.5601000000238443],[-0.29260416666666667,-0.1955555555555556,0.5768000000119216],[-0.31187499999999996,-0.18666666666666668,0.5960000000000036],[-0.3414583333333333,-0.19722222222222222,0.6124999999999972],[-0.35479166666666667,-0.1962962962962963,0.6288999999761558],[-0.36656249999999996,-0.18074074074074079,0.6463000000119195],[-0.34614583333333326,-0.18129629629629626,0.6613999999761617],[-0.3198958333333334,-0.1661111111111111,0.67739999997616],[-0.3198958333333334,-0.1661111111111111,0.6933999999761582],[-0.3123958333333333,-0.17,0.7101000000238429],[-0.3076041666666666,-0.2022222222222222,0.7266999999880781],[-0.29812500000000003,-0.22018518518518515,0.7448000000119208],[-0.2598958333333333,-0.20425925925925928,0.7616999999880818],[-0.22281249999999997,-0.1905555555555555,0.7806999999880802],[-0.1951041666666666,-0.205,0.7983000000119205],[-0.1951041666666666,-0.205,0.8101000000238443],[-0.1686458333333333,-0.23722222222222225,0.8268000000119216],[-0.13781249999999995,-0.2614814814814815,0.8464999999999989],[-0.12333333333333331,-0.28129629629629627,0.8626000000238392],[-0.11875,-0.31500000000000006,0.8771000000238445],[-0.09333333333333335,-0.3266666666666666,0.8966999999880798],[-0.051770833333333384,-0.33111111111111113,0.9133000000119225],[-0.008958333333333356,-0.33851851851851855,0.9271999999880762],[-0.006979166666666714,-0.3794444444444444,0.9433999999761582],[-0.006979166666666714,-0.4168518518518519,0.9601000000238429],[-0.0046875,-0.43444444444444447,0.9798000000119202],[0.003333333333333381,-0.4475925925925926,0.9956000000238419],[-0.0007291666666667141,-0.45444444444444443,1.011399999976156],[0.01260416666666669,-0.48777777777777775,1.0266999999880824],[0.01260416666666669,-0.48777777777777775,1.0435000000000016],[0.03583333333333331,-0.5072222222222221,1.0601000000238443],[0.06072916666666662,-0.4892592592592592,1.0768000000119216],[0.057187499999999974,-0.49796296296296294,1.0946999999880802],[0.057187499999999974,-0.49796296296296294,1.1099999999999994],[0.05364583333333333,-0.5066666666666667,1.1266999999880767],[0.06416666666666669,-0.49018518518518517,1.1448000000119194],[0.07739583333333329,-0.5005555555555555,1.1601000000238386],[0.090625,-0.5109259259259259,1.1816000000238418],[0.090625,-0.5109259259259259,1.1943000000119213],[0.11687500000000005,-0.4014814814814815,1.2120000000000033],[0.17927083333333324,-0.255,1.2326999999880783],[0.17927083333333324,-0.255,1.2433999999761554],[0.21875,-0.09388888888888887,1.2603000000119238],[0.26760416666666675,0.07240740740740745,1.276899999976159],[0.31270833333333337,0.1983333333333334,1.2933999999761596],[0.3336458333333333,0.3568518518518519,1.310899999976158],[0.3545833333333334,0.5153703703703703,1.3266999999880795],[0.3329166666666666,0.6199999999999999,1.3433000000119222],[0.3094791666666666,0.7451851851851852,1.3601000000238415],[0.2860416666666666,0.8703703703703703,1.3768000000119187],[0.22645833333333343,0.8694444444444445,1.3953000000119218],[0.14312500000000009,0.7985185185185186,1.4100000000000037],[0.06156250000000003,0.730925925925926,1.426699999988081],[-0.029375000000000047,0.6581481481481481,1.4471000000238448],[-0.10604166666666662,0.5668518518518519,1.4603000000119195],[-0.15197916666666664,0.4751851851851852,1.4811999999880783],[-0.20989583333333334,0.38574074074074066,1.4960000000000022],[-0.22718750000000001,0.32462962962962955,1.5113000000119214],[-0.2367708333333333,0.26500000000000007,1.526899999976159],[-0.24145833333333327,0.19185185185185188,1.5435000000000016],[-0.24635416666666668,0.14648148148148152,1.5600000000000023],[-0.23937499999999995,0.09962962962962954,1.5768999999761562],[-0.24739583333333334,0.04425925925925922,1.5960000000000036],[-0.2578125,0.01518518518518527,1.6099999999999994],[-0.28250000000000003,0.004629629629629629,1.6266999999880767],[-0.2811458333333333,0.007407407407407408,1.643399999976161],[-0.2678125,0.007962962962962878,1.6601000000238386],[-0.26437499999999997,-0.007962962962962878,1.6768999999761576],[-0.26593749999999994,-0.021296296296296296,1.6933999999761582],[-0.25843750000000004,-0.039629629629629584,1.7101000000238429],[-0.22541666666666665,-0.07018518518518514,1.726699999988078],[-0.2061458333333333,-0.072037037037037,1.7433999999761554],[-0.16510416666666666,-0.058333333333333334,1.76010000002384],[-0.12166666666666662,-0.07092592592592595,1.7796000000238408],[-0.12166666666666662,-0.07092592592592595,1.7946000000238413],[-0.06656249999999998,-0.05462962962962963,1.810199999988079],[-0.06656249999999998,-0.05462962962962963,1.8268000000119216],[-0.03697916666666667,-0.0705555555555556,1.8434999999999988],[-0.020729166666666642,-0.0868518518518518,1.8623999999761551],[0.0203125,-0.07074074074074072,1.8768000000119187],[0.05583333333333336,-0.05351851851851848,1.893399999976161],[0.0625,-0.023148148148148147,1.9101999999880803],[0.0625,-0.023148148148148147,1.926800000011923],[0.0865624999999999,0.005000000000000084,1.9435000000000002],[0.1296875,0.025185185185185227,1.9601000000238429],[0.1710416666666667,0.05555555555555555,1.9768000000119201],[0.1710416666666667,0.05555555555555555,1.9936000000238394],[0.20760416666666662,0.07166666666666675,2.0101999999880817],[0.22447916666666667,0.069074074074074,2.0266999999880824],[0.24083333333333337,0.08537037037037042,2.0435000000000016],[0.27072916666666674,0.1007407407407407,2.0601000000238443],[0.27677083333333335,0.09259259259259259,2.0766999999880795],[0.2846874999999999,0.08555555555555563,2.0960000000000036],[0.3162499999999999,0.08444444444444449,2.1101000000238415],[0.3162499999999999,0.08444444444444449,2.1266999999880767],[0.3265625,0.08129629629629626,2.143399999976161],[0.32135416666666666,0.07444444444444454,2.1601000000238386],[0.31583333333333335,0.06018518518518518,2.1768999999761576],[0.31583333333333335,0.06018518518518518,2.193399999976158],[0.3063541666666666,0.05814814814814811,2.210100000023843],[0.30572916666666666,0.03592592592592588,2.226699999988078],[0.31052083333333325,0.024814814814814772,2.2433999999761554],[0.3178124999999999,0.0294444444444444,2.26010000002384],[0.3349999999999999,0.04018518518518527,2.2766999999880824],[0.35135416666666663,0.030000000000000086,2.294800000011918],[0.3625,0.02833333333333325,2.3101000000238443],[0.3709374999999999,0.02907407407407416,2.3266999999880795],[0.37302083333333325,0.03296296296296288,2.3433999999761568],[0.3875,0.05388888888888893,2.3601000000238415],[0.41072916666666665,0.07685185185185185,2.3766999999880767],[0.42729166666666674,0.09611111111111106,2.394300000011924],[0.4384375000000001,0.10425925925925918,2.410499999999999],[0.44083333333333335,0.07833333333333325,2.426699999988081],[0.4502083333333334,0.05907407407407403,2.443399999976158],[0.45729166666666665,0.07537037037037045,2.460100000023843],[0.39854166666666657,0.04259259259259259,2.4803000000119226],[0.34249999999999997,0.007407407407407408,2.494800000011921],[0.2724999999999999,-0.020740740740740823,2.51010000002384],[0.18916666666666657,-0.06722222222222224,2.5266999999880824],[0.10593750000000005,-0.1418518518518519,2.5433999999761596],[0.028541666666666642,-0.20277777777777778,2.5601000000238443],[-0.04885416666666664,-0.26370370370370366,2.5768000000119216],[-0.12479166666666662,-0.28592592592592586,2.5933999999761568],[-0.12479166666666662,-0.28592592592592586,2.6101000000238415],[-0.20864583333333328,-0.3133333333333333,2.6266999999880767],[-0.2919791666666666,-0.382962962962963,2.6433000000119193],[-0.31010416666666674,-0.3861111111111111,2.6601000000238386],[-0.31010416666666674,-0.3861111111111111,2.676699999988081],[-0.3289583333333333,-0.3809259259259259,2.6935000000000002],[-0.32354166666666667,-0.3742592592592593,2.711500000000001],[-0.3203125,-0.355,2.726899999976162],[-0.3203125,-0.355,2.7433999999761554],[-0.3171875,-0.30759259259259264,2.759999999999998],[-0.3146875,-0.26944444444444443,2.7768000000119244],[-0.31375000000000003,-0.23777777777777773,2.798699999988081],[-0.31375000000000003,-0.23777777777777773,2.8101000000238443],[-0.31187499999999996,-0.22462962962962965,2.8266999999880795],[-0.2833333333333333,-0.1794444444444444,2.8460000000000036],[-0.2521875,-0.10666666666666672,2.8606999999880784],[-0.246875,-0.0933333333333333,2.877300000011921],[-0.24083333333333337,-0.0883333333333333,2.8948000000119194],[-0.24385416666666668,-0.09314814814814817,2.9100000000000037],[-0.24125000000000002,-0.10870370370370368,2.926699999988081],[-0.24208333333333332,-0.11462962962962958,2.9463000000119237],[-0.24229166666666668,-0.11129629629629634,2.9613000000119243],[-0.2157291666666667,-0.07981481481481485,2.976699999988078],[-0.18458333333333338,-0.06981481481481479,2.9939999999999998],[-0.20020833333333338,-0.09814814814814815,3.0111999999880794],[-0.18916666666666668,-0.10611111111111113,3.028399999976159],[-0.15520833333333334,-0.08111111111111113,3.0436000000238437],[-0.14166666666666666,-0.06425925925925924,3.0601000000238443],[-0.12937500000000005,-0.04611111111111107,3.0805000000000007],[-0.12531249999999997,-0.049629629629629544,3.0968000000119247],[-0.10114583333333335,-0.04870370370370362,3.1131000000238416],[-0.08020833333333334,-0.030000000000000086,3.1286000000238445],[-0.08447916666666669,-0.03296296296296288,3.1443999999761587],[-0.08447916666666669,-0.03296296296296288,3.1601000000238386],[-0.06677083333333336,-0.016851851851851896,3.1768999999761576],[-0.0203125,0.004629629629629629,3.1948000000119237],[-0.0005208333333333333,0.005740740740740783,3.210100000023843],[0.0140625,0.002777777777777778,3.22830000001192],[0.050520833333333334,-0.0011111111111111532,3.243800000011923],[0.08697916666666666,-0.005000000000000084,3.2601999999880817],[0.14260416666666675,0.032777777777777864,3.27769999998808],[0.14260416666666675,0.032777777777777864,3.2933999999761596],[0.1740624999999999,0.051666666666666625,3.3100000000000023],[0.20697916666666671,0.048333333333333374,3.3266999999880795],[0.2203125,0.03944444444444436,3.3433999999761568],[0.2203125,0.03944444444444436,3.3599999999999994],[0.2107291666666666,0.032407407407407406,3.3768000000119187],[0.17822916666666658,0.039629629629629584,3.395800000011924],[0.14572916666666677,0.04685185185185177,3.410600000023841],[0.14572916666666677,0.04685185185185177,3.426699999988081],[0.11645833333333329,0.052037037037037076,3.4433000000119236],[0.0896874999999999,0.07574074074074069,3.460000000000001],[0.06291666666666665,0.09944444444444453,3.47680000001192],[0.06291666666666665,0.09944444444444453,3.4934999999999974],[0.02010416666666662,0.08888888888888889,3.51010000002384],[-0.01083333333333331,0.09537037037037037,3.5266999999880824],[-0.03999999999999997,0.10629629629629625,3.544699999988076],[-0.03999999999999997,0.10629629629629625,3.5601000000238443],[-0.05791666666666669,0.1007407407407407,3.581000000000003],[-0.06625000000000002,0.14814814814814814,3.597899999976157],[-0.051145833333333356,0.1557407407407408,3.6141000000238392],[-0.051145833333333356,0.1557407407407408,3.6268999999761604],[-0.03604166666666669,0.1633333333333334,3.647899999976161],[-0.016666666666666666,0.1633333333333334,3.6631999999880804],[0.009583333333333381,0.14240740740740737,3.681199999988081],[0.009583333333333381,0.14240740740740737,3.7010000000000005],[0.05343749999999995,0.1205555555555556,3.7101999999880775],[0.08645833333333333,0.13240740740740742,3.726899999976162],[0.10656249999999995,0.12611111111111115,3.7466000000238395],[0.14854166666666657,0.09740740740740746,3.762500000000003],[0.19885416666666675,0.09074074074074075,3.78069999998808],[0.19885416666666675,0.09074074074074075,3.793899999976155],[0.23145833333333338,0.0698148148148149,3.8143999999761604],[0.23145833333333338,0.0698148148148149,3.826899999976156],[0.25447916666666665,0.050370370370370454,3.843600000023841],[0.28447916666666656,0.005000000000000084,3.860199999988076],[0.31218750000000006,-0.026666666666666623,3.880300000011921],[0.3492708333333333,-0.05592592592592591,3.897399999976159],[0.36875,-0.08425925925925926,3.91430000001192],[0.3963541666666667,-0.1270370370370371,3.933],[0.3963541666666667,-0.1270370370370371,3.9435000000000002],[0.4287499999999999,-0.17185185185185187,3.9603000000119195],[0.44020833333333326,-0.20777777777777776,3.9848999999761574],[0.44020833333333326,-0.20777777777777776,3.9934999999999974],[0.4344791666666666,-0.2183333333333333,4.010300000011924],[0.4292708333333332,-0.28111111111111114,4.026699999988082],[0.4292708333333332,-0.28111111111111114,4.047499999999999],[0.43552083333333325,-0.32018518518518513,4.060199999988079],[0.4453125,-0.3242592592592593,4.076899999976156],[0.45510416666666675,-0.32833333333333337,4.094199999988078],[0.4197916666666667,-0.3264814814814815,4.1113999999761575],[0.3844791666666666,-0.32462962962962966,4.1270000000000024],[0.3797916666666666,-0.33370370370370367,4.143399999976161],[0.36697916666666663,-0.33666666666666667,4.160000000000004],[0.36697916666666663,-0.33666666666666667,4.181800000011918],[0.3532291666666666,-0.32611111111111113,4.193300000011924],[0.35916666666666663,-0.3675925925925926,4.210000000000001],[0.3729166666666667,-0.3785185185185185,4.226699999988078],[0.3729166666666667,-0.3785185185185185,4.243399999976155],[0.37562499999999993,-0.3881481481481482,4.26010000002384],[0.3693749999999999,-0.39740740740740743,4.276699999988082],[0.3637500000000001,-0.38333333333333336,4.293500000000002],[0.3637500000000001,-0.38333333333333336,4.310000000000002],[0.36479166666666674,-0.35462962962962963,4.3268000000119216],[0.3862499999999999,-0.33722222222222226,4.343300000011922],[0.36302083333333335,-0.3001851851851852,4.359999999999999],[0.35166666666666657,-0.26129629629629636,4.382300000011924],[0.3628124999999999,-0.24203703703703702,4.397600000023843],[0.36697916666666663,-0.20129629629629628,4.413399999976157],[0.3709374999999999,-0.17759259259259255,4.428199999988081],[0.3709374999999999,-0.17759259259259255,4.4435],[0.38406250000000003,-0.13777777777777775,4.460100000023843],[0.3654166666666666,-0.13222222222222219,4.476699999988078],[0.3345833333333334,-0.10611111111111113,4.496300000011921],[0.3345833333333334,-0.10611111111111113,4.51010000002384],[0.3180208333333333,-0.05,4.526699999988082],[0.28760416666666655,0.006851851851851936,4.543300000011918],[0.27229166666666677,0.044999999999999915,4.560000000000002],[0.2569791666666667,0.08314814814814811,4.5766999999880795],[0.2150000000000001,0.09425925925925922,4.596800000011925],[0.2150000000000001,0.09425925925925922,4.609999999999999],[0.17687499999999995,0.12740740740740733,4.626699999988077],[0.14177083333333323,0.15555555555555556,4.644199999988082],[0.07166666666666661,0.18462962962962973,4.66130000001192],[0.04520833333333331,0.22148148148148153,4.677600000023844],[0.02322916666666662,0.2264814814814814,4.694899999976158],[0.005416666666666714,0.18907407407407412,4.713800000011922],[-0.01114583333333338,0.13499999999999995,4.729300000011918],[-0.009062500000000048,0.08722222222222227,4.744899999976155],[-0.015416666666666618,0.02962962962962963,4.761399999976156],[-0.017604166666666643,0.018703703703703747,4.78480000001192],[-0.017604166666666643,0.018703703703703747,4.795100000023844],[-0.010312499999999976,0.018148148148148063,4.810000000000002],[-0.024374999999999977,0.029814814814814856,4.827199999988082],[-0.01229166666666662,0.012037037037037037,4.843800000011925],[-0.013645833333333357,0.011296296296296339,4.863800000011921],[0.007083333333333286,-0.00592592592592601,4.881600000023845],[0.012187500000000047,-0.03814814814814819,4.896899999976156],[0.005833333333333357,-0.03685185185185181,4.912899999976162],[0.005833333333333357,-0.03685185185185181,4.926699999988081],[-0.01583333333333338,-0.038703703703703664,4.943399999976158],[-0.018437500000000048,-0.05259259259259255,4.961399999976159],[-0.021041666666666715,-0.06648148148148143,4.97680000001192],[-0.021041666666666715,-0.06648148148148143,4.993399999976155],[-0.0328125,-0.0940740740740741,5.01010000002384],[-0.03927083333333338,-0.11185185185185181,5.026699999988082],[-0.04604166666666672,-0.11722222222222224,5.044800000011918],[-0.03697916666666667,-0.14870370370370373,5.064]]","[0.00019999998807662678,0.037199999988082766,0.04350000000000165,0.0601000000238443,0.07750000000000057,0.0934999999999988,0.11019999998807606,0.13049999999999784,0.1483000000119219,0.16360000002384112,0.17689999997615757,0.19350000000000023,0.21099999999999852,0.22910000002384123,0.24380000001192315,0.259999999999998,0.276899999976159,0.2959999999999994,0.3101999999880789,0.32680000001192155,0.3446999999880802,0.35999999999999943,0.3768000000119187,0.3965000000000032,0.41330000001192246,0.42669999998808095,0.4435000000000002,0.4601999999880775,0.47980000001192025,0.49339999997615536,0.51010000002384,0.5266999999880824,0.5433999999761596,0.5601000000238443,0.5768000000119216,0.5960000000000036,0.6124999999999972,0.6288999999761558,0.6463000000119195,0.6613999999761617,0.67739999997616,0.6933999999761582,0.7101000000238429,0.7266999999880781,0.7448000000119208,0.7616999999880818,0.7806999999880802,0.7983000000119205,0.8101000000238443,0.8268000000119216,0.8464999999999989,0.8626000000238392,0.8771000000238445,0.8966999999880798,0.9133000000119225,0.9271999999880762,0.9433999999761582,0.9601000000238429,0.9798000000119202,0.9956000000238419,1.011399999976156,1.0266999999880824,1.0435000000000016,1.0601000000238443,1.0768000000119216,1.0946999999880802,1.1099999999999994,1.1266999999880767,1.1448000000119194,1.1601000000238386,1.1816000000238418,1.1943000000119213,1.2120000000000033,1.2326999999880783,1.2433999999761554,1.2603000000119238,1.276899999976159,1.2933999999761596,1.310899999976158,1.3266999999880795,1.3433000000119222,1.3601000000238415,1.3768000000119187,1.3953000000119218,1.4100000000000037,1.426699999988081,1.4471000000238448,1.4603000000119195,1.4811999999880783,1.4960000000000022,1.5113000000119214,1.526899999976159,1.5435000000000016,1.5600000000000023,1.5768999999761562,1.5960000000000036,1.6099999999999994,1.6266999999880767,1.643399999976161,1.6601000000238386,1.6768999999761576,1.6933999999761582,1.7101000000238429,1.726699999988078,1.7433999999761554,1.76010000002384,1.7796000000238408,1.7946000000238413,1.810199999988079,1.8268000000119216,1.8434999999999988,1.8623999999761551,1.8768000000119187,1.893399999976161,1.9101999999880803,1.926800000011923,1.9435000000000002,1.9601000000238429,1.9768000000119201,1.9936000000238394,2.0101999999880817,2.0266999999880824,2.0435000000000016,2.0601000000238443,2.0766999999880795,2.0960000000000036,2.1101000000238415,2.1266999999880767,2.143399999976161,2.1601000000238386,2.1768999999761576,2.193399999976158,2.210100000023843,2.226699999988078,2.2433999999761554,2.26010000002384,2.2766999999880824,2.294800000011918,2.3101000000238443,2.3266999999880795,2.3433999999761568,2.3601000000238415,2.3766999999880767,2.394300000011924,2.410499999999999,2.426699999988081,2.443399999976158,2.460100000023843,2.4803000000119226,2.494800000011921,2.51010000002384,2.5266999999880824,2.5433999999761596,2.5601000000238443,2.5768000000119216,2.5933999999761568,2.6101000000238415,2.6266999999880767,2.6433000000119193,2.6601000000238386,2.676699999988081,2.6935000000000002,2.711500000000001,2.726899999976162,2.7433999999761554,2.759999999999998,2.7768000000119244,2.798699999988081,2.8101000000238443,2.8266999999880795,2.8460000000000036,2.8606999999880784,2.877300000011921,2.8948000000119194,2.9100000000000037,2.926699999988081,2.9463000000119237,2.9613000000119243,2.976699999988078,2.9939999999999998,3.0111999999880794,3.028399999976159,3.0436000000238437,3.0601000000238443,3.0805000000000007,3.0968000000119247,3.1131000000238416,3.1286000000238445,3.1443999999761587,3.1601000000238386,3.1768999999761576,3.1948000000119237,3.210100000023843,3.22830000001192,3.243800000011923,3.2601999999880817,3.27769999998808,3.2933999999761596,3.3100000000000023,3.3266999999880795,3.3433999999761568,3.3599999999999994,3.3768000000119187,3.395800000011924,3.410600000023841,3.426699999988081,3.4433000000119236,3.460000000000001,3.47680000001192,3.4934999999999974,3.51010000002384,3.5266999999880824,3.544699999988076,3.5601000000238443,3.581000000000003,3.597899999976157,3.6141000000238392,3.6268999999761604,3.647899999976161,3.6631999999880804,3.681199999988081,3.7010000000000005,3.7101999999880775,3.726899999976162,3.7466000000238395,3.762500000000003,3.78069999998808,3.793899999976155,3.8143999999761604,3.826899999976156,3.843600000023841,3.860199999988076,3.880300000011921,3.897399999976159,3.91430000001192,3.933,3.9435000000000002,3.9603000000119195,3.9848999999761574,3.9934999999999974,4.010300000011924,4.026699999988082,4.047499999999999,4.060199999988079,4.076899999976156,4.094199999988078,4.1113999999761575,4.1270000000000024,4.143399999976161,4.160000000000004,4.181800000011918,4.193300000011924,4.210000000000001,4.226699999988078,4.243399999976155,4.26010000002384,4.276699999988082,4.293500000000002,4.310000000000002,4.3268000000119216,4.343300000011922,4.359999999999999,4.382300000011924,4.397600000023843,4.413399999976157,4.428199999988081,4.4435,4.460100000023843,4.476699999988078,4.496300000011921,4.51010000002384,4.526699999988082,4.543300000011918,4.560000000000002,4.5766999999880795,4.596800000011925,4.609999999999999,4.626699999988077,4.644199999988082,4.66130000001192,4.677600000023844,4.694899999976158,4.713800000011922,4.729300000011918,4.744899999976155,4.761399999976156,4.78480000001192,4.795100000023844,4.810000000000002,4.827199999988082,4.843800000011925,4.863800000011921,4.881600000023845,4.896899999976156,4.912899999976162,4.926699999988081,4.943399999976158,4.961399999976159,4.97680000001192,4.993399999976155,5.01010000002384,5.026699999988082,5.044800000011918,5.064]","[1732877697760,1732877697791,1732877697797,1732877697814,1732877697831,1732877697847,1732877697864,1732877697884,1732877697902,1732877697917,1732877697931,1732877697947,1732877697965,1732877697983,1732877697998,1732877698014,1732877698031,1732877698050,1732877698064,1732877698081,1732877698099,1732877698114,1732877698131,1732877698150,1732877698167,1732877698181,1732877698197,1732877698214,1732877698234,1732877698247,1732877698264,1732877698281,1732877698297,1732877698314,1732877698331,1732877698350,1732877698366,1732877698383,1732877698400,1732877698415,1732877698431,1732877698447,1732877698464,1732877698481,1732877698499,1732877698516,1732877698535,1732877698552,1732877698564,1732877698581,1732877698600,1732877698616,1732877698631,1732877698651,1732877698667,1732877698681,1732877698697,1732877698714,1732877698734,1732877698749,1732877698765,1732877698781,1732877698797,1732877698814,1732877698831,1732877698849,1732877698864,1732877698881,1732877698899,1732877698914,1732877698935,1732877698948,1732877698966,1732877698987,1732877698997,1732877699014,1732877699031,1732877699047,1732877699065,1732877699081,1732877699097,1732877699114,1732877699131,1732877699149,1732877699164,1732877699181,1732877699201,1732877699214,1732877699235,1732877699250,1732877699265,1732877699281,1732877699297,1732877699314,1732877699331,1732877699350,1732877699364,1732877699381,1732877699397,1732877699414,1732877699431,1732877699447,1732877699464,1732877699481,1732877699497,1732877699514,1732877699533,1732877699548,1732877699564,1732877699581,1732877699597,1732877699616,1732877699631,1732877699647,1732877699664,1732877699681,1732877699697,1732877699714,1732877699731,1732877699747,1732877699764,1732877699781,1732877699797,1732877699814,1732877699831,1732877699850,1732877699864,1732877699881,1732877699897,1732877699914,1732877699931,1732877699947,1732877699964,1732877699981,1732877699997,1732877700014,1732877700031,1732877700049,1732877700064,1732877700081,1732877700097,1732877700114,1732877700131,1732877700148,1732877700164,1732877700181,1732877700197,1732877700214,1732877700234,1732877700249,1732877700264,1732877700281,1732877700297,1732877700314,1732877700331,1732877700347,1732877700364,1732877700381,1732877700397,1732877700414,1732877700431,1732877700447,1732877700465,1732877700481,1732877700497,1732877700514,1732877700531,1732877700552,1732877700564,1732877700581,1732877700600,1732877700615,1732877700631,1732877700649,1732877700664,1732877700681,1732877700700,1732877700715,1732877700731,1732877700748,1732877700765,1732877700782,1732877700797,1732877700814,1732877700834,1732877700851,1732877700867,1732877700882,1732877700898,1732877700914,1732877700931,1732877700949,1732877700964,1732877700982,1732877700998,1732877701014,1732877701032,1732877701047,1732877701064,1732877701081,1732877701097,1732877701114,1732877701131,1732877701150,1732877701164,1732877701181,1732877701197,1732877701214,1732877701231,1732877701247,1732877701264,1732877701281,1732877701299,1732877701314,1732877701335,1732877701352,1732877701368,1732877701381,1732877701402,1732877701417,1732877701435,1732877701455,1732877701464,1732877701481,1732877701500,1732877701516,1732877701535,1732877701548,1732877701568,1732877701581,1732877701597,1732877701614,1732877701634,1732877701651,1732877701668,1732877701687,1732877701697,1732877701714,1732877701739,1732877701747,1732877701764,1732877701781,1732877701801,1732877701814,1732877701831,1732877701848,1732877701865,1732877701881,1732877701897,1732877701914,1732877701936,1732877701947,1732877701964,1732877701981,1732877701997,1732877702014,1732877702031,1732877702047,1732877702064,1732877702081,1732877702097,1732877702114,1732877702136,1732877702151,1732877702167,1732877702182,1732877702197,1732877702214,1732877702231,1732877702250,1732877702264,1732877702281,1732877702297,1732877702314,1732877702331,1732877702351,1732877702364,1732877702381,1732877702398,1732877702415,1732877702431,1732877702449,1732877702468,1732877702483,1732877702499,1732877702515,1732877702539,1732877702549,1732877702564,1732877702581,1732877702598,1732877702618,1732877702635,1732877702651,1732877702667,1732877702681,1732877702697,1732877702715,1732877702731,1732877702747,1732877702764,1732877702781,1732877702799,1732877702818]","[[975,545.6],[975,545.6],[975,545.6],[984.2,543.9],[983.8,536.5],[983.8,536.5],[974.8,531.3],[980.9,515.5],[986.6,500.9],[992.3,486.3],[992.3,486.3],[993.7,485.4],[993.7,485],[986.8,464.3],[985.7,437.4],[970.2,424.9],[964.3,418.1],[967,413.6],[954.6,419.7],[944,427.2],[933.4,434.7],[933.4,434.7],[914.7,427.5],[914.1,434.8],[896.2,447],[896.2,447],[876.8,451.3],[848.3,457],[814.2,454.2],[814.2,454.2],[772.2,449.3],[738.3,452.8],[708.7,443.6],[708.7,443.6],[679.1,434.4],[660.6,439.2],[632.2,433.5],[619.4,434],[608.1,442.4],[627.7,442.1],[652.9,450.3],[652.9,450.3],[660.1,448.2],[664.7,430.8],[673.8,421.1],[710.5,429.7],[746.1,437.1],[772.7,429.3],[772.7,429.3],[798.1,411.9],[827.7,398.8],[841.6,388.1],[846,369.9],[870.4,363.6],[910.3,361.2],[951.4,357.2],[953.3,335.1],[953.3,314.9],[955.5,305.4],[963.2,298.3],[959.3,294.6],[972.1,276.6],[972.1,276.6],[994.4,266.1],[1018.3,275.8],[1014.9,271.1],[1014.9,271.1],[1011.5,266.4],[1021.6,275.3],[1034.3,269.7],[1047,264.1],[1047,264.1],[1072.2,323.2],[1132.1,402.3],[1132.1,402.3],[1170,489.3],[1216.9,579.1],[1260.2,647.1],[1280.3,732.7],[1300.4,818.3],[1279.6,874.8],[1257.1,942.4],[1234.6,1010],[1177.4,1009.5],[1097.4,971.2],[1019.1,934.7],[931.8,895.4],[858.2,846.1],[814.1,796.6],[758.5,748.3],[741.9,715.3],[732.7,683.1],[728.2,643.6],[723.5,619.1],[730.2,593.8],[722.5,563.9],[712.5,548.2],[688.8,542.5],[690.1,544],[702.9,544.3],[706.2,535.7],[704.7,528.5],[711.9,518.6],[743.6,502.1],[762.1,501.1],[801.5,508.5],[843.2,501.7],[843.2,501.7],[896.1,510.5],[896.1,510.5],[924.5,501.9],[940.1,493.1],[979.5,501.8],[1013.6,511.1],[1020,527.5],[1020,527.5],[1043.1,542.7],[1084.5,553.6],[1124.2,570],[1124.2,570],[1159.3,578.7],[1175.5,577.3],[1191.2,586.1],[1219.9,594.4],[1225.7,590],[1233.3,586.2],[1263.6,585.6],[1263.6,585.6],[1273.5,583.9],[1268.5,580.2],[1263.2,572.5],[1263.2,572.5],[1254.1,571.4],[1253.5,559.4],[1258.1,553.4],[1265.1,555.9],[1281.6,561.7],[1297.3,556.2],[1308,555.3],[1316.1,555.7],[1318.1,557.8],[1332,569.1],[1354.3,581.5],[1370.2,591.9],[1380.9,596.3],[1383.2,582.3],[1392.2,571.9],[1399,580.7],[1342.6,563],[1288.8,544],[1221.6,528.8],[1141.6,503.7],[1061.7,463.4],[987.4,430.5],[913.1,397.6],[840.2,385.6],[840.2,385.6],[759.7,370.8],[679.7,333.2],[662.3,331.5],[662.3,331.5],[644.2,334.3],[649.4,337.9],[652.5,348.3],[652.5,348.3],[655.5,373.9],[657.9,394.5],[658.8,411.6],[658.8,411.6],[660.6,418.7],[688,443.1],[717.9,482.4],[723,489.6],[728.8,492.3],[725.9,489.7],[728.4,481.3],[727.6,478.1],[727.4,479.9],[752.9,496.9],[782.8,502.3],[767.8,487],[778.4,482.7],[811,496.2],[824,505.3],[835.8,515.1],[839.7,513.2],[862.9,513.7],[883,523.8],[878.9,522.2],[878.9,522.2],[895.9,530.9],[940.5,542.5],[959.5,543.1],[973.5,541.5],[1008.5,539.4],[1043.5,537.3],[1096.9,557.7],[1096.9,557.7],[1127.1,567.9],[1158.7,566.1],[1171.5,561.3],[1171.5,561.3],[1162.3,557.5],[1131.1,561.4],[1099.9,565.3],[1099.9,565.3],[1071.8,568.1],[1046.1,580.9],[1020.4,593.7],[1020.4,593.7],[979.3,588],[949.6,591.5],[921.6,597.4],[921.6,597.4],[904.4,594.4],[896.4,620],[910.9,624.1],[910.9,624.1],[925.4,628.2],[944,628.2],[969.2,616.9],[969.2,616.9],[1011.3,605.1],[1043,611.5],[1062.3,608.1],[1102.6,592.6],[1150.9,589],[1150.9,589],[1182.2,577.7],[1182.2,577.7],[1204.3,567.2],[1233.1,542.7],[1259.7,525.6],[1295.3,509.8],[1314,494.5],[1340.5,471.4],[1340.5,471.4],[1371.6,447.2],[1382.6,427.8],[1382.6,427.8],[1377.1,422.1],[1372.1,388.2],[1372.1,388.2],[1378.1,367.1],[1387.5,364.9],[1396.9,362.7],[1363,363.7],[1329.1,364.7],[1324.6,359.8],[1312.3,358.2],[1312.3,358.2],[1299.1,363.9],[1304.8,341.5],[1318,335.6],[1318,335.6],[1320.6,330.4],[1314.6,325.4],[1309.2,333],[1309.2,333],[1310.2,348.5],[1330.8,357.9],[1308.5,377.9],[1297.6,398.9],[1308.3,409.3],[1312.3,431.3],[1316.1,444.1],[1316.1,444.1],[1328.7,465.6],[1310.8,468.6],[1281.2,482.7],[1281.2,482.7],[1265.3,513],[1236.1,543.7],[1221.4,564.3],[1206.7,584.9],[1166.4,590.9],[1166.4,590.9],[1129.8,608.8],[1096.1,624],[1028.8,639.7],[1003.4,659.6],[982.3,662.3],[965.2,642.1],[949.3,612.9],[951.3,587.1],[945.2,556],[943.1,550.1],[943.1,550.1],[950.1,549.8],[936.6,556.1],[948.2,546.5],[946.9,546.1],[966.8,536.8],[971.7,519.4],[965.6,520.1],[965.6,520.1],[944.8,519.1],[942.3,511.6],[939.8,504.1],[939.8,504.1],[928.5,489.2],[922.3,479.6],[915.8,476.7],[924.5,459.7]]","[0,0.37864299999999995]","[0.37864299999999995,0.37864299999999995]","[-0.37864299999999995,0]","[-0.37864299999999995,-0.37864299999999995]","[0,0]","[0.37864299999999995,0]","[0,-0.37864299999999995]","[0.37864299999999995,-0.37864299999999995]",0,0,0,0,1,2,Laptop,7,1,11,9
