inst1_resp.keys,inst1_resp.rt,calibrationMouse.x,calibrationMouse.y,calibrationMouse.leftButton,calibrationMouse.midButton,calibrationMouse.rightButton,calibrationClick.x,calibrationClick.y,calibrationClick.leftButton,calibrationClick.midButton,calibrationClick.rightButton,calibrationClick.clicked_name,trialsc.thisRepN,trialsc.thisTrialN,trialsc.thisN,trialsc.thisIndex,trialsc.ran,calibration_x,calibration_y,participant,session,date,expName,psychopyVersion,OS,frameRate,ScreenRes_pixels,Camera_pixels,mouse_2.x,mouse_2.y,mouse_2.leftButton,mouse_2.midButton,mouse_2.rightButton,mouse_2.time,mouse_2.clicked_name,mouse.x,mouse.y,mouse.leftButton,mouse.midButton,mouse.rightButton,mouse.time,mouse.clicked_name,Choice,Trial,TrialDuration,MOUSE_GAZE,ET_GAZE,ET_GAZE_x_T,time,unixTime,ET_GAZE_NF,Loc_Option1_label,Loc_Option2_label,Loc_Cost_label,Loc_Qual_label,Loc_Option1_cost,Loc_Option2_cost,Loc_Option1_quality,Loc_Option2_quality,trials.thisRepN,trials.thisTrialN,trials.thisN,trials.thisIndex,trials.ran,Block,Device,cost1,qual1,cost2,qual2
space,2.6469,-0.170833333,-0.144444444,1,0,0,0.333333333,0.009259259,1,0,0,calibration_square,0,0,0,16,1,0.33,0,16,001,2024-11-29_18h44.06.054,Attention_exp_legacy,2023.1.0,Win32,59.88023952,,,,,,,,,,,,,,,,,,,,,,,,,,,,,,,,,,,,,,,,,,,,
,,,,,,,0.332291667,-0.666666667,1,0,0,calibration_square,0,1,1,14,1,0.33,-0.67,16,001,2024-11-29_18h44.06.054,Attention_exp_legacy,2023.1.0,Win32,59.88023952,,,,,,,,,,,,,,,,,,,,,,,,,,,,,,,,,,,,,,,,,,,,
,,,,,,,-0.007291667,0.338888889,1,0,0,calibration_square,0,2,2,12,1,0,0.33,16,001,2024-11-29_18h44.06.054,Attention_exp_legacy,2023.1.0,Win32,59.88023952,,,,,,,,,,,,,,,,,,,,,,,,,,,,,,,,,,,,,,,,,,,,
,,,,,,,0.6625,-0.657407407,1,0,0,,0,3,3,20,1,0.67,-0.67,16,001,2024-11-29_18h44.06.054,Attention_exp_legacy,2023.1.0,Win32,59.88023952,,,,,,,,,,,,,,,,,,,,,,,,,,,,,,,,,,,,,,,,,,,,
,,,,,,,0.004166667,0.664814815,1,0,0,calibration_square,0,4,4,13,1,0,0.67,16,001,2024-11-29_18h44.06.054,Attention_exp_legacy,2023.1.0,Win32,59.88023952,,,,,,,,,,,,,,,,,,,,,,,,,,,,,,,,,,,,,,,,,,,,
,,,,,,,-0.673958333,0.335185185,1,0,0,calibration_square,0,5,5,3,1,-0.67,0.33,16,001,2024-11-29_18h44.06.054,Attention_exp_legacy,2023.1.0,Win32,59.88023952,,,,,,,,,,,,,,,,,,,,,,,,,,,,,,,,,,,,,,,,,,,,
,,,,,,,-0.673958333,-0.655555556,1,0,0,,0,6,6,0,1,-0.67,-0.67,16,001,2024-11-29_18h44.06.054,Attention_exp_legacy,2023.1.0,Win32,59.88023952,,,,,,,,,,,,,,,,,,,,,,,,,,,,,,,,,,,,,,,,,,,,
,,,,,,,0.329166667,0.664814815,1,0,0,calibration_square,0,7,7,18,1,0.33,0.67,16,001,2024-11-29_18h44.06.054,Attention_exp_legacy,2023.1.0,Win32,59.88023952,,,,,,,,,,,,,,,,,,,,,,,,,,,,,,,,,,,,,,,,,,,,
,,,,,,,-0.001041667,-0.327777778,1,0,0,calibration_square,0,8,8,10,1,0,-0.33,16,001,2024-11-29_18h44.06.054,Attention_exp_legacy,2023.1.0,Win32,59.88023952,,,,,,,,,,,,,,,,,,,,,,,,,,,,,,,,,,,,,,,,,,,,
,,,,,,,0.672916667,0.657407407,1,0,0,,0,9,9,19,1,0.67,0.67,16,001,2024-11-29_18h44.06.054,Attention_exp_legacy,2023.1.0,Win32,59.88023952,,,,,,,,,,,,,,,,,,,,,,,,,,,,,,,,,,,,,,,,,,,,
,,,,,,,-0.0125,0,1,0,0,,0,10,10,11,1,0,0,16,001,2024-11-29_18h44.06.054,Attention_exp_legacy,2023.1.0,Win32,59.88023952,,,,,,,,,,,,,,,,,,,,,,,,,,,,,,,,,,,,,,,,,,,,
,,,,,,,-0.666666667,0.001851852,1,0,0,calibration_square,0,11,11,2,1,-0.67,0,16,001,2024-11-29_18h44.06.054,Attention_exp_legacy,2023.1.0,Win32,59.88023952,,,,,,,,,,,,,,,,,,,,,,,,,,,,,,,,,,,,,,,,,,,,
,,,,,,,-0.31875,-0.312962963,1,0,0,,0,12,12,5,1,-0.33,-0.33,16,001,2024-11-29_18h44.06.054,Attention_exp_legacy,2023.1.0,Win32,59.88023952,,,,,,,,,,,,,,,,,,,,,,,,,,,,,,,,,,,,,,,,,,,,
,,,,,,,0.336458333,-0.327777778,1,0,0,calibration_square,0,13,13,15,1,0.33,-0.33,16,001,2024-11-29_18h44.06.054,Attention_exp_legacy,2023.1.0,Win32,59.88023952,,,,,,,,,,,,,,,,,,,,,,,,,,,,,,,,,,,,,,,,,,,,
,,,,,,,-0.676041667,-0.324074074,1,0,0,calibration_square,0,14,14,1,1,-0.67,-0.33,16,001,2024-11-29_18h44.06.054,Attention_exp_legacy,2023.1.0,Win32,59.88023952,,,,,,,,,,,,,,,,,,,,,,,,,,,,,,,,,,,,,,,,,,,,
,,,,,,,0.328125,0.338888889,1,0,0,calibration_square,0,15,15,17,1,0.33,0.33,16,001,2024-11-29_18h44.06.054,Attention_exp_legacy,2023.1.0,Win32,59.88023952,,,,,,,,,,,,,,,,,,,,,,,,,,,,,,,,,,,,,,,,,,,,
,,,,,,,-0.326041667,-0.001851852,1,0,0,calibration_square,0,16,16,6,1,-0.33,0,16,001,2024-11-29_18h44.06.054,Attention_exp_legacy,2023.1.0,Win32,59.88023952,,,,,,,,,,,,,,,,,,,,,,,,,,,,,,,,,,,,,,,,,,,,
,,,,,,,-0.317708333,-0.683333333,1,0,0,,0,17,17,4,1,-0.33,-0.67,16,001,2024-11-29_18h44.06.054,Attention_exp_legacy,2023.1.0,Win32,59.88023952,,,,,,,,,,,,,,,,,,,,,,,,,,,,,,,,,,,,,,,,,,,,
,,,,,,,-0.334375,0.672222222,1,0,0,calibration_square,0,18,18,8,1,-0.33,0.67,16,001,2024-11-29_18h44.06.054,Attention_exp_legacy,2023.1.0,Win32,59.88023952,,,,,,,,,,,,,,,,,,,,,,,,,,,,,,,,,,,,,,,,,,,,
,,,,,,,0.007291667,-0.672222222,1,0,0,calibration_square,0,19,19,9,1,0,-0.67,16,001,2024-11-29_18h44.06.054,Attention_exp_legacy,2023.1.0,Win32,59.88023952,,,,,,,,,,,,,,,,,,,,,,,,,,,,,,,,,,,,,,,,,,,,
,,,,,,,-0.334375,0.338888889,1,0,0,calibration_square,0,20,20,7,1,-0.33,0.33,16,001,2024-11-29_18h44.06.054,Attention_exp_legacy,2023.1.0,Win32,59.88023952,,,,,,,,,,,,,,,,,,,,,,,,,,,,,,,,,,,,,,,,,,,,
,,,,,,,,,,,,,,,,,,,,16,001,2024-11-29_18h44.06.054,Attention_exp_legacy,2023.1.0,Win32,59.88023952,"[1920,1080]","[640,480]",[-0.04479166666666667],[-0.5018518518518519],[1],[0],[0],[13.813300000011921],"[""StartButton""]",[-0.041666666666666664],[0.4888888888888889],[1],[0],[0],[5.675999999999995],"[""Option1_label""]",Option1_label,1,6.6954,"[[-0.04479166666666667,-0.5018518518518519],[-0.04479166666666667,-0.5018518518518519],[-0.04479166666666667,-0.5018518518518519],[-0.04479166666666667,-0.5018518518518519],[-0.04479166666666667,-0.5018518518518519],[-0.04479166666666667,-0.5018518518518519],[-0.04479166666666667,-0.5018518518518519],[-0.04479166666666667,-0.5018518518518519],[-0.04479166666666667,-0.5018518518518519],[-0.04479166666666667,-0.5018518518518519],[-0.04479166666666667,-0.5018518518518519],[-0.04479166666666667,-0.5018518518518519],[-0.04479166666666667,-0.5018518518518519],[-0.04479166666666667,-0.5018518518518519],[-0.04479166666666667,-0.5018518518518519],[-0.04479166666666667,-0.5018518518518519],[-0.04479166666666667,-0.5018518518518519],[-0.04479166666666667,-0.5018518518518519],[-0.04479166666666667,-0.5018518518518519],[-0.04479166666666667,-0.5018518518518519],[-0.04479166666666667,-0.5018518518518519],[-0.04479166666666667,-0.5018518518518519],[-0.04479166666666667,-0.5018518518518519],[-0.04479166666666667,-0.5018518518518519],[-0.04479166666666667,-0.5018518518518519],[-0.04479166666666667,-0.5018518518518519],[-0.04479166666666667,-0.5018518518518519],[-0.04479166666666667,-0.5018518518518519],[-0.04479166666666667,-0.5018518518518519],[-0.04479166666666667,-0.5018518518518519],[-0.04479166666666667,-0.5018518518518519],[-0.04479166666666667,-0.5018518518518519],[-0.04479166666666667,-0.5018518518518519],[-0.04479166666666667,-0.5018518518518519],[-0.04479166666666667,-0.5018518518518519],[-0.04479166666666667,-0.5018518518518519],[-0.04479166666666667,-0.5018518518518519],[-0.04479166666666667,-0.5018518518518519],[-0.04479166666666667,-0.5018518518518519],[-0.04479166666666667,-0.5018518518518519],[-0.04479166666666667,-0.5018518518518519],[-0.04479166666666667,-0.5018518518518519],[-0.04479166666666667,-0.5018518518518519],[-0.04479166666666667,-0.5018518518518519],[-0.04479166666666667,-0.5018518518518519],[-0.04479166666666667,-0.5018518518518519],[-0.04479166666666667,-0.5018518518518519],[-0.04479166666666667,-0.5018518518518519],[-0.04479166666666667,-0.5018518518518519],[-0.04479166666666667,-0.5018518518518519],[-0.04479166666666667,-0.5018518518518519],[-0.04479166666666667,-0.5018518518518519],[-0.04479166666666667,-0.5018518518518519],[-0.04479166666666667,-0.5018518518518519],[-0.04479166666666667,-0.5018518518518519],[-0.04479166666666667,-0.5018518518518519],[-0.04479166666666667,-0.5018518518518519],[-0.04479166666666667,-0.5018518518518519],[-0.04479166666666667,-0.5018518518518519],[-0.04479166666666667,-0.5018518518518519],[-0.04479166666666667,-0.5018518518518519],[-0.04479166666666667,-0.5018518518518519],[-0.04479166666666667,-0.5018518518518519],[-0.04479166666666667,-0.5018518518518519],[-0.04479166666666667,-0.5018518518518519],[-0.04479166666666667,-0.5018518518518519],[-0.04479166666666667,-0.5018518518518519],[-0.04479166666666667,-0.5018518518518519],[-0.04479166666666667,-0.5018518518518519],[-0.04479166666666667,-0.5018518518518519],[-0.04479166666666667,-0.5018518518518519],[-0.04479166666666667,-0.5018518518518519],[-0.04479166666666667,-0.5018518518518519],[-0.04479166666666667,-0.5018518518518519],[-0.04479166666666667,-0.5018518518518519],[-0.04479166666666667,-0.5018518518518519],[-0.04479166666666667,-0.5018518518518519],[-0.04479166666666667,-0.5018518518518519],[-0.04479166666666667,-0.5018518518518519],[-0.04479166666666667,-0.5018518518518519],[-0.04479166666666667,-0.5018518518518519],[-0.04479166666666667,-0.5018518518518519],[-0.04479166666666667,-0.5018518518518519],[-0.04479166666666667,-0.5018518518518519],[-0.04479166666666667,-0.5018518518518519],[-0.04479166666666667,-0.5018518518518519],[-0.04479166666666667,-0.5018518518518519],[-0.04479166666666667,-0.5018518518518519],[-0.04479166666666667,-0.5018518518518519],[-0.04479166666666667,-0.5018518518518519],[-0.04479166666666667,-0.5018518518518519],[-0.04479166666666667,-0.5018518518518519],[-0.04479166666666667,-0.5018518518518519],[-0.04479166666666667,-0.5018518518518519],[-0.04479166666666667,-0.5018518518518519],[-0.04479166666666667,-0.5018518518518519],[-0.04479166666666667,-0.5018518518518519],[-0.04479166666666667,-0.5018518518518519],[-0.04479166666666667,-0.5018518518518519],[-0.04479166666666667,-0.5018518518518519],[-0.04479166666666667,-0.5018518518518519],[-0.04479166666666667,-0.5018518518518519],[-0.04479166666666667,-0.5018518518518519],[-0.04479166666666667,-0.5018518518518519],[-0.04479166666666667,-0.5018518518518519],[-0.04479166666666667,-0.5018518518518519],[-0.04479166666666667,-0.5018518518518519],[-0.04479166666666667,-0.5018518518518519],[-0.04479166666666667,-0.5018518518518519],[-0.04479166666666667,-0.5018518518518519],[-0.04479166666666667,-0.5018518518518519],[-0.04479166666666667,-0.5018518518518519],[-0.04479166666666667,-0.5018518518518519],[-0.04479166666666667,-0.5018518518518519],[-0.04479166666666667,-0.5018518518518519],[-0.04479166666666667,-0.5018518518518519],[-0.04479166666666667,-0.5018518518518519],[-0.04479166666666667,-0.5018518518518519],[-0.04479166666666667,-0.5018518518518519],[-0.04479166666666667,-0.5018518518518519],[-0.04479166666666667,-0.5018518518518519],[-0.04479166666666667,-0.5018518518518519],[-0.04479166666666667,-0.5018518518518519],[-0.04479166666666667,-0.5018518518518519],[-0.04479166666666667,-0.5018518518518519],[-0.04479166666666667,-0.5018518518518519],[-0.04479166666666667,-0.5018518518518519],[-0.04479166666666667,-0.5018518518518519],[-0.04479166666666667,-0.5018518518518519],[-0.04479166666666667,-0.5018518518518519],[-0.04479166666666667,-0.5018518518518519],[-0.04479166666666667,-0.5018518518518519],[-0.04479166666666667,-0.5018518518518519],[-0.04479166666666667,-0.5018518518518519],[-0.04479166666666667,-0.5018518518518519],[-0.04479166666666667,-0.5018518518518519],[-0.04479166666666667,-0.5018518518518519],[-0.04479166666666667,-0.5018518518518519],[-0.04479166666666667,-0.5018518518518519],[-0.04479166666666667,-0.5018518518518519],[-0.04479166666666667,-0.5018518518518519],[-0.04479166666666667,-0.5018518518518519],[-0.04479166666666667,-0.5018518518518519],[-0.04479166666666667,-0.5018518518518519],[-0.04479166666666667,-0.5018518518518519],[-0.04479166666666667,-0.5018518518518519],[-0.04479166666666667,-0.5018518518518519],[-0.04479166666666667,-0.5018518518518519],[-0.04479166666666667,-0.5018518518518519],[-0.04479166666666667,-0.5018518518518519],[-0.04479166666666667,-0.5018518518518519],[-0.04479166666666667,-0.5018518518518519],[-0.04479166666666667,-0.5018518518518519],[-0.04479166666666667,-0.5018518518518519],[-0.04479166666666667,-0.5018518518518519],[-0.04479166666666667,-0.5018518518518519],[-0.04479166666666667,-0.5018518518518519],[-0.04479166666666667,-0.5018518518518519],[-0.04479166666666667,-0.5018518518518519],[-0.04479166666666667,-0.5018518518518519],[-0.04479166666666667,-0.5018518518518519],[-0.04479166666666667,-0.5018518518518519],[-0.04479166666666667,-0.5018518518518519],[-0.04479166666666667,-0.5018518518518519],[-0.04479166666666667,-0.5018518518518519],[-0.04479166666666667,-0.5018518518518519],[-0.04479166666666667,-0.5018518518518519],[-0.04479166666666667,-0.5018518518518519],[-0.04479166666666667,-0.5018518518518519],[-0.04479166666666667,-0.5018518518518519],[-0.04479166666666667,-0.5018518518518519],[-0.04479166666666667,-0.5018518518518519],[-0.04479166666666667,-0.5018518518518519],[-0.04479166666666667,-0.5018518518518519],[-0.04479166666666667,-0.5018518518518519],[-0.04479166666666667,-0.5018518518518519],[-0.04479166666666667,-0.5018518518518519],[-0.04479166666666667,-0.5018518518518519],[-0.04479166666666667,-0.5018518518518519],[-0.04479166666666667,-0.5018518518518519],[-0.04479166666666667,-0.5018518518518519],[-0.04479166666666667,-0.5018518518518519],[-0.04479166666666667,-0.5018518518518519],[-0.04479166666666667,-0.5018518518518519],[-0.04479166666666667,-0.5018518518518519],[-0.04479166666666667,-0.5018518518518519],[-0.04479166666666667,-0.5018518518518519],[-0.04479166666666667,-0.5018518518518519],[-0.04479166666666667,-0.5018518518518519],[-0.04479166666666667,-0.5018518518518519],[-0.04479166666666667,-0.5018518518518519],[-0.04479166666666667,-0.5018518518518519],[-0.04479166666666667,-0.5018518518518519],[-0.04479166666666667,-0.5018518518518519],[-0.04479166666666667,-0.5018518518518519],[-0.04479166666666667,-0.5018518518518519],[-0.04479166666666667,-0.5018518518518519],[-0.04479166666666667,-0.5018518518518519],[-0.04479166666666667,-0.5018518518518519],[-0.04479166666666667,-0.5018518518518519],[-0.04479166666666667,-0.5018518518518519],[-0.04479166666666667,-0.5018518518518519],[-0.04479166666666667,-0.5018518518518519],[-0.04479166666666667,-0.5018518518518519],[-0.04479166666666667,-0.5018518518518519],[-0.04479166666666667,-0.5018518518518519],[-0.04479166666666667,-0.5018518518518519],[-0.04479166666666667,-0.5018518518518519],[-0.04479166666666667,-0.5018518518518519],[-0.04479166666666667,-0.5018518518518519],[-0.04479166666666667,-0.5018518518518519],[-0.04479166666666667,-0.5018518518518519],[-0.04479166666666667,-0.5018518518518519],[-0.04479166666666667,-0.5018518518518519],[-0.04479166666666667,-0.5018518518518519],[-0.04479166666666667,-0.5018518518518519],[-0.04479166666666667,-0.5018518518518519],[-0.04479166666666667,-0.5018518518518519],[-0.04479166666666667,-0.5018518518518519],[-0.04479166666666667,-0.5018518518518519],[-0.04479166666666667,-0.5018518518518519],[-0.04479166666666667,-0.5018518518518519],[-0.04479166666666667,-0.5018518518518519],[-0.04479166666666667,-0.5018518518518519],[-0.04479166666666667,-0.5018518518518519],[-0.04479166666666667,-0.5018518518518519],[-0.04479166666666667,-0.5018518518518519],[-0.04479166666666667,-0.5018518518518519],[-0.04479166666666667,-0.5018518518518519],[-0.04479166666666667,-0.5018518518518519],[-0.04479166666666667,-0.5018518518518519],[-0.04479166666666667,-0.5018518518518519],[-0.04479166666666667,-0.5018518518518519],[-0.04479166666666667,-0.5018518518518519],[-0.04479166666666667,-0.5018518518518519],[-0.04479166666666667,-0.5018518518518519],[-0.04479166666666667,-0.5018518518518519],[-0.04479166666666667,-0.5018518518518519],[-0.04479166666666667,-0.5018518518518519],[-0.04479166666666667,-0.5018518518518519],[-0.04479166666666667,-0.5018518518518519],[-0.04479166666666667,-0.5018518518518519],[-0.04479166666666667,-0.5018518518518519],[-0.04479166666666667,-0.5018518518518519],[-0.04479166666666667,-0.5018518518518519],[-0.04479166666666667,-0.5018518518518519],[-0.04479166666666667,-0.5018518518518519],[-0.04479166666666667,-0.5018518518518519],[-0.04479166666666667,-0.5018518518518519],[-0.04479166666666667,-0.5018518518518519],[-0.04479166666666667,-0.5018518518518519],[-0.04479166666666667,-0.5018518518518519],[-0.04479166666666667,-0.5018518518518519],[-0.04479166666666667,-0.5018518518518519],[-0.04479166666666667,-0.5018518518518519],[-0.04479166666666667,-0.5018518518518519],[-0.04479166666666667,-0.5018518518518519],[-0.04479166666666667,-0.5018518518518519],[-0.04479166666666667,-0.5018518518518519],[-0.04479166666666667,-0.5018518518518519],[-0.04479166666666667,-0.5018518518518519],[-0.04479166666666667,-0.5018518518518519],[-0.04479166666666667,-0.5018518518518519],[-0.04479166666666667,-0.5018518518518519],[-0.04479166666666667,-0.5018518518518519],[-0.04479166666666667,-0.5018518518518519],[-0.04479166666666667,-0.5018518518518519],[-0.04479166666666667,-0.5018518518518519],[-0.04479166666666667,-0.5018518518518519],[-0.04479166666666667,-0.5018518518518519],[-0.04479166666666667,-0.5018518518518519],[-0.04479166666666667,-0.5018518518518519],[-0.04479166666666667,-0.5018518518518519],[-0.04479166666666667,-0.5018518518518519],[-0.04479166666666667,-0.5018518518518519],[-0.04479166666666667,-0.5018518518518519],[-0.04479166666666667,-0.5018518518518519],[-0.04479166666666667,-0.5018518518518519],[-0.04479166666666667,-0.5018518518518519],[-0.04479166666666667,-0.5018518518518519],[-0.04479166666666667,-0.5018518518518519],[-0.04479166666666667,-0.5018518518518519],[-0.04479166666666667,-0.5018518518518519],[-0.04479166666666667,-0.5018518518518519],[-0.04479166666666667,-0.5018518518518519],[-0.04479166666666667,-0.5018518518518519],[-0.04479166666666667,-0.5018518518518519],[-0.04479166666666667,-0.5018518518518519],[-0.04479166666666667,-0.5018518518518519],[-0.04479166666666667,-0.5018518518518519],[-0.04479166666666667,-0.5018518518518519],[-0.04479166666666667,-0.5018518518518519],[-0.04479166666666667,-0.5018518518518519],[-0.04479166666666667,-0.5018518518518519],[-0.04479166666666667,-0.5018518518518519],[-0.04479166666666667,-0.5018518518518519],[-0.04479166666666667,-0.5018518518518519],[-0.04479166666666667,-0.5018518518518519],[-0.04479166666666667,-0.5018518518518519],[-0.04479166666666667,-0.5018518518518519],[-0.034375,-0.5018518518518519],[-0.013541666666666667,-0.5018518518518519],[0.014583333333333334,-0.5018518518518519],[0.0375,-0.5018518518518519],[0.06145833333333333,-0.5018518518518519],[0.08229166666666667,-0.5018518518518519],[0.096875,-0.5018518518518519],[0.11770833333333333,-0.4925925925925926],[0.12708333333333333,-0.4888888888888889],[0.13854166666666667,-0.4759259259259259],[0.14791666666666667,-0.4537037037037037],[0.153125,-0.4185185185185185],[0.15416666666666667,-0.3685185185185185],[0.15208333333333332,-0.29074074074074074],[0.134375,-0.2037037037037037],[0.075,-0.014814814814814815],[0.052083333333333336,0.040740740740740744],[0.020833333333333332,0.1388888888888889],[-0.0010416666666666667,0.21851851851851853],[-0.017708333333333333,0.28703703703703703],[-0.021875,0.31666666666666665],[-0.021875,0.32592592592592595],[-0.021875,0.3277777777777778],[-0.021875,0.3277777777777778],[-0.021875,0.3277777777777778],[-0.021875,0.3277777777777778],[-0.021875,0.3333333333333333],[-0.022916666666666665,0.3425925925925926],[-0.025,0.362962962962963],[-0.029166666666666667,0.387037037037037],[-0.034375,0.412962962962963],[-0.03854166666666667,0.4425925925925926],[-0.03958333333333333,0.45],[-0.041666666666666664,0.45925925925925926],[-0.041666666666666664,0.4703703703703704],[-0.041666666666666664,0.47962962962962963],[-0.041666666666666664,0.48518518518518516],[-0.041666666666666664,0.4888888888888889],[-0.041666666666666664,0.4888888888888889],[-0.041666666666666664,0.4888888888888889],[-0.041666666666666664,0.4888888888888889],[-0.041666666666666664,0.4888888888888889],[-0.041666666666666664,0.4888888888888889],[-0.041666666666666664,0.4888888888888889],[-0.041666666666666664,0.4888888888888889],[-0.041666666666666664,0.4888888888888889],[-0.041666666666666664,0.4888888888888889],[-0.041666666666666664,0.4888888888888889],[-0.041666666666666664,0.4888888888888889],[-0.041666666666666664,0.4888888888888889],[-0.041666666666666664,0.4888888888888889],[-0.041666666666666664,0.4888888888888889],[-0.041666666666666664,0.4888888888888889],[-0.041666666666666664,0.4888888888888889],[-0.041666666666666664,0.48703703703703705],[-0.041666666666666664,0.48333333333333334],[-0.042708333333333334,0.47962962962962963],[-0.042708333333333334,0.4722222222222222],[-0.042708333333333334,0.4666666666666667],[-0.042708333333333334,0.45740740740740743],[-0.042708333333333334,0.4462962962962963],[-0.042708333333333334,0.42777777777777776],[-0.04479166666666667,0.4074074074074074],[-0.04479166666666667,0.37407407407407406],[-0.04479166666666667,0.36666666666666664],[-0.04479166666666667,0.34814814814814815],[-0.04479166666666667,0.3388888888888889],[-0.04479166666666667,0.3351851851851852],[-0.04583333333333333,0.3314814814814815],[-0.04583333333333333,0.3296296296296296],[-0.04583333333333333,0.3296296296296296],[-0.04583333333333333,0.3296296296296296],[-0.04583333333333333,0.3296296296296296],[-0.04583333333333333,0.3296296296296296],[-0.04583333333333333,0.3296296296296296],[-0.04583333333333333,0.3296296296296296],[-0.04583333333333333,0.3296296296296296],[-0.04583333333333333,0.3296296296296296],[-0.04583333333333333,0.3296296296296296],[-0.04583333333333333,0.3296296296296296],[-0.04583333333333333,0.3296296296296296],[-0.04583333333333333,0.3296296296296296],[-0.04583333333333333,0.3296296296296296],[-0.04583333333333333,0.3296296296296296],[-0.04583333333333333,0.3296296296296296],[-0.04583333333333333,0.3296296296296296],[-0.04583333333333333,0.3296296296296296],[-0.04583333333333333,0.3296296296296296],[-0.04583333333333333,0.3296296296296296],[-0.04583333333333333,0.3296296296296296],[-0.04583333333333333,0.3296296296296296],[-0.04583333333333333,0.3296296296296296],[-0.04583333333333333,0.3296296296296296],[-0.04583333333333333,0.3296296296296296],[-0.04583333333333333,0.3296296296296296],[-0.04583333333333333,0.3296296296296296],[-0.04583333333333333,0.3296296296296296],[-0.04583333333333333,0.3296296296296296],[-0.04583333333333333,0.3296296296296296],[-0.04583333333333333,0.3296296296296296]]","[[-0.2029166666666666,0.4322222222222222],[-0.2029166666666666,0.4322222222222222],[-0.20020833333333338,0.4142592592592593],[-0.20020833333333338,0.4142592592592593],[-0.20656249999999995,0.3851851851851852],[-0.20656249999999995,0.3851851851851852],[-0.19739583333333333,0.38425925925925924],[-0.18635416666666665,0.3937037037037037],[-0.1658333333333334,0.3864814814814816],[-0.15437500000000004,0.3705555555555556],[-0.14968750000000006,0.36925925925925923],[-0.14677083333333332,0.3798148148148149],[-0.15406249999999996,0.3962962962962963],[-0.15406249999999996,0.3962962962962963],[-0.14270833333333333,0.4005555555555555],[-0.14270833333333333,0.4005555555555555],[-0.12083333333333333,0.4050000000000001],[-0.0907291666666667,0.3992592592592593],[-0.0704166666666667,0.39000000000000007],[-0.06447916666666664,0.35981481481481475],[-0.0484375,0.35462962962962963],[-0.0375,0.3568518518518519],[-0.020833333333333332,0.33851851851851844],[-0.020833333333333332,0.33851851851851844],[-0.004166666666666667,0.32018518518518513],[0.0109375,0.29499999999999993],[0.0109375,0.29499999999999993],[0.020833333333333332,0.28166666666666673],[0.022395833333333334,0.275],[0.022395833333333334,0.275],[0.01572916666666669,0.2785185185185185],[0.022500000000000023,0.2777777777777778],[0.03822916666666672,0.27814814814814826],[0.034375,0.27018518518518514],[0.034375,0.27018518518518514],[0.044062499999999956,0.2716666666666668],[0.050833333333333286,0.2579629629629629],[0.05479166666666669,0.25277777777777777],[0.06312500000000003,0.25500000000000006],[0.08645833333333333,0.2324074074074074],[0.10520833333333333,0.1814814814814815],[0.12333333333333343,0.13833333333333342],[0.11864583333333342,0.0992592592592593],[0.12218749999999995,0.06092592592592588],[0.13208333333333327,0.012407407407407492],[0.13354166666666673,-0.052962962962963],[0.12822916666666656,-0.08666666666666668],[0.12572916666666673,-0.12888888888888894],[0.1290625000000001,-0.17703703703703708],[0.13156249999999994,-0.21777777777777782],[0.11427083333333338,-0.23740740740740737],[0.09385416666666657,-0.2609259259259259],[0.09833333333333343,-0.2631481481481482],[0.09541666666666657,-0.25759259259259265],[0.07937500000000004,-0.24685185185185188],[0.07020833333333343,-0.2168518518518519],[0.07239583333333334,-0.22296296296296292],[0.06729166666666657,-0.19166666666666668],[0.058645833333333286,-0.19944444444444442],[0.058645833333333286,-0.19944444444444442],[0.042916666666666714,-0.19759259259259257],[0.04510416666666662,-0.18925925925925924],[0.03770833333333338,-0.16370370370370366],[0.027708333333333356,-0.1685185185185185],[-0.0048958333333333805,-0.1542592592592593],[-0.030729166666666665,-0.13499999999999995],[-0.07687499999999996,-0.14685185185185187],[-0.10979166666666665,-0.1412962962962963],[-0.13010416666666663,-0.15833333333333333],[-0.15552083333333327,-0.13092592592592592],[-0.19624999999999998,-0.09277777777777782],[-0.23833333333333329,-0.05351851851851848],[-0.25875,-0.04592592592592584],[-0.2826041666666666,-0.03185185185185194],[-0.2826041666666666,-0.03185185185185194],[-0.2889583333333333,-0.015000000000000043],[-0.28531249999999997,-0.012037037037037037],[-0.2682291666666667,0.002777777777777778],[-0.26364583333333336,0.022777777777777692],[-0.26437499999999997,0.027962962962963005],[-0.2783333333333334,0.07074074074074083],[-0.27697916666666667,0.10277777777777777],[-0.26135416666666667,0.07703703703703708],[-0.26135416666666667,0.07703703703703708],[-0.25406249999999997,0.06185185185185181],[-0.24427083333333333,0.07166666666666675],[-0.22937500000000005,0.05962962962962971],[-0.2283333333333334,0.06703703703703712],[-0.22083333333333333,0.06314814814814819],[-0.21468750000000003,0.06222222222222226],[-0.196875,0.049074074074074076],[-0.196875,0.049074074074074076],[-0.1658333333333334,-0.0016666666666666245],[-0.1454166666666667,-0.058333333333333334],[-0.1297916666666667,-0.04814814814814815],[-0.1297916666666667,-0.04814814814814815],[-0.1141666666666667,-0.03796296296296296],[-0.10593750000000005,-0.05055555555555547],[-0.08791666666666664,-0.06592592592592597],[-0.06604166666666664,-0.0868518518518518],[-0.05677083333333333,-0.08944444444444447],[-0.0390625,-0.1111111111111111],[-0.053125,-0.09092592592592597],[-0.058645833333333286,-0.07574074074074069],[-0.058437500000000024,-0.04740740740740745],[-0.06770833333333333,-0.02814814814814823],[-0.07937500000000004,-0.03888888888888889],[-0.0751041666666667,-0.052037037037037076],[-0.08062499999999997,-0.062407407407407384],[-0.09864583333333338,-0.055185185185185205],[-0.11552083333333331,-0.06148148148148146],[-0.14260416666666664,-0.06407407407407412],[-0.16062500000000005,-0.0772222222222222],[-0.18718750000000003,-0.08537037037037042],[-0.2155208333333333,-0.11518518518518517],[-0.2257291666666667,-0.14777777777777779],[-0.2257291666666667,-0.14777777777777779],[-0.22822916666666668,-0.1398148148148148],[-0.2604166666666667,-0.1205555555555556],[-0.27885416666666674,-0.09962962962962965],[-0.29312499999999997,-0.10537037037037032],[-0.28791666666666665,-0.10462962962962963],[-0.28447916666666667,-0.08666666666666668],[-0.25062500000000004,-0.08388888888888892],[-0.24645833333333336,-0.08851851851851854],[-0.21145833333333333,-0.09092592592592597],[-0.19458333333333327,-0.09055555555555551],[-0.19458333333333327,-0.09055555555555551],[-0.18677083333333327,-0.09148148148148144],[-0.16395833333333332,-0.10277777777777777],[-0.15489583333333337,-0.11574074074074074],[-0.1375,-0.11962962962962967],[-0.13833333333333328,-0.12185185185185188],[-0.14177083333333335,-0.13055555555555556],[-0.14177083333333335,-0.13055555555555556],[-0.16333333333333327,-0.11814814814814817],[-0.16187499999999996,-0.10944444444444448],[-0.18458333333333338,-0.08851851851851854],[-0.22322916666666662,-0.08870370370370366],[-0.25812499999999994,-0.09814814814814815],[-0.29500000000000004,-0.08870370370370366],[-0.33187500000000003,-0.07925925925925928],[-0.3671875,-0.0507407407407407],[-0.39874999999999994,-0.02388888888888885],[-0.4321875,-0.003888888888888931],[-0.466875,-0.008888888888888804],[-0.48520833333333335,0.0011111111111111532],[-0.48520833333333335,0.0011111111111111532],[-0.5035416666666667,0.011111111111111112],[-0.5038541666666666,0.026481481481481398],[-0.5003125,0.034074074074074034],[-0.4990625,0.0338888888888888],[-0.4909375,0.012777777777777735],[-0.4810416666666667,-0.039074074074074115],[-0.4711458333333333,-0.09092592592592597],[-0.45041666666666663,-0.08796296296296297],[-0.38343750000000004,-0.015370370370370286],[-0.32864583333333336,0.05351851851851848],[-0.21489583333333329,0.1714814814814815],[-0.21489583333333329,0.1714814814814815],[-0.09968750000000005,0.30092592592592593],[0.008958333333333356,0.4348148148148147],[0.10072916666666672,0.5175925925925926],[0.10072916666666672,0.5175925925925926],[0.18562500000000004,0.6212962962962963],[0.23250000000000004,0.7209259259259259],[0.26666666666666666,0.8125925925925925],[0.29802083333333323,0.8609259259259259],[0.2652083333333332,0.8155555555555555],[0.2652083333333332,0.8155555555555555],[0.23489583333333333,0.7699999999999999],[0.23489583333333333,0.7699999999999999],[0.13291666666666657,0.6624074074074074],[0.03343750000000002,0.5537037037037037],[-0.05499999999999995,0.46574074074074073],[-0.05499999999999995,0.46574074074074073],[-0.11864583333333331,0.4170370370370371],[-0.18187500000000004,0.34888888888888886],[-0.21041666666666667,0.2964814814814815],[-0.21041666666666667,0.2964814814814815],[-0.22989583333333338,0.2596296296296297],[-0.2579166666666667,0.225],[-0.26114583333333335,0.22314814814814815],[-0.28072916666666664,0.22833333333333325],[-0.26593749999999994,0.23481481481481473],[-0.25718749999999996,0.24666666666666676],[-0.2359375,0.2449999999999999],[-0.21468750000000003,0.2433333333333333],[-0.19020833333333337,0.2729629629629629],[-0.16572916666666668,0.3025925925925925],[-0.14645833333333336,0.32703703703703707],[-0.11864583333333331,0.3492592592592593],[-0.11864583333333331,0.3492592592592593],[-0.09375,0.3625925925925925],[-0.058437500000000024,0.36370370370370364],[-0.04479166666666667,0.3764814814814814],[-0.019375000000000024,0.36999999999999994],[-0.014791666666666713,0.3596296296296297],[-0.002916666666666619,0.3301851851851851],[0.005312500000000024,0.28888888888888886],[0.009687499999999953,0.25092592592592594],[0.022916666666666665,0.21055555555555563],[0.057083333333333285,0.16574074074074074],[0.08729166666666661,0.12111111111111107],[0.11854166666666661,0.07037037037037037],[0.14979166666666663,0.01962962962962967],[0.16635416666666672,-0.0007407407407406986],[0.18291666666666656,-0.02111111111111107],[0.18114583333333342,-0.03037037037037033],[0.17937500000000003,-0.039629629629629584],[0.15614583333333343,-0.01185185185185181],[0.13697916666666668,0.009814814814814731],[0.09520833333333342,0.04888888888888885],[0.05343749999999995,0.08796296296296297],[0.010520833333333358,0.13666666666666658],[-0.03239583333333336,0.1853703703703704],[-0.03239583333333336,0.1853703703703704],[-0.06916666666666664,0.20333333333333325],[-0.09697916666666669,0.23722222222222225],[-0.11375000000000005,0.27907407407407414],[-0.13677083333333329,0.3333333333333333],[-0.13447916666666668,0.3472222222222222],[-0.13479166666666664,0.3537037037037037],[-0.13343750000000001,0.3472222222222222],[-0.13343750000000001,0.3472222222222222],[-0.1390625,0.34962962962962957],[-0.1390625,0.34962962962962957],[-0.12947916666666662,0.3544444444444444],[-0.1336458333333333,0.3685185185185185],[-0.13187500000000002,0.3838888888888888],[-0.12875000000000003,0.3705555555555556],[-0.12562500000000001,0.35722222222222216],[-0.14187500000000006,0.38259259259259265],[-0.15812499999999996,0.40796296296296286],[-0.18343750000000003,0.43703703703703706],[-0.20874999999999996,0.4661111111111112],[-0.21437499999999995,0.5001851851851852],[-0.22916666666666666,0.5335185185185186],[-0.22083333333333333,0.5385185185185184],[-0.22166666666666662,0.5618518518518518],[-0.2445833333333333,0.5949999999999999],[-0.26749999999999996,0.6281481481481482],[-0.2842708333333333,0.6325925925925926],[-0.29489583333333336,0.6242592592592593],[-0.2813541666666667,0.5998148148148148],[-0.2813541666666667,0.5998148148148148],[-0.2678125,0.5753703703703704],[-0.26885416666666667,0.5464814814814816],[-0.28791666666666665,0.5037037037037037],[-0.3163541666666667,0.4800000000000001],[-0.34479166666666666,0.45629629629629626],[-0.32927083333333335,0.4477777777777777],[-0.29583333333333334,0.44648148148148153],[-0.29583333333333334,0.44648148148148153],[-0.24291666666666673,0.4227777777777777],[-0.196875,0.4007407407407407],[-0.17437499999999997,0.3848148148148147],[-0.15187499999999995,0.368888888888889],[-0.13791666666666663,0.3287037037037037],[-0.10593750000000005,0.30240740740740735],[-0.06072916666666662,0.3042592592592592],[-0.06072916666666662,0.3042592592592592],[-0.01552083333333331,0.306111111111111],[-0.008333333333333333,0.30925925925925923],[-0.018333333333333358,0.2983333333333334],[-0.018333333333333358,0.2983333333333334],[-0.02833333333333338,0.2874074074074075],[-0.030520833333333285,0.2975925925925927],[-0.02958333333333331,0.3388888888888889],[-0.02958333333333331,0.3388888888888889],[-0.028645833333333332,0.3801851851851851],[-0.01583333333333338,0.40962962962962973],[0.020624999999999952,0.41203703703703703],[0.03708333333333336,0.3803703703703703],[0.05354166666666664,0.3487037037037036],[0.05,0.31962962962962965],[0.06895833333333339,0.31574074074074077],[0.06895833333333339,0.31574074074074077],[0.08791666666666677,0.3118518518518518],[0.08958333333333333,0.28962962962962957],[0.09854166666666657,0.24296296296296305],[0.10750000000000005,0.1962962962962963],[0.10625,0.18944444444444436],[0.08135416666666657,0.20962962962962972],[0.06729166666666657,0.23537037037037042],[0.06729166666666657,0.23537037037037042],[0.05322916666666669,0.2611111111111111],[0.06312500000000003,0.2514814814814814],[0.06499999999999997,0.22444444444444453],[0.058854166666666666,0.19870370370370363],[0.058854166666666666,0.19870370370370363],[0.05447916666666662,0.18092592592592602],[0.016458333333333287,0.19018518518518526],[-0.021562500000000047,0.19944444444444454],[-0.021562500000000047,0.19944444444444454],[-0.03343750000000002,0.20111111111111116],[-0.059687499999999956,0.2198148148148149],[-0.08489583333333334,0.23129629629629625],[-0.11281249999999995,0.23481481481481473],[-0.1388541666666666,0.25759259259259265],[-0.1686458333333333,0.28592592592592586],[-0.1814583333333334,0.32518518518518524],[-0.1814583333333334,0.32518518518518524],[-0.16354166666666667,0.31574074074074077],[-0.13718750000000005,0.3331481481481481],[-0.11083333333333331,0.35055555555555545],[-0.11083333333333331,0.35055555555555545],[-0.08781249999999995,0.318888888888889],[-0.057291666666666664,0.3322222222222222],[-0.03187500000000002,0.3531481481481482],[0.00635416666666669,0.33796296296296297],[0.00635416666666669,0.33796296296296297],[0.04500000000000005,0.35185185185185186],[0.04500000000000005,0.35185185185185186],[0.06604166666666664,0.3551851851851851],[0.07822916666666657,0.3394444444444444],[0.07593750000000009,0.3677777777777778],[0.09541666666666657,0.35537037037037034],[0.096875,0.33777777777777773],[0.096875,0.33777777777777773],[0.09645833333333324,0.3431481481481481],[0.10291666666666661,0.28648148148148156],[0.0984375,0.21444444444444435],[0.08385416666666666,0.18648148148148155],[0.07062499999999995,0.12537037037037047],[0.06354166666666666,0.06833333333333329],[0.04864583333333338,-0.013703703703703662],[0.04864583333333338,-0.013703703703703662],[0.029895833333333382,-0.0764814814814815],[0.02822916666666669,-0.12925925925925927],[0.044270833333333336,-0.1646296296296296],[0.022395833333333334,-0.17685185185185184],[0.016666666666666666,-0.1742592592592593],[0.021875,-0.15629629629629627],[0.03114583333333331,-0.13574074074074077],[0.03864583333333336,-0.1111111111111111],[0.044479166666666715,-0.08259259259259263],[0.04479166666666667,-0.05592592592592591],[0.04812500000000005,-0.0544444444444444],[0.04812500000000005,-0.0544444444444444],[0.034375,-0.06296296296296296],[0.011874999999999976,-0.06500000000000004],[0.017604166666666643,0.05222222222222231],[0.00791666666666669,0.059999999999999956],[-0.013125000000000024,0.13277777777777786],[-0.03822916666666672,0.202962962962963],[-0.06333333333333328,0.27314814814814814],[-0.06333333333333328,0.27314814814814814],[-0.08333333333333333,0.2777777777777778],[-0.10968749999999995,0.3412962962962962],[-0.13697916666666668,0.39444444444444443],[-0.15583333333333335,0.41944444444444445],[-0.16937500000000003,0.40629629629629627],[-0.18541666666666667,0.2712962962962963],[-0.22260416666666671,0.22759259259259254],[-0.2107291666666666,0.1],[-0.20760416666666662,0.04407407407407399],[-0.20447916666666663,-0.01185185185185181],[-0.20656249999999995,-0.04407407407407399],[-0.1890625,-0.1014814814814815],[-0.18031250000000001,-0.15240740740740744],[-0.17999999999999997,-0.17518518518518522],[-0.15520833333333334,-0.1933333333333333],[-0.1304166666666667,-0.21148148148148146],[-0.09614583333333329,-0.20907407407407402],[-0.09645833333333335,-0.19703703703703698],[-0.09031250000000005,-0.272037037037037],[-0.08416666666666663,-0.347037037037037],[-0.08510416666666672,-0.3290740740740741],[-0.075,-0.3472222222222222],[-0.0655208333333333,-0.34870370370370374],[-0.05604166666666662,-0.3501851851851852],[-0.05604166666666662,-0.3501851851851852],[-0.059895833333333336,-0.33537037037037043],[-0.10531250000000002,-0.3490740740740741],[-0.1397916666666667,-0.38],[-0.1397916666666667,-0.38],[-0.17000000000000004,-0.3811111111111111],[-0.16927083333333334,-0.36944444444444446],[-0.18010416666666665,-0.375],[-0.17520833333333338,-0.4477777777777778],[-0.17520833333333338,-0.4477777777777778],[-0.18135416666666668,-0.4844444444444445],[-0.20354166666666665,-0.45759259259259266],[-0.2125,-0.4227777777777778],[-0.24385416666666668,-0.3972222222222222],[-0.19249999999999995,-0.35611111111111116],[-0.1564583333333334,-0.3164814814814814],[-0.1373958333333333,-0.3001851851851852],[-0.1469791666666667,-0.28129629629629627],[-0.1171875,-0.25203703703703706],[-0.09583333333333334,-0.20611111111111113],[-0.09312499999999997,-0.17092592592592595],[-0.09312499999999997,-0.17092592592592595],[-0.07104166666666671,-0.20111111111111116],[-0.05645833333333338,-0.2448148148148148],[-0.02687499999999995,-0.2807407407407408],[-0.02687499999999995,-0.2807407407407408],[-0.004166666666666667,-0.3316666666666667],[0.025,-0.35759259259259263]]","[[-0.2029166666666666,0.4322222222222222,0.0001999999880837322],[-0.2029166666666666,0.4322222222222222,0.03739999997615939],[-0.20020833333333338,0.4142592592592593,0.04650000000000887],[-0.20020833333333338,0.4142592592592593,0.06169999998807896],[-0.20656249999999995,0.3851851851851852,0.07839999997615621],[-0.20656249999999995,0.3851851851851852,0.0951999999880826],[-0.19739583333333333,0.38425925925925924,0.11180000001192525],[-0.18635416666666665,0.3937037037037037,0.12839999997615337],[-0.1658333333333334,0.3864814814814816,0.14510000002384515],[-0.15437500000000004,0.3705555555555556,0.16599999999999682],[-0.14968750000000006,0.36925925925925923,0.18089999997616246],[-0.14677083333333332,0.3798148148148149,0.19589999997616303],[-0.15406249999999996,0.3962962962962963,0.21180000001191956],[-0.15406249999999996,0.3962962962962963,0.22860000002384595],[-0.14270833333333333,0.4005555555555555,0.24519999998807407],[-0.14270833333333333,0.4005555555555555,0.26189999997616553],[-0.12083333333333333,0.4050000000000001,0.2785000000000082],[-0.0907291666666667,0.3992592592592593,0.29530000001192036],[-0.0704166666666667,0.39000000000000007,0.3118000000119281],[-0.06447916666666664,0.35981481481481475,0.3283999999761562],[-0.0484375,0.35462962962962963,0.345100000023848],[-0.0375,0.3568518518518519,0.362000000000009],[-0.020833333333333332,0.33851851851851844,0.3785000000000025],[-0.020833333333333332,0.33851851851851844,0.39519999998807975],[-0.004166666666666667,0.32018518518518513,0.4118000000119224],[0.0109375,0.29499999999999993,0.42849999999999966],[0.0109375,0.29499999999999993,0.4451000000238423],[0.020833333333333332,0.28166666666666673,0.46189999997615416],[0.022395833333333334,0.275,0.4784999999999968],[0.022395833333333334,0.275,0.4953000000119232],[0.01572916666666669,0.2785185185185185,0.5118999999761655],[0.022500000000000023,0.2777777777777778,0.528399999976159],[0.03822916666666672,0.27814814814814826,0.545399999976155],[0.034375,0.27018518518518514,0.5618000000119281],[0.034375,0.27018518518518514,0.5785000000000053],[0.044062499999999956,0.2716666666666668,0.5951999999880826],[0.050833333333333286,0.2579629629629629,0.6118000000119252],[0.05479166666666669,0.25277777777777777,0.6283999999761534],[0.06312500000000003,0.25500000000000006,0.6479999999999961],[0.08645833333333333,0.2324074074074074,0.6623999999761594],[0.10520833333333333,0.1814814814814815,0.6783999999761647],[0.12333333333333343,0.13833333333333342,0.6951000000238423],[0.11864583333333342,0.0992592592592593,0.7148000000119197],[0.12218749999999995,0.06092592592592588,0.7283999999761619],[0.13208333333333327,0.012407407407407492,0.7451000000238395],[0.13354166666666673,-0.052962962962963,0.7618000000119167],[0.12822916666666656,-0.08666666666666668,0.778399999976159],[0.12572916666666673,-0.12888888888888894,0.7953000000119204],[0.1290625000000001,-0.17703703703703708,0.8118000000119281],[0.13156249999999994,-0.21777777777777782,0.8283999999761562],[0.11427083333333338,-0.23740740740740737,0.8453000000119175],[0.09385416666666657,-0.2609259259259259,0.8618000000119252],[0.09833333333333343,-0.2631481481481482,0.8783999999761534],[0.09541666666666657,-0.25759259259259265,0.8965000000000032],[0.07937500000000004,-0.24685185185185188,0.9118000000119224],[0.07020833333333343,-0.2168518518518519,0.9284999999999997],[0.07239583333333334,-0.22296296296296292,0.9451999999880769],[0.06729166666666657,-0.19166666666666668,0.9618000000119196],[0.058645833333333286,-0.19944444444444442,0.9784999999999968],[0.058645833333333286,-0.19944444444444442,0.9953000000119232],[0.042916666666666714,-0.19759259259259257,1.0118000000119167],[0.04510416666666662,-0.18925925925925924,1.028399999976159],[0.03770833333333338,-0.16370370370370366,1.0453000000119204],[0.027708333333333356,-0.1685185185185185,1.061800000011928],[-0.0048958333333333805,-0.1542592592592593,1.0783999999761562],[-0.030729166666666665,-0.13499999999999995,1.097199999988078],[-0.07687499999999996,-0.14685185185185187,1.1118000000119252],[-0.10979166666666665,-0.1412962962962963,1.1285000000000025],[-0.13010416666666663,-0.15833333333333333,1.1451000000238452],[-0.15552083333333327,-0.13092592592592592,1.161899999976157],[-0.19624999999999998,-0.09277777777777782,1.1786999999880834],[-0.23833333333333329,-0.05351851851851848,1.196100000023847],[-0.25875,-0.04592592592592584,1.2118000000119196],[-0.2826041666666666,-0.03185185185185194,1.2318000000119298],[-0.2826041666666666,-0.03185185185185194,1.245199999988074],[-0.2889583333333333,-0.015000000000000043,1.2620000000000005],[-0.28531249999999997,-0.012037037037037037,1.2785000000000082],[-0.2682291666666667,0.002777777777777778,1.2981000000238367],[-0.26364583333333336,0.022777777777777692,1.311699999988079],[-0.26437499999999997,0.027962962962963005,1.3313000000119217],[-0.2783333333333334,0.07074074074074083,1.3451999999880826],[-0.27697916666666667,0.10277777777777777,1.3618000000119252],[-0.26135416666666667,0.07703703703703708,1.3785000000000025],[-0.26135416666666667,0.07703703703703708,1.3951999999880798],[-0.25406249999999997,0.06185185185185181,1.4118000000119224],[-0.24427083333333333,0.07166666666666675,1.4284999999999997],[-0.22937500000000005,0.05962962962962971,1.4451000000238423],[-0.2283333333333334,0.06703703703703712,1.4648999999761543],[-0.22083333333333333,0.06314814814814819,1.4788000000119297],[-0.21468750000000003,0.06222222222222226,1.4964999999999975],[-0.196875,0.049074074074074076,1.5118000000119167],[-0.196875,0.049074074074074076,1.528600000023843],[-0.1658333333333334,-0.0016666666666666245,1.5451000000238508],[-0.1454166666666667,-0.058333333333333334,1.561800000011928],[-0.1297916666666667,-0.04814814814814815,1.5785000000000053],[-0.1297916666666667,-0.04814814814814815,1.5951999999880826],[-0.1141666666666667,-0.03796296296296296,1.6118000000119252],[-0.10593750000000005,-0.05055555555555547,1.6285000000000025],[-0.08791666666666664,-0.06592592592592597,1.6451000000238452],[-0.06604166666666664,-0.0868518518518518,1.6671999999880853],[-0.05677083333333333,-0.08944444444444447,1.6809999999999974],[-0.0390625,-0.1111111111111111,1.6978000000119238],[-0.053125,-0.09092592592592597,1.7118999999761542],[-0.058645833333333286,-0.07574074074074069,1.7284999999999968],[-0.058437500000000024,-0.04740740740740745,1.7453000000119232],[-0.06770833333333333,-0.02814814814814823,1.7618999999761655],[-0.07937500000000004,-0.03888888888888889,1.7785000000000082],[-0.0751041666666667,-0.052037037037037076,1.7951999999880854],[-0.08062499999999997,-0.062407407407407384,1.811800000011928],[-0.09864583333333338,-0.055185185185185205,1.8285000000000053],[-0.11552083333333331,-0.06148148148148146,1.845100000023848],[-0.14260416666666664,-0.06407407407407412,1.8618999999761598],[-0.16062500000000005,-0.0772222222222222,1.8798999999761605],[-0.18718750000000003,-0.08537037037037042,1.8965000000000032],[-0.2155208333333333,-0.11518518518518517,1.9118000000119224],[-0.2257291666666667,-0.14777777777777779,1.9286000000238488],[-0.2257291666666667,-0.14777777777777779,1.9451000000238423],[-0.22822916666666668,-0.1398148148148148,1.9618999999761542],[-0.2604166666666667,-0.1205555555555556,1.9784999999999968],[-0.27885416666666674,-0.09962962962962965,1.995199999988074],[-0.29312499999999997,-0.10537037037037032,2.0158000000119216],[-0.28791666666666665,-0.10462962962962963,2.031000000000006],[-0.28447916666666667,-0.08666666666666668,2.0451999999880854],[-0.25062500000000004,-0.08388888888888892,2.061800000011928],[-0.24645833333333336,-0.08851851851851854,2.0951999999880826],[-0.21145833333333333,-0.09092592592592597,2.1118000000119252],[-0.19458333333333327,-0.09055555555555551,2.1285000000000025],[-0.19458333333333327,-0.09055555555555551,2.1451999999880798],[-0.18677083333333327,-0.09148148148148144,2.1618000000119224],[-0.16395833333333332,-0.10277777777777777,2.1784999999999997],[-0.15489583333333337,-0.11574074074074074,2.195199999988077],[-0.1375,-0.11962962962962967,2.211899999976154],[-0.13833333333333328,-0.12185185185185188,2.245199999988074],[-0.14177083333333335,-0.13055555555555556,2.2651999999880843],[-0.14177083333333335,-0.13055555555555556,2.278500000000008],[-0.16333333333333327,-0.11814814814814817,2.295100000023851],[-0.16187499999999996,-0.10944444444444448,2.311699999988079],[-0.18458333333333338,-0.08851851851851854,2.328399999976156],[-0.22322916666666662,-0.08870370370370366,2.350300000011927],[-0.25812499999999994,-0.09814814814814815,2.3643999999761576],[-0.29500000000000004,-0.08870370370370366,2.3786000000238374],[-0.33187500000000003,-0.07925925925925928,2.396800000011922],[-0.3671875,-0.0507407407407407,2.4138999999761666],[-0.39874999999999994,-0.02388888888888885,2.430800000011928],[-0.4321875,-0.003888888888888931,2.445300000011926],[-0.466875,-0.008888888888888804,2.4616999999880846],[-0.48520833333333335,0.0011111111111111532,2.4786999999880805],[-0.48520833333333335,0.0011111111111111532,2.495300000011923],[-0.5035416666666667,0.011111111111111112,2.5118000000119167],[-0.5038541666666666,0.026481481481481398,2.528399999976159],[-0.5003125,0.034074074074074034,2.5453000000119204],[-0.4990625,0.0338888888888888,2.5619999999999976],[-0.4909375,0.012777777777777735,2.578399999976156],[-0.4810416666666667,-0.039074074074074115,2.595100000023848],[-0.4711458333333333,-0.09092592592592597,2.6121999999880785],[-0.45041666666666663,-0.08796296296296297,2.631300000011919],[-0.38343750000000004,-0.015370370370370286,2.6456000000238475],[-0.32864583333333336,0.05351851851851848,2.662699999988078],[-0.21489583333333329,0.1714814814814815,2.68339999997616],[-0.21489583333333329,0.1714814814814815,2.695899999976163],[-0.09968750000000005,0.30092592592592593,2.7118000000119196],[0.008958333333333356,0.4348148148148147,2.729899999976155],[0.10072916666666672,0.5175925925925926,2.745300000011923],[0.10072916666666672,0.5175925925925926,2.7618000000119167],[0.18562500000000004,0.6212962962962963,2.778399999976159],[0.23250000000000004,0.7209259259259259,2.795100000023851],[0.26666666666666666,0.8125925925925925,2.811800000011928],[0.29802083333333323,0.8609259259259259,2.83060000002385],[0.2652083333333332,0.8155555555555555,2.845100000023848],[0.2652083333333332,0.8155555555555555,2.8618000000119252],[0.23489583333333333,0.7699999999999999,2.8783999999761534],[0.23489583333333333,0.7699999999999999,2.8951999999880798],[0.13291666666666657,0.6624074074074074,2.9116999999880875],[0.03343750000000002,0.5537037037037037,2.9284999999999997],[-0.05499999999999995,0.46574074074074073,2.9451000000238423],[-0.05499999999999995,0.46574074074074073,2.9618000000119196],[-0.11864583333333331,0.4170370370370371,2.978399999976162],[-0.18187500000000004,0.34888888888888886,2.9963999999761626],[-0.21041666666666667,0.2964814814814815,3.011699999988082],[-0.21041666666666667,0.2964814814814815,3.028600000023843],[-0.22989583333333338,0.2596296296296297,3.045100000023851],[-0.2579166666666667,0.225,3.061800000011928],[-0.26114583333333335,0.22314814814814815,3.0786000000238403],[-0.28072916666666664,0.22833333333333325,3.1000000000000156],[-0.26593749999999994,0.23481481481481473,3.115100000023851],[-0.25718749999999996,0.24666666666666676,3.1296000000238493],[-0.2359375,0.2449999999999999,3.1451000000238523],[-0.21468750000000003,0.2433333333333333,3.161899999976164],[-0.19020833333333337,0.2729629629629629,3.1785000000000068],[-0.16572916666666668,0.3025925925925925,3.195199999988084],[-0.14645833333333336,0.32703703703703707,3.2118000000119267],[-0.11864583333333331,0.3492592592592593,3.2351000000238557],[-0.11864583333333331,0.3492592592592593,3.2466000000238537],[-0.09375,0.3625925925925925,3.261800000011924],[-0.058437500000000024,0.36370370370370364,3.2821000000238527],[-0.04479166666666667,0.3764814814814814,3.298399999976162],[-0.019375000000000024,0.36999999999999994,3.313500000000012],[-0.014791666666666713,0.3596296296296297,3.3285000000000124],[-0.002916666666666619,0.3301851851851851,3.345100000023855],[0.005312500000000024,0.28888888888888886,3.3618000000119324],[0.009687499999999953,0.25092592592592594,3.3823999999761654],[0.022916666666666665,0.21055555555555563,3.3988000000119243],[0.057083333333333285,0.16574074074074074,3.414600000023846],[0.08729166666666661,0.12111111111111107,3.431600000023856],[0.11854166666666661,0.07037037037037037,3.4491000000238543],[0.14979166666666663,0.01962962962962967,3.4643000000119244],[0.16635416666666672,-0.0007407407407406986,3.4796999999880924],[0.18291666666666656,-0.02111111111111107,3.495600000023849],[0.18114583333333342,-0.03037037037037033,3.51550000000001],[0.17937500000000003,-0.039629629629629584,3.5315000000000154],[0.15614583333333343,-0.01185185185185181,3.5475000000000065],[0.13697916666666668,0.009814814814814731,3.563300000011928],[0.09520833333333342,0.04888888888888885,3.580600000023857],[0.05343749999999995,0.08796296296296297,3.5968999999761664],[0.010520833333333358,0.13666666666666658,3.6118000000119324],[-0.03239583333333336,0.1853703703703704,3.6283999999761605],[-0.03239583333333336,0.1853703703703704,3.6451000000238523],[-0.06916666666666664,0.20333333333333325,3.6618000000119295],[-0.09697916666666669,0.23722222222222225,3.678399999976172],[-0.11375000000000005,0.27907407407407414,3.6951000000238494],[-0.13677083333333329,0.3333333333333333,3.716199999988085],[-0.13447916666666668,0.3472222222222222,3.731500000000004],[-0.13479166666666664,0.3537037037037037,3.745399999976165],[-0.13343750000000001,0.3472222222222222,3.7643999999761704],[-0.13343750000000001,0.3472222222222222,3.7815000000000154],[-0.1390625,0.34962962962962957,3.7998000000119347],[-0.1390625,0.34962962962962957,3.811800000011935],[-0.12947916666666662,0.3544444444444444,3.8283999999761633],[-0.1336458333333333,0.3685185185185185,3.8455000000000084],[-0.13187500000000002,0.3838888888888888,3.8618000000119324],[-0.12875000000000003,0.3705555555555556,3.8783999999761605],[-0.12562500000000001,0.35722222222222216,3.8956000000238546],[-0.14187500000000006,0.38259259259259265,3.9118000000119295],[-0.15812499999999996,0.40796296296296286,3.928399999976172],[-0.18343750000000003,0.43703703703703706,3.9451000000238494],[-0.20874999999999996,0.4661111111111112,3.9616999999880917],[-0.21437499999999995,0.5001851851851852,3.978399999976169],[-0.22916666666666666,0.5335185185185186,3.9963999999761697],[-0.22083333333333333,0.5385185185185184,4.011800000011924],[-0.22166666666666662,0.5618518518518518,4.028399999976166],[-0.2445833333333333,0.5949999999999999,4.045100000023858],[-0.26749999999999996,0.6281481481481482,4.061699999988086],[-0.2842708333333333,0.6325925925925926,4.078399999976163],[-0.29489583333333336,0.6242592592592593,4.095300000011925],[-0.2813541666666667,0.5998148148148148,4.111800000011932],[-0.2813541666666667,0.5998148148148148,4.1283999999761605],[-0.2678125,0.5753703703703704,4.145100000023852],[-0.26885416666666667,0.5464814814814816,4.1618000000119295],[-0.28791666666666665,0.5037037037037037,4.178399999976172],[-0.3163541666666667,0.4800000000000001,4.1963999999761725],[-0.34479166666666666,0.45629629629629626,4.211699999988092],[-0.32927083333333335,0.4477777777777777,4.232000000000006],[-0.29583333333333334,0.44648148148148153,4.250000000000007],[-0.29583333333333334,0.44648148148148153,4.261800000011924],[-0.24291666666666673,0.4227777777777777,4.27860000002385],[-0.196875,0.4007407407407407,4.298100000023844],[-0.17437499999999997,0.3848148148148147,4.311699999988086],[-0.15187499999999995,0.368888888888889,4.331399999976163],[-0.13791666666666663,0.3287037037037037,4.34519999998809],[-0.10593750000000005,0.30240740740740735,4.361800000011932],[-0.06072916666666662,0.3042592592592592,4.3783999999761605],[-0.06072916666666662,0.3042592592592592,4.395100000023852],[-0.01552083333333331,0.306111111111111,4.4118000000119295],[-0.008333333333333333,0.30925925925925923,4.428500000000007],[-0.018333333333333358,0.2983333333333334,4.4450000000000145],[-0.018333333333333358,0.2983333333333334,4.461899999976161],[-0.02833333333333338,0.2874074074074075,4.478399999976169],[-0.030520833333333285,0.2975925925925927,4.495100000023847],[-0.02958333333333331,0.3388888888888889,4.514699999988089],[-0.02958333333333331,0.3388888888888889,4.528399999976166],[-0.028645833333333332,0.3801851851851851,4.545100000023858],[-0.01583333333333338,0.40962962962962973,4.561800000011935],[0.020624999999999952,0.41203703703703703,4.578399999976163],[0.03708333333333336,0.3803703703703703,4.595100000023855],[0.05354166666666664,0.3487037037037036,4.611800000011932],[0.05,0.31962962962962965,4.62850000000001],[0.06895833333333339,0.31574074074074077,4.645000000000003],[0.06895833333333339,0.31574074074074077,4.6623999999761665],[0.08791666666666677,0.3118518518518518,4.678399999976172],[0.08958333333333333,0.28962962962962957,4.695100000023849],[0.09854166666666657,0.24296296296296305,4.711699999988092],[0.10750000000000005,0.1962962962962963,4.728500000000004],[0.10625,0.18944444444444436,4.745399999976165],[0.08135416666666657,0.20962962962962972,4.761699999988089],[0.06729166666666657,0.23537037037037042,4.778399999976166],[0.06729166666666657,0.23537037037037042,4.795100000023858],[0.05322916666666669,0.2611111111111111,4.81189999997617],[0.06312500000000003,0.2514814814814814,4.828300000011929],[0.06499999999999997,0.22444444444444453,4.845000000000006],[0.058854166666666666,0.19870370370370363,4.861800000011932],[0.058854166666666666,0.19870370370370363,4.8783999999761605],[0.05447916666666662,0.18092592592592602,4.895199999988087],[0.016458333333333287,0.19018518518518526,4.911699999988095],[-0.021562500000000047,0.19944444444444454,4.928399999976172],[-0.021562500000000047,0.19944444444444454,4.945100000023849],[-0.03343750000000002,0.20111111111111116,4.961699999988092],[-0.059687499999999956,0.2198148148148149,4.978300000011934],[-0.08489583333333334,0.23129629629629625,4.998100000023847],[-0.11281249999999995,0.23481481481481473,5.01360000002385],[-0.1388541666666666,0.25759259259259265,5.028399999976166],[-0.1686458333333333,0.28592592592592586,5.0475000000000065],[-0.1814583333333334,0.32518518518518524,5.062600000023856],[-0.1814583333333334,0.32518518518518524,5.0785000000000124],[-0.16354166666666667,0.31574074074074077,5.097699999988087],[-0.13718750000000005,0.3331481481481481,5.111899999976167],[-0.11083333333333331,0.35055555555555545,5.12850000000001],[-0.11083333333333331,0.35055555555555545,5.145399999976171],[-0.08781249999999995,0.318888888888889,5.164699999988095],[-0.057291666666666664,0.3322222222222222,5.179000000000009],[-0.03187500000000002,0.3531481481481482,5.195300000011933],[0.00635416666666669,0.33796296296296297,5.2173000000119245],[0.00635416666666669,0.33796296296296297,5.22919999998809],[0.04500000000000005,0.35185185185185186,5.24530000001193],[0.04500000000000005,0.35185185185185186,5.262000000000008],[0.06604166666666664,0.3551851851851851,5.282800000011925],[0.07822916666666657,0.3394444444444444,5.298399999976162],[0.07593750000000009,0.3677777777777778,5.313399999976163],[0.09541666666666657,0.35537037037037034,5.3285000000000124],[0.096875,0.33777777777777773,5.350199999988085],[0.096875,0.33777777777777773,5.361899999976167],[0.09645833333333324,0.3431481481481481,5.378699999988093],[0.10291666666666661,0.28648148148148156,5.399899999976164],[0.0984375,0.21444444444444435,5.416899999976174],[0.08385416666666666,0.18648148148148155,5.43280000001193],[0.07062499999999995,0.12537037037037047,5.447600000023847],[0.06354166666666666,0.06833333333333329,5.463000000000015],[0.04864583333333338,-0.013703703703703662,5.4833999999761645],[0.04864583333333338,-0.013703703703703662,5.49530000001193],[0.029895833333333382,-0.0764814814814815,5.511899999976173],[0.02822916666666669,-0.12925925925925927,5.528500000000015],[0.044270833333333336,-0.1646296296296296,5.549399999976167],[0.022395833333333334,-0.17685185185185184,5.565500000000007],[0.016666666666666666,-0.1742592592592593,5.5798999999761705],[0.021875,-0.15629629629629627,5.59819999998809],[0.03114583333333331,-0.13574074074074077,5.612600000023853],[0.03864583333333336,-0.1111111111111111,5.632100000023847],[0.044479166666666715,-0.08259259259259263,5.649000000000008],[0.04479166666666667,-0.05592592592592591,5.665000000000013],[0.04812500000000005,-0.0544444444444444,5.683300000011933],[0.04812500000000005,-0.0544444444444444,5.695100000023849],[0.034375,-0.06296296296296296,5.711699999988092],[0.011874999999999976,-0.06500000000000004,5.728399999976169],[0.017604166666666643,0.05222222222222231,5.745000000000012],[0.00791666666666669,0.059999999999999956,5.764100000023852],[-0.013125000000000024,0.13277777777777786,5.778300000011932],[-0.03822916666666672,0.202962962962963,5.795100000023858],[-0.06333333333333328,0.27314814814814814,5.811800000011935],[-0.06333333333333328,0.27314814814814814,5.8285000000000124],[-0.08333333333333333,0.2777777777777778,5.845000000000006],[-0.10968749999999995,0.3412962962962962,5.861899999976167],[-0.13697916666666668,0.39444444444444443,5.878300000011926],[-0.15583333333333335,0.41944444444444445,5.898199999988087],[-0.16937500000000003,0.40629629629629627,5.914100000023858],[-0.18541666666666667,0.2712962962962963,5.929699999988081],[-0.22260416666666671,0.22759259259259254,5.947699999988082],[-0.2107291666666666,0.1,5.964800000011927],[-0.20760416666666662,0.04407407407407399,5.980199999988095],[-0.20447916666666663,-0.01185185185185181,5.998399999976165],[-0.20656249999999995,-0.04407407407407399,6.011800000011924],[-0.1890625,-0.1014814814814815,6.028699999988085],[-0.18031250000000001,-0.15240740740740744,6.0451999999880925],[-0.17999999999999997,-0.17518518518518522,6.064800000011935],[-0.15520833333333334,-0.1933333333333333,6.080000000000005],[-0.1304166666666667,-0.21148148148148146,6.098300000011925],[-0.09614583333333329,-0.20907407407407402,6.115699999988088],[-0.09645833333333335,-0.19703703703703698,6.131399999976161],[-0.09031250000000005,-0.272037037037037,6.147100000023848],[-0.08416666666666663,-0.347037037037037,6.162899999976169],[-0.08510416666666672,-0.3290740740740741,6.1818000000119255],[-0.075,-0.3472222222222222,6.199399999976173],[-0.0655208333333333,-0.34870370370370374,6.214000000000006],[-0.05604166666666662,-0.3501851851851852,6.236500000000014],[-0.05604166666666662,-0.3501851851851852,6.245100000023847],[-0.059895833333333336,-0.33537037037037043,6.261800000011924],[-0.10531250000000002,-0.3490740740740741,6.27969999998809],[-0.1397916666666667,-0.38,6.300500000000007],[-0.1397916666666667,-0.38,6.311699999988086],[-0.17000000000000004,-0.3811111111111111,6.3285000000000124],[-0.16927083333333334,-0.36944444444444446,6.345000000000006],[-0.18010416666666665,-0.375,6.365100000023851],[-0.17520833333333338,-0.4477777777777778,6.3811000000238565],[-0.17520833333333338,-0.4477777777777778,6.395100000023852],[-0.18135416666666668,-0.4844444444444445,6.411699999988095],[-0.20354166666666665,-0.45759259259259266,6.428399999976172],[-0.2125,-0.4227777777777778,6.448600000023852],[-0.24385416666666668,-0.3972222222222222,6.464300000011924],[-0.19249999999999995,-0.35611111111111116,6.478699999988088],[-0.1564583333333334,-0.3164814814814814,6.495000000000012],[-0.1373958333333333,-0.3001851851851852,6.515399999976161],[-0.1469791666666667,-0.28129629629629627,6.530800000011929],[-0.1171875,-0.25203703703703706,6.5451999999880925],[-0.09583333333333334,-0.20611111111111113,6.561699999988086],[-0.09312499999999997,-0.17092592592592595,6.58210000002385],[-0.09312499999999997,-0.17092592592592595,6.595100000023855],[-0.07104166666666671,-0.20111111111111116,6.611699999988083],[-0.05645833333333338,-0.2448148148148148,6.6283999999761605],[-0.02687499999999995,-0.2807407407407408,6.650699999988085],[-0.02687499999999995,-0.2807407407407408,6.661899999976164],[-0.004166666666666667,-0.3316666666666667,6.678399999976172],[0.025,-0.35759259259259263,6.695399999976168]]","[0.0001999999880837322,0.03739999997615939,0.04650000000000887,0.06169999998807896,0.07839999997615621,0.0951999999880826,0.11180000001192525,0.12839999997615337,0.14510000002384515,0.16599999999999682,0.18089999997616246,0.19589999997616303,0.21180000001191956,0.22860000002384595,0.24519999998807407,0.26189999997616553,0.2785000000000082,0.29530000001192036,0.3118000000119281,0.3283999999761562,0.345100000023848,0.362000000000009,0.3785000000000025,0.39519999998807975,0.4118000000119224,0.42849999999999966,0.4451000000238423,0.46189999997615416,0.4784999999999968,0.4953000000119232,0.5118999999761655,0.528399999976159,0.545399999976155,0.5618000000119281,0.5785000000000053,0.5951999999880826,0.6118000000119252,0.6283999999761534,0.6479999999999961,0.6623999999761594,0.6783999999761647,0.6951000000238423,0.7148000000119197,0.7283999999761619,0.7451000000238395,0.7618000000119167,0.778399999976159,0.7953000000119204,0.8118000000119281,0.8283999999761562,0.8453000000119175,0.8618000000119252,0.8783999999761534,0.8965000000000032,0.9118000000119224,0.9284999999999997,0.9451999999880769,0.9618000000119196,0.9784999999999968,0.9953000000119232,1.0118000000119167,1.028399999976159,1.0453000000119204,1.061800000011928,1.0783999999761562,1.097199999988078,1.1118000000119252,1.1285000000000025,1.1451000000238452,1.161899999976157,1.1786999999880834,1.196100000023847,1.2118000000119196,1.2318000000119298,1.245199999988074,1.2620000000000005,1.2785000000000082,1.2981000000238367,1.311699999988079,1.3313000000119217,1.3451999999880826,1.3618000000119252,1.3785000000000025,1.3951999999880798,1.4118000000119224,1.4284999999999997,1.4451000000238423,1.4648999999761543,1.4788000000119297,1.4964999999999975,1.5118000000119167,1.528600000023843,1.5451000000238508,1.561800000011928,1.5785000000000053,1.5951999999880826,1.6118000000119252,1.6285000000000025,1.6451000000238452,1.6671999999880853,1.6809999999999974,1.6978000000119238,1.7118999999761542,1.7284999999999968,1.7453000000119232,1.7618999999761655,1.7785000000000082,1.7951999999880854,1.811800000011928,1.8285000000000053,1.845100000023848,1.8618999999761598,1.8798999999761605,1.8965000000000032,1.9118000000119224,1.9286000000238488,1.9451000000238423,1.9618999999761542,1.9784999999999968,1.995199999988074,2.0158000000119216,2.031000000000006,2.0451999999880854,2.061800000011928,2.0951999999880826,2.1118000000119252,2.1285000000000025,2.1451999999880798,2.1618000000119224,2.1784999999999997,2.195199999988077,2.211899999976154,2.245199999988074,2.2651999999880843,2.278500000000008,2.295100000023851,2.311699999988079,2.328399999976156,2.350300000011927,2.3643999999761576,2.3786000000238374,2.396800000011922,2.4138999999761666,2.430800000011928,2.445300000011926,2.4616999999880846,2.4786999999880805,2.495300000011923,2.5118000000119167,2.528399999976159,2.5453000000119204,2.5619999999999976,2.578399999976156,2.595100000023848,2.6121999999880785,2.631300000011919,2.6456000000238475,2.662699999988078,2.68339999997616,2.695899999976163,2.7118000000119196,2.729899999976155,2.745300000011923,2.7618000000119167,2.778399999976159,2.795100000023851,2.811800000011928,2.83060000002385,2.845100000023848,2.8618000000119252,2.8783999999761534,2.8951999999880798,2.9116999999880875,2.9284999999999997,2.9451000000238423,2.9618000000119196,2.978399999976162,2.9963999999761626,3.011699999988082,3.028600000023843,3.045100000023851,3.061800000011928,3.0786000000238403,3.1000000000000156,3.115100000023851,3.1296000000238493,3.1451000000238523,3.161899999976164,3.1785000000000068,3.195199999988084,3.2118000000119267,3.2351000000238557,3.2466000000238537,3.261800000011924,3.2821000000238527,3.298399999976162,3.313500000000012,3.3285000000000124,3.345100000023855,3.3618000000119324,3.3823999999761654,3.3988000000119243,3.414600000023846,3.431600000023856,3.4491000000238543,3.4643000000119244,3.4796999999880924,3.495600000023849,3.51550000000001,3.5315000000000154,3.5475000000000065,3.563300000011928,3.580600000023857,3.5968999999761664,3.6118000000119324,3.6283999999761605,3.6451000000238523,3.6618000000119295,3.678399999976172,3.6951000000238494,3.716199999988085,3.731500000000004,3.745399999976165,3.7643999999761704,3.7815000000000154,3.7998000000119347,3.811800000011935,3.8283999999761633,3.8455000000000084,3.8618000000119324,3.8783999999761605,3.8956000000238546,3.9118000000119295,3.928399999976172,3.9451000000238494,3.9616999999880917,3.978399999976169,3.9963999999761697,4.011800000011924,4.028399999976166,4.045100000023858,4.061699999988086,4.078399999976163,4.095300000011925,4.111800000011932,4.1283999999761605,4.145100000023852,4.1618000000119295,4.178399999976172,4.1963999999761725,4.211699999988092,4.232000000000006,4.250000000000007,4.261800000011924,4.27860000002385,4.298100000023844,4.311699999988086,4.331399999976163,4.34519999998809,4.361800000011932,4.3783999999761605,4.395100000023852,4.4118000000119295,4.428500000000007,4.4450000000000145,4.461899999976161,4.478399999976169,4.495100000023847,4.514699999988089,4.528399999976166,4.545100000023858,4.561800000011935,4.578399999976163,4.595100000023855,4.611800000011932,4.62850000000001,4.645000000000003,4.6623999999761665,4.678399999976172,4.695100000023849,4.711699999988092,4.728500000000004,4.745399999976165,4.761699999988089,4.778399999976166,4.795100000023858,4.81189999997617,4.828300000011929,4.845000000000006,4.861800000011932,4.8783999999761605,4.895199999988087,4.911699999988095,4.928399999976172,4.945100000023849,4.961699999988092,4.978300000011934,4.998100000023847,5.01360000002385,5.028399999976166,5.0475000000000065,5.062600000023856,5.0785000000000124,5.097699999988087,5.111899999976167,5.12850000000001,5.145399999976171,5.164699999988095,5.179000000000009,5.195300000011933,5.2173000000119245,5.22919999998809,5.24530000001193,5.262000000000008,5.282800000011925,5.298399999976162,5.313399999976163,5.3285000000000124,5.350199999988085,5.361899999976167,5.378699999988093,5.399899999976164,5.416899999976174,5.43280000001193,5.447600000023847,5.463000000000015,5.4833999999761645,5.49530000001193,5.511899999976173,5.528500000000015,5.549399999976167,5.565500000000007,5.5798999999761705,5.59819999998809,5.612600000023853,5.632100000023847,5.649000000000008,5.665000000000013,5.683300000011933,5.695100000023849,5.711699999988092,5.728399999976169,5.745000000000012,5.764100000023852,5.778300000011932,5.795100000023858,5.811800000011935,5.8285000000000124,5.845000000000006,5.861899999976167,5.878300000011926,5.898199999988087,5.914100000023858,5.929699999988081,5.947699999988082,5.964800000011927,5.980199999988095,5.998399999976165,6.011800000011924,6.028699999988085,6.0451999999880925,6.064800000011935,6.080000000000005,6.098300000011925,6.115699999988088,6.131399999976161,6.147100000023848,6.162899999976169,6.1818000000119255,6.199399999976173,6.214000000000006,6.236500000000014,6.245100000023847,6.261800000011924,6.27969999998809,6.300500000000007,6.311699999988086,6.3285000000000124,6.345000000000006,6.365100000023851,6.3811000000238565,6.395100000023852,6.411699999988095,6.428399999976172,6.448600000023852,6.464300000011924,6.478699999988088,6.495000000000012,6.515399999976161,6.530800000011929,6.5451999999880925,6.561699999988086,6.58210000002385,6.595100000023855,6.611699999988083,6.6283999999761605,6.650699999988085,6.661899999976164,6.678399999976172,6.695399999976168]","[1732877102234,1732877102263,1732877102272,1732877102288,1732877102304,1732877102321,1732877102338,1732877102354,1732877102371,1732877102392,1732877102407,1732877102422,1732877102438,1732877102454,1732877102471,1732877102488,1732877102504,1732877102521,1732877102538,1732877102554,1732877102571,1732877102588,1732877102604,1732877102621,1732877102638,1732877102655,1732877102671,1732877102688,1732877102704,1732877102721,1732877102738,1732877102754,1732877102771,1732877102788,1732877102804,1732877102821,1732877102838,1732877102854,1732877102874,1732877102888,1732877102904,1732877102921,1732877102941,1732877102954,1732877102971,1732877102988,1732877103004,1732877103021,1732877103038,1732877103054,1732877103071,1732877103088,1732877103104,1732877103122,1732877103138,1732877103154,1732877103171,1732877103188,1732877103204,1732877103221,1732877103238,1732877103254,1732877103271,1732877103288,1732877103304,1732877103323,1732877103338,1732877103354,1732877103371,1732877103388,1732877103405,1732877103422,1732877103438,1732877103458,1732877103471,1732877103488,1732877103504,1732877103524,1732877103538,1732877103557,1732877103571,1732877103588,1732877103604,1732877103621,1732877103638,1732877103654,1732877103671,1732877103691,1732877103705,1732877103722,1732877103738,1732877103754,1732877103771,1732877103788,1732877103804,1732877103821,1732877103838,1732877103854,1732877103871,1732877103893,1732877103907,1732877103924,1732877103938,1732877103954,1732877103971,1732877103988,1732877104004,1732877104021,1732877104038,1732877104054,1732877104071,1732877104088,1732877104106,1732877104122,1732877104138,1732877104155,1732877104171,1732877104188,1732877104204,1732877104221,1732877104242,1732877104257,1732877104271,1732877104288,1732877104321,1732877104338,1732877104354,1732877104371,1732877104388,1732877104404,1732877104421,1732877104438,1732877104471,1732877104491,1732877104504,1732877104521,1732877104538,1732877104554,1732877104576,1732877104590,1732877104605,1732877104623,1732877104640,1732877104657,1732877104671,1732877104688,1732877104705,1732877104721,1732877104738,1732877104754,1732877104771,1732877104788,1732877104804,1732877104821,1732877104838,1732877104857,1732877104872,1732877104889,1732877104909,1732877104922,1732877104938,1732877104956,1732877104971,1732877104988,1732877105004,1732877105021,1732877105038,1732877105057,1732877105071,1732877105088,1732877105104,1732877105121,1732877105138,1732877105154,1732877105171,1732877105188,1732877105204,1732877105222,1732877105238,1732877105254,1732877105271,1732877105288,1732877105305,1732877105326,1732877105341,1732877105356,1732877105371,1732877105388,1732877105404,1732877105421,1732877105438,1732877105461,1732877105472,1732877105488,1732877105508,1732877105524,1732877105539,1732877105554,1732877105571,1732877105588,1732877105608,1732877105625,1732877105641,1732877105657,1732877105675,1732877105690,1732877105706,1732877105722,1732877105741,1732877105757,1732877105773,1732877105789,1732877105807,1732877105823,1732877105838,1732877105854,1732877105871,1732877105888,1732877105904,1732877105921,1732877105942,1732877105957,1732877105971,1732877105990,1732877106007,1732877106026,1732877106038,1732877106054,1732877106071,1732877106088,1732877106104,1732877106122,1732877106138,1732877106154,1732877106171,1732877106188,1732877106204,1732877106222,1732877106238,1732877106254,1732877106271,1732877106288,1732877106304,1732877106321,1732877106338,1732877106354,1732877106371,1732877106388,1732877106404,1732877106422,1732877106438,1732877106458,1732877106476,1732877106488,1732877106505,1732877106524,1732877106538,1732877106557,1732877106571,1732877106588,1732877106604,1732877106621,1732877106638,1732877106654,1732877106671,1732877106688,1732877106704,1732877106721,1732877106741,1732877106754,1732877106771,1732877106788,1732877106804,1732877106821,1732877106838,1732877106854,1732877106871,1732877106888,1732877106904,1732877106921,1732877106938,1732877106954,1732877106971,1732877106988,1732877107004,1732877107021,1732877107038,1732877107054,1732877107071,1732877107088,1732877107104,1732877107121,1732877107138,1732877107154,1732877107171,1732877107188,1732877107204,1732877107224,1732877107239,1732877107254,1732877107273,1732877107288,1732877107304,1732877107324,1732877107338,1732877107354,1732877107371,1732877107391,1732877107405,1732877107421,1732877107443,1732877107455,1732877107471,1732877107488,1732877107509,1732877107524,1732877107539,1732877107554,1732877107576,1732877107588,1732877107605,1732877107626,1732877107643,1732877107659,1732877107674,1732877107689,1732877107709,1732877107721,1732877107738,1732877107754,1732877107775,1732877107791,1732877107806,1732877107824,1732877107838,1732877107858,1732877107875,1732877107891,1732877107909,1732877107921,1732877107938,1732877107954,1732877107971,1732877107990,1732877108004,1732877108021,1732877108038,1732877108054,1732877108071,1732877108088,1732877108104,1732877108124,1732877108140,1732877108156,1732877108174,1732877108191,1732877108206,1732877108224,1732877108238,1732877108255,1732877108271,1732877108291,1732877108306,1732877108324,1732877108342,1732877108357,1732877108373,1732877108389,1732877108408,1732877108425,1732877108440,1732877108462,1732877108471,1732877108488,1732877108506,1732877108526,1732877108538,1732877108554,1732877108571,1732877108591,1732877108607,1732877108621,1732877108638,1732877108654,1732877108674,1732877108690,1732877108705,1732877108721,1732877108741,1732877108757,1732877108771,1732877108788,1732877108808,1732877108821,1732877108838,1732877108854,1732877108877,1732877108888,1732877108904,1732877108921]","[[765.2,773.4],[765.2,773.4],[767.8,763.7],[767.8,763.7],[761.7,748],[761.7,748],[770.5,747.5],[781.1,752.6],[800.8,748.7],[811.8,740.1],[816.3,739.4],[819.1,745.1],[812.1,754],[812.1,754],[823,756.3],[823,756.3],[844,758.7],[872.9,755.6],[892.4,750.6],[898.1,734.3],[913.5,731.5],[924,732.7],[940,722.8],[940,722.8],[956,712.9],[970.5,699.3],[970.5,699.3],[980,692.1],[981.5,688.5],[981.5,688.5],[975.1,690.4],[981.6,690],[996.7,690.2],[993,685.9],[993,685.9],[1002.3,686.7],[1008.8,679.3],[1012.6,676.5],[1020.6,677.7],[1043,665.5],[1061,638],[1078.4,614.7],[1073.9,593.6],[1077.3,572.9],[1086.8,546.7],[1088.2,511.4],[1083.1,493.2],[1080.7,470.4],[1083.9,444.4],[1086.3,422.4],[1069.7,411.8],[1050.1,399.1],[1054.4,397.9],[1051.6,400.9],[1036.2,406.7],[1027.4,422.9],[1029.5,419.6],[1024.6,436.5],[1016.3,432.3],[1016.3,432.3],[1001.2,433.3],[1003.3,437.8],[996.2,451.6],[986.6,449],[955.3,456.7],[930.5,467.1],[886.2,460.7],[854.6,463.7],[835.1,454.5],[810.7,469.3],[771.6,489.9],[731.2,511.1],[711.6,515.2],[688.7,522.8],[688.7,522.8],[682.6,531.9],[686.1,533.5],[702.5,541.5],[706.9,552.3],[706.2,555.1],[692.8,578.2],[694.1,595.5],[709.1,581.6],[709.1,581.6],[716.1,573.4],[725.5,578.7],[739.8,572.2],[740.8,576.2],[748,574.1],[753.9,573.6],[771,566.5],[771,566.5],[800.8,539.1],[820.4,508.5],[835.4,514],[835.4,514],[850.4,519.5],[858.3,512.7],[875.6,504.4],[896.6,493.1],[905.5,491.7],[922.5,480],[909,490.9],[903.7,499.1],[903.9,514.4],[895,524.8],[883.8,519],[887.9,511.9],[882.6,506.3],[865.3,510.2],[849.1,506.8],[823.1,505.4],[805.8,498.3],[780.3,493.9],[753.1,477.8],[743.3,460.2],[743.3,460.2],[740.9,464.5],[710,474.9],[692.3,486.2],[678.6,483.1],[683.6,483.5],[686.9,493.2],[719.4,494.7],[723.4,492.2],[757,490.9],[773.2,491.1],[773.2,491.1],[780.7,490.6],[802.6,484.5],[811.3,477.5],[828,475.4],[827.2,474.2],[823.9,469.5],[823.9,469.5],[803.2,476.2],[804.6,480.9],[782.8,492.2],[745.7,492.1],[712.2,487],[676.8,492.1],[641.4,497.2],[607.5,512.6],[577.2,527.1],[545.1,537.9],[511.8,535.2],[494.2,540.6],[494.2,540.6],[476.6,546],[476.3,554.3],[479.7,558.4],[480.9,558.3],[488.7,546.9],[498.2,518.9],[507.7,490.9],[527.6,492.5],[591.9,531.7],[644.5,568.9],[753.7,632.6],[753.7,632.6],[864.3,702.5],[968.6,774.8],[1056.7,819.5],[1056.7,819.5],[1138.2,875.5],[1183.2,929.3],[1216,978.8],[1246.1,1004.9],[1214.6,980.4],[1214.6,980.4],[1185.5,955.8],[1185.5,955.8],[1087.6,897.7],[992.1,839],[907.2,791.5],[907.2,791.5],[846.1,765.2],[785.4,728.4],[758,700.1],[758,700.1],[739.3,680.2],[712.4,661.5],[709.3,660.5],[690.5,663.3],[704.7,666.8],[713.1,673.2],[733.5,672.3],[753.9,671.4],[777.4,687.4],[800.9,703.4],[819.4,716.6],[846.1,728.6],[846.1,728.6],[870,735.8],[903.9,736.4],[917,743.3],[941.4,739.8],[945.8,734.2],[957.2,718.3],[965.1,696],[969.3,675.5],[982,653.7],[1014.8,629.5],[1043.8,605.4],[1073.8,578],[1103.8,550.6],[1119.7,539.6],[1135.6,528.6],[1133.9,523.6],[1132.2,518.6],[1109.9,533.6],[1091.5,545.3],[1051.4,566.4],[1011.3,587.5],[970.1,613.8],[928.9,640.1],[928.9,640.1],[893.6,649.8],[866.9,668.1],[850.8,690.7],[828.7,720],[830.9,727.5],[830.6,731],[831.9,727.5],[831.9,727.5],[826.5,728.8],[826.5,728.8],[835.7,731.4],[831.7,739],[833.4,747.3],[836.4,740.1],[839.4,732.9],[823.8,746.6],[808.2,760.3],[783.9,776],[759.6,791.7],[754.2,810.1],[740,828.1],[748,830.8],[747.2,843.4],[725.2,861.3],[703.2,879.2],[687.1,881.6],[676.9,877.1],[689.9,863.9],[689.9,863.9],[702.9,850.7],[701.9,835.1],[683.6,812],[656.3,799.2],[629,786.4],[643.9,781.8],[676,781.1],[676,781.1],[726.8,768.3],[771,756.4],[792.6,747.8],[814.2,739.2],[827.6,717.5],[858.3,703.3],[901.7,704.3],[901.7,704.3],[945.1,705.3],[952,707],[942.4,701.1],[942.4,701.1],[932.8,695.2],[930.7,700.7],[931.6,723],[931.6,723],[932.5,745.3],[944.8,761.2],[979.8,762.5],[995.6,745.4],[1011.4,728.3],[1008,712.6],[1026.2,710.5],[1026.2,710.5],[1044.4,708.4],[1046,696.4],[1054.6,671.2],[1063.2,646],[1062,642.3],[1038.1,653.2],[1024.6,667.1],[1024.6,667.1],[1011.1,681],[1020.6,675.8],[1022.4,661.2],[1016.5,647.3],[1016.5,647.3],[1012.3,637.7],[975.8,642.7],[939.3,647.7],[939.3,647.7],[927.9,648.6],[902.7,658.7],[878.5,664.9],[851.7,666.8],[826.7,679.1],[798.1,694.4],[785.8,715.6],[785.8,715.6],[803,710.5],[828.3,719.9],[853.6,729.3],[853.6,729.3],[875.7,712.2],[905,719.4],[929.4,730.7],[966.1,722.5],[966.1,722.5],[1003.2,730],[1003.2,730],[1023.4,731.8],[1035.1,723.3],[1032.9,738.6],[1051.6,731.9],[1053,722.4],[1053,722.4],[1052.6,725.3],[1058.8,694.7],[1054.5,655.8],[1040.5,640.7],[1027.8,607.7],[1021,576.9],[1006.7,532.6],[1006.7,532.6],[988.7,498.7],[987.1,470.2],[1002.5,451.1],[981.5,444.5],[976,445.9],[981,455.6],[989.9,466.7],[997.1,480],[1002.7,495.4],[1003,509.8],[1006.2,510.6],[1006.2,510.6],[993,506],[971.4,504.9],[976.9,568.2],[967.6,572.4],[947.4,611.7],[923.3,649.6],[899.2,687.5],[899.2,687.5],[880,690],[854.7,724.3],[828.5,753],[810.4,766.5],[797.4,759.4],[782,686.5],[746.3,662.9],[757.7,594],[760.7,563.8],[763.7,533.6],[761.7,516.2],[778.5,485.2],[786.9,457.7],[787.2,445.4],[811,435.6],[834.8,425.8],[867.7,427.1],[867.4,433.6],[873.3,393.1],[879.2,352.6],[878.3,362.3],[888,352.5],[897.1,351.7],[906.2,350.9],[906.2,350.9],[902.5,358.9],[858.9,351.5],[825.8,334.8],[825.8,334.8],[796.8,334.2],[797.5,340.5],[787.1,337.5],[791.8,298.2],[791.8,298.2],[785.9,278.4],[764.6,292.9],[756,311.7],[725.9,325.5],[775.2,347.7],[809.8,369.1],[828.1,377.9],[818.9,388.1],[847.5,403.9],[868,428.7],[870.6,447.7],[870.6,447.7],[891.8,431.4],[905.8,407.8],[934.2,388.4],[934.2,388.4],[956,360.9],[984,346.9]]","[0,0.5333]","[0.5333,0.5333]","[-0.5333,-0.5333]","[-0.5333,0]","[0,-0.5333]","[0.5333,-0.5333]","[0,0]","[0.5333,0]",0,0,0,0,1,3,Monitor,11,9,9,1
