inst1_resp.keys,inst1_resp.rt,calibrationMouse.x,calibrationMouse.y,calibrationMouse.leftButton,calibrationMouse.midButton,calibrationMouse.rightButton,calibrationClick.x,calibrationClick.y,calibrationClick.leftButton,calibrationClick.midButton,calibrationClick.rightButton,calibrationClick.clicked_name,trialsc.thisRepN,trialsc.thisTrialN,trialsc.thisN,trialsc.thisIndex,trialsc.ran,calibration_x,calibration_y,participant,session,date,expName,psychopyVersion,OS,frameRate,ScreenRes_pixels,Camera_pixels,mouse_2.x,mouse_2.y,mouse_2.leftButton,mouse_2.midButton,mouse_2.rightButton,mouse_2.time,mouse_2.clicked_name,mouse.x,mouse.y,mouse.leftButton,mouse.midButton,mouse.rightButton,mouse.time,mouse.clicked_name,Choice,Trial,TrialDuration,MOUSE_GAZE,ET_GAZE,ET_GAZE_x_T,time,unixTime,ET_GAZE_NF,Loc_Option1_label,Loc_Option2_label,Loc_Cost_label,Loc_Qual_label,Loc_Option1_cost,Loc_Option2_cost,Loc_Option1_quality,Loc_Option2_quality,trials.thisRepN,trials.thisTrialN,trials.thisN,trials.thisIndex,trials.ran,Block,Device,cost1,qual1,cost2,qual2
space,1.3488,0.15,0.057407407,1,0,0,0.003125,-0.007407407,1,0,0,calibration_square,0,0,0,11,1,0,0,38,001,2024-11-30_11h48.02.466,Attention_exp_legacy,2023.1.0,Win32,59.88023952,,,,,,,,,,,,,,,,,,,,,,,,,,,,,,,,,,,,,,,,,,,,
,,,,,,,-0.002083333,-0.309259259,1,0,0,,0,1,1,10,1,0,-0.33,38,001,2024-11-30_11h48.02.466,Attention_exp_legacy,2023.1.0,Win32,59.88023952,,,,,,,,,,,,,,,,,,,,,,,,,,,,,,,,,,,,,,,,,,,,
,,,,,,,-0.332291667,0.324074074,1,0,0,calibration_square,0,2,2,7,1,-0.33,0.33,38,001,2024-11-30_11h48.02.466,Attention_exp_legacy,2023.1.0,Win32,59.88023952,,,,,,,,,,,,,,,,,,,,,,,,,,,,,,,,,,,,,,,,,,,,
,,,,,,,-0.660416667,-0.664814815,1,0,0,calibration_square,0,3,3,0,1,-0.67,-0.67,38,001,2024-11-30_11h48.02.466,Attention_exp_legacy,2023.1.0,Win32,59.88023952,,,,,,,,,,,,,,,,,,,,,,,,,,,,,,,,,,,,,,,,,,,,
,,,,,,,-0.680208333,-0.327777778,1,0,0,,0,4,4,1,1,-0.67,-0.33,38,001,2024-11-30_11h48.02.466,Attention_exp_legacy,2023.1.0,Win32,59.88023952,,,,,,,,,,,,,,,,,,,,,,,,,,,,,,,,,,,,,,,,,,,,
,,,,,,,-0.673958333,0.003703704,1,0,0,calibration_square,0,5,5,2,1,-0.67,0,38,001,2024-11-30_11h48.02.466,Attention_exp_legacy,2023.1.0,Win32,59.88023952,,,,,,,,,,,,,,,,,,,,,,,,,,,,,,,,,,,,,,,,,,,,
,,,,,,,-0.00625,-0.666666667,1,0,0,calibration_square,0,6,6,9,1,0,-0.67,38,001,2024-11-30_11h48.02.466,Attention_exp_legacy,2023.1.0,Win32,59.88023952,,,,,,,,,,,,,,,,,,,,,,,,,,,,,,,,,,,,,,,,,,,,
,,,,,,,0.336458333,0.674074074,1,0,0,calibration_square,0,7,7,18,1,0.33,0.67,38,001,2024-11-30_11h48.02.466,Attention_exp_legacy,2023.1.0,Win32,59.88023952,,,,,,,,,,,,,,,,,,,,,,,,,,,,,,,,,,,,,,,,,,,,
,,,,,,,-0.334375,-0.662962963,1,0,0,calibration_square,0,8,8,4,1,-0.33,-0.67,38,001,2024-11-30_11h48.02.466,Attention_exp_legacy,2023.1.0,Win32,59.88023952,,,,,,,,,,,,,,,,,,,,,,,,,,,,,,,,,,,,,,,,,,,,
,,,,,,,-0.002083333,0.668518519,1,0,0,calibration_square,0,9,9,13,1,0,0.67,38,001,2024-11-30_11h48.02.466,Attention_exp_legacy,2023.1.0,Win32,59.88023952,,,,,,,,,,,,,,,,,,,,,,,,,,,,,,,,,,,,,,,,,,,,
,,,,,,,0.33125,-0.32962963,1,0,0,calibration_square,0,10,10,15,1,0.33,-0.33,38,001,2024-11-30_11h48.02.466,Attention_exp_legacy,2023.1.0,Win32,59.88023952,,,,,,,,,,,,,,,,,,,,,,,,,,,,,,,,,,,,,,,,,,,,
,,,,,,,0.010416667,0.318518519,1,0,0,,0,11,11,12,1,0,0.33,38,001,2024-11-30_11h48.02.466,Attention_exp_legacy,2023.1.0,Win32,59.88023952,,,,,,,,,,,,,,,,,,,,,,,,,,,,,,,,,,,,,,,,,,,,
,,,,,,,-0.6625,0.327777778,1,0,0,calibration_square,0,12,12,3,1,-0.67,0.33,38,001,2024-11-30_11h48.02.466,Attention_exp_legacy,2023.1.0,Win32,59.88023952,,,,,,,,,,,,,,,,,,,,,,,,,,,,,,,,,,,,,,,,,,,,
,,,,,,,-0.339583333,0.005555556,1,0,0,calibration_square,0,13,13,6,1,-0.33,0,38,001,2024-11-30_11h48.02.466,Attention_exp_legacy,2023.1.0,Win32,59.88023952,,,,,,,,,,,,,,,,,,,,,,,,,,,,,,,,,,,,,,,,,,,,
,,,,,,,0.327083333,0.325925926,1,0,0,calibration_square,0,14,14,17,1,0.33,0.33,38,001,2024-11-30_11h48.02.466,Attention_exp_legacy,2023.1.0,Win32,59.88023952,,,,,,,,,,,,,,,,,,,,,,,,,,,,,,,,,,,,,,,,,,,,
,,,,,,,0.328125,-0.001851852,1,0,0,calibration_square,0,15,15,16,1,0.33,0,38,001,2024-11-30_11h48.02.466,Attention_exp_legacy,2023.1.0,Win32,59.88023952,,,,,,,,,,,,,,,,,,,,,,,,,,,,,,,,,,,,,,,,,,,,
,,,,,,,0.661458333,-0.674074074,1,0,0,calibration_square,0,16,16,20,1,0.67,-0.67,38,001,2024-11-30_11h48.02.466,Attention_exp_legacy,2023.1.0,Win32,59.88023952,,,,,,,,,,,,,,,,,,,,,,,,,,,,,,,,,,,,,,,,,,,,
,,,,,,,-0.333333333,0.685185185,1,0,0,,0,17,17,8,1,-0.33,0.67,38,001,2024-11-30_11h48.02.466,Attention_exp_legacy,2023.1.0,Win32,59.88023952,,,,,,,,,,,,,,,,,,,,,,,,,,,,,,,,,,,,,,,,,,,,
,,,,,,,0.66875,0.666666667,1,0,0,calibration_square,0,18,18,19,1,0.67,0.67,38,001,2024-11-30_11h48.02.466,Attention_exp_legacy,2023.1.0,Win32,59.88023952,,,,,,,,,,,,,,,,,,,,,,,,,,,,,,,,,,,,,,,,,,,,
,,,,,,,-0.334375,-0.32962963,1,0,0,calibration_square,0,19,19,5,1,-0.33,-0.33,38,001,2024-11-30_11h48.02.466,Attention_exp_legacy,2023.1.0,Win32,59.88023952,,,,,,,,,,,,,,,,,,,,,,,,,,,,,,,,,,,,,,,,,,,,
,,,,,,,0.3375,-0.662962963,1,0,0,calibration_square,0,20,20,14,1,0.33,-0.67,38,001,2024-11-30_11h48.02.466,Attention_exp_legacy,2023.1.0,Win32,59.88023952,,,,,,,,,,,,,,,,,,,,,,,,,,,,,,,,,,,,,,,,,,,,
,,,,,,,,,,,,,,,,,,,,38,001,2024-11-30_11h48.02.466,Attention_exp_legacy,2023.1.0,Win32,59.88023952,"[1920,1080]","[640,480]",[0.05520833333333333],[-0.5018518518518519],[1],[0],[0],[1.8474999999999966],"[""StartButton""]",[0.40625],[0.4759259259259259],[1],[0],[0],[4.131700000047687],"[""Option2_label""]",Option2_label,1,5.1617,"[[0.03958333333333333,0.001851851851851852],[0.03229166666666667,-0.022222222222222223],[0.03125,-0.025925925925925925],[0.03125,-0.025925925925925925],[0.030208333333333334,-0.02962962962962963],[0.030208333333333334,-0.03333333333333333],[0.030208333333333334,-0.03518518518518519],[0.028125,-0.040740740740740744],[0.028125,-0.04259259259259259],[0.027083333333333334,-0.044444444444444446],[0.027083333333333334,-0.046296296296296294],[0.027083333333333334,-0.046296296296296294],[0.027083333333333334,-0.046296296296296294],[0.026041666666666668,-0.046296296296296294],[0.025,-0.04814814814814815],[0.025,-0.04814814814814815],[0.023958333333333335,-0.05],[0.023958333333333335,-0.05185185185185185],[0.023958333333333335,-0.053703703703703705],[0.022916666666666665,-0.05555555555555555],[0.022916666666666665,-0.05555555555555555],[0.022916666666666665,-0.05555555555555555],[0.022916666666666665,-0.05555555555555555],[0.022916666666666665,-0.05555555555555555],[0.022916666666666665,-0.05555555555555555],[0.022916666666666665,-0.05555555555555555],[0.022916666666666665,-0.05555555555555555],[0.022916666666666665,-0.05555555555555555],[0.022916666666666665,-0.05555555555555555],[0.022916666666666665,-0.05555555555555555],[0.022916666666666665,-0.05555555555555555],[0.022916666666666665,-0.05555555555555555],[0.022916666666666665,-0.05555555555555555],[0.022916666666666665,-0.05555555555555555],[0.022916666666666665,-0.05555555555555555],[0.022916666666666665,-0.05555555555555555],[0.022916666666666665,-0.05555555555555555],[0.022916666666666665,-0.05555555555555555],[0.022916666666666665,-0.05555555555555555],[0.022916666666666665,-0.05555555555555555],[0.022916666666666665,-0.05555555555555555],[0.022916666666666665,-0.05555555555555555],[0.022916666666666665,-0.05555555555555555],[0.022916666666666665,-0.05555555555555555],[0.022916666666666665,-0.05555555555555555],[0.022916666666666665,-0.05555555555555555],[0.022916666666666665,-0.05555555555555555],[0.022916666666666665,-0.05555555555555555],[0.022916666666666665,-0.05555555555555555],[0.022916666666666665,-0.05555555555555555],[0.022916666666666665,-0.05555555555555555],[0.022916666666666665,-0.05555555555555555],[0.022916666666666665,-0.05555555555555555],[0.022916666666666665,-0.05555555555555555],[0.022916666666666665,-0.05555555555555555],[0.022916666666666665,-0.05555555555555555],[0.022916666666666665,-0.05555555555555555],[0.022916666666666665,-0.05555555555555555],[0.022916666666666665,-0.05555555555555555],[0.022916666666666665,-0.05555555555555555],[0.022916666666666665,-0.05555555555555555],[0.022916666666666665,-0.05555555555555555],[0.022916666666666665,-0.05555555555555555],[0.022916666666666665,-0.05555555555555555],[0.022916666666666665,-0.05555555555555555],[0.022916666666666665,-0.05555555555555555],[0.022916666666666665,-0.05555555555555555],[0.022916666666666665,-0.05555555555555555],[0.022916666666666665,-0.05555555555555555],[0.022916666666666665,-0.05555555555555555],[0.022916666666666665,-0.05555555555555555],[0.022916666666666665,-0.05555555555555555],[0.022916666666666665,-0.05555555555555555],[0.022916666666666665,-0.05555555555555555],[0.022916666666666665,-0.05555555555555555],[0.022916666666666665,-0.05555555555555555],[0.022916666666666665,-0.05555555555555555],[0.022916666666666665,-0.05555555555555555],[0.022916666666666665,-0.05555555555555555],[0.022916666666666665,-0.05555555555555555],[0.022916666666666665,-0.05555555555555555],[0.022916666666666665,-0.05555555555555555],[0.022916666666666665,-0.05555555555555555],[0.022916666666666665,-0.05555555555555555],[0.022916666666666665,-0.05555555555555555],[0.022916666666666665,-0.05555555555555555],[0.022916666666666665,-0.05555555555555555],[0.022916666666666665,-0.05555555555555555],[0.022916666666666665,-0.05555555555555555],[0.022916666666666665,-0.05555555555555555],[0.022916666666666665,-0.05555555555555555],[0.022916666666666665,-0.05555555555555555],[0.022916666666666665,-0.05555555555555555],[0.022916666666666665,-0.05555555555555555],[0.022916666666666665,-0.05555555555555555],[0.022916666666666665,-0.05555555555555555],[0.022916666666666665,-0.05555555555555555],[0.022916666666666665,-0.05555555555555555],[0.022916666666666665,-0.05555555555555555],[0.022916666666666665,-0.05555555555555555],[0.022916666666666665,-0.05555555555555555],[0.022916666666666665,-0.05555555555555555],[0.022916666666666665,-0.05555555555555555],[0.022916666666666665,-0.05555555555555555],[0.022916666666666665,-0.05555555555555555],[0.022916666666666665,-0.05555555555555555],[0.022916666666666665,-0.05555555555555555],[0.022916666666666665,-0.05555555555555555],[0.022916666666666665,-0.05555555555555555],[0.022916666666666665,-0.05555555555555555],[0.022916666666666665,-0.05555555555555555],[0.022916666666666665,-0.05555555555555555],[0.022916666666666665,-0.05555555555555555],[0.022916666666666665,-0.05555555555555555],[0.022916666666666665,-0.05555555555555555],[0.022916666666666665,-0.05555555555555555],[0.022916666666666665,-0.05555555555555555],[0.022916666666666665,-0.05555555555555555],[0.022916666666666665,-0.05555555555555555],[0.022916666666666665,-0.05555555555555555],[0.022916666666666665,-0.05555555555555555],[0.022916666666666665,-0.05555555555555555],[0.022916666666666665,-0.05555555555555555],[0.022916666666666665,-0.05555555555555555],[0.022916666666666665,-0.05555555555555555],[0.022916666666666665,-0.05555555555555555],[0.022916666666666665,-0.05555555555555555],[0.022916666666666665,-0.05555555555555555],[0.022916666666666665,-0.05555555555555555],[0.022916666666666665,-0.05555555555555555],[0.022916666666666665,-0.05555555555555555],[0.022916666666666665,-0.05555555555555555],[0.022916666666666665,-0.05555555555555555],[0.022916666666666665,-0.05555555555555555],[0.022916666666666665,-0.05555555555555555],[0.022916666666666665,-0.05555555555555555],[0.022916666666666665,-0.05555555555555555],[0.022916666666666665,-0.05555555555555555],[0.022916666666666665,-0.05555555555555555],[0.022916666666666665,-0.05555555555555555],[0.022916666666666665,-0.05555555555555555],[0.022916666666666665,-0.05555555555555555],[0.022916666666666665,-0.05555555555555555],[0.022916666666666665,-0.05555555555555555],[0.022916666666666665,-0.05555555555555555],[0.022916666666666665,-0.05555555555555555],[0.022916666666666665,-0.05555555555555555],[0.022916666666666665,-0.05555555555555555],[0.022916666666666665,-0.05555555555555555],[0.022916666666666665,-0.05555555555555555],[0.022916666666666665,-0.05555555555555555],[0.022916666666666665,-0.05555555555555555],[0.022916666666666665,-0.05555555555555555],[0.022916666666666665,-0.05555555555555555],[0.022916666666666665,-0.05555555555555555],[0.022916666666666665,-0.05555555555555555],[0.022916666666666665,-0.05555555555555555],[0.022916666666666665,-0.05555555555555555],[0.022916666666666665,-0.05555555555555555],[0.022916666666666665,-0.05555555555555555],[0.022916666666666665,-0.05555555555555555],[0.022916666666666665,-0.05555555555555555],[0.022916666666666665,-0.05555555555555555],[0.022916666666666665,-0.05555555555555555],[0.022916666666666665,-0.05555555555555555],[0.022916666666666665,-0.05555555555555555],[0.022916666666666665,-0.05555555555555555],[0.022916666666666665,-0.05555555555555555],[0.022916666666666665,-0.05555555555555555],[0.022916666666666665,-0.05555555555555555],[0.022916666666666665,-0.05555555555555555],[0.022916666666666665,-0.05555555555555555],[0.022916666666666665,-0.05555555555555555],[0.022916666666666665,-0.05555555555555555],[0.022916666666666665,-0.05555555555555555],[0.022916666666666665,-0.05555555555555555],[0.022916666666666665,-0.05555555555555555],[0.022916666666666665,-0.05555555555555555],[0.022916666666666665,-0.05555555555555555],[0.022916666666666665,-0.05555555555555555],[0.022916666666666665,-0.05555555555555555],[0.022916666666666665,-0.05555555555555555],[0.022916666666666665,-0.05555555555555555],[0.022916666666666665,-0.05555555555555555],[0.022916666666666665,-0.05555555555555555],[0.022916666666666665,-0.05555555555555555],[0.022916666666666665,-0.05555555555555555],[0.022916666666666665,-0.05555555555555555],[0.022916666666666665,-0.05555555555555555],[0.022916666666666665,-0.05555555555555555],[0.022916666666666665,-0.05555555555555555],[0.022916666666666665,-0.05555555555555555],[0.022916666666666665,-0.05555555555555555],[0.022916666666666665,-0.05555555555555555],[0.022916666666666665,-0.05555555555555555],[0.022916666666666665,-0.05555555555555555],[0.022916666666666665,-0.05555555555555555],[0.022916666666666665,-0.05555555555555555],[0.022916666666666665,-0.05555555555555555],[0.022916666666666665,-0.05555555555555555],[0.022916666666666665,-0.05555555555555555],[0.022916666666666665,-0.05555555555555555],[0.022916666666666665,-0.05555555555555555],[0.022916666666666665,-0.05555555555555555],[0.022916666666666665,-0.05555555555555555],[0.022916666666666665,-0.05555555555555555],[0.022916666666666665,-0.05555555555555555],[0.022916666666666665,-0.05555555555555555],[0.022916666666666665,-0.05555555555555555],[0.022916666666666665,-0.05555555555555555],[0.022916666666666665,-0.05555555555555555],[0.022916666666666665,-0.05555555555555555],[0.022916666666666665,-0.05555555555555555],[0.022916666666666665,-0.05555555555555555],[0.025,-0.05555555555555555],[0.027083333333333334,-0.053703703703703705],[0.03229166666666667,-0.04814814814814815],[0.042708333333333334,-0.02962962962962963],[0.0625,0],[0.11041666666666666,0.06111111111111111],[0.14791666666666667,0.11296296296296296],[0.17083333333333334,0.1425925925925926],[0.22395833333333334,0.19444444444444445],[0.23854166666666668,0.21296296296296297],[0.265625,0.25925925925925924],[0.2875,0.30185185185185187],[0.3,0.3277777777777778],[0.31145833333333334,0.36666666666666664],[0.31666666666666665,0.3851851851851852],[0.325,0.39814814814814814],[0.33229166666666665,0.40925925925925927],[0.3385416666666667,0.4222222222222222],[0.3458333333333333,0.42962962962962964],[0.3489583333333333,0.4351851851851852],[0.35104166666666664,0.4351851851851852],[0.35104166666666664,0.4351851851851852],[0.35104166666666664,0.4351851851851852],[0.353125,0.4351851851851852],[0.3572916666666667,0.43703703703703706],[0.3614583333333333,0.44074074074074077],[0.37083333333333335,0.44814814814814813],[0.38229166666666664,0.45740740740740743],[0.38958333333333334,0.46111111111111114],[0.403125,0.4722222222222222],[0.4041666666666667,0.4740740740740741],[0.40625,0.4759259259259259],[0.40625,0.4759259259259259],[0.40625,0.4759259259259259],[0.40625,0.4759259259259259],[0.40625,0.4759259259259259],[0.40625,0.4759259259259259],[0.40625,0.4759259259259259],[0.40625,0.4759259259259259],[0.40625,0.4759259259259259],[0.40625,0.4759259259259259],[0.40625,0.4759259259259259],[0.40625,0.4759259259259259],[0.40625,0.4759259259259259],[0.40625,0.4759259259259259],[0.40625,0.4759259259259259],[0.40625,0.4759259259259259],[0.40625,0.4759259259259259],[0.40625,0.4759259259259259],[0.4041666666666667,0.4759259259259259],[0.403125,0.4759259259259259],[0.40208333333333335,0.4759259259259259],[0.40208333333333335,0.4759259259259259],[0.4,0.4759259259259259],[0.39791666666666664,0.4759259259259259],[0.39791666666666664,0.4759259259259259],[0.39791666666666664,0.4759259259259259],[0.396875,0.4759259259259259],[0.396875,0.4759259259259259],[0.39479166666666665,0.4740740740740741],[0.39479166666666665,0.4740740740740741],[0.39479166666666665,0.4740740740740741],[0.39479166666666665,0.4740740740740741],[0.39479166666666665,0.4740740740740741],[0.39479166666666665,0.4740740740740741],[0.39479166666666665,0.4740740740740741],[0.39479166666666665,0.4740740740740741],[0.39479166666666665,0.4740740740740741],[0.39479166666666665,0.4740740740740741],[0.39479166666666665,0.4740740740740741],[0.39479166666666665,0.4740740740740741],[0.39479166666666665,0.4740740740740741],[0.39479166666666665,0.4740740740740741],[0.39479166666666665,0.4740740740740741],[0.39479166666666665,0.4740740740740741],[0.39479166666666665,0.4740740740740741],[0.39479166666666665,0.4740740740740741],[0.39479166666666665,0.4740740740740741],[0.39479166666666665,0.4740740740740741],[0.39479166666666665,0.4740740740740741],[0.39375,0.4740740740740741],[0.39375,0.4740740740740741],[0.39375,0.4740740740740741],[0.3927083333333333,0.4740740740740741],[0.39166666666666666,0.4740740740740741],[0.39166666666666666,0.4740740740740741],[0.39166666666666666,0.4722222222222222],[0.39166666666666666,0.4722222222222222],[0.39166666666666666,0.4722222222222222],[0.39166666666666666,0.4722222222222222],[0.39166666666666666,0.4722222222222222],[0.39166666666666666,0.4722222222222222],[0.39166666666666666,0.4722222222222222],[0.39166666666666666,0.4722222222222222],[0.39166666666666666,0.4722222222222222]]","[[0.0421875,-0.13481481481481483],[0.0421875,-0.13481481481481483],[0.05260416666666667,-0.1638888888888889],[0.05260416666666667,-0.1638888888888889],[0.044479166666666715,-0.1714814814814815],[0.028125,-0.20981481481481484],[0.028125,-0.20981481481481484],[0.0032291666666666905,-0.12629629629629627],[-0.011562500000000024,-0.09500000000000001],[-0.006666666666666643,-0.06444444444444447],[-0.004062499999999977,-0.08777777777777773],[-0.004062499999999977,-0.08777777777777773],[0.0017708333333333807,-0.06500000000000004],[0.02041666666666669,0.0031481481481482323],[0.010520833333333358,-0.02962962962962963],[0.010520833333333358,-0.02962962962962963],[0.007395833333333357,0.020370370370370372],[0.01395833333333331,0.02907407407407416],[-0.030624999999999975,0.0235185185185186],[-0.030624999999999975,0.0235185185185186],[-0.010416666666666666,-0.01777777777777782],[-0.00947916666666669,-0.018888888888888972],[0.002395833333333286,-0.05129629629629638],[0.0007291666666667141,-0.0544444444444444],[-0.015104166666666667,-0.02759259259259255],[-0.024479166666666666,-0.03537037037037041],[0.015208333333333357,0.002777777777777778],[0.015208333333333357,0.002777777777777778],[0.025416666666666643,-0.04314814814814806],[0.025520833333333333,-0.07000000000000002],[0.06364583333333336,-0.03592592592592588],[0.06364583333333336,-0.03592592592592588],[0.041770833333333354,-0.03148148148148148],[0.027083333333333334,-0.072037037037037],[0.0014583333333333095,-0.08129629629629626],[-0.01729166666666669,-0.08518518518518518],[-0.016666666666666666,-0.14166666666666666],[-0.036458333333333336,-0.2064814814814815],[-0.06843750000000005,-0.2088888888888889],[-0.06843750000000005,-0.2088888888888889],[-0.10041666666666664,-0.21129629629629634],[-0.15114583333333337,-0.18259259259259264],[-0.14291666666666672,-0.21500000000000005],[-0.1373958333333333,-0.2270370370370371],[-0.1373958333333333,-0.2270370370370371],[-0.12010416666666662,-0.23277777777777775],[-0.11083333333333331,-0.23944444444444446],[-0.11083333333333331,-0.23944444444444446],[-0.09906250000000003,-0.25870370370370366],[-0.09906250000000003,-0.25870370370370366],[-0.11291666666666664,-0.22833333333333336],[-0.11291666666666664,-0.22833333333333336],[-0.06635416666666671,-0.22999999999999998],[-0.06614583333333333,-0.2183333333333333],[-0.06520833333333335,-0.21722222222222223],[-0.05791666666666669,-0.21777777777777782],[-0.05791666666666669,-0.21777777777777782],[-0.05947916666666669,-0.18407407407407403],[-0.05947916666666669,-0.18407407407407403],[-0.05260416666666667,-0.1668518518518519],[-0.05260416666666667,-0.1668518518518519],[-0.059895833333333336,-0.14000000000000004],[-0.04822916666666662,-0.09129629629629632],[-0.03104166666666662,-0.03333333333333333],[-0.015104166666666667,0.002777777777777778],[-0.041666666666666664,0.059999999999999956],[-0.030416666666666713,0.07833333333333325],[-0.012395833333333309,0.10407407407407415],[-0.012395833333333309,0.10407407407407415],[-0.0015625,0.1685185185185185],[-0.007708333333333309,0.19222222222222213],[0.01270833333333338,0.18259259259259264],[-0.0328125,0.21851851851851853],[-0.0829166666666667,0.2012962962962964],[-0.0829166666666667,0.2012962962962964],[-0.16177083333333328,0.21277777777777773],[-0.22947916666666662,0.1977777777777777],[-0.29718749999999994,0.18277777777777787],[-0.3851041666666667,0.17388888888888884],[-0.48052083333333334,0.16814814814814807],[-0.5383333333333333,0.08055555555555556],[-0.5878125,0.015555555555555513],[-0.6638541666666666,-0.016111111111111194],[-0.6676041666666667,-0.08555555555555554],[-0.6777083333333334,-0.1227777777777778],[-0.6861458333333333,-0.14685185185185187],[-0.6771875,-0.1911111111111111],[-0.6682291666666667,-0.23537037037037042],[-0.6391666666666667,-0.2183333333333333],[-0.5834375,-0.2403703703703704],[-0.5422916666666667,-0.22240740740740744],[-0.5011458333333334,-0.2044444444444444],[-0.5011458333333334,-0.2044444444444444],[-0.4591666666666666,-0.15333333333333335],[-0.4282291666666667,-0.11574074074074074],[-0.39729166666666665,-0.07814814814814813],[-0.35604166666666665,-0.06740740740740736],[-0.3237499999999999,-0.03851851851851843],[-0.2646875,0.014814814814814815],[-0.20812499999999995,-0.007777777777777862],[-0.20812499999999995,-0.007777777777777862],[-0.1727083333333333,0.0294444444444444],[-0.17593749999999997,0.03296296296296288],[-0.16177083333333328,0.003703703703703704],[-0.16687500000000005,-0.007037037037036953],[-0.16687500000000005,-0.007037037037036953],[-0.15812499999999996,-0.000925925925925926],[-0.14937499999999998,-0.009444444444444486],[-0.13875000000000004,-0.034999999999999955],[-0.12093750000000002,0.019444444444444445],[-0.09520833333333331,0.01722222222222214],[-0.06468750000000002,0.03814814814814819],[-0.03354166666666671,0.04129629629629621],[-0.03354166666666671,0.04129629629629621],[0.015625,0.07296296296296292],[0.06197916666666667,0.12814814814814823],[0.11197916666666667,0.12444444444444452],[0.11197916666666667,0.12444444444444452],[0.15291666666666662,0.12629629629629638],[0.20625,0.13777777777777775],[0.20625,0.13777777777777775],[0.2626041666666666,0.18370370370370379],[0.3087500000000001,0.17037037037037037],[0.32020833333333343,0.18925925925925935],[0.32750000000000007,0.19796296296296292],[0.32750000000000007,0.19796296296296292],[0.32864583333333336,0.2037037037037037],[0.3256249999999999,0.22481481481481477],[0.3256249999999999,0.22481481481481477],[0.3064583333333334,0.23740740740740748],[0.3020833333333333,0.2572222222222222],[0.28572916666666665,0.2920370370370371],[0.27062499999999995,0.3037037037037037],[0.2525000000000001,0.280925925925926],[0.24812500000000004,0.2537037037037037],[0.24375,0.2264814814814814],[0.22708333333333333,0.19944444444444454],[0.22708333333333333,0.19944444444444454],[0.20989583333333334,0.1551851851851851],[0.11854166666666661,0.1014814814814814],[0.11854166666666661,0.1014814814814814],[0.0109375,0.08259259259259263],[0.0109375,0.08259259259259263],[-0.09135416666666671,0.025],[-0.16739583333333338,0.003703703703703704],[-0.2570833333333333,0.01055555555555564],[-0.3458333333333333,0.036666666666666584],[-0.4432291666666667,0.0698148148148149],[-0.5425,0.04537037037037037],[-0.5425,0.04537037037037037],[-0.6253124999999999,0.03092592592592601],[-0.6943750000000001,0.07462962962962955],[-0.7016666666666667,0.11092592592592589],[-0.7005208333333334,0.14444444444444443],[-0.6985416666666667,0.20555555555555555],[-0.6928125,0.2012962962962964],[-0.6870833333333334,0.19703703703703698],[-0.6838541666666667,0.12129629629629629],[-0.6786458333333333,0.10777777777777786],[-0.6640625,0.11685185185185189],[-0.656875,0.15407407407407417],[-0.6660416666666666,0.13499999999999995],[-0.6732291666666667,0.1557407407407408],[-0.6710416666666668,0.16222222222222227],[-0.6710416666666668,0.16222222222222227],[-0.6536458333333334,0.15129629629629637],[-0.6385416666666667,0.14833333333333337],[-0.6234375,0.14537037037037037],[-0.6272916666666667,0.16999999999999993],[-0.6289583333333333,0.13444444444444448],[-0.6248958333333333,0.1587037037037038],[-0.6134375,0.15481481481481485],[-0.6022916666666667,0.17685185185185184],[-0.5765625,0.16055555555555565],[-0.5765625,0.16055555555555565],[-0.5588541666666667,0.14962962962962956],[-0.5556249999999999,0.14981481481481476],[-0.5633333333333332,0.15055555555555547],[-0.5773958333333333,0.17444444444444454],[-0.5773958333333333,0.17444444444444454],[-0.5616666666666668,0.19240740740740736],[-0.5532291666666667,0.2490740740740741],[-0.5532291666666667,0.2490740740740741],[-0.5626041666666667,0.26592592592592595],[-0.5572916666666666,0.24314814814814806],[-0.5430208333333333,0.2601851851851852],[-0.5316666666666666,0.2524074074074073],[-0.5057291666666667,0.24888888888888885],[-0.5057291666666667,0.24888888888888885],[-0.49541666666666667,0.22888888888888892],[-0.48041666666666666,0.2807407407407408],[-0.44083333333333335,0.26296296296296295],[-0.4501041666666667,0.3096296296296297],[-0.43687499999999996,0.31962962962962965],[-0.43333333333333335,0.2838888888888888],[-0.45208333333333334,0.28166666666666673],[-0.45208333333333334,0.28166666666666673],[-0.45427083333333335,0.2627777777777777],[-0.4786458333333333,0.23537037037037042],[-0.5184375,0.24277777777777781],[-0.526875,0.2490740740740741],[-0.5399999999999999,0.18351851851851855],[-0.5713541666666667,0.16444444444444437],[-0.5701041666666666,0.13425925925925927],[-0.5927083333333333,0.09981481481481477],[-0.6018749999999999,0.13833333333333342],[-0.5894791666666667,0.1646296296296296],[-0.6019791666666666,0.14981481481481476],[-0.5670833333333333,0.19129629629629621],[-0.5089583333333334,0.1844444444444445],[-0.41989583333333336,0.27092592592592585],[-0.3233333333333333,0.3625925925925925],[-0.24937499999999999,0.4364814814814816],[-0.1664583333333333,0.5020370370370371],[-0.06281249999999995,0.5677777777777778],[0.005520833333333286,0.5366666666666666],[0.057604166666666616,0.5388888888888889],[0.1125,0.5485185185185186],[0.13875000000000004,0.509074074074074],[0.16531250000000006,0.5048148148148148],[0.13489583333333333,0.43203703703703694],[0.09104166666666676,0.3168518518518519],[0.06458333333333334,0.2535185185185185],[0.06458333333333334,0.2535185185185185],[0.057395833333333354,0.15037037037037046],[0.029791666666666692,0.03777777777777774],[0.042499999999999954,0.019259259259259216],[0.042499999999999954,0.019259259259259216],[0.04916666666666671,-0.05740740740740741],[0.08552083333333324,-0.13907407407407413],[0.11812500000000009,-0.20777777777777776],[0.11812500000000009,-0.20777777777777776],[0.12864583333333332,-0.30407407407407405],[0.13395833333333323,-0.35185185185185186],[0.18135416666666657,-0.34444444444444444],[0.18135416666666657,-0.34444444444444444],[0.2224999999999999,-0.4003703703703704],[0.23510416666666673,-0.4572222222222222],[0.21916666666666676,-0.47259259259259256],[0.21916666666666676,-0.47259259259259256],[0.21437499999999995,-0.48777777777777775],[0.21260416666666657,-0.4685185185185185],[0.17020833333333343,-0.48148148148148145],[0.13791666666666677,-0.4812962962962963],[0.09541666666666657,-0.459074074074074],[0.12354166666666658,-0.4764814814814815],[0.0900000000000001,-0.49907407407407406],[0.09333333333333324,-0.517037037037037],[0.10812499999999996,-0.49907407407407406],[0.16104166666666658,-0.5098148148148148],[0.21062500000000003,-0.5387037037037037],[0.22614583333333324,-0.5733333333333334],[0.2663541666666667,-0.58],[0.2663541666666667,-0.58],[0.28177083333333336,-0.5938888888888889],[0.3223958333333333,-0.6114814814814815],[0.3223958333333333,-0.6114814814814815],[0.29489583333333325,-0.6005555555555556],[0.3142708333333334,-0.6462962962962963],[0.3082291666666668,-0.6674074074074073],[0.2786458333333333,-0.6985185185185185],[0.23635416666666675,-0.7383333333333333],[0.21239583333333342,-0.7535185185185185],[0.20958333333333337,-0.7148148148148148],[0.20958333333333337,-0.7148148148148148],[0.1806250000000001,-0.7612962962962964],[0.1646874999999999,-0.7524074074074074],[0.14114583333333333,-0.7655555555555555],[0.14114583333333333,-0.7655555555555555],[0.1580208333333334,-0.8342592592592593],[0.17645833333333344,-0.822037037037037],[0.18010416666666676,-0.8555555555555555],[0.18010416666666676,-0.8555555555555555],[0.17583333333333329,-0.8731481481481481],[0.1896874999999999,-0.87],[0.16072916666666662,-0.8522222222222222],[0.16072916666666662,-0.8522222222222222],[0.15,-0.8738888888888888],[0.18114583333333342,-0.8035185185185185],[0.2039583333333333,-0.7892592592592592],[0.16916666666666677,-0.7727777777777778],[0.10593750000000005,-0.6872222222222223],[0.10593750000000005,-0.6872222222222223],[0.009375,-0.7001851851851852],[0.009375,-0.7001851851851852],[-0.03572916666666662,-0.6651851851851852],[-0.07572916666666671,-0.5633333333333334],[-0.12218749999999995,-0.5033333333333333],[-0.17197916666666668,-0.45796296296296296],[-0.20416666666666666,-0.4448148148148148],[-0.2635416666666667,-0.4270370370370371],[-0.30499999999999994,-0.4096296296296296],[-0.29447916666666674,-0.38129629629629624],[-0.30145833333333333,-0.43703703703703706],[-0.30583333333333335,-0.3344444444444445],[-0.2986458333333334,-0.31796296296296295],[-0.26239583333333333,-0.41092592592592586],[-0.26239583333333333,-0.41092592592592586],[-0.24833333333333332,-0.4244444444444444],[-0.21843750000000003,-0.4540740740740741],[-0.21843750000000003,-0.4540740740740741],[-0.19479166666666667,-0.4618518518518518],[-0.16145833333333334,-0.5018518518518519],[-0.15031249999999996,-0.5451851851851851],[-0.12458333333333335,-0.5666666666666667],[-0.0828125,-0.5255555555555556],[-0.03979166666666671,-0.5864814814814815],[-0.04500000000000005,-0.5635185185185185],[-0.08468749999999996,-0.5127777777777778]]","[[0.0421875,-0.13481481481481483,0.0004000000357677891],[0.0421875,-0.13481481481481483,0.061900000035763014],[0.05260416666666667,-0.1638888888888889,0.06870000004768428],[0.05260416666666667,-0.1638888888888889,0.07840000003576364],[0.044479166666666715,-0.1714814814814815,0.09510000002384089],[0.028125,-0.20981481481481484,0.11710000002384646],[0.028125,-0.20981481481481484,0.12880000001192116],[0.0032291666666666905,-0.12629629629629627,0.14510000002384515],[-0.011562500000000024,-0.09500000000000001,0.16260000002384345],[-0.006666666666666643,-0.06444444444444447,0.18370000004768627],[-0.004062499999999977,-0.08777777777777773,0.20040000003576353],[-0.004062499999999977,-0.08777777777777773,0.21160000002384294],[0.0017708333333333807,-0.06500000000000004,0.2282000000476856],[0.02041666666666669,0.0031481481481482323,0.2499000000357654],[0.010520833333333358,-0.02962962962962963,0.26820000004768474],[0.010520833333333358,-0.02962962962962963,0.2785000000000011],[0.007395833333333357,0.020370370370370372,0.29510000002384373],[0.01395833333333331,0.02907407407407416,0.3171000000238422],[-0.030624999999999975,0.0235185185185186,0.33440000003576387],[-0.030624999999999975,0.0235185185185186,0.3451000000238409],[-0.010416666666666666,-0.01777777777777782,0.36170000004768355],[-0.00947916666666669,-0.018888888888888972,0.37860000002384453],[0.002395833333333286,-0.05129629629629638,0.39620000004768485],[0.0007291666666667141,-0.0544444444444444,0.41420000004768553],[-0.015104166666666667,-0.02759259259259255,0.4304000000357675],[-0.024479166666666666,-0.03537037037037041,0.44520000004768434],[0.015208333333333357,0.002777777777777778,0.4621000000238453],[0.015208333333333357,0.002777777777777778,0.4783000000119202],[0.025416666666666643,-0.04314814814814806,0.49500000000000455],[0.025520833333333333,-0.07000000000000002,0.5126000000238449],[0.06364583333333336,-0.03592592592592588,0.5287000000476851],[0.06364583333333336,-0.03592592592592588,0.5450000000000017],[0.041770833333333354,-0.03148148148148148,0.5617000000476864],[0.027083333333333334,-0.072037037037037,0.578900000035766],[0.0014583333333333095,-0.08129629629629626,0.5949999999999989],[-0.01729166666666669,-0.08518518518518518,0.6142000000476884],[-0.016666666666666666,-0.14166666666666666,0.6301000000238446],[-0.036458333333333336,-0.2064814814814815,0.6461000000238428],[-0.06843750000000005,-0.2088888888888889,0.6653000000119249],[-0.06843750000000005,-0.2088888888888889,0.6782000000476884],[-0.10041666666666664,-0.21129629629629634,0.6949000000357657],[-0.15114583333333337,-0.18259259259259264,0.7152000000476875],[-0.14291666666666672,-0.21500000000000005,0.7319000000357647],[-0.1373958333333333,-0.2270370370370371,0.7499000000357654],[-0.1373958333333333,-0.2270370370370371,0.7616000000238472],[-0.12010416666666662,-0.23277777777777775,0.7783000000119245],[-0.11083333333333331,-0.23944444444444446,0.7964000000357672],[-0.11083333333333331,-0.23944444444444446,0.8116000000238444],[-0.09906250000000003,-0.25870370370370366,0.8284000000357636],[-0.09906250000000003,-0.25870370370370366,0.8449000000357643],[-0.11291666666666664,-0.22833333333333336,0.8617000000476835],[-0.11291666666666664,-0.22833333333333336,0.8784000000357679],[-0.06635416666666671,-0.22999999999999998,0.8949000000357614],[-0.06614583333333333,-0.2183333333333333,0.9128000000119201],[-0.06520833333333335,-0.21722222222222223,0.9314999999999998],[-0.05791666666666669,-0.21777777777777782,0.9507000000476893],[-0.05791666666666669,-0.21777777777777782,0.9618000000119196],[-0.05947916666666669,-0.18407407407407403,0.9784000000357622],[-0.05947916666666669,-0.18407407407407403,0.9951000000238466],[-0.05260416666666667,-0.1668518518518519,1.0117000000476892],[-0.05260416666666667,-0.1668518518518519,1.0283000000119245],[-0.059895833333333336,-0.14000000000000004,1.044900000035767],[-0.04822916666666662,-0.09129629629629632,1.0624000000357654],[-0.03104166666666662,-0.03333333333333333,1.0814000000357638],[-0.015104166666666667,0.002777777777777778,1.0994000000357644],[-0.041666666666666664,0.059999999999999956,1.1159999999999997],[-0.030416666666666713,0.07833333333333325,1.1327000000476843],[-0.012395833333333309,0.10407407407407415,1.1502000000476826],[-0.012395833333333309,0.10407407407407415,1.1616000000238458],[-0.0015625,0.1685185185185185,1.178400000035765],[-0.007708333333333309,0.19222222222222213,1.196100000023847],[0.01270833333333338,0.18259259259259264,1.2128000000119243],[-0.0328125,0.21851851851851853,1.2325000000000017],[-0.0829166666666667,0.2012962962962964,1.250200000047684],[-0.0829166666666667,0.2012962962962964,1.2617000000476892],[-0.16177083333333328,0.21277777777777773,1.2783000000119245],[-0.22947916666666662,0.1977777777777777,1.2961000000238414],[-0.29718749999999994,0.18277777777777787,1.3120000000000047],[-0.3851041666666667,0.17388888888888884,1.3294000000357684],[-0.48052083333333334,0.16814814814814807,1.3449999999999989],[-0.5383333333333333,0.08055555555555556,1.3647000000476837],[-0.5878125,0.015555555555555513,1.3801000000238446],[-0.6638541666666666,-0.016111111111111194,1.3954000000357638],[-0.6676041666666667,-0.08555555555555554,1.4118000000119224],[-0.6777083333333334,-0.1227777777777778,1.430500000000002],[-0.6861458333333333,-0.14685185185185187,1.4495000000000005],[-0.6771875,-0.1911111111111111,1.4666000000238455],[-0.6682291666666667,-0.23537037037037042,1.4829000000357624],[-0.6391666666666667,-0.2183333333333333,1.4997000000476888],[-0.5834375,-0.2403703703703704,1.516400000035766],[-0.5422916666666667,-0.22240740740740744,1.5332000000476853],[-0.5011458333333334,-0.2044444444444444,1.5492000000476835],[-0.5011458333333334,-0.2044444444444444,1.5617000000476864],[-0.4591666666666666,-0.15333333333333335,1.5783000000119216],[-0.4282291666666667,-0.11574074074074074,1.5949000000357643],[-0.39729166666666665,-0.07814814814814813,1.6117000000476835],[-0.35604166666666665,-0.06740740740740736,1.6338000000119237],[-0.3237499999999999,-0.03851851851851843,1.6496000000238453],[-0.2646875,0.014814814814814815,1.666100000023846],[-0.20812499999999995,-0.007777777777777862,1.6828000000119232],[-0.20812499999999995,-0.007777777777777862,1.6950000000000003],[-0.1727083333333333,0.0294444444444444,1.711600000023843],[-0.17593749999999997,0.03296296296296288,1.7310000000000016],[-0.16177083333333328,0.003703703703703704,1.7483000000119233],[-0.16687500000000005,-0.007037037037036953,1.7673000000119217],[-0.16687500000000005,-0.007037037037036953,1.778500000000001],[-0.15812499999999996,-0.000925925925925926,1.794900000035767],[-0.14937499999999998,-0.009444444444444486,1.8124000000357654],[-0.13875000000000004,-0.034999999999999955,1.829600000023845],[-0.12093750000000002,0.019444444444444445,1.848200000047683],[-0.09520833333333331,0.01722222222222214,1.8662000000476837],[-0.06468750000000002,0.03814814814814819,1.8827000000476843],[-0.03354166666666671,0.04129629629629621,1.9009000000357616],[-0.03354166666666671,0.04129629629629621,1.9119000000357644],[0.015625,0.07296296296296292,1.928300000011923],[0.06197916666666667,0.12814814814814823,1.9451000000238423],[0.11197916666666667,0.12444444444444452,1.9667000000476875],[0.11197916666666667,0.12444444444444452,1.9783000000119202],[0.15291666666666662,0.12629629629629638,1.9950000000000045],[0.20625,0.13777777777777775,2.0174000000357637],[0.20625,0.13777777777777775,2.0283000000119245],[0.2626041666666666,0.18370370370370379,2.0450000000000017],[0.3087500000000001,0.17037037037037037,2.064200000047684],[0.32020833333333343,0.18925925925925935,2.0802000000476824],[0.32750000000000007,0.19796296296296292,2.0956000000238433],[0.32750000000000007,0.19796296296296292,2.1116000000238415],[0.32864583333333336,0.2037037037037037,2.128400000035768],[0.3256249999999999,0.22481481481481477,2.1456000000238475],[0.3256249999999999,0.22481481481481477,2.161600000023846],[0.3064583333333334,0.23740740740740748,2.178300000011923],[0.3020833333333333,0.2572222222222222,2.1978000000119238],[0.28572916666666665,0.2920370370370371,2.2144000000357664],[0.27062499999999995,0.3037037037037037,2.2319000000357647],[0.2525000000000001,0.280925925925926,2.2497000000476888],[0.24812500000000004,0.2537037037037037,2.266300000011924],[0.24375,0.2264814814814814,2.2822000000476876],[0.22708333333333333,0.19944444444444454,2.298100000023844],[0.22708333333333333,0.19944444444444454,2.311800000011921],[0.20989583333333334,0.1551851851851851,2.3283000000119216],[0.11854166666666661,0.1014814814814814,2.3500000000000014],[0.11854166666666661,0.1014814814814814,2.3677000000476838],[0.0109375,0.08259259259259263,2.386900000035766],[0.0109375,0.08259259259259263,2.395200000047687],[-0.09135416666666671,0.025,2.411600000023846],[-0.16739583333333338,0.003703703703703704,2.4282000000476884],[-0.2570833333333333,0.01055555555555564,2.4449000000357657],[-0.3458333333333333,0.036666666666666584,2.4626000000238406],[-0.4432291666666667,0.0698148148148149,2.4782000000476856],[-0.5425,0.04537037037037037,2.497200000047684],[-0.5425,0.04537037037037037,2.5117000000476892],[-0.6253124999999999,0.03092592592592601,2.5283000000119245],[-0.6943750000000001,0.07462962962962955,2.544900000035767],[-0.7016666666666667,0.11092592592592589,2.5617000000476864],[-0.7005208333333334,0.14444444444444443,2.578800000011924],[-0.6985416666666667,0.20555555555555555,2.595200000047683],[-0.6928125,0.2012962962962964,2.6116000000238415],[-0.6870833333333334,0.19703703703703698,2.628200000047684],[-0.6838541666666667,0.12129629629629629,2.645200000047687],[-0.6786458333333333,0.10777777777777786,2.6649000000357645],[-0.6640625,0.11685185185185189,2.679100000023844],[-0.656875,0.15407407407407417,2.6950000000000003],[-0.6660416666666666,0.13499999999999995,2.7121000000238453],[-0.6732291666666667,0.1557407407407408,2.7325000000000017],[-0.6710416666666668,0.16222222222222227,2.750100000023842],[-0.6710416666666668,0.16222222222222227,2.761900000035766],[-0.6536458333333334,0.15129629629629637,2.778600000023843],[-0.6385416666666667,0.14833333333333337,2.797900000035767],[-0.6234375,0.14537037037037037,2.812600000023842],[-0.6272916666666667,0.16999999999999993,2.8283000000119216],[-0.6289583333333333,0.13444444444444448,2.8448000000119222],[-0.6248958333333333,0.1587037037037038,2.862100000023844],[-0.6134375,0.15481481481481485,2.878200000047684],[-0.6022916666666667,0.17685185185185184,2.8949000000357614],[-0.5765625,0.16055555555555565,2.911700000047688],[-0.5765625,0.16055555555555565,2.928300000011923],[-0.5588541666666667,0.14962962962962956,2.9450000000000003],[-0.5556249999999999,0.14981481481481476,2.964700000047685],[-0.5633333333333332,0.15055555555555547,2.9782000000476856],[-0.5773958333333333,0.17444444444444454,2.996300000011921],[-0.5773958333333333,0.17444444444444454,3.011600000023847],[-0.5616666666666668,0.19240740740740736,3.0283000000119245],[-0.5532291666666667,0.2490740740740741,3.045600000023846],[-0.5532291666666667,0.2490740740740741,3.0616000000238444],[-0.5626041666666667,0.26592592592592595,3.078200000047687],[-0.5572916666666666,0.24314814814814806,3.0949000000357643],[-0.5430208333333333,0.2601851851851852,3.1117000000476835],[-0.5316666666666666,0.2524074074074073,3.132800000011926],[-0.5057291666666667,0.24888888888888885,3.1486000000238406],[-0.5057291666666667,0.24888888888888885,3.161600000023846],[-0.49541666666666667,0.22888888888888892,3.178300000011923],[-0.48041666666666666,0.2807407407407408,3.1967000000476844],[-0.44083333333333335,0.26296296296296295,3.2143000000119244],[-0.4501041666666667,0.3096296296296297,3.2304000000357647],[-0.43687499999999996,0.31962962962962965,3.2450000000000045],[-0.43333333333333335,0.2838888888888888,3.2643000000119216],[-0.45208333333333334,0.28166666666666673,3.2807000000476876],[-0.45208333333333334,0.28166666666666673,3.294900000035767],[-0.45427083333333335,0.2627777777777777,3.3116000000238444],[-0.4786458333333333,0.23537037037037042,3.328200000047687],[-0.5184375,0.24277777777777781,3.3449000000357643],[-0.526875,0.2490740740740741,3.3619000000357673],[-0.5399999999999999,0.18351851851851855,3.378200000047684],[-0.5713541666666667,0.16444444444444437,3.3949000000357614],[-0.5701041666666666,0.13425925925925927,3.414500000000004],[-0.5927083333333333,0.09981481481481477,3.4282000000476884],[-0.6018749999999999,0.13833333333333342,3.4449000000357657],[-0.5894791666666667,0.1646296296296296,3.4644000000357664],[-0.6019791666666666,0.14981481481481476,3.4818000000119227],[-0.5670833333333333,0.19129629629629621,3.4969000000357653],[-0.5089583333333334,0.1844444444444445,3.5124000000357682],[-0.41989583333333336,0.27092592592592585,3.5283000000119245],[-0.3233333333333333,0.3625925925925925,3.544900000035767],[-0.24937499999999999,0.4364814814814816,3.5616000000238444],[-0.1664583333333333,0.5020370370370371,3.5783000000119216],[-0.06281249999999995,0.5677777777777778,3.5983000000119247],[0.005520833333333286,0.5366666666666666,3.6148000000119254],[0.057604166666666616,0.5388888888888889,3.630300000011921],[0.1125,0.5485185185185186,3.645000000000003],[0.13875000000000004,0.509074074074074,3.6656000000238436],[0.16531250000000006,0.5048148148148148,3.6814999999999998],[0.13489583333333333,0.43203703703703694,3.697900000035766],[0.09104166666666676,0.3168518518518519,3.7126000000238406],[0.06458333333333334,0.2535185185185185,3.733800000011925],[0.06458333333333334,0.2535185185185185,3.7451000000238466],[0.057395833333333354,0.15037037037037046,3.761900000035766],[0.029791666666666692,0.03777777777777774,3.778600000023843],[0.042499999999999954,0.019259259259259216,3.797900000035767],[0.042499999999999954,0.019259259259259216,3.8117000000476864],[0.04916666666666671,-0.05740740740740741,3.8284000000357636],[0.08552083333333324,-0.13907407407407413,3.845200000047683],[0.11812500000000009,-0.20777777777777776,3.8663000000119254],[0.11812500000000009,-0.20777777777777776,3.8785000000000025],[0.12864583333333332,-0.30407407407407405,3.895100000023845],[0.13395833333333323,-0.35185185185185186,3.9118000000119224],[0.18135416666666657,-0.34444444444444444,3.930700000047686],[0.18135416666666657,-0.34444444444444444,3.9449000000357657],[0.2224999999999999,-0.4003703703703704,3.961600000023843],[0.23510416666666673,-0.4572222222222222,3.9828000000119204],[0.21916666666666676,-0.47259259259259256,3.999300000011921],[0.21916666666666676,-0.47259259259259256,4.011800000011924],[0.21437499999999995,-0.48777777777777775,4.028500000000001],[0.21260416666666657,-0.4685185185185185,4.047800000011925],[0.17020833333333343,-0.48148148148148145,4.063100000023844],[0.13791666666666677,-0.4812962962962963,4.082900000035764],[0.09541666666666657,-0.459074074074074,4.098900000035762],[0.12354166666666658,-0.4764814814814815,4.114600000023842],[0.0900000000000001,-0.49907407407407406,4.129000000000005],[0.09333333333333324,-0.517037037037037,4.145100000023845],[0.10812499999999996,-0.49907407407407406,4.166100000023846],[0.16104166666666658,-0.5098148148148148,4.1810000000000045],[0.21062500000000003,-0.5387037037037037,4.195500000000003],[0.22614583333333324,-0.5733333333333334,4.213000000000001],[0.2663541666666667,-0.58,4.232900000035762],[0.2663541666666667,-0.58,4.244800000011921],[0.28177083333333336,-0.5938888888888889,4.261600000023847],[0.3223958333333333,-0.6114814814814815,4.282499999999999],[0.3223958333333333,-0.6114814814814815,4.294900000035767],[0.29489583333333325,-0.6005555555555556,4.311700000047686],[0.3142708333333334,-0.6462962962962963,4.328500000000005],[0.3082291666666668,-0.6674074074074073,4.344900000035764],[0.2786458333333333,-0.6985185185185185,4.364300000011923],[0.23635416666666675,-0.7383333333333333,4.378900000035763],[0.21239583333333342,-0.7535185185185185,4.399200000047685],[0.20958333333333337,-0.7148148148148148,4.420000000000002],[0.20958333333333337,-0.7148148148148148,4.428300000011923],[0.1806250000000001,-0.7612962962962964,4.445100000023842],[0.1646874999999999,-0.7524074074074074,4.464300000011924],[0.14114583333333333,-0.7655555555555555,4.483300000011923],[0.14114583333333333,-0.7655555555555555,4.4950000000000045],[0.1580208333333334,-0.8342592592592593,4.511600000023847],[0.17645833333333344,-0.822037037037037,4.528700000047685],[0.18010416666666676,-0.8555555555555555,4.5489999999999995],[0.18010416666666676,-0.8555555555555555,4.561500000000002],[0.17583333333333329,-0.8731481481481481,4.578500000000005],[0.1896874999999999,-0.87,4.594900000035764],[0.16072916666666662,-0.8522222222222222,4.6114999999999995],[0.16072916666666662,-0.8522222222222222,4.628200000047684],[0.15,-0.8738888888888888,4.644900000035761],[0.18114583333333342,-0.8035185185185185,4.6655000000000015],[0.2039583333333333,-0.7892592592592592,4.682000000000002],[0.16916666666666677,-0.7727777777777778,4.698500000000003],[0.10593750000000005,-0.6872222222222223,4.7167000000476875],[0.10593750000000005,-0.6872222222222223,4.730100000023846],[0.009375,-0.7001851851851852,4.745100000023847],[0.009375,-0.7001851851851852,4.761600000023847],[-0.03572916666666662,-0.6651851851851852,4.7783000000119245],[-0.07572916666666671,-0.5633333333333334,4.794900000035767],[-0.12218749999999995,-0.5033333333333333,4.811600000023844],[-0.17197916666666668,-0.45796296296296296,4.828500000000005],[-0.20416666666666666,-0.4448148148148148,4.845500000000001],[-0.2635416666666667,-0.4270370370370371,4.861800000011925],[-0.30499999999999994,-0.4096296296296296,4.878300000011926],[-0.29447916666666674,-0.38129629629629624,4.894900000035761],[-0.30145833333333333,-0.43703703703703706,4.911600000023846],[-0.30583333333333335,-0.3344444444444445,4.930600000023844],[-0.2986458333333334,-0.31796296296296295,4.944800000011924],[-0.26239583333333333,-0.41092592592592586,4.9659000000357665],[-0.26239583333333333,-0.41092592592592586,4.985300000011925],[-0.24833333333333332,-0.4244444444444444,4.995200000047689],[-0.21843750000000003,-0.4540740740740741,5.014900000035766],[-0.21843750000000003,-0.4540740740740741,5.0284000000357665],[-0.19479166666666667,-0.4618518518518518,5.044900000035767],[-0.16145833333333334,-0.5018518518518519,5.061500000000002],[-0.15031249999999996,-0.5451851851851851,5.078200000047687],[-0.12458333333333335,-0.5666666666666667,5.094999999999999],[-0.0828125,-0.5255555555555556,5.1114999999999995],[-0.03979166666666671,-0.5864814814814815,5.128200000047684],[-0.04500000000000005,-0.5635185185185185,5.145000000000003],[-0.08468749999999996,-0.5127777777777778,5.161700000047688]]","[0.0004000000357677891,0.061900000035763014,0.06870000004768428,0.07840000003576364,0.09510000002384089,0.11710000002384646,0.12880000001192116,0.14510000002384515,0.16260000002384345,0.18370000004768627,0.20040000003576353,0.21160000002384294,0.2282000000476856,0.2499000000357654,0.26820000004768474,0.2785000000000011,0.29510000002384373,0.3171000000238422,0.33440000003576387,0.3451000000238409,0.36170000004768355,0.37860000002384453,0.39620000004768485,0.41420000004768553,0.4304000000357675,0.44520000004768434,0.4621000000238453,0.4783000000119202,0.49500000000000455,0.5126000000238449,0.5287000000476851,0.5450000000000017,0.5617000000476864,0.578900000035766,0.5949999999999989,0.6142000000476884,0.6301000000238446,0.6461000000238428,0.6653000000119249,0.6782000000476884,0.6949000000357657,0.7152000000476875,0.7319000000357647,0.7499000000357654,0.7616000000238472,0.7783000000119245,0.7964000000357672,0.8116000000238444,0.8284000000357636,0.8449000000357643,0.8617000000476835,0.8784000000357679,0.8949000000357614,0.9128000000119201,0.9314999999999998,0.9507000000476893,0.9618000000119196,0.9784000000357622,0.9951000000238466,1.0117000000476892,1.0283000000119245,1.044900000035767,1.0624000000357654,1.0814000000357638,1.0994000000357644,1.1159999999999997,1.1327000000476843,1.1502000000476826,1.1616000000238458,1.178400000035765,1.196100000023847,1.2128000000119243,1.2325000000000017,1.250200000047684,1.2617000000476892,1.2783000000119245,1.2961000000238414,1.3120000000000047,1.3294000000357684,1.3449999999999989,1.3647000000476837,1.3801000000238446,1.3954000000357638,1.4118000000119224,1.430500000000002,1.4495000000000005,1.4666000000238455,1.4829000000357624,1.4997000000476888,1.516400000035766,1.5332000000476853,1.5492000000476835,1.5617000000476864,1.5783000000119216,1.5949000000357643,1.6117000000476835,1.6338000000119237,1.6496000000238453,1.666100000023846,1.6828000000119232,1.6950000000000003,1.711600000023843,1.7310000000000016,1.7483000000119233,1.7673000000119217,1.778500000000001,1.794900000035767,1.8124000000357654,1.829600000023845,1.848200000047683,1.8662000000476837,1.8827000000476843,1.9009000000357616,1.9119000000357644,1.928300000011923,1.9451000000238423,1.9667000000476875,1.9783000000119202,1.9950000000000045,2.0174000000357637,2.0283000000119245,2.0450000000000017,2.064200000047684,2.0802000000476824,2.0956000000238433,2.1116000000238415,2.128400000035768,2.1456000000238475,2.161600000023846,2.178300000011923,2.1978000000119238,2.2144000000357664,2.2319000000357647,2.2497000000476888,2.266300000011924,2.2822000000476876,2.298100000023844,2.311800000011921,2.3283000000119216,2.3500000000000014,2.3677000000476838,2.386900000035766,2.395200000047687,2.411600000023846,2.4282000000476884,2.4449000000357657,2.4626000000238406,2.4782000000476856,2.497200000047684,2.5117000000476892,2.5283000000119245,2.544900000035767,2.5617000000476864,2.578800000011924,2.595200000047683,2.6116000000238415,2.628200000047684,2.645200000047687,2.6649000000357645,2.679100000023844,2.6950000000000003,2.7121000000238453,2.7325000000000017,2.750100000023842,2.761900000035766,2.778600000023843,2.797900000035767,2.812600000023842,2.8283000000119216,2.8448000000119222,2.862100000023844,2.878200000047684,2.8949000000357614,2.911700000047688,2.928300000011923,2.9450000000000003,2.964700000047685,2.9782000000476856,2.996300000011921,3.011600000023847,3.0283000000119245,3.045600000023846,3.0616000000238444,3.078200000047687,3.0949000000357643,3.1117000000476835,3.132800000011926,3.1486000000238406,3.161600000023846,3.178300000011923,3.1967000000476844,3.2143000000119244,3.2304000000357647,3.2450000000000045,3.2643000000119216,3.2807000000476876,3.294900000035767,3.3116000000238444,3.328200000047687,3.3449000000357643,3.3619000000357673,3.378200000047684,3.3949000000357614,3.414500000000004,3.4282000000476884,3.4449000000357657,3.4644000000357664,3.4818000000119227,3.4969000000357653,3.5124000000357682,3.5283000000119245,3.544900000035767,3.5616000000238444,3.5783000000119216,3.5983000000119247,3.6148000000119254,3.630300000011921,3.645000000000003,3.6656000000238436,3.6814999999999998,3.697900000035766,3.7126000000238406,3.733800000011925,3.7451000000238466,3.761900000035766,3.778600000023843,3.797900000035767,3.8117000000476864,3.8284000000357636,3.845200000047683,3.8663000000119254,3.8785000000000025,3.895100000023845,3.9118000000119224,3.930700000047686,3.9449000000357657,3.961600000023843,3.9828000000119204,3.999300000011921,4.011800000011924,4.028500000000001,4.047800000011925,4.063100000023844,4.082900000035764,4.098900000035762,4.114600000023842,4.129000000000005,4.145100000023845,4.166100000023846,4.1810000000000045,4.195500000000003,4.213000000000001,4.232900000035762,4.244800000011921,4.261600000023847,4.282499999999999,4.294900000035767,4.311700000047686,4.328500000000005,4.344900000035764,4.364300000011923,4.378900000035763,4.399200000047685,4.420000000000002,4.428300000011923,4.445100000023842,4.464300000011924,4.483300000011923,4.4950000000000045,4.511600000023847,4.528700000047685,4.5489999999999995,4.561500000000002,4.578500000000005,4.594900000035764,4.6114999999999995,4.628200000047684,4.644900000035761,4.6655000000000015,4.682000000000002,4.698500000000003,4.7167000000476875,4.730100000023846,4.745100000023847,4.761600000023847,4.7783000000119245,4.794900000035767,4.811600000023844,4.828500000000005,4.845500000000001,4.861800000011925,4.878300000011926,4.894900000035761,4.911600000023846,4.930600000023844,4.944800000011924,4.9659000000357665,4.985300000011925,4.995200000047689,5.014900000035766,5.0284000000357665,5.044900000035767,5.061500000000002,5.078200000047687,5.094999999999999,5.1114999999999995,5.128200000047684,5.145000000000003,5.161700000047688]","[1732938529435,1732938529484,1732938529490,1732938529500,1732938529517,1732938529539,1732938529550,1732938529567,1732938529585,1732938529605,1732938529622,1732938529633,1732938529650,1732938529672,1732938529690,1732938529700,1732938529717,1732938529739,1732938529756,1732938529767,1732938529783,1732938529800,1732938529818,1732938529836,1732938529852,1732938529867,1732938529884,1732938529900,1732938529917,1732938529934,1732938529950,1732938529967,1732938529983,1732938530001,1732938530017,1732938530036,1732938530052,1732938530068,1732938530087,1732938530100,1732938530117,1732938530137,1732938530154,1732938530171,1732938530183,1732938530200,1732938530218,1732938530233,1732938530250,1732938530267,1732938530283,1732938530300,1732938530317,1732938530334,1732938530353,1732938530372,1732938530383,1732938530400,1732938530417,1732938530433,1732938530450,1732938530467,1732938530484,1732938530503,1732938530521,1732938530538,1732938530554,1732938530572,1732938530583,1732938530600,1732938530618,1732938530634,1732938530654,1732938530672,1732938530683,1732938530700,1732938530718,1732938530734,1732938530751,1732938530767,1732938530786,1732938530802,1732938530817,1732938530833,1732938530852,1732938530871,1732938530888,1732938530905,1732938530921,1732938530938,1732938530955,1732938530971,1732938530983,1732938531000,1732938531017,1732938531033,1732938531055,1732938531071,1732938531088,1732938531104,1732938531117,1732938531133,1732938531153,1732938531170,1732938531189,1732938531200,1732938531217,1732938531234,1732938531251,1732938531270,1732938531288,1732938531304,1732938531322,1732938531333,1732938531350,1732938531367,1732938531388,1732938531400,1732938531417,1732938531439,1732938531450,1732938531467,1732938531486,1732938531502,1732938531517,1732938531533,1732938531550,1732938531567,1732938531583,1732938531600,1732938531619,1732938531636,1732938531653,1732938531671,1732938531688,1732938531704,1732938531720,1732938531733,1732938531750,1732938531772,1732938531789,1732938531809,1732938531817,1732938531833,1732938531850,1732938531867,1732938531884,1732938531900,1732938531919,1732938531933,1732938531950,1732938531967,1732938531983,1732938532000,1732938532017,1732938532033,1732938532050,1732938532067,1732938532086,1732938532101,1732938532117,1732938532134,1732938532154,1732938532172,1732938532184,1732938532200,1732938532220,1732938532234,1732938532250,1732938532267,1732938532284,1732938532300,1732938532317,1732938532333,1732938532350,1732938532367,1732938532386,1732938532400,1732938532418,1732938532433,1732938532450,1732938532467,1732938532483,1732938532500,1732938532517,1732938532533,1732938532554,1732938532570,1732938532583,1732938532600,1732938532618,1732938532636,1732938532652,1732938532667,1732938532686,1732938532702,1732938532717,1732938532733,1732938532750,1732938532767,1732938532784,1732938532800,1732938532817,1732938532836,1732938532850,1732938532867,1732938532886,1732938532903,1732938532919,1732938532934,1732938532950,1732938532966,1732938532983,1732938533000,1732938533020,1732938533036,1732938533052,1732938533067,1732938533087,1732938533103,1732938533120,1732938533134,1732938533155,1732938533167,1732938533184,1732938533200,1732938533220,1732938533233,1732938533250,1732938533267,1732938533288,1732938533300,1732938533317,1732938533333,1732938533352,1732938533367,1732938533383,1732938533404,1732938533421,1732938533434,1732938533450,1732938533469,1732938533485,1732938533504,1732938533521,1732938533536,1732938533551,1732938533567,1732938533588,1732938533603,1732938533617,1732938533635,1732938533654,1732938533667,1732938533683,1732938533704,1732938533716,1732938533733,1732938533750,1732938533766,1732938533786,1732938533801,1732938533821,1732938533842,1732938533850,1732938533867,1732938533886,1732938533905,1732938533917,1732938533933,1732938533950,1732938533971,1732938533983,1732938534000,1732938534017,1732938534033,1732938534050,1732938534067,1732938534087,1732938534104,1732938534120,1732938534138,1732938534152,1732938534167,1732938534183,1732938534200,1732938534217,1732938534233,1732938534250,1732938534267,1732938534283,1732938534300,1732938534317,1732938534333,1732938534352,1732938534366,1732938534387,1732938534407,1732938534417,1732938534436,1732938534450,1732938534467,1732938534483,1732938534500,1732938534517,1732938534533,1732938534550,1732938534567,1732938534583]","[[1000.5,467.2],[1000.5,467.2],[1010.5,451.5],[1010.5,451.5],[1002.7,447.4],[987,426.7],[987,426.7],[963.1,471.8],[948.9,488.7],[953.6,505.2],[956.1,492.6],[956.1,492.6],[961.7,504.9],[979.6,541.7],[970.1,524],[970.1,524],[967.1,551],[973.4,555.7],[930.6,552.7],[930.6,552.7],[950,530.4],[950.9,529.8],[962.3,512.3],[960.7,510.6],[945.5,525.1],[936.5,520.9],[974.6,541.5],[974.6,541.5],[984.4,516.7],[984.5,502.2],[1021.1,520.6],[1021.1,520.6],[1000.1,523],[986,501.1],[961.4,496.1],[943.4,494],[944,463.5],[925,428.5],[894.3,427.2],[894.3,427.2],[863.6,425.9],[814.9,441.4],[822.8,423.9],[828.1,417.4],[828.1,417.4],[844.7,414.3],[853.6,410.7],[853.6,410.7],[864.9,400.3],[864.9,400.3],[851.6,416.7],[851.6,416.7],[896.3,415.8],[896.5,422.1],[897.4,422.7],[904.4,422.4],[904.4,422.4],[902.9,440.6],[902.9,440.6],[909.5,449.9],[909.5,449.9],[902.5,464.4],[913.7,490.7],[930.2,522],[945.5,541.5],[920,572.4],[930.8,582.3],[948.1,596.2],[948.1,596.2],[958.5,631],[952.6,643.8],[972.2,638.6],[928.5,658],[880.4,648.7],[880.4,648.7],[804.7,654.9],[739.7,646.8],[674.7,638.7],[590.3,633.9],[498.7,630.8],[443.2,583.5],[395.7,548.4],[322.7,531.3],[319.1,493.8],[309.4,473.7],[301.3,460.7],[309.9,436.8],[318.5,412.9],[346.4,422.1],[399.9,410.2],[439.4,419.9],[478.9,429.6],[478.9,429.6],[519.2,457.2],[548.9,477.5],[578.6,497.8],[618.2,503.6],[649.2,519.2],[705.9,548],[760.2,535.8],[760.2,535.8],[794.2,555.9],[791.1,557.8],[804.7,542],[799.8,536.2],[799.8,536.2],[808.2,539.5],[816.6,534.9],[826.8,521.1],[843.9,550.5],[868.6,549.3],[897.9,560.6],[927.8,562.3],[927.8,562.3],[975,579.4],[1019.5,609.2],[1067.5,607.2],[1067.5,607.2],[1106.8,608.2],[1158,614.4],[1158,614.4],[1212.1,639.2],[1256.4,632],[1267.4,642.2],[1274.4,646.9],[1274.4,646.9],[1275.5,650],[1272.6,661.4],[1272.6,661.4],[1254.2,668.2],[1250,678.9],[1234.3,697.7],[1219.8,704],[1202.4,691.7],[1198.2,677],[1194,662.3],[1178,647.7],[1178,647.7],[1161.5,623.8],[1073.8,594.8],[1073.8,594.8],[970.5,584.6],[970.5,584.6],[872.3,553.5],[799.3,542],[713.2,545.7],[628,559.8],[534.5,577.7],[439.2,564.5],[439.2,564.5],[359.7,556.7],[293.4,580.3],[286.4,599.9],[287.5,618],[289.4,651],[294.9,648.7],[300.4,646.4],[303.5,605.5],[308.5,598.2],[322.5,603.1],[329.4,623.2],[320.6,612.9],[313.7,624.1],[315.8,627.6],[315.8,627.6],[332.5,621.7],[347,620.1],[361.5,618.5],[357.8,631.8],[356.2,612.6],[360.1,625.7],[371.1,623.6],[381.8,635.5],[406.5,626.7],[406.5,626.7],[423.5,620.8],[426.6,620.9],[419.2,621.3],[405.7,634.2],[405.7,634.2],[420.8,643.9],[428.9,674.5],[428.9,674.5],[419.9,683.6],[425,671.3],[438.7,680.5],[449.6,676.3],[474.5,674.4],[474.5,674.4],[484.4,663.6],[498.8,691.6],[536.8,682],[527.9,707.2],[540.6,712.6],[544,693.3],[526,692.1],[526,692.1],[523.9,681.9],[500.5,667.1],[462.3,671.1],[454.2,674.5],[441.6,639.1],[411.5,628.8],[412.7,612.5],[391,593.9],[382.2,614.7],[394.1,628.9],[382.1,620.9],[415.6,643.3],[471.4,639.6],[556.9,686.3],[649.6,735.8],[720.6,775.7],[800.2,811.1],[899.7,846.6],[965.3,829.8],[1015.3,831],[1068,836.2],[1093.2,814.9],[1118.7,812.6],[1089.5,773.3],[1047.4,711.1],[1022,676.9],[1022,676.9],[1015.1,621.2],[988.6,560.4],[1000.8,550.4],[1000.8,550.4],[1007.2,509],[1042.1,464.9],[1073.4,427.8],[1073.4,427.8],[1083.5,375.8],[1088.6,350],[1134.1,354],[1134.1,354],[1173.6,323.8],[1185.7,293.1],[1170.4,284.8],[1170.4,284.8],[1165.8,276.6],[1164.1,287],[1123.4,280],[1092.4,280.1],[1051.6,292.1],[1078.6,282.7],[1046.4,270.5],[1049.6,260.8],[1063.8,270.5],[1114.6,264.7],[1162.2,249.1],[1177.1,230.4],[1215.7,226.8],[1215.7,226.8],[1230.5,219.3],[1269.5,209.8],[1269.5,209.8],[1243.1,215.7],[1261.7,191],[1255.9,179.6],[1227.5,162.8],[1186.9,141.3],[1163.9,133.1],[1161.2,154],[1161.2,154],[1133.4,128.9],[1118.1,133.7],[1095.5,126.6],[1095.5,126.6],[1111.7,89.5],[1129.4,96.1],[1132.9,78],[1132.9,78],[1128.8,68.5],[1142.1,70.2],[1114.3,79.8],[1114.3,79.8],[1104,68.1],[1133.9,106.1],[1155.8,113.8],[1122.4,122.7],[1061.7,168.9],[1061.7,168.9],[969,161.9],[969,161.9],[925.7,180.8],[887.3,235.8],[842.7,268.2],[794.9,292.7],[764,299.8],[707,309.4],[667.2,318.8],[677.3,334.1],[670.6,304],[666.4,359.4],[673.3,368.3],[708.1,318.1],[708.1,318.1],[721.6,310.8],[750.3,294.8],[750.3,294.8],[773,290.6],[805,269],[815.7,245.6],[840.4,234],[880.5,256.2],[921.8,223.3],[916.8,235.7],[878.7,263.1]]","[0,0.5333]","[0.5333,0.5333]","[-0.5333,-0.5333]","[-0.5333,0]","[0,-0.5333]","[0.5333,-0.5333]","[0,0]","[0.5333,0]",0,0,0,0,1,1,Monitor,7,7,15,9
