inst1_resp.keys,inst1_resp.rt,calibrationMouse.x,calibrationMouse.y,calibrationMouse.leftButton,calibrationMouse.midButton,calibrationMouse.rightButton,calibrationClick.x,calibrationClick.y,calibrationClick.leftButton,calibrationClick.midButton,calibrationClick.rightButton,trialsc.thisRepN,trialsc.thisTrialN,trialsc.thisN,trialsc.thisIndex,trialsc.ran,calibration_x,calibration_y,participant,session,date,expName,psychopyVersion,OS,frameRate,calibrationClick.clicked_name,ScreenRes_pixels,Camera_pixels,mouse_2.x,mouse_2.y,mouse_2.leftButton,mouse_2.midButton,mouse_2.rightButton,mouse_2.time,mouse_2.clicked_name,mouse.x,mouse.y,mouse.leftButton,mouse.midButton,mouse.rightButton,mouse.time,mouse.clicked_name,Choice,Trial,TrialDuration,MOUSE_GAZE,ET_GAZE,ET_GAZE_x_T,time,unixTime,ET_GAZE_NF,Loc_Option1_label,Loc_Option2_label,Loc_Cost_label,Loc_Qual_label,Loc_Option1_cost,Loc_Option2_cost,Loc_Option1_quality,Loc_Option2_quality,trials.thisRepN,trials.thisTrialN,trials.thisN,trials.thisIndex,trials.ran,Block,Device,cost1,qual1,cost2,qual2
space,1.5707,-0.264583333,-0.005555556,1,0,0,-0.021875,0.001851852,0,0,0,0,0,0,11,1,0,0,22,001,2024-11-30_11h54.49.343,Attention_exp_legacy,2023.1.0,Win32,59.88023952,,,,,,,,,,,,,,,,,,,,,,,,,,,,,,,,,,,,,,,,,,,,,
,,,,,,,-0.671875,0.335185185,1,0,0,0,1,1,3,1,-0.67,0.33,22,001,2024-11-30_11h54.49.343,Attention_exp_legacy,2023.1.0,Win32,59.88023952,calibration_square,,,,,,,,,,,,,,,,,,,,,,,,,,,,,,,,,,,,,,,,,,,,
,,,,,,,-0.330208333,0.668518519,1,0,0,0,2,2,8,1,-0.33,0.67,22,001,2024-11-30_11h54.49.343,Attention_exp_legacy,2023.1.0,Win32,59.88023952,calibration_square,,,,,,,,,,,,,,,,,,,,,,,,,,,,,,,,,,,,,,,,,,,,
,,,,,,,-0.004166667,0.67037037,1,0,0,0,3,3,13,1,0,0.67,22,001,2024-11-30_11h54.49.343,Attention_exp_legacy,2023.1.0,Win32,59.88023952,calibration_square,,,,,,,,,,,,,,,,,,,,,,,,,,,,,,,,,,,,,,,,,,,,
,,,,,,,-0.320833333,0.337037037,1,0,0,0,4,4,7,1,-0.33,0.33,22,001,2024-11-30_11h54.49.343,Attention_exp_legacy,2023.1.0,Win32,59.88023952,calibration_square,,,,,,,,,,,,,,,,,,,,,,,,,,,,,,,,,,,,,,,,,,,,
,,,,,,,0.321875,-0.668518519,1,0,0,0,5,5,14,1,0.33,-0.67,22,001,2024-11-30_11h54.49.343,Attention_exp_legacy,2023.1.0,Win32,59.88023952,calibration_square,,,,,,,,,,,,,,,,,,,,,,,,,,,,,,,,,,,,,,,,,,,,
,,,,,,,0.3375,-0.014814815,1,0,0,0,6,6,16,1,0.33,0,22,001,2024-11-30_11h54.49.343,Attention_exp_legacy,2023.1.0,Win32,59.88023952,,,,,,,,,,,,,,,,,,,,,,,,,,,,,,,,,,,,,,,,,,,,,
,,,,,,,-0.322916667,-0.005555556,1,0,0,0,7,7,6,1,-0.33,0,22,001,2024-11-30_11h54.49.343,Attention_exp_legacy,2023.1.0,Win32,59.88023952,calibration_square,,,,,,,,,,,,,,,,,,,,,,,,,,,,,,,,,,,,,,,,,,,,
,,,,,,,-0.664583333,-0.322222222,1,0,0,0,8,8,1,1,-0.67,-0.33,22,001,2024-11-30_11h54.49.343,Attention_exp_legacy,2023.1.0,Win32,59.88023952,calibration_square,,,,,,,,,,,,,,,,,,,,,,,,,,,,,,,,,,,,,,,,,,,,
,,,,,,,0.323958333,0.674074074,1,0,0,0,9,9,18,1,0.33,0.67,22,001,2024-11-30_11h54.49.343,Attention_exp_legacy,2023.1.0,Win32,59.88023952,calibration_square,,,,,,,,,,,,,,,,,,,,,,,,,,,,,,,,,,,,,,,,,,,,
,,,,,,,0.669791667,0.677777778,1,0,0,0,10,10,19,1,0.67,0.67,22,001,2024-11-30_11h54.49.343,Attention_exp_legacy,2023.1.0,Win32,59.88023952,calibration_square,,,,,,,,,,,,,,,,,,,,,,,,,,,,,,,,,,,,,,,,,,,,
,,,,,,,0,-0.668518519,1,0,0,0,11,11,9,1,0,-0.67,22,001,2024-11-30_11h54.49.343,Attention_exp_legacy,2023.1.0,Win32,59.88023952,calibration_square,,,,,,,,,,,,,,,,,,,,,,,,,,,,,,,,,,,,,,,,,,,,
,,,,,,,0.323958333,0.335185185,1,0,0,0,12,12,17,1,0.33,0.33,22,001,2024-11-30_11h54.49.343,Attention_exp_legacy,2023.1.0,Win32,59.88023952,calibration_square,,,,,,,,,,,,,,,,,,,,,,,,,,,,,,,,,,,,,,,,,,,,
,,,,,,,-0.001041667,-0.335185185,1,0,0,0,13,13,10,1,0,-0.33,22,001,2024-11-30_11h54.49.343,Attention_exp_legacy,2023.1.0,Win32,59.88023952,calibration_square,,,,,,,,,,,,,,,,,,,,,,,,,,,,,,,,,,,,,,,,,,,,
,,,,,,,-0.329166667,-0.331481481,1,0,0,0,14,14,5,1,-0.33,-0.33,22,001,2024-11-30_11h54.49.343,Attention_exp_legacy,2023.1.0,Win32,59.88023952,calibration_square,,,,,,,,,,,,,,,,,,,,,,,,,,,,,,,,,,,,,,,,,,,,
,,,,,,,-0.004166667,0.325925926,1,0,0,0,15,15,12,1,0,0.33,22,001,2024-11-30_11h54.49.343,Attention_exp_legacy,2023.1.0,Win32,59.88023952,calibration_square,,,,,,,,,,,,,,,,,,,,,,,,,,,,,,,,,,,,,,,,,,,,
,,,,,,,0.325,-0.327777778,1,0,0,0,16,16,15,1,0.33,-0.33,22,001,2024-11-30_11h54.49.343,Attention_exp_legacy,2023.1.0,Win32,59.88023952,calibration_square,,,,,,,,,,,,,,,,,,,,,,,,,,,,,,,,,,,,,,,,,,,,
,,,,,,,-0.673958333,0.001851852,1,0,0,0,17,17,2,1,-0.67,0,22,001,2024-11-30_11h54.49.343,Attention_exp_legacy,2023.1.0,Win32,59.88023952,calibration_square,,,,,,,,,,,,,,,,,,,,,,,,,,,,,,,,,,,,,,,,,,,,
,,,,,,,-0.65625,-0.661111111,1,0,0,0,18,18,0,1,-0.67,-0.67,22,001,2024-11-30_11h54.49.343,Attention_exp_legacy,2023.1.0,Win32,59.88023952,,,,,,,,,,,,,,,,,,,,,,,,,,,,,,,,,,,,,,,,,,,,,
,,,,,,,0.664583333,-0.668518519,1,0,0,0,19,19,20,1,0.67,-0.67,22,001,2024-11-30_11h54.49.343,Attention_exp_legacy,2023.1.0,Win32,59.88023952,calibration_square,,,,,,,,,,,,,,,,,,,,,,,,,,,,,,,,,,,,,,,,,,,,
,,,,,,,-0.335416667,-0.668518519,1,0,0,0,20,20,4,1,-0.33,-0.67,22,001,2024-11-30_11h54.49.343,Attention_exp_legacy,2023.1.0,Win32,59.88023952,calibration_square,,,,,,,,,,,,,,,,,,,,,,,,,,,,,,,,,,,,,,,,,,,,
,,,,,,,,,,,,,,,,,,,22,001,2024-11-30_11h54.49.343,Attention_exp_legacy,2023.1.0,Win32,59.88023952,,"[1920,1080]","[640,480]",[-0.0010416666666666667],[-0.48333333333333334],[1],[0],[0],[2.4348000000119185],"[""StartButton""]",[0.010416666666666666],[0.3296296296296296],[1],[0],[0],[4.167599999964239],"[""Option1_label""]",Option1_label,1,5.1914,"[[-0.0020833333333333333,-0.45925925925925926],[-0.0020833333333333333,-0.45925925925925926],[-0.0020833333333333333,-0.45925925925925926],[-0.0020833333333333333,-0.45925925925925926],[-0.0020833333333333333,-0.45925925925925926],[-0.0020833333333333333,-0.45925925925925926],[-0.0020833333333333333,-0.45925925925925926],[-0.0020833333333333333,-0.45925925925925926],[-0.0020833333333333333,-0.45925925925925926],[-0.0020833333333333333,-0.45925925925925926],[-0.0020833333333333333,-0.45925925925925926],[-0.0020833333333333333,-0.45925925925925926],[-0.0020833333333333333,-0.45925925925925926],[-0.0020833333333333333,-0.45925925925925926],[-0.0020833333333333333,-0.45925925925925926],[-0.0020833333333333333,-0.45925925925925926],[-0.0020833333333333333,-0.45925925925925926],[-0.0020833333333333333,-0.45925925925925926],[-0.0020833333333333333,-0.45925925925925926],[-0.005208333333333333,-0.45740740740740743],[-0.00625,-0.4537037037037037],[-0.007291666666666667,-0.4537037037037037],[-0.010416666666666666,-0.45185185185185184],[-0.010416666666666666,-0.45185185185185184],[-0.011458333333333333,-0.45185185185185184],[-0.011458333333333333,-0.45185185185185184],[-0.011458333333333333,-0.45185185185185184],[-0.011458333333333333,-0.45185185185185184],[-0.011458333333333333,-0.45185185185185184],[-0.011458333333333333,-0.45185185185185184],[-0.011458333333333333,-0.45185185185185184],[-0.011458333333333333,-0.45185185185185184],[-0.011458333333333333,-0.45185185185185184],[-0.011458333333333333,-0.45185185185185184],[-0.011458333333333333,-0.45185185185185184],[-0.011458333333333333,-0.45185185185185184],[-0.011458333333333333,-0.45185185185185184],[-0.011458333333333333,-0.45185185185185184],[-0.011458333333333333,-0.45185185185185184],[-0.011458333333333333,-0.45185185185185184],[-0.011458333333333333,-0.45185185185185184],[-0.011458333333333333,-0.45185185185185184],[-0.011458333333333333,-0.45185185185185184],[-0.011458333333333333,-0.45185185185185184],[-0.011458333333333333,-0.45185185185185184],[-0.011458333333333333,-0.45185185185185184],[-0.011458333333333333,-0.45185185185185184],[-0.011458333333333333,-0.45185185185185184],[-0.011458333333333333,-0.45185185185185184],[-0.011458333333333333,-0.45185185185185184],[-0.011458333333333333,-0.45185185185185184],[-0.011458333333333333,-0.45185185185185184],[-0.011458333333333333,-0.45185185185185184],[-0.011458333333333333,-0.45185185185185184],[-0.011458333333333333,-0.45185185185185184],[-0.011458333333333333,-0.45185185185185184],[-0.011458333333333333,-0.45185185185185184],[-0.011458333333333333,-0.45185185185185184],[-0.011458333333333333,-0.45185185185185184],[-0.011458333333333333,-0.45185185185185184],[-0.011458333333333333,-0.45185185185185184],[-0.011458333333333333,-0.45185185185185184],[-0.011458333333333333,-0.45185185185185184],[-0.011458333333333333,-0.45185185185185184],[-0.011458333333333333,-0.45185185185185184],[-0.011458333333333333,-0.45185185185185184],[-0.011458333333333333,-0.45185185185185184],[-0.011458333333333333,-0.45185185185185184],[-0.011458333333333333,-0.45185185185185184],[-0.011458333333333333,-0.45185185185185184],[-0.011458333333333333,-0.45185185185185184],[-0.011458333333333333,-0.45185185185185184],[-0.011458333333333333,-0.45185185185185184],[-0.011458333333333333,-0.45185185185185184],[-0.011458333333333333,-0.45185185185185184],[-0.011458333333333333,-0.45185185185185184],[-0.011458333333333333,-0.45185185185185184],[-0.011458333333333333,-0.45185185185185184],[-0.011458333333333333,-0.45185185185185184],[-0.011458333333333333,-0.45185185185185184],[-0.011458333333333333,-0.45185185185185184],[-0.011458333333333333,-0.45185185185185184],[-0.011458333333333333,-0.45185185185185184],[-0.011458333333333333,-0.45185185185185184],[-0.011458333333333333,-0.45185185185185184],[-0.011458333333333333,-0.45185185185185184],[-0.011458333333333333,-0.45185185185185184],[-0.011458333333333333,-0.45185185185185184],[-0.011458333333333333,-0.45185185185185184],[-0.011458333333333333,-0.45185185185185184],[-0.011458333333333333,-0.45185185185185184],[-0.011458333333333333,-0.45185185185185184],[-0.011458333333333333,-0.45185185185185184],[-0.011458333333333333,-0.45185185185185184],[-0.011458333333333333,-0.45185185185185184],[-0.011458333333333333,-0.45185185185185184],[-0.011458333333333333,-0.45185185185185184],[-0.011458333333333333,-0.45185185185185184],[-0.011458333333333333,-0.45185185185185184],[-0.011458333333333333,-0.45185185185185184],[-0.011458333333333333,-0.45185185185185184],[-0.011458333333333333,-0.45185185185185184],[-0.011458333333333333,-0.45185185185185184],[-0.011458333333333333,-0.45185185185185184],[-0.011458333333333333,-0.45185185185185184],[-0.011458333333333333,-0.45185185185185184],[-0.011458333333333333,-0.45185185185185184],[-0.011458333333333333,-0.45185185185185184],[-0.011458333333333333,-0.45185185185185184],[-0.011458333333333333,-0.45185185185185184],[-0.011458333333333333,-0.45185185185185184],[-0.011458333333333333,-0.45185185185185184],[-0.011458333333333333,-0.45185185185185184],[-0.011458333333333333,-0.45185185185185184],[-0.011458333333333333,-0.45185185185185184],[-0.011458333333333333,-0.45185185185185184],[-0.011458333333333333,-0.45185185185185184],[-0.011458333333333333,-0.45185185185185184],[-0.011458333333333333,-0.45185185185185184],[-0.011458333333333333,-0.45185185185185184],[-0.011458333333333333,-0.45185185185185184],[-0.011458333333333333,-0.45185185185185184],[-0.011458333333333333,-0.45185185185185184],[-0.011458333333333333,-0.45185185185185184],[-0.011458333333333333,-0.45185185185185184],[-0.011458333333333333,-0.45185185185185184],[-0.011458333333333333,-0.45185185185185184],[-0.011458333333333333,-0.45185185185185184],[-0.011458333333333333,-0.45185185185185184],[-0.011458333333333333,-0.45185185185185184],[-0.011458333333333333,-0.45185185185185184],[-0.011458333333333333,-0.45185185185185184],[-0.011458333333333333,-0.45185185185185184],[-0.011458333333333333,-0.45185185185185184],[-0.011458333333333333,-0.45185185185185184],[-0.011458333333333333,-0.45185185185185184],[-0.011458333333333333,-0.45185185185185184],[-0.011458333333333333,-0.45185185185185184],[-0.011458333333333333,-0.45185185185185184],[-0.011458333333333333,-0.45185185185185184],[-0.011458333333333333,-0.45185185185185184],[-0.011458333333333333,-0.45185185185185184],[-0.011458333333333333,-0.45185185185185184],[-0.011458333333333333,-0.45185185185185184],[-0.011458333333333333,-0.45185185185185184],[-0.011458333333333333,-0.45185185185185184],[-0.011458333333333333,-0.45185185185185184],[-0.011458333333333333,-0.45185185185185184],[-0.011458333333333333,-0.45185185185185184],[-0.011458333333333333,-0.45185185185185184],[-0.011458333333333333,-0.45185185185185184],[-0.011458333333333333,-0.45185185185185184],[-0.011458333333333333,-0.45185185185185184],[-0.011458333333333333,-0.45185185185185184],[-0.011458333333333333,-0.45185185185185184],[-0.011458333333333333,-0.45185185185185184],[-0.011458333333333333,-0.45185185185185184],[-0.011458333333333333,-0.45185185185185184],[-0.011458333333333333,-0.45185185185185184],[-0.011458333333333333,-0.45185185185185184],[-0.011458333333333333,-0.45185185185185184],[-0.011458333333333333,-0.45185185185185184],[-0.011458333333333333,-0.45185185185185184],[-0.011458333333333333,-0.45185185185185184],[-0.011458333333333333,-0.45185185185185184],[-0.011458333333333333,-0.45185185185185184],[-0.011458333333333333,-0.45185185185185184],[-0.011458333333333333,-0.45185185185185184],[-0.011458333333333333,-0.45185185185185184],[-0.011458333333333333,-0.45185185185185184],[-0.011458333333333333,-0.45185185185185184],[-0.011458333333333333,-0.45185185185185184],[-0.011458333333333333,-0.45185185185185184],[-0.011458333333333333,-0.45185185185185184],[-0.011458333333333333,-0.45185185185185184],[-0.011458333333333333,-0.45185185185185184],[-0.011458333333333333,-0.45185185185185184],[-0.011458333333333333,-0.45185185185185184],[-0.011458333333333333,-0.45185185185185184],[-0.011458333333333333,-0.45185185185185184],[-0.011458333333333333,-0.45185185185185184],[-0.011458333333333333,-0.45185185185185184],[0.0020833333333333333,-0.42592592592592593],[0.046875,-0.35555555555555557],[0.08645833333333333,-0.25],[0.159375,-0.053703703703703705],[0.20833333333333334,0.04259259259259259],[0.24166666666666667,0.09814814814814815],[0.25729166666666664,0.12962962962962962],[0.2635416666666667,0.15],[0.26666666666666666,0.1574074074074074],[0.26666666666666666,0.16111111111111112],[0.2677083333333333,0.16666666666666666],[0.26979166666666665,0.17222222222222222],[0.26979166666666665,0.17222222222222222],[0.271875,0.17592592592592593],[0.278125,0.1925925925925926],[0.2791666666666667,0.19814814814814816],[0.284375,0.21666666666666667],[0.28958333333333336,0.2351851851851852],[0.29375,0.24814814814814815],[0.3,0.26666666666666666],[0.3020833333333333,0.2796296296296296],[0.30625,0.2962962962962963],[0.30833333333333335,0.3055555555555556],[0.3104166666666667,0.31296296296296294],[0.3125,0.32037037037037036],[0.31354166666666666,0.32407407407407407],[0.31354166666666666,0.32592592592592595],[0.31354166666666666,0.3277777777777778],[0.31354166666666666,0.3277777777777778],[0.31354166666666666,0.3277777777777778],[0.31354166666666666,0.3277777777777778],[0.31354166666666666,0.3277777777777778],[0.31354166666666666,0.3277777777777778],[0.31354166666666666,0.3277777777777778],[0.31354166666666666,0.3277777777777778],[0.31354166666666666,0.3277777777777778],[0.31354166666666666,0.3277777777777778],[0.31354166666666666,0.3277777777777778],[0.31354166666666666,0.3277777777777778],[0.31354166666666666,0.3277777777777778],[0.31354166666666666,0.3277777777777778],[0.31354166666666666,0.3277777777777778],[0.31354166666666666,0.3277777777777778],[0.31354166666666666,0.3277777777777778],[0.31354166666666666,0.3277777777777778],[0.31354166666666666,0.3296296296296296],[0.3104166666666667,0.3296296296296296],[0.2989583333333333,0.3296296296296296],[0.2791666666666667,0.3296296296296296],[0.25625,0.3296296296296296],[0.21770833333333334,0.3296296296296296],[0.20625,0.3296296296296296],[0.18333333333333332,0.3296296296296296],[0.15416666666666667,0.3296296296296296],[0.1,0.3296296296296296],[0.07708333333333334,0.3296296296296296],[0.030208333333333334,0.3296296296296296],[0.015625,0.3296296296296296],[0.010416666666666666,0.3296296296296296],[0.010416666666666666,0.3296296296296296],[0.010416666666666666,0.3296296296296296],[0.010416666666666666,0.3296296296296296],[0.010416666666666666,0.3296296296296296],[0.010416666666666666,0.3296296296296296],[0.010416666666666666,0.3296296296296296],[0.010416666666666666,0.3296296296296296],[0.010416666666666666,0.3296296296296296],[0.010416666666666666,0.3296296296296296],[0.010416666666666666,0.3296296296296296],[0.010416666666666666,0.3296296296296296],[0.010416666666666666,0.3296296296296296],[0.010416666666666666,0.3296296296296296],[0.010416666666666666,0.3296296296296296],[0.010416666666666666,0.3296296296296296],[0.010416666666666666,0.3296296296296296],[0.010416666666666666,0.3296296296296296],[0.010416666666666666,0.3296296296296296],[0.010416666666666666,0.3296296296296296],[0.010416666666666666,0.3296296296296296],[0.010416666666666666,0.3296296296296296],[0.010416666666666666,0.3296296296296296],[0.010416666666666666,0.3296296296296296],[0.010416666666666666,0.3296296296296296],[0.010416666666666666,0.3296296296296296],[0.009375,0.3296296296296296],[0.009375,0.3296296296296296],[0.009375,0.3296296296296296],[0.009375,0.3296296296296296],[0.009375,0.3296296296296296],[0.009375,0.3296296296296296],[0.009375,0.3296296296296296],[0.009375,0.3296296296296296],[0.009375,0.3296296296296296],[0.009375,0.3296296296296296],[0.009375,0.3296296296296296],[0.009375,0.3296296296296296],[0.009375,0.3296296296296296],[0.009375,0.3296296296296296],[0.009375,0.3296296296296296],[0.009375,0.3296296296296296],[0.009375,0.3296296296296296],[0.009375,0.3296296296296296],[0.009375,0.3296296296296296],[0.009375,0.3296296296296296],[0.009375,0.3296296296296296],[0.009375,0.3296296296296296],[0.009375,0.3296296296296296],[0.009375,0.3296296296296296],[0.009375,0.3296296296296296],[0.009375,0.3296296296296296],[0.009375,0.3296296296296296],[0.009375,0.3296296296296296],[0.009375,0.3296296296296296],[0.009375,0.3296296296296296],[0.009375,0.3296296296296296],[0.009375,0.3296296296296296],[0.009375,0.3296296296296296],[0.009375,0.3296296296296296],[0.009375,0.3296296296296296],[0.009375,0.3296296296296296],[0.009375,0.3296296296296296],[0.009375,0.3296296296296296],[0.009375,0.3296296296296296],[0.009375,0.3296296296296296],[0.009375,0.3296296296296296],[0.009375,0.3296296296296296],[0.009375,0.3296296296296296],[0.009375,0.3296296296296296],[0.009375,0.3296296296296296],[0.009375,0.3296296296296296]]","[[-0.04552083333333338,0.297037037037037],[-0.04552083333333338,0.297037037037037],[-0.05020833333333338,0.2890740740740741],[-0.05020833333333338,0.2890740740740741],[-0.036666666666666715,0.290925925925926],[-0.024791666666666618,0.24240740740740738],[-0.024791666666666618,0.24240740740740738],[-0.00947916666666669,0.1977777777777777],[-0.005520833333333286,0.18000000000000008],[-0.005520833333333286,0.18000000000000008],[0.004270833333333357,0.15092592592592594],[0.02000000000000005,0.12222222222222222],[0.00625,0.06703703703703712],[0.010625000000000048,0.006666666666666709],[0.010625000000000048,0.006666666666666709],[-0.0005208333333333333,-0.0668518518518519],[-0.021041666666666715,-0.11129629629629634],[-0.035520833333333356,-0.13537037037037042],[-0.035520833333333356,-0.13537037037037042],[-0.04750000000000002,-0.11388888888888889],[-0.05927083333333331,-0.06925925925925921],[-0.05927083333333331,-0.06925925925925921],[-0.059895833333333336,-0.012222222222222264],[-0.07177083333333331,0.07092592592592584],[-0.06927083333333334,0.10037037037037046],[-0.06927083333333334,0.10037037037037046],[-0.05437500000000005,0.14888888888888885],[-0.05406249999999998,0.1911111111111112],[-0.05406249999999998,0.1911111111111112],[-0.05,0.2572222222222222],[-0.05,0.2572222222222222],[-0.050625000000000024,0.33277777777777784],[-0.050625000000000024,0.33277777777777784],[-0.025520833333333333,0.37592592592592594],[-0.025520833333333333,0.37592592592592594],[-0.0020833333333333333,0.4227777777777777],[-0.0020833333333333333,0.4227777777777777],[0.0109375,0.4537037037037037],[0.0109375,0.4537037037037037],[0.024583333333333356,0.4449999999999999],[0.0609375,0.4148148148148148],[0.06854166666666663,0.44833333333333336],[0.08010416666666677,0.4359259259259259],[0.0765625,0.4468518518518518],[0.07312500000000005,0.4522222222222223],[0.08489583333333334,0.45703703703703696],[0.07895833333333328,0.49962962962962953],[0.06677083333333324,0.5192592592592592],[0.057187499999999974,0.45981481481481473],[0.04593750000000003,0.46592592592592597],[0.035312499999999976,0.4859259259259259],[0.04489583333333336,0.48407407407407405],[0.059895833333333336,0.4722222222222222],[0.06187499999999998,0.44537037037037036],[0.04906250000000002,0.39203703703703713],[0.024479166666666666,0.3475925925925927],[0.028750000000000022,0.28111111111111103],[0.03322916666666664,0.23296296296296287],[0.030729166666666665,0.2412962962962962],[0.03333333333333333,0.2257407407407407],[0.015625,0.18925925925925935],[-0.02177083333333331,0.19129629629629621],[-0.05385416666666672,0.19444444444444445],[-0.06239583333333331,0.17814814814814822],[-0.05677083333333333,0.23166666666666672],[-0.05510416666666664,0.23333333333333334],[-0.09354166666666662,0.24259259259259258],[-0.09125000000000003,0.23666666666666658],[-0.07791666666666662,0.2449999999999999],[-0.07312500000000005,0.21074074074074065],[-0.057083333333333285,0.20796296296296288],[-0.03583333333333331,0.1588888888888888],[-0.042708333333333334,0.16055555555555565],[-0.05447916666666662,0.18944444444444436],[-0.06989583333333335,0.13666666666666658],[-0.07374999999999995,0.12851851851851848],[-0.036145833333333384,0.11999999999999991],[-0.03687499999999998,0.09814814814814815],[-0.052187500000000026,0.11814814814814806],[-0.04500000000000005,0.14537037037037037],[-0.04822916666666662,0.18425925925925926],[-0.04562499999999995,0.2403703703703703],[-0.0375,0.2861111111111111],[-0.05427083333333336,0.32111111111111107],[-0.03218749999999997,0.3764814814814814],[-0.027499999999999976,0.3903703703703703],[-0.04552083333333338,0.3903703703703703],[-0.06812499999999998,0.4044444444444444],[-0.09125000000000003,0.38574074074074066],[-0.09125000000000003,0.38574074074074066],[-0.12218749999999995,0.362962962962963],[-0.12218749999999995,0.362962962962963],[-0.1514583333333333,0.33777777777777773],[-0.1655208333333333,0.30333333333333323],[-0.17552083333333332,0.26962962962962966],[-0.17291666666666666,0.22481481481481477],[-0.18031250000000001,0.19222222222222213],[-0.1772916666666667,0.20055555555555546],[-0.18916666666666668,0.2081481481481481],[-0.1796875,0.21740740740740735],[-0.14958333333333335,0.21796296296296305],[-0.13062499999999996,0.22333333333333338],[-0.11906249999999995,0.22259259259259268],[-0.10687500000000003,0.20962962962962972],[-0.08968750000000002,0.22388888888888886],[-0.06833333333333336,0.23370370370370377],[-0.050312499999999954,0.2624074074074075],[-0.01875,0.2433333333333333],[0.016875000000000046,0.2764814814814814],[0.034375,0.2905555555555555],[0.03885416666666662,0.3074074074074074],[0.04031250000000005,0.3448148148148149],[0.05593750000000005,0.3509259259259259],[0.08614583333333338,0.39166666666666666],[0.10770833333333343,0.40111111111111114],[0.1521874999999999,0.41222222222222227],[0.17635416666666662,0.40185185185185185],[0.2127083333333334,0.4185185185185185],[0.2491666666666667,0.40851851851851856],[0.27541666666666675,0.412962962962963],[0.3150000000000001,0.39444444444444443],[0.3150000000000001,0.39444444444444443],[0.36208333333333326,0.34962962962962957],[0.41041666666666665,0.3442592592592592],[0.43510416666666674,0.3079629629629629],[0.4390625,0.28888888888888886],[0.43562500000000004,0.2698148148148149],[0.44385416666666655,0.23592592592592587],[0.43291666666666656,0.21518518518518526],[0.4239583333333333,0.19388888888888897],[0.4256249999999999,0.21333333333333343],[0.4313541666666666,0.19592592592592584],[0.4313541666666666,0.19592592592592584],[0.44114583333333335,0.1883333333333334],[0.4410416666666668,0.19037037037037027],[0.4370833333333332,0.17222222222222222],[0.4370833333333332,0.17222222222222222],[0.4365624999999999,0.13722222222222227],[0.44520833333333343,0.1294444444444444],[0.44343750000000004,0.1485185185185186],[0.44343750000000004,0.1485185185185186],[0.4527083333333332,0.15999999999999995],[0.42156250000000006,0.1477777777777777],[0.3966666666666666,0.11314814814814819],[0.3095833333333334,0.08722222222222227],[0.21760416666666677,0.05648148148148148],[0.13791666666666677,0.056666666666666705],[0.04364583333333331,0.08185185185185194],[-0.028125,0.06722222222222214],[-0.028125,0.06722222222222214],[-0.10072916666666672,0.05740740740740741],[-0.1814583333333334,0.021481481481481525],[-0.2725,0.02240740740740745],[-0.2725,0.02240740740740745],[-0.31906249999999997,0.010925925925925884],[-0.3692708333333333,-0.0031481481481482323],[-0.3729166666666667,-0.0020370370370370794],[-0.3775,0.03222222222222218],[-0.41031249999999997,0.021481481481481525],[-0.41135416666666663,-0.011481481481481566],[-0.41135416666666663,-0.011481481481481566],[-0.42250000000000004,-0.006296296296296254],[-0.4423958333333334,0.0007407407407406986],[-0.44854166666666667,0.0007407407407406986],[-0.4487499999999999,-0.036666666666666584],[-0.4487499999999999,-0.036666666666666584],[-0.463125,-0.03722222222222227],[-0.4764583333333333,-0.0418518518518519],[-0.48125,-0.007962962962962878],[-0.46947916666666667,-0.014259259259259343],[-0.45812499999999995,-0.026111111111111154],[-0.4409374999999999,-0.0544444444444444],[-0.4214583333333334,-0.04592592592592584],[-0.4214583333333334,-0.04592592592592584],[-0.4102083333333333,-0.07314814814814814],[-0.4271875,-0.06703703703703702],[-0.4289583333333333,-0.034999999999999955],[-0.425,-0.019259259259259216],[-0.41729166666666667,-0.009074074074074031],[-0.40114583333333337,-0.032037037037036954],[-0.4192708333333333,-0.01574074074074074],[-0.4045833333333333,0.014074074074074116],[-0.4061458333333333,0.07629629629629638],[-0.4061458333333333,0.07629629629629638],[-0.3297916666666667,0.14907407407407408],[-0.25062500000000004,0.22925925925925916],[-0.1530208333333333,0.3050000000000001],[-0.08302083333333338,0.3412962962962962],[-0.003958333333333286,0.34685185185185174],[0.071875,0.38129629629629624],[0.1336458333333333,0.38722222222222225],[0.2131249999999999,0.38722222222222225],[0.27145833333333325,0.3344444444444445],[0.27145833333333325,0.3344444444444445],[0.34364583333333343,0.3387037037037037],[0.33833333333333326,0.2616666666666666],[0.32927083333333323,0.19703703703703698],[0.32927083333333323,0.19703703703703698],[0.34708333333333335,0.10351851851851848],[0.3785416666666668,0.016851851851851896],[0.39260416666666675,-0.03814814814814819],[0.39260416666666675,-0.03814814814814819],[0.4070833333333333,-0.07148148148148152],[0.42552083333333335,-0.08370370370370368],[0.43624999999999997,-0.12925925925925927],[0.43624999999999997,-0.12925925925925927],[0.4423958333333334,-0.1794444444444444],[0.44864583333333335,-0.22611111111111115],[0.44864583333333335,-0.22611111111111115],[0.44166666666666665,-0.25277777777777777],[0.44802083333333326,-0.3362962962962963],[0.44802083333333326,-0.3362962962962963],[0.4171875,-0.3925925925925926],[0.4045833333333334,-0.40629629629629627],[0.4045833333333334,-0.40629629629629627],[0.38520833333333326,-0.4235185185185185],[0.3931250000000001,-0.4653703703703704],[0.3793750000000001,-0.495],[0.35906250000000006,-0.5025925925925926],[0.35906250000000006,-0.5025925925925926],[0.31531250000000005,-0.44166666666666665],[0.2669791666666666,-0.4251851851851852],[0.2287499999999999,-0.3822222222222222],[0.19385416666666658,-0.3146296296296296],[0.15187499999999995,-0.25018518518518523],[0.09468750000000009,-0.19666666666666666],[0.09468750000000009,-0.19666666666666666],[0.050312499999999954,-0.1398148148148148],[-0.013333333333333286,-0.1844444444444445],[-0.010312499999999976,-0.15],[-0.010312499999999976,-0.15],[0.012812499999999952,-0.1257407407407407],[0.051874999999999956,-0.15351851851851847],[0.051874999999999956,-0.15351851851851847],[0.078125,-0.18611111111111112],[0.09979166666666663,-0.2375925925925926],[0.10854166666666672,-0.25629629629629624],[0.10854166666666672,-0.25629629629629624],[0.12218749999999995,-0.2788888888888889],[0.13156249999999994,-0.32462962962962966],[0.13156249999999994,-0.32462962962962966],[0.1681250000000001,-0.3757407407407407],[0.18260416666666662,-0.2942592592592592],[0.18260416666666662,-0.2942592592592592],[0.15197916666666675,-0.30629629629629623],[0.0990624999999999,-0.2922222222222222],[0.10552083333333329,-0.30703703703703705],[0.08250000000000005,-0.2948148148148148],[0.07739583333333329,-0.2759259259259259],[0.07739583333333329,-0.2759259259259259],[0.07427083333333329,-0.29129629629629633],[0.08291666666666657,-0.3296296296296296],[0.08489583333333334,-0.355],[0.07958333333333342,-0.3683333333333333],[0.07885416666666671,-0.41277777777777774],[0.07885416666666671,-0.41277777777777774],[0.0765625,-0.4318518518518518],[0.0743750000000001,-0.4770370370370371],[0.04729166666666664,-0.4948148148148148],[0.04479166666666667,-0.5153703703703704],[0.05375000000000003,-0.5757407407407407],[0.05437500000000005,-0.6264814814814815],[0.04864583333333338,-0.6137037037037036],[0.04864583333333338,-0.6137037037037036],[0.044270833333333336,-0.6505555555555556],[0.03343750000000002,-0.6801851851851852],[0.0359375,-0.7142592592592593],[0.0359375,-0.7142592592592593],[0.030416666666666713,-0.7303703703703703],[0.030416666666666713,-0.7303703703703703],[0.05510416666666664,-0.7531481481481481],[0.05510416666666664,-0.7531481481481481],[0.03770833333333338,-0.7561111111111112],[0.03322916666666664,-0.7892592592592592],[0.004375000000000047,-0.782962962962963],[0.004375000000000047,-0.782962962962963],[-0.008958333333333356,-0.755],[-0.006458333333333381,-0.75],[0.01572916666666669,-0.7],[0.01572916666666669,-0.7],[0.015312500000000047,-0.6950000000000001],[-0.0007291666666667141,-0.6577777777777778],[-0.011874999999999976,-0.6374074074074074],[-0.011874999999999976,-0.6374074074074074],[-0.022395833333333334,-0.617037037037037],[-0.022395833333333334,-0.617037037037037],[-0.03270833333333331,-0.6116666666666667],[-0.03270833333333331,-0.6116666666666667],[-0.02677083333333338,-0.6155555555555555],[-0.02520833333333338,-0.5801851851851852],[-0.025625000000000023,-0.5237037037037037],[-0.030624999999999975,-0.4935185185185185],[-0.030624999999999975,-0.4935185185185185],[-0.06239583333333331,-0.4938888888888889],[-0.07875000000000003,-0.4772222222222222],[-0.07208333333333337,-0.49740740740740746],[-0.07989583333333337,-0.5205555555555555],[-0.10249999999999998,-0.5292592592592593],[-0.10718749999999998,-0.5175925925925926],[-0.12010416666666662,-0.4890740740740741],[-0.1203125,-0.4674074074074074],[-0.14322916666666666,-0.49981481481481477],[-0.17145833333333335,-0.5268518518518519],[-0.19562499999999997,-0.5244444444444444],[-0.21770833333333334,-0.49981481481481477],[-0.24958333333333335,-0.47074074074074074],[-0.2646875,-0.44370370370370377],[-0.2652083333333334,-0.44592592592592595],[-0.263125,-0.4487037037037037],[-0.2876041666666667,-0.4242592592592593],[-0.3266666666666667,-0.4335185185185186],[-0.3360416666666667,-0.4155555555555555]]","[[-0.04552083333333338,0.297037037037037,0.00030000001192576065],[-0.04552083333333338,0.297037037037037,0.03970000004768792],[-0.05020833333333338,0.2890740740740741,0.04700000000000415],[-0.05020833333333338,0.2890740740740741,0.057700000047688604],[-0.036666666666666715,0.290925925925926,0.07450000000000045],[-0.024791666666666618,0.24240740740740738,0.09650000000000603],[-0.024791666666666618,0.24240740740740738,0.10780000001192036],[-0.00947916666666669,0.1977777777777777,0.12440000003576301],[-0.005520833333333286,0.18000000000000008,0.14680000001192184],[-0.005520833333333286,0.18000000000000008,0.15770000004768292],[0.004270833333333357,0.15092592592592594,0.1746000000238439],[0.02000000000000005,0.12222222222222222,0.19120000004768656],[0.00625,0.06703703703703712,0.20760000002384515],[0.010625000000000048,0.006666666666666709,0.22840000003576222],[0.010625000000000048,0.006666666666666709,0.2411000000238417],[-0.0005208333333333333,-0.0668518518518519,0.2579000000357681],[-0.021041666666666715,-0.11129629629629634,0.2751000000238477],[-0.035520833333333356,-0.13537037037037042,0.291200000047688],[-0.035520833333333356,-0.13537037037037042,0.3077000000476886],[-0.04750000000000002,-0.11388888888888889,0.3287000000476894],[-0.05927083333333331,-0.06925925925925921,0.347400000035762],[-0.05927083333333331,-0.06925925925925921,0.3580000000000041],[-0.059895833333333336,-0.012222222222222264,0.3745000000000047],[-0.07177083333333331,0.07092592592592584,0.3912000000476894],[-0.06927083333333334,0.10037037037037046,0.4129000000357621],[-0.06927083333333334,0.10037037037037046,0.42430000001192525],[-0.05437500000000005,0.14888888888888885,0.44130000001192116],[-0.05406249999999998,0.1911111111111112,0.4603000000119266],[-0.05406249999999998,0.1911111111111112,0.47460000002384106],[-0.05,0.2572222222222222,0.4911000000238417],[-0.05,0.2572222222222222,0.5080000000000027],[-0.050625000000000024,0.33277777777777784,0.5277000000476875],[-0.050625000000000024,0.33277777777777784,0.541200000047688],[-0.025520833333333333,0.37592592592592594,0.5578000000119232],[-0.025520833333333333,0.37592592592592594,0.5744000000357659],[-0.0020833333333333333,0.4227777777777777,0.5912000000476851],[-0.0020833333333333333,0.4227777777777777,0.6079000000357624],[0.0109375,0.4537037037037037,0.6246000000238467],[0.0109375,0.4537037037037037,0.641300000011924],[0.024583333333333356,0.4449999999999999,0.6578000000119246],[0.0609375,0.4148148148148148,0.6744000000357673],[0.06854166666666663,0.44833333333333336,0.6911000000238445],[0.08010416666666677,0.4359259259259259,0.7077000000476872],[0.0765625,0.4468518518518518,0.7278000000119249],[0.07312500000000005,0.4522222222222223,0.7437000000476885],[0.08489583333333334,0.45703703703703696,0.7592000000476844],[0.07895833333333328,0.49962962962962953,0.7779000000357641],[0.06677083333333324,0.5192592592592592,0.7937000000476857],[0.057187499999999974,0.45981481481481473,0.8107000000476887],[0.04593750000000003,0.46592592592592597,0.8243000000119238],[0.035312499999999976,0.4859259259259259,0.8433000000119222],[0.04489583333333336,0.48407407407407405,0.8597000000476882],[0.059895833333333336,0.4722222222222222,0.874400000035763],[0.06187499999999998,0.44537037037037036,0.8910000000000053],[0.04906250000000002,0.39203703703703713,0.9081000000238433],[0.024479166666666666,0.3475925925925927,0.9244000000357673],[0.028750000000000022,0.28111111111111103,0.9416000000238469],[0.03322916666666664,0.23296296296296287,0.9581000000238475],[0.030729166666666665,0.2412962962962962,0.9774000000357645],[0.03333333333333333,0.2257407407407407,0.9913000000119254],[0.015625,0.18925925925925935,1.0077000000476843],[-0.02177083333333331,0.19129629629629621,1.0245000000000033],[-0.05385416666666672,0.19444444444444445,1.0417000000476833],[-0.06239583333333331,0.17814814814814822,1.0586000000238442],[-0.05677083333333333,0.23166666666666672,1.0744000000357659],[-0.05510416666666664,0.23333333333333334,1.091000000000001],[-0.09354166666666662,0.24259259259259258,1.1077000000476858],[-0.09125000000000003,0.23666666666666658,1.1249000000357654],[-0.07791666666666662,0.2449999999999999,1.1411000000238474],[-0.07312500000000005,0.21074074074074065,1.1578000000119246],[-0.057083333333333285,0.20796296296296288,1.1743000000119252],[-0.03583333333333331,0.1588888888888888,1.193900000035768],[-0.042708333333333334,0.16055555555555565,1.2077000000476872],[-0.05447916666666662,0.18944444444444436,1.2243000000119224],[-0.06989583333333335,0.13666666666666658,1.2412000000476837],[-0.07374999999999995,0.12851851851851848,1.2589000000357657],[-0.036145833333333384,0.11999999999999991,1.2745000000000033],[-0.03687499999999998,0.09814814814814815,1.291000000000004],[-0.052187500000000026,0.11814814814814806,1.3078000000119232],[-0.04500000000000005,0.14537037037037037,1.3244000000357659],[-0.04822916666666662,0.18425925925925926,1.3412000000476851],[-0.04562499999999995,0.2403703703703703,1.3578000000119204],[-0.0375,0.2861111111111111,1.3747000000476888],[-0.05427083333333336,0.32111111111111107,1.3910000000000053],[-0.03218749999999997,0.3764814814814814,1.4078000000119246],[-0.027499999999999976,0.3903703703703703,1.4244000000357673],[-0.04552083333333338,0.3903703703703703,1.4411000000238445],[-0.06812499999999998,0.4044444444444444,1.4580000000000055],[-0.09125000000000003,0.38574074074074066,1.474600000023841],[-0.09125000000000003,0.38574074074074066,1.4911000000238417],[-0.12218749999999995,0.362962962962963,1.5077000000476843],[-0.12218749999999995,0.362962962962963,1.5246000000238453],[-0.1514583333333333,0.33777777777777773,1.541000000000004],[-0.1655208333333333,0.30333333333333323,1.5577000000476886],[-0.17552083333333332,0.26962962962962966,1.5744000000357659],[-0.17291666666666666,0.22481481481481477,1.5946000000238456],[-0.18031250000000001,0.19222222222222213,1.6103000000119252],[-0.1772916666666667,0.20055555555555546,1.624300000011921],[-0.18916666666666668,0.2081481481481481,1.641300000011924],[-0.1796875,0.21740740740740735,1.659000000000006],[-0.14958333333333335,0.21796296296296305,1.6751000000238463],[-0.13062499999999996,0.22333333333333338,1.6910000000000025],[-0.11906249999999995,0.22259259259259268,1.7078000000119218],[-0.10687500000000003,0.20962962962962972,1.724499999999999],[-0.08968750000000002,0.22388888888888886,1.7411000000238417],[-0.06833333333333336,0.23370370370370377,1.7576000000238423],[-0.050312499999999954,0.2624074074074075,1.7746000000238453],[-0.01875,0.2433333333333333,1.7914999999999992],[0.016875000000000046,0.2764814814814814,1.8106000000238467],[0.034375,0.2905555555555555,1.8244000000357659],[0.03885416666666662,0.3074074074074074,1.841000000000001],[0.04031250000000005,0.3448148148148149,1.8579000000357624],[0.05593750000000005,0.3509259259259259,1.874400000035763],[0.08614583333333338,0.39166666666666666,1.8911000000238474],[0.10770833333333343,0.40111111111111114,1.907700000047683],[0.1521874999999999,0.41222222222222227,1.9245000000000019],[0.17635416666666662,0.40185185185185185,1.940900000035768],[0.2127083333333334,0.4185185185185185,1.9578000000119218],[0.2491666666666667,0.40851851851851856,1.9744000000357644],[0.27541666666666675,0.412962962962963,1.9953000000119232],[0.3150000000000001,0.39444444444444443,2.0117000000476892],[0.3150000000000001,0.39444444444444443,2.0245000000000033],[0.36208333333333326,0.34962962962962957,2.041200000047688],[0.41041666666666665,0.3442592592592592,2.0595],[0.43510416666666674,0.3079629629629629,2.0787000000476894],[0.4390625,0.28888888888888886,2.0947000000476876],[0.43562500000000004,0.2698148148148149,2.1108000000119205],[0.44385416666666655,0.23592592592592587,2.1271000000238445],[0.43291666666666656,0.21518518518518526,2.145200000047687],[0.4239583333333333,0.19388888888888897,2.162400000035767],[0.4256249999999999,0.21333333333333343,2.1786000000238417],[0.4313541666666666,0.19592592592592584,2.1941000000238446],[0.4313541666666666,0.19592592592592584,2.207600000023845],[0.44114583333333335,0.1883333333333334,2.224600000023841],[0.4410416666666668,0.19037037037037027,2.2418000000119207],[0.4370833333333332,0.17222222222222222,2.2595000000000027],[0.4370833333333332,0.17222222222222222,2.2743000000119267],[0.4365624999999999,0.13722222222222227,2.291200000047688],[0.44520833333333343,0.1294444444444444,2.3076000000238466],[0.44343750000000004,0.1485185185185186,2.324400000035766],[0.44343750000000004,0.1485185185185186,2.341100000023843],[0.4527083333333332,0.15999999999999995,2.3578000000119204],[0.42156250000000006,0.1477777777777777,2.374400000035763],[0.3966666666666666,0.11314814814814819,2.3909000000357636],[0.3095833333333334,0.08722222222222227,2.4080000000000013],[0.21760416666666677,0.05648148148148148,2.424500000000002],[0.13791666666666677,0.056666666666666705,2.4412000000476866],[0.04364583333333331,0.08185185185185194,2.457600000023845],[-0.028125,0.06722222222222214,2.477700000047683],[-0.028125,0.06722222222222214,2.4909999999999997],[-0.10072916666666672,0.05740740740740741,2.507800000011926],[-0.1814583333333334,0.021481481481481525,2.5282000000476827],[-0.2725,0.02240740740740745,2.548500000000004],[-0.2725,0.02240740740740745,2.5576000000238466],[-0.31906249999999997,0.010925925925925884,2.5746000000238425],[-0.3692708333333333,-0.0031481481481482323,2.592900000035762],[-0.3729166666666667,-0.0020370370370370794,2.609900000035765],[-0.3775,0.03222222222222218,2.6285000000000025],[-0.41031249999999997,0.021481481481481525,2.6446000000238428],[-0.41135416666666663,-0.011481481481481566,2.662200000047683],[-0.41135416666666663,-0.011481481481481566,2.6744000000357673],[-0.42250000000000004,-0.006296296296296254,2.6912000000476866],[-0.4423958333333334,0.0007407407407406986,2.707900000035764],[-0.44854166666666667,0.0007407407407406986,2.724499999999999],[-0.4487499999999999,-0.036666666666666584,2.745600000023842],[-0.4487499999999999,-0.036666666666666584,2.757900000035768],[-0.463125,-0.03722222222222227,2.7744000000357687],[-0.4764583333333333,-0.0418518518518519,2.791499999999999],[-0.48125,-0.007962962962962878,2.8079000000357652],[-0.46947916666666667,-0.014259259259259343,2.8246000000238425],[-0.45812499999999995,-0.026111111111111154,2.841200000047685],[-0.4409374999999999,-0.0544444444444444,2.8576000000238437],[-0.4214583333333334,-0.04592592592592584,2.8746000000238467],[-0.4214583333333334,-0.04592592592592584,2.8911000000238474],[-0.4102083333333333,-0.07314814814814814,2.9078000000119246],[-0.4271875,-0.06703703703703702,2.9243000000119252],[-0.4289583333333333,-0.034999999999999955,2.941400000035763],[-0.425,-0.019259259259259216,2.9604000000357686],[-0.41729166666666667,-0.009074074074074031,2.9767000000476855],[-0.40114583333333337,-0.032037037037036954,2.9920000000000044],[-0.4192708333333333,-0.01574074074074074,3.009400000035768],[-0.4045833333333333,0.014074074074074116,3.0268000000119244],[-0.4061458333333333,0.07629629629629638,3.047900000035767],[-0.4061458333333333,0.07629629629629638,3.058],[-0.3297916666666667,0.14907407407407408,3.0745000000000005],[-0.25062500000000004,0.22925925925925916,3.0946000000238456],[-0.1530208333333333,0.3050000000000001,3.1124000000357626],[-0.08302083333333338,0.3412962962962962,3.128400000035768],[-0.003958333333333286,0.34685185185185174,3.1455000000000055],[0.071875,0.38129629629629624,3.1642000000476855],[0.1336458333333333,0.38722222222222225,3.1787000000476837],[0.2131249999999999,0.38722222222222225,3.196100000023847],[0.27145833333333325,0.3344444444444445,3.211700000047685],[0.27145833333333325,0.3344444444444445,3.228400000035762],[0.34364583333333343,0.3387037037037037,3.2412000000476837],[0.33833333333333326,0.2616666666666666,3.2606000000238424],[0.32927083333333323,0.19703703703703698,3.2813000000119246],[0.32927083333333323,0.19703703703703698,3.291100000023846],[0.34708333333333335,0.10351851851851848,3.308],[0.3785416666666668,0.016851851851851896,3.3246000000238425],[0.39260416666666675,-0.03814814814814819,3.346500000000006],[0.39260416666666675,-0.03814814814814819,3.3583000000119227],[0.4070833333333333,-0.07148148148148152,3.374400000035763],[0.42552083333333335,-0.08370370370370368,3.3949000000357685],[0.43624999999999997,-0.12925925925925927,3.4111000000238434],[0.43624999999999997,-0.12925925925925927,3.424700000047686],[0.4423958333333334,-0.1794444444444444,3.4412000000476866],[0.44864583333333335,-0.22611111111111115,3.4622000000476874],[0.44864583333333335,-0.22611111111111115,3.474700000047683],[0.44166666666666665,-0.25277777777777777,3.491500000000002],[0.44802083333333326,-0.3362962962962963,3.5132000000476893],[0.44802083333333326,-0.3362962962962963,3.5245000000000033],[0.4171875,-0.3925925925925926,3.541000000000004],[0.4045833333333334,-0.40629629629629627,3.5622000000476888],[0.4045833333333334,-0.40629629629629627,3.574400000035766],[0.38520833333333326,-0.4235185185185185,3.591000000000001],[0.3931250000000001,-0.4653703703703704,3.6077000000476858],[0.3793750000000001,-0.495,3.626700000047684],[0.35906250000000006,-0.5025925925925926,3.646900000035764],[0.35906250000000006,-0.5025925925925926,3.657600000023841],[0.31531250000000005,-0.44166666666666665,3.6744000000357673],[0.2669791666666666,-0.4251851851851852,3.6910000000000025],[0.2287499999999999,-0.3822222222222222,3.7098000000119242],[0.19385416666666658,-0.3146296296296296,3.727600000023841],[0.15187499999999995,-0.25018518518518523,3.7443000000119255],[0.09468750000000009,-0.19666666666666666,3.7636000000238425],[0.09468750000000009,-0.19666666666666666,3.7743000000119267],[0.050312499999999954,-0.1398148148148148,3.7946000000238413],[-0.013333333333333286,-0.1844444444444445,3.8109000000357653],[-0.010312499999999976,-0.15,3.827400000035766],[-0.010312499999999976,-0.15,3.8415000000000035],[0.012812499999999952,-0.1257407407407407,3.8617000000476835],[0.051874999999999956,-0.15351851851851847,3.8801000000238446],[0.051874999999999956,-0.15351851851851847,3.891300000011924],[0.078125,-0.18611111111111112,3.9079000000357667],[0.09979166666666663,-0.2375925925925926,3.9289000000357674],[0.10854166666666672,-0.25629629629629624,3.946200000047689],[0.10854166666666672,-0.25629629629629624,3.9581000000238475],[0.12218749999999995,-0.2788888888888889,3.974800000011925],[0.13156249999999994,-0.32462962962962966,3.9968000000119233],[0.13156249999999994,-0.32462962962962966,4.007900000035768],[0.1681250000000001,-0.3757407407407407,4.024300000011927],[0.18260416666666662,-0.2942592592592592,4.045400000035762],[0.18260416666666662,-0.2942592592592592,4.0575000000000045],[0.15197916666666675,-0.30629629629629623,4.0746000000238425],[0.0990624999999999,-0.2922222222222222,4.0930000000000035],[0.10552083333333329,-0.30703703703703705,4.111300000011923],[0.08250000000000005,-0.2948148148148148,4.128800000011921],[0.07739583333333329,-0.2759259259259259,4.146400000035769],[0.07739583333333329,-0.2759259259259259,4.157800000011925],[0.07427083333333329,-0.29129629629629633,4.174900000035763],[0.08291666666666657,-0.3296296296296296,4.1935],[0.08489583333333334,-0.355,4.210400000035769],[0.07958333333333342,-0.3683333333333333,4.225500000000004],[0.07885416666666671,-0.41277777777777774,4.246000000000002],[0.07885416666666671,-0.41277777777777774,4.258100000023845],[0.0765625,-0.4318518518518518,4.274500000000003],[0.0743750000000001,-0.4770370370370371,4.294300000011923],[0.04729166666666664,-0.4948148148148148,4.312400000035765],[0.04479166666666667,-0.5153703703703704,4.328900000035766],[0.05375000000000003,-0.5757407407407407,4.345600000023843],[0.05437500000000005,-0.6264814814814815,4.3617000000476835],[0.04864583333333338,-0.6137037037037036,4.378800000011921],[0.04864583333333338,-0.6137037037037036,4.391000000000005],[0.044270833333333336,-0.6505555555555556,4.407800000011925],[0.03343750000000002,-0.6801851851851852,4.426200000047686],[0.0359375,-0.7142592592592593,4.4518000000119216],[0.0359375,-0.7142592592592593,4.458900000035769],[0.030416666666666713,-0.7303703703703703,4.474600000023841],[0.030416666666666713,-0.7303703703703703,4.4914000000357674],[0.05510416666666664,-0.7531481481481481,4.507800000011926],[0.05510416666666664,-0.7531481481481481,4.524300000011927],[0.03770833333333338,-0.7561111111111112,4.541100000023846],[0.03322916666666664,-0.7892592592592592,4.558900000035763],[0.004375000000000047,-0.782962962962963,4.575500000000005],[0.004375000000000047,-0.782962962962963,4.591000000000001],[-0.008958333333333356,-0.755,4.607600000023844],[-0.006458333333333381,-0.75,4.624500000000005],[0.01572916666666669,-0.7,4.6434000000357685],[0.01572916666666669,-0.7,4.657700000047683],[0.015312500000000047,-0.6950000000000001,4.674300000011925],[-0.0007291666666667141,-0.6577777777777778,4.693000000000005],[-0.011874999999999976,-0.6374074074074074,4.71270000004769],[-0.011874999999999976,-0.6374074074074074,4.732700000047686],[-0.022395833333333334,-0.617037037037037,4.750900000035763],[-0.022395833333333334,-0.617037037037037,4.757800000011926],[-0.03270833333333331,-0.6116666666666667,4.774300000011927],[-0.03270833333333331,-0.6116666666666667,4.791000000000004],[-0.02677083333333338,-0.6155555555555555,4.807800000011923],[-0.02520833333333338,-0.5801851851851852,4.824300000011924],[-0.025625000000000023,-0.5237037037037037,4.841200000047685],[-0.030624999999999975,-0.4935185185185185,4.861000000000004],[-0.030624999999999975,-0.4935185185185185,4.874400000035763],[-0.06239583333333331,-0.4938888888888889,4.891000000000005],[-0.07875000000000003,-0.4772222222222222,4.907700000047683],[-0.07208333333333337,-0.49740740740740746,4.924600000023844],[-0.07989583333333337,-0.5205555555555555,4.941500000000005],[-0.10249999999999998,-0.5292592592592593,4.957600000023845],[-0.10718749999999998,-0.5175925925925926,4.974400000035764],[-0.12010416666666662,-0.4890740740740741,4.992400000035765],[-0.1203125,-0.4674074074074074,5.010200000047689],[-0.14322916666666666,-0.49981481481481477,5.026300000011922],[-0.17145833333333335,-0.5268518518518519,5.042000000000002],[-0.19562499999999997,-0.5244444444444444,5.058200000047684],[-0.21770833333333334,-0.49981481481481477,5.074900000035768],[-0.24958333333333335,-0.47074074074074074,5.091100000023843],[-0.2646875,-0.44370370370370377,5.107700000047686],[-0.2652083333333334,-0.44592592592592595,5.125300000011926],[-0.263125,-0.4487037037037037,5.141200000047689],[-0.2876041666666667,-0.4242592592592593,5.157800000011925],[-0.3266666666666667,-0.4335185185185186,5.174600000023844],[-0.3360416666666667,-0.4155555555555555,5.191400000035763]]","[0.00030000001192576065,0.03970000004768792,0.04700000000000415,0.057700000047688604,0.07450000000000045,0.09650000000000603,0.10780000001192036,0.12440000003576301,0.14680000001192184,0.15770000004768292,0.1746000000238439,0.19120000004768656,0.20760000002384515,0.22840000003576222,0.2411000000238417,0.2579000000357681,0.2751000000238477,0.291200000047688,0.3077000000476886,0.3287000000476894,0.347400000035762,0.3580000000000041,0.3745000000000047,0.3912000000476894,0.4129000000357621,0.42430000001192525,0.44130000001192116,0.4603000000119266,0.47460000002384106,0.4911000000238417,0.5080000000000027,0.5277000000476875,0.541200000047688,0.5578000000119232,0.5744000000357659,0.5912000000476851,0.6079000000357624,0.6246000000238467,0.641300000011924,0.6578000000119246,0.6744000000357673,0.6911000000238445,0.7077000000476872,0.7278000000119249,0.7437000000476885,0.7592000000476844,0.7779000000357641,0.7937000000476857,0.8107000000476887,0.8243000000119238,0.8433000000119222,0.8597000000476882,0.874400000035763,0.8910000000000053,0.9081000000238433,0.9244000000357673,0.9416000000238469,0.9581000000238475,0.9774000000357645,0.9913000000119254,1.0077000000476843,1.0245000000000033,1.0417000000476833,1.0586000000238442,1.0744000000357659,1.091000000000001,1.1077000000476858,1.1249000000357654,1.1411000000238474,1.1578000000119246,1.1743000000119252,1.193900000035768,1.2077000000476872,1.2243000000119224,1.2412000000476837,1.2589000000357657,1.2745000000000033,1.291000000000004,1.3078000000119232,1.3244000000357659,1.3412000000476851,1.3578000000119204,1.3747000000476888,1.3910000000000053,1.4078000000119246,1.4244000000357673,1.4411000000238445,1.4580000000000055,1.474600000023841,1.4911000000238417,1.5077000000476843,1.5246000000238453,1.541000000000004,1.5577000000476886,1.5744000000357659,1.5946000000238456,1.6103000000119252,1.624300000011921,1.641300000011924,1.659000000000006,1.6751000000238463,1.6910000000000025,1.7078000000119218,1.724499999999999,1.7411000000238417,1.7576000000238423,1.7746000000238453,1.7914999999999992,1.8106000000238467,1.8244000000357659,1.841000000000001,1.8579000000357624,1.874400000035763,1.8911000000238474,1.907700000047683,1.9245000000000019,1.940900000035768,1.9578000000119218,1.9744000000357644,1.9953000000119232,2.0117000000476892,2.0245000000000033,2.041200000047688,2.0595,2.0787000000476894,2.0947000000476876,2.1108000000119205,2.1271000000238445,2.145200000047687,2.162400000035767,2.1786000000238417,2.1941000000238446,2.207600000023845,2.224600000023841,2.2418000000119207,2.2595000000000027,2.2743000000119267,2.291200000047688,2.3076000000238466,2.324400000035766,2.341100000023843,2.3578000000119204,2.374400000035763,2.3909000000357636,2.4080000000000013,2.424500000000002,2.4412000000476866,2.457600000023845,2.477700000047683,2.4909999999999997,2.507800000011926,2.5282000000476827,2.548500000000004,2.5576000000238466,2.5746000000238425,2.592900000035762,2.609900000035765,2.6285000000000025,2.6446000000238428,2.662200000047683,2.6744000000357673,2.6912000000476866,2.707900000035764,2.724499999999999,2.745600000023842,2.757900000035768,2.7744000000357687,2.791499999999999,2.8079000000357652,2.8246000000238425,2.841200000047685,2.8576000000238437,2.8746000000238467,2.8911000000238474,2.9078000000119246,2.9243000000119252,2.941400000035763,2.9604000000357686,2.9767000000476855,2.9920000000000044,3.009400000035768,3.0268000000119244,3.047900000035767,3.058,3.0745000000000005,3.0946000000238456,3.1124000000357626,3.128400000035768,3.1455000000000055,3.1642000000476855,3.1787000000476837,3.196100000023847,3.211700000047685,3.228400000035762,3.2412000000476837,3.2606000000238424,3.2813000000119246,3.291100000023846,3.308,3.3246000000238425,3.346500000000006,3.3583000000119227,3.374400000035763,3.3949000000357685,3.4111000000238434,3.424700000047686,3.4412000000476866,3.4622000000476874,3.474700000047683,3.491500000000002,3.5132000000476893,3.5245000000000033,3.541000000000004,3.5622000000476888,3.574400000035766,3.591000000000001,3.6077000000476858,3.626700000047684,3.646900000035764,3.657600000023841,3.6744000000357673,3.6910000000000025,3.7098000000119242,3.727600000023841,3.7443000000119255,3.7636000000238425,3.7743000000119267,3.7946000000238413,3.8109000000357653,3.827400000035766,3.8415000000000035,3.8617000000476835,3.8801000000238446,3.891300000011924,3.9079000000357667,3.9289000000357674,3.946200000047689,3.9581000000238475,3.974800000011925,3.9968000000119233,4.007900000035768,4.024300000011927,4.045400000035762,4.0575000000000045,4.0746000000238425,4.0930000000000035,4.111300000011923,4.128800000011921,4.146400000035769,4.157800000011925,4.174900000035763,4.1935,4.210400000035769,4.225500000000004,4.246000000000002,4.258100000023845,4.274500000000003,4.294300000011923,4.312400000035765,4.328900000035766,4.345600000023843,4.3617000000476835,4.378800000011921,4.391000000000005,4.407800000011925,4.426200000047686,4.4518000000119216,4.458900000035769,4.474600000023841,4.4914000000357674,4.507800000011926,4.524300000011927,4.541100000023846,4.558900000035763,4.575500000000005,4.591000000000001,4.607600000023844,4.624500000000005,4.6434000000357685,4.657700000047683,4.674300000011925,4.693000000000005,4.71270000004769,4.732700000047686,4.750900000035763,4.757800000011926,4.774300000011927,4.791000000000004,4.807800000011923,4.824300000011924,4.841200000047685,4.861000000000004,4.874400000035763,4.891000000000005,4.907700000047683,4.924600000023844,4.941500000000005,4.957600000023845,4.974400000035764,4.992400000035765,5.010200000047689,5.026300000011922,5.042000000000002,5.058200000047684,5.074900000035768,5.091100000023843,5.107700000047686,5.125300000011926,5.141200000047689,5.157800000011925,5.174600000023844,5.191400000035763]","[1732938936961,1732938936993,1732938937001,1732938937012,1732938937028,1732938937050,1732938937062,1732938937078,1732938937100,1732938937111,1732938937128,1732938937145,1732938937161,1732938937182,1732938937195,1732938937212,1732938937229,1732938937245,1732938937261,1732938937282,1732938937301,1732938937312,1732938937328,1732938937345,1732938937367,1732938937378,1732938937395,1732938937414,1732938937428,1732938937445,1732938937462,1732938937481,1732938937495,1732938937512,1732938937528,1732938937545,1732938937562,1732938937578,1732938937595,1732938937612,1732938937628,1732938937645,1732938937661,1732938937681,1732938937697,1732938937713,1732938937732,1732938937747,1732938937764,1732938937778,1732938937797,1732938937813,1732938937828,1732938937845,1732938937862,1732938937878,1732938937895,1732938937912,1732938937931,1732938937945,1732938937961,1732938937978,1732938937995,1732938938012,1732938938028,1732938938045,1732938938062,1732938938079,1732938938095,1732938938111,1732938938128,1732938938148,1732938938161,1732938938178,1732938938195,1732938938213,1732938938228,1732938938245,1732938938262,1732938938278,1732938938295,1732938938312,1732938938328,1732938938345,1732938938362,1732938938378,1732938938395,1732938938412,1732938938428,1732938938445,1732938938461,1732938938478,1732938938495,1732938938511,1732938938528,1732938938548,1732938938564,1732938938578,1732938938595,1732938938613,1732938938629,1732938938645,1732938938661,1732938938678,1732938938695,1732938938711,1732938938728,1732938938745,1732938938764,1732938938778,1732938938795,1732938938812,1732938938828,1732938938845,1732938938861,1732938938878,1732938938895,1732938938912,1732938938928,1732938938949,1732938938965,1732938938978,1732938938995,1732938939013,1732938939032,1732938939048,1732938939065,1732938939081,1732938939099,1732938939116,1732938939132,1732938939148,1732938939161,1732938939178,1732938939196,1732938939213,1732938939228,1732938939245,1732938939261,1732938939278,1732938939295,1732938939311,1732938939328,1732938939345,1732938939362,1732938939378,1732938939395,1732938939411,1732938939431,1732938939445,1732938939462,1732938939482,1732938939502,1732938939511,1732938939528,1732938939547,1732938939564,1732938939582,1732938939598,1732938939616,1732938939628,1732938939645,1732938939662,1732938939678,1732938939699,1732938939712,1732938939728,1732938939745,1732938939762,1732938939778,1732938939795,1732938939811,1732938939828,1732938939845,1732938939861,1732938939878,1732938939895,1732938939914,1732938939930,1732938939946,1732938939963,1732938939980,1732938940002,1732938940012,1732938940028,1732938940048,1732938940066,1732938940082,1732938940099,1732938940118,1732938940132,1732938940150,1732938940165,1732938940182,1732938940195,1732938940214,1732938940235,1732938940245,1732938940262,1732938940278,1732938940300,1732938940312,1732938940328,1732938940349,1732938940365,1732938940379,1732938940395,1732938940416,1732938940428,1732938940445,1732938940467,1732938940478,1732938940495,1732938940516,1732938940528,1732938940545,1732938940561,1732938940581,1732938940601,1732938940611,1732938940628,1732938940645,1732938940663,1732938940681,1732938940698,1732938940717,1732938940728,1732938940748,1732938940765,1732938940781,1732938940795,1732938940815,1732938940834,1732938940845,1732938940862,1732938940883,1732938940900,1732938940912,1732938940929,1732938940951,1732938940962,1732938940978,1732938940999,1732938941011,1732938941028,1732938941047,1732938941065,1732938941083,1732938941100,1732938941111,1732938941129,1732938941147,1732938941164,1732938941179,1732938941200,1732938941212,1732938941228,1732938941248,1732938941266,1732938941283,1732938941299,1732938941315,1732938941333,1732938941345,1732938941362,1732938941380,1732938941406,1732938941413,1732938941428,1732938941445,1732938941461,1732938941478,1732938941495,1732938941513,1732938941529,1732938941545,1732938941561,1732938941578,1732938941597,1732938941611,1732938941628,1732938941647,1732938941666,1732938941686,1732938941705,1732938941712,1732938941728,1732938941745,1732938941762,1732938941778,1732938941795,1732938941815,1732938941828,1732938941845,1732938941861,1732938941878,1732938941895,1732938941911,1732938941928,1732938941946,1732938941964,1732938941980,1732938941996,1732938942012,1732938942029,1732938942045,1732938942061,1732938942079,1732938942095,1732938942111,1732938942128,1732938942145]","[[916.3,700.4],[916.3,700.4],[911.8,696.1],[911.8,696.1],[924.8,697.1],[936.2,670.9],[936.2,670.9],[950.9,646.8],[954.7,637.2],[954.7,637.2],[964.1,621.5],[979.2,606],[966,576.2],[970.2,543.6],[970.2,543.6],[959.5,503.9],[939.8,479.9],[925.9,466.9],[925.9,466.9],[914.4,478.5],[903.1,502.6],[903.1,502.6],[902.5,533.4],[891.1,578.3],[893.5,594.2],[893.5,594.2],[907.8,620.4],[908.1,643.2],[908.1,643.2],[912,678.9],[912,678.9],[911.4,719.7],[911.4,719.7],[935.5,743],[935.5,743],[958,768.3],[958,768.3],[970.5,785],[970.5,785],[983.6,780.3],[1018.5,764],[1025.8,782.1],[1036.9,775.4],[1033.5,781.3],[1030.2,784.2],[1041.5,786.8],[1035.8,809.8],[1024.1,820.4],[1014.9,788.3],[1004.1,791.6],[993.9,802.4],[1003.1,801.4],[1017.5,795],[1019.4,780.5],[1007.1,751.7],[983.5,727.7],[987.6,691.8],[991.9,665.8],[989.5,670.3],[992,661.9],[975,642.2],[939.1,643.3],[908.3,645],[900.1,636.2],[905.5,665.1],[907.1,666],[870.2,671],[872.4,667.8],[885.2,672.3],[889.8,653.8],[905.2,652.3],[925.6,625.8],[919,626.7],[907.7,642.3],[892.9,613.8],[889.2,609.4],[925.3,604.8],[924.6,593],[909.9,603.8],[916.8,618.5],[913.7,639.5],[916.2,669.8],[924,694.5],[907.9,713.4],[929.1,743.3],[933.6,750.8],[916.3,750.8],[894.6,758.4],[872.4,748.3],[872.4,748.3],[842.7,736],[842.7,736],[814.6,722.4],[801.1,703.8],[791.5,685.6],[794,661.4],[786.9,643.8],[789.8,648.3],[778.4,652.4],[787.5,657.4],[816.4,657.7],[834.6,660.6],[845.7,660.2],[857.4,653.2],[873.9,660.9],[894.4,666.2],[911.7,681.7],[942,671.4],[976.2,689.3],[993,696.9],[997.3,706],[998.7,726.2],[1013.7,729.5],[1042.7,751.5],[1063.4,756.6],[1106.1,762.6],[1129.3,757],[1164.2,766],[1199.2,760.6],[1224.4,763],[1262.4,753],[1262.4,753],[1307.6,728.8],[1354,725.9],[1377.7,706.3],[1381.5,696],[1378.2,685.7],[1386.1,667.4],[1375.6,656.2],[1367,644.7],[1368.6,655.2],[1374.1,645.8],[1374.1,645.8],[1383.5,641.7],[1383.4,642.8],[1379.6,633],[1379.6,633],[1379.1,614.1],[1387.4,609.9],[1385.7,620.2],[1385.7,620.2],[1394.6,626.4],[1364.7,619.8],[1340.8,601.1],[1257.2,587.1],[1168.9,570.5],[1092.4,570.6],[1001.9,584.2],[933,576.3],[933,576.3],[863.3,571],[785.8,551.6],[698.4,552.1],[698.4,552.1],[653.7,545.9],[605.5,538.3],[602,538.9],[597.6,557.4],[566.1,551.6],[565.1,533.8],[565.1,533.8],[554.4,536.6],[535.3,540.4],[529.4,540.4],[529.2,520.2],[529.2,520.2],[515.4,519.9],[502.6,517.4],[498,535.7],[509.3,532.3],[520.2,525.9],[536.7,510.6],[555.4,515.2],[555.4,515.2],[566.2,500.5],[549.9,503.8],[548.2,521.1],[552,529.6],[559.4,535.1],[574.9,522.7],[557.5,531.5],[571.6,547.6],[570.1,581.2],[570.1,581.2],[643.4,620.5],[719.4,663.8],[813.1,704.7],[880.3,724.3],[956.2,727.3],[1029,745.9],[1088.3,749.1],[1164.6,749.1],[1220.6,720.6],[1220.6,720.6],[1289.9,722.9],[1284.8,681.3],[1276.1,646.4],[1276.1,646.4],[1293.2,595.9],[1323.4,549.1],[1336.9,519.4],[1336.9,519.4],[1350.8,501.4],[1368.5,494.8],[1378.8,470.2],[1378.8,470.2],[1384.7,443.1],[1390.7,417.9],[1390.7,417.9],[1384,403.5],[1390.1,358.4],[1390.1,358.4],[1360.5,328],[1348.4,320.6],[1348.4,320.6],[1329.8,311.3],[1337.4,288.7],[1324.2,272.7],[1304.7,268.6],[1304.7,268.6],[1262.7,301.5],[1216.3,310.4],[1179.6,333.6],[1146.1,370.1],[1105.8,404.9],[1050.9,433.8],[1050.9,433.8],[1008.3,464.5],[947.2,440.4],[950.1,459],[950.1,459],[972.3,472.1],[1009.8,457.1],[1009.8,457.1],[1035,439.5],[1055.8,411.7],[1064.2,401.6],[1064.2,401.6],[1077.3,389.4],[1086.3,364.7],[1086.3,364.7],[1121.4,337.1],[1135.3,381.1],[1135.3,381.1],[1105.9,374.6],[1055.1,382.2],[1061.3,374.2],[1039.2,380.8],[1034.3,391],[1034.3,391],[1031.3,382.7],[1039.6,362],[1041.5,348.3],[1036.4,341.1],[1035.7,317.1],[1035.7,317.1],[1033.5,306.8],[1031.4,282.4],[1005.4,272.8],[1003,261.7],[1011.6,229.1],[1012.2,201.7],[1006.7,208.6],[1006.7,208.6],[1002.5,188.7],[992.1,172.7],[994.5,154.3],[994.5,154.3],[989.2,145.6],[989.2,145.6],[1012.9,133.3],[1012.9,133.3],[996.2,131.7],[991.9,113.8],[964.2,117.2],[964.2,117.2],[951.4,132.3],[953.8,135],[975.1,162],[975.1,162],[974.7,164.7],[959.3,184.8],[948.6,195.8],[948.6,195.8],[938.5,206.8],[938.5,206.8],[928.6,209.7],[928.6,209.7],[934.3,207.6],[935.8,226.7],[935.4,257.2],[930.6,273.5],[930.6,273.5],[900.1,273.3],[884.4,282.3],[890.8,271.4],[883.3,258.9],[861.6,254.2],[857.1,260.5],[844.7,275.9],[844.5,287.6],[822.5,270.1],[795.4,255.5],[772.2,256.8],[751,270.1],[720.4,285.8],[705.9,300.4],[705.4,299.2],[707.4,297.7],[683.9,310.9],[646.4,305.9],[637.4,315.6]]","[0,0.3527331528]","[0.3527331528,0.3527331528]","[-0.3527331528,-0.3527331528]","[-0.3527331528,0]","[0,-0.3527331528]","[0.3527331528,-0.3527331528]","[0,0]","[0.3527331528,0]",0,0,0,0,1,1,Tablet,7,7,15,9
,,,,,,,,,,,,,,,,,,,22,001,2024-11-30_11h54.49.343,Attention_exp_legacy,2023.1.0,Win32,59.88023952,,,,,,,,,,,[0.26875],[0.37777777777777777],[1],[0],[0],[1.9316000000238418],"[""Option2_label""]",Option2_label,2,2.9393,"[[0.009375,0.3296296296296296],[0.009375,0.3296296296296296],[0.009375,0.3296296296296296],[0.009375,0.3296296296296296],[0.009375,0.3296296296296296],[0.009375,0.3296296296296296],[0.009375,0.3296296296296296],[0.009375,0.3296296296296296],[0.009375,0.3296296296296296],[0.009375,0.3296296296296296],[0.009375,0.3296296296296296],[0.009375,0.3296296296296296],[0.009375,0.3296296296296296],[0.009375,0.3296296296296296],[0.009375,0.3296296296296296],[0.009375,0.3296296296296296],[0.009375,0.3296296296296296],[0.009375,0.3296296296296296],[0.009375,0.3296296296296296],[0.009375,0.3296296296296296],[0.009375,0.3296296296296296],[0.009375,0.3296296296296296],[0.009375,0.3296296296296296],[0.009375,0.3296296296296296],[0.009375,0.3296296296296296],[0.009375,0.3296296296296296],[0.009375,0.3296296296296296],[0.009375,0.3296296296296296],[0.009375,0.3296296296296296],[0.009375,0.3296296296296296],[0.009375,0.3296296296296296],[0.009375,0.3296296296296296],[0.009375,0.3296296296296296],[0.009375,0.3296296296296296],[0.009375,0.3296296296296296],[0.009375,0.3296296296296296],[0.009375,0.3296296296296296],[0.009375,0.3296296296296296],[0.009375,0.3296296296296296],[0.009375,0.3296296296296296],[0.009375,0.3296296296296296],[0.009375,0.3296296296296296],[0.009375,0.3296296296296296],[0.009375,0.3296296296296296],[0.009375,0.3296296296296296],[0.009375,0.3296296296296296],[0.009375,0.3296296296296296],[0.009375,0.3296296296296296],[0.009375,0.3296296296296296],[0.009375,0.3296296296296296],[0.009375,0.3296296296296296],[0.009375,0.3296296296296296],[0.009375,0.3296296296296296],[0.009375,0.3296296296296296],[0.009375,0.3296296296296296],[0.009375,0.3296296296296296],[0.009375,0.3296296296296296],[0.009375,0.3296296296296296],[0.009375,0.3296296296296296],[0.009375,0.3296296296296296],[0.009375,0.3296296296296296],[0.009375,0.3296296296296296],[0.009375,0.3296296296296296],[0.009375,0.3296296296296296],[0.009375,0.3296296296296296],[0.009375,0.3296296296296296],[0.009375,0.3296296296296296],[0.009375,0.3296296296296296],[0.009375,0.3296296296296296],[0.009375,0.3296296296296296],[0.009375,0.3296296296296296],[0.009375,0.3296296296296296],[0.009375,0.3296296296296296],[0.009375,0.3296296296296296],[0.009375,0.3296296296296296],[0.009375,0.3296296296296296],[0.009375,0.3296296296296296],[0.009375,0.3296296296296296],[0.009375,0.3296296296296296],[0.009375,0.3296296296296296],[0.009375,0.3296296296296296],[0.009375,0.3296296296296296],[0.009375,0.3296296296296296],[0.009375,0.3296296296296296],[0.009375,0.3296296296296296],[0.009375,0.3296296296296296],[0.009375,0.3296296296296296],[0.009375,0.3296296296296296],[0.009375,0.3296296296296296],[0.009375,0.3296296296296296],[0.009375,0.3296296296296296],[0.009375,0.3296296296296296],[0.009375,0.3296296296296296],[0.015625,0.3296296296296296],[0.034375,0.34074074074074073],[0.057291666666666664,0.34814814814814815],[0.08125,0.35185185185185186],[0.10625,0.3611111111111111],[0.13854166666666667,0.3685185185185185],[0.14791666666666667,0.37037037037037035],[0.16666666666666666,0.37407407407407406],[0.18645833333333334,0.37777777777777777],[0.21041666666666667,0.37777777777777777],[0.215625,0.37777777777777777],[0.221875,0.37777777777777777],[0.23229166666666667,0.37777777777777777],[0.23958333333333334,0.37777777777777777],[0.24583333333333332,0.37777777777777777],[0.2520833333333333,0.37777777777777777],[0.25833333333333336,0.37777777777777777],[0.265625,0.37777777777777777],[0.26666666666666666,0.37777777777777777],[0.2677083333333333,0.37777777777777777],[0.26875,0.37777777777777777],[0.26875,0.37777777777777777],[0.26875,0.37777777777777777],[0.26875,0.37777777777777777],[0.26875,0.37777777777777777],[0.26875,0.37777777777777777],[0.26875,0.37777777777777777],[0.26875,0.37777777777777777],[0.26875,0.37777777777777777],[0.26875,0.37777777777777777],[0.26875,0.37777777777777777],[0.26875,0.37777777777777777],[0.26875,0.37777777777777777],[0.26875,0.37777777777777777],[0.26875,0.37777777777777777],[0.26875,0.37777777777777777],[0.26875,0.37777777777777777],[0.26875,0.37777777777777777],[0.26875,0.37777777777777777],[0.26875,0.37777777777777777],[0.26875,0.37777777777777777],[0.26875,0.37777777777777777],[0.26875,0.37777777777777777],[0.26875,0.37777777777777777],[0.26875,0.37777777777777777],[0.26875,0.37777777777777777],[0.26875,0.37777777777777777],[0.26875,0.37777777777777777],[0.26875,0.37777777777777777],[0.26875,0.37777777777777777],[0.26875,0.37777777777777777],[0.26875,0.37777777777777777],[0.26875,0.37777777777777777],[0.26875,0.37777777777777777],[0.26875,0.37777777777777777],[0.26875,0.37777777777777777],[0.26875,0.37777777777777777],[0.26875,0.37777777777777777],[0.26875,0.37777777777777777],[0.26875,0.37777777777777777],[0.26875,0.37777777777777777],[0.26875,0.37777777777777777],[0.26875,0.37777777777777777],[0.26875,0.37777777777777777],[0.26875,0.37777777777777777],[0.26875,0.37777777777777777],[0.26875,0.37777777777777777],[0.26875,0.37777777777777777],[0.26875,0.37777777777777777],[0.26875,0.37777777777777777],[0.26875,0.37777777777777777],[0.26875,0.37777777777777777],[0.26875,0.37777777777777777],[0.26875,0.37777777777777777],[0.26875,0.37777777777777777],[0.26875,0.37777777777777777],[0.26875,0.37777777777777777],[0.26875,0.37777777777777777],[0.26875,0.37777777777777777],[0.26875,0.37777777777777777],[0.26875,0.37777777777777777],[0.26875,0.37777777777777777],[0.26875,0.37777777777777777],[0.26875,0.37777777777777777]]","[[-0.13614583333333338,-0.23185185185185184],[-0.1297916666666667,-0.25574074074074077],[-0.12260416666666671,-0.24666666666666665],[-0.1375,-0.25388888888888894],[-0.14937499999999998,-0.2183333333333333],[-0.1622916666666666,-0.22814814814814813],[-0.15572916666666667,-0.21888888888888886],[-0.18072916666666666,-0.2368518518518518],[-0.19041666666666662,-0.24685185185185188],[-0.2013541666666666,-0.2898148148148148],[-0.21062500000000003,-0.3224074074074075],[-0.21666666666666667,-0.34740740740740744],[-0.21437499999999995,-0.375],[-0.21437499999999995,-0.375],[-0.19562499999999997,-0.34092592592592597],[-0.16770833333333332,-0.3496296296296296],[-0.17958333333333332,-0.3162962962962963],[-0.17958333333333332,-0.3162962962962963],[-0.18552083333333336,-0.2825925925925926],[-0.19812500000000005,-0.27740740740740744],[-0.17447916666666666,-0.26129629629629636],[-0.17447916666666666,-0.26129629629629636],[-0.1733333333333333,-0.2192592592592592],[-0.14583333333333334,-0.20259259259259255],[-0.14010416666666667,-0.1868518518518518],[-0.13947916666666665,-0.14888888888888885],[-0.15239583333333329,-0.152962962962963],[-0.17541666666666664,-0.13777777777777775],[-0.1686458333333333,-0.16722222222222224],[-0.14135416666666673,-0.1948148148148148],[-0.10354166666666664,-0.205],[-0.12072916666666664,-0.19518518518518516],[-0.12895833333333329,-0.1824074074074074],[-0.18406250000000005,-0.172037037037037],[-0.18406250000000005,-0.172037037037037],[-0.21739583333333337,-0.16074074074074077],[-0.24864583333333337,-0.14296296296296293],[-0.2798958333333334,-0.12518518518518523],[-0.3046875,-0.12537037037037035],[-0.3178125,-0.13851851851851854],[-0.3514583333333333,-0.15351851851851847],[-0.39510416666666665,-0.13388888888888892],[-0.41510416666666666,-0.14611111111111108],[-0.4266666666666667,-0.15388888888888894],[-0.41770833333333335,-0.13388888888888892],[-0.41770833333333335,-0.13388888888888892],[-0.4066666666666666,-0.11018518518518519],[-0.40906250000000005,-0.09296296296296294],[-0.4114583333333333,-0.07574074074074069],[-0.42062499999999997,-0.06388888888888888],[-0.42062499999999997,-0.06388888888888888],[-0.4414583333333333,-0.039074074074074115],[-0.44552083333333337,-0.006296296296296254],[-0.46197916666666666,0.025925925925925925],[-0.46197916666666666,0.025925925925925925],[-0.4784375,0.05814814814814811],[-0.5071875,0.12666666666666662],[-0.5071875,0.12666666666666662],[-0.514375,0.13925925925925933],[-0.5236458333333334,0.14814814814814814],[-0.51125,0.13055555555555556],[-0.49885416666666665,0.11296296296296296],[-0.48333333333333334,0.11666666666666667],[-0.4678125,0.12037037037037036],[-0.4209375,0.10833333333333334],[-0.34802083333333333,0.08814814814814818],[-0.34802083333333333,0.08814814814814818],[-0.2594791666666667,0.08092592592592601],[-0.17354166666666668,0.06925925925925921],[-0.10062500000000002,0.07092592592592584],[-0.027708333333333356,0.07259259259259268],[-0.027708333333333356,0.07259259259259268],[0.04552083333333338,0.08629629629629634],[0.1178124999999999,0.12370370370370362],[0.19135416666666671,0.1588888888888888],[0.19135416666666671,0.1588888888888888],[0.2639583333333334,0.12462962962962955],[0.29239583333333335,0.12851851851851848],[0.3193749999999999,0.12388888888888884],[0.3193749999999999,0.12388888888888884],[0.3194791666666667,0.08314814814814811],[0.3330208333333334,0.024629629629629547],[0.3380208333333333,0.008703703703703788],[0.3430208333333333,-0.00722222222222218],[0.32781250000000006,0.007037037037036953],[0.32270833333333326,-0.044999999999999915],[0.32697916666666677,-0.08111111111111113],[0.32697916666666677,-0.08111111111111113],[0.3263541666666666,-0.055185185185185205],[0.32156250000000003,-0.07037037037037037],[0.31708333333333344,-0.09518518518518514],[0.31708333333333344,-0.09518518518518514],[0.3238541666666668,-0.09685185185185187],[0.3273958333333333,-0.1111111111111111],[0.3076041666666666,-0.12333333333333338],[0.3076041666666666,-0.12333333333333338],[0.2894791666666668,-0.13518518518518519],[0.2886458333333332,-0.19592592592592595],[0.27010416666666665,-0.2175925925925926],[0.27010416666666665,-0.2175925925925926],[0.24177083333333324,-0.2627777777777777],[0.2326041666666666,-0.3007407407407407],[0.21875,-0.322037037037037],[0.21875,-0.322037037037037],[0.19927083333333329,-0.3542592592592593],[0.17760416666666667,-0.3962962962962963],[0.1540625000000001,-0.4038888888888889],[0.1540625000000001,-0.4038888888888889],[0.1538541666666667,-0.41351851851851856],[0.16677083333333323,-0.4262962962962963],[0.1681250000000001,-0.4381481481481482],[0.1681250000000001,-0.4381481481481482],[0.1788541666666667,-0.4431481481481482],[0.20031249999999995,-0.41759259259259257],[0.1931250000000001,-0.4112962962962963],[0.1931250000000001,-0.4112962962962963],[0.1883333333333333,-0.4087037037037037],[0.18979166666666672,-0.4172222222222222],[0.19187500000000005,-0.37333333333333335],[0.19187500000000005,-0.37333333333333335],[0.2055208333333333,-0.3781481481481481],[0.20885416666666667,-0.3866666666666667],[0.20885416666666667,-0.3866666666666667],[0.20656249999999995,-0.3901851851851852],[0.21041666666666667,-0.3509259259259259],[0.22947916666666662,-0.3396296296296296],[0.23822916666666671,-0.3512962962962963],[0.23822916666666671,-0.3512962962962963],[0.25760416666666663,-0.3344444444444445],[0.27541666666666675,-0.34500000000000003],[0.29104166666666675,-0.32018518518518513],[0.3082291666666668,-0.33796296296296297],[0.3082291666666668,-0.33796296296296297],[0.3393749999999999,-0.29203703703703704],[0.346875,-0.2929629629629629],[0.3462500000000001,-0.2918518518518519],[0.3462500000000001,-0.2918518518518519],[0.3251041666666666,-0.29962962962962963],[0.2652083333333332,-0.2992592592592593],[0.2652083333333332,-0.2992592592592593],[0.20927083333333343,-0.28648148148148145],[0.15583333333333324,-0.27166666666666667],[0.12947916666666662,-0.2346296296296296],[0.10385416666666672,-0.21888888888888886],[0.06281249999999995,-0.1962962962962963],[0.06281249999999995,-0.1962962962962963],[-0.017604166666666643,-0.2390740740740741],[-0.059062500000000046,-0.21481481481481482],[-0.059062500000000046,-0.21481481481481482],[-0.1015625,-0.1948148148148148],[-0.10375000000000002,-0.21203703703703702],[-0.0702083333333333,-0.1403703703703704],[-0.0702083333333333,-0.1403703703703704],[-0.03677083333333329,-0.09962962962962965],[0.008749999999999977,-0.10185185185185185],[0.029895833333333382,-0.1014814814814815],[0.05645833333333338,-0.06518518518518517],[0.0984375,-0.035740740740740656],[0.15166666666666656,0.012962962962962963],[0.2021874999999999,0.03148148148148148],[0.2021874999999999,0.03148148148148148],[0.2556250000000001,0.036666666666666584],[0.2931250000000001,0.08074074074074078],[0.3146874999999999,0.04222222222222214],[0.32541666666666674,0.02296296296296292],[0.32541666666666674,0.02296296296296292],[0.33229166666666665,0.04870370370370362],[0.33572916666666663,0.1361111111111111],[0.3330208333333334,0.20888888888888882],[0.2964583333333332,0.29499999999999993],[0.25593750000000004,0.3516666666666666],[0.25593750000000004,0.3516666666666666],[0.18270833333333342,0.40185185185185185],[0.08239583333333324,0.4153703703703703],[-0.0203125,0.4192592592592592],[-0.10843750000000002,0.45685185185185195],[-0.18624999999999994,0.5092592592592593]]","[[-0.13614583333333338,-0.23185185185185184,0.00010000002384202844],[-0.1297916666666667,-0.25574074074074077,0.019900000035761423],[-0.12260416666666671,-0.24666666666666665,0.033400000035761934],[-0.1375,-0.25388888888888894,0.04970000004767883],[-0.14937499999999998,-0.2183333333333333,0.06630000001192116],[-0.1622916666666666,-0.22814814814814813,0.08299999999999841],[-0.15572916666666667,-0.21888888888888886,0.09949999999999903],[-0.18072916666666666,-0.2368518518518518,0.11640000003576034],[-0.19041666666666662,-0.24685185185185188,0.13340000003576336],[-0.2013541666666666,-0.2898148148148148,0.1501000000238406],[-0.21062500000000003,-0.3224074074074075,0.1664000000357575],[-0.21666666666666667,-0.34740740740740744,0.18499999999999517],[-0.21437499999999995,-0.375,0.19990000003576114],[-0.21437499999999995,-0.375,0.21640000003576176],[-0.19562499999999997,-0.34092592592592597,0.23320000004768104],[-0.16770833333333332,-0.3496296296296296,0.24960000002383964],[-0.17958333333333332,-0.3162962962962963,0.2669000000357613],[-0.17958333333333332,-0.3162962962962963,0.28299999999999415],[-0.18552083333333336,-0.2825925925925926,0.29980000001192053],[-0.19812500000000005,-0.27740740740740744,0.31930000001192127],[-0.17447916666666666,-0.26129629629629636,0.33680000001191956],[-0.17447916666666666,-0.26129629629629636,0.34960000002384106],[-0.1733333333333333,-0.2192592592592592,0.36649999999999494],[-0.14583333333333334,-0.20259259259259255,0.3831000000238376],[-0.14010416666666667,-0.1868518518518518,0.3996000000238382],[-0.13947916666666665,-0.14888888888888885,0.4188000000119203],[-0.15239583333333329,-0.152962962962963,0.4352000000476792],[-0.17541666666666664,-0.13777777777777775,0.45349999999999824],[-0.1686458333333333,-0.16722222222222224,0.46930000001191985],[-0.14135416666666673,-0.1948148148148148,0.48670000004768355],[-0.10354166666666664,-0.205,0.5007000000476793],[-0.12072916666666664,-0.19518518518518516,0.5182000000476776],[-0.12895833333333329,-0.1824074074074074,0.5339999999999989],[-0.18406250000000005,-0.172037037037037,0.5543000000119207],[-0.18406250000000005,-0.172037037037037,0.5664000000357632],[-0.21739583333333337,-0.16074074074074077,0.5829000000357567],[-0.24864583333333337,-0.14296296296296293,0.5996000000238411],[-0.2798958333333334,-0.12518518518518523,0.618800000011916],[-0.3046875,-0.12537037037037035,0.6374000000357611],[-0.3178125,-0.13851851851851854,0.6546000000238408],[-0.3514583333333333,-0.15351851851851847,0.6717000000476787],[-0.39510416666666665,-0.13388888888888892,0.6879999999999953],[-0.41510416666666666,-0.14611111111111108,0.70470000004768],[-0.4266666666666667,-0.15388888888888894,0.7204999999999941],[-0.41770833333333335,-0.13388888888888892,0.7383000000119182],[-0.41770833333333335,-0.13388888888888892,0.7497000000476817],[-0.4066666666666666,-0.11018518518518519,0.7664000000357589],[-0.40906250000000005,-0.09296296296296294,0.7829999999999941],[-0.4114583333333333,-0.07574074074074069,0.7997000000476788],[-0.42062499999999997,-0.06388888888888888,0.8215000000000003],[-0.42062499999999997,-0.06388888888888888,0.8329999999999984],[-0.4414583333333333,-0.039074074074074115,0.8499000000357597],[-0.44552083333333337,-0.006296296296296254,0.866600000023837],[-0.46197916666666666,0.025925925925925925,0.884999999999998],[-0.46197916666666666,0.025925925925925925,0.8999000000357569],[-0.4784375,0.05814814814814811,0.9164000000357575],[-0.5071875,0.12666666666666662,0.936200000047684],[-0.5071875,0.12666666666666662,0.9497000000476774],[-0.514375,0.13925925925925933,0.9664000000357618],[-0.5236458333333334,0.14814814814814814,0.9863000000119158],[-0.51125,0.13055555555555556,1.0004999999999953],[-0.49885416666666665,0.11296296296296296,1.0167000000476776],[-0.48333333333333334,0.11666666666666667,1.0358000000119176],[-0.4678125,0.12037037037037036,1.0524000000357603],[-0.4209375,0.10833333333333334,1.0692000000476796],[-0.34802083333333333,0.08814814814814818,1.0849999999999937],[-0.34802083333333333,0.08814814814814818,1.099600000023841],[-0.2594791666666667,0.08092592592592601,1.1164000000357603],[-0.17354166666666668,0.06925925925925921,1.13660000002384],[-0.10062500000000002,0.07092592592592584,1.153700000047678],[-0.027708333333333356,0.07259259259259268,1.1732000000476788],[-0.027708333333333356,0.07259259259259268,1.1832000000476839],[0.04552083333333338,0.08629629629629634,1.1997000000476774],[0.1178124999999999,0.12370370370370362,1.2166000000238384],[0.19135416666666671,0.1588888888888888,1.2382000000476836],[0.19135416666666671,0.1588888888888888,1.2496000000238396],[0.2639583333333334,0.12462962962962955,1.266400000035759],[0.29239583333333335,0.12851851851851848,1.284200000047683],[0.3193749999999999,0.12388888888888884,1.3038000000119183],[0.3193749999999999,0.12388888888888884,1.3164999999999978],[0.3194791666666667,0.08314814814814811,1.3329000000357567],[0.3330208333333334,0.024629629629629547,1.349700000047683],[0.3380208333333333,0.008703703703703788,1.366600000023837],[0.3430208333333333,-0.00722222222222218,1.387300000011919],[0.32781250000000006,0.007037037037036953,1.4039000000357618],[0.32270833333333326,-0.044999999999999915,1.4193000000119156],[0.32697916666666677,-0.08111111111111113,1.4375],[0.32697916666666677,-0.08111111111111113,1.4496000000238354],[0.3263541666666666,-0.055185185185185205,1.4664000000357618],[0.32156250000000003,-0.07037037037037037,1.4828000000119204],[0.31708333333333344,-0.09518518518518514,1.4998000000119163],[0.31708333333333344,-0.09518518518518514,1.5164999999999935],[0.3238541666666668,-0.09685185185185187,1.53330000001192],[0.3273958333333333,-0.1111111111111111,1.554800000011923],[0.3076041666666666,-0.12333333333333338,1.5731000000238424],[0.3076041666666666,-0.12333333333333338,1.583300000011917],[0.2894791666666668,-0.13518518518518519,1.5999000000357597],[0.2886458333333332,-0.19592592592592595,1.6207000000476768],[0.27010416666666665,-0.2175925925925926,1.6392000000476799],[0.27010416666666665,-0.2175925925925926,1.649800000011922],[0.24177083333333324,-0.2627777777777777,1.6664999999999992],[0.2326041666666666,-0.3007407407407407,1.688400000035756],[0.21875,-0.322037037037037,1.7055000000000007],[0.21875,-0.322037037037037,1.7167000000476804],[0.19927083333333329,-0.3542592592592593,1.733200000047674],[0.17760416666666667,-0.3962962962962963,1.7552000000476795],[0.1540625000000001,-0.4038888888888889,1.7722000000476754],[0.1540625000000001,-0.4038888888888889,1.7832000000476853],[0.1538541666666667,-0.41351851851851856,1.7998000000119134],[0.16677083333333323,-0.4262962962962963,1.821800000011919],[0.1681250000000001,-0.4381481481481482,1.8391000000238336],[0.1681250000000001,-0.4381481481481482,1.8499000000357597],[0.1788541666666667,-0.4431481481481482,1.866700000047686],[0.20031249999999995,-0.41759259259259257,1.8870000000000005],[0.1931250000000001,-0.4112962962962963,1.902800000011922],[0.1931250000000001,-0.4112962962962963,1.9162000000476809],[0.1883333333333333,-0.4087037037037037,1.9331000000238419],[0.18979166666666672,-0.4172222222222222,1.9533000000119216],[0.19187500000000005,-0.37333333333333335,1.9694999999999965],[0.19187500000000005,-0.37333333333333335,1.983000000000004],[0.2055208333333333,-0.3781481481481481,1.9997000000476817],[0.20885416666666667,-0.3866666666666667,2.0174000000357637],[0.20885416666666667,-0.3866666666666667,2.0374000000357597],[0.20656249999999995,-0.3901851851851852,2.0498000000119134],[0.21041666666666667,-0.3509259259259259,2.0698000000119237],[0.22947916666666662,-0.3396296296296296,2.086500000000001],[0.23822916666666671,-0.3512962962962963,2.104300000011918],[0.23822916666666671,-0.3512962962962963,2.116700000047686],[0.25760416666666663,-0.3344444444444445,2.1329999999999956],[0.27541666666666675,-0.34500000000000003,2.1526000000238383],[0.29104166666666675,-0.32018518518518513,2.1694000000357647],[0.3082291666666668,-0.33796296296296297,2.190700000047684],[0.3082291666666668,-0.33796296296296297,2.1997000000476845],[0.3393749999999999,-0.29203703703703704,2.2163000000119126],[0.346875,-0.2929629629629629,2.235500000000002],[0.3462500000000001,-0.2918518518518519,2.2549999999999955],[0.3462500000000001,-0.2918518518518519,2.2680000000000007],[0.3251041666666666,-0.29962962962962963,2.2830000000000013],[0.2652083333333332,-0.2992592592592593,2.3044000000357556],[0.2652083333333332,-0.2992592592592593,2.316300000011921],[0.20927083333333343,-0.28648148148148145,2.3329999999999984],[0.15583333333333324,-0.27166666666666667,2.353499999999997],[0.12947916666666662,-0.2346296296296296,2.370700000047677],[0.10385416666666672,-0.21888888888888886,2.38810000002384],[0.06281249999999995,-0.1962962962962963,2.405200000047685],[0.06281249999999995,-0.1962962962962963,2.4163000000119155],[-0.017604166666666643,-0.2390740740740741,2.433100000023842],[-0.059062500000000046,-0.21481481481481482,2.451999999999998],[-0.059062500000000046,-0.21481481481481482,2.4663000000119126],[-0.1015625,-0.1948148148148148,2.483200000047674],[-0.10375000000000002,-0.21203703703703702,2.4999000000357654],[-0.0702083333333333,-0.1403703703703704,2.51720000004768],[-0.0702083333333333,-0.1403703703703704,2.5330000000000013],[-0.03677083333333329,-0.09962962962962965,2.5498000000119134],[0.008749999999999977,-0.10185185185185185,2.566400000035756],[0.029895833333333382,-0.1014814814814815,2.5829999999999984],[0.05645833333333338,-0.06518518518518517,2.6046000000238365],[0.0984375,-0.035740740740740656,2.620700000047677],[0.15166666666666656,0.012962962962962963,2.6386000000238425],[0.2021874999999999,0.03148148148148148,2.6544999999999987],[0.2021874999999999,0.03148148148148148,2.666499999999999],[0.2556250000000001,0.036666666666666584,2.682900000035758],[0.2931250000000001,0.08074074074074078,2.700200000047687],[0.3146874999999999,0.04222222222222214,2.7174000000357665],[0.32541666666666674,0.02296296296296292,2.7382000000476836],[0.32541666666666674,0.02296296296296292,2.7496000000238325],[0.33229166666666665,0.04870370370370362,2.7666000000238427],[0.33572916666666663,0.1361111111111111,2.783900000035757],[0.3330208333333334,0.20888888888888882,2.8039000000357532],[0.2964583333333332,0.29499999999999993,2.820400000035761],[0.25593750000000004,0.3516666666666666,2.8383000000119125],[0.25593750000000004,0.3516666666666666,2.849700000047676],[0.18270833333333342,0.40185185185185185,2.8663000000119183],[0.08239583333333324,0.4153703703703703,2.8868000000119167],[-0.0203125,0.4192592592592592,2.9034000000357594],[-0.10843750000000002,0.45685185185185195,2.920600000023839],[-0.18624999999999994,0.5092592592592593,2.9393000000119116]]","[0.00010000002384202844,0.019900000035761423,0.033400000035761934,0.04970000004767883,0.06630000001192116,0.08299999999999841,0.09949999999999903,0.11640000003576034,0.13340000003576336,0.1501000000238406,0.1664000000357575,0.18499999999999517,0.19990000003576114,0.21640000003576176,0.23320000004768104,0.24960000002383964,0.2669000000357613,0.28299999999999415,0.29980000001192053,0.31930000001192127,0.33680000001191956,0.34960000002384106,0.36649999999999494,0.3831000000238376,0.3996000000238382,0.4188000000119203,0.4352000000476792,0.45349999999999824,0.46930000001191985,0.48670000004768355,0.5007000000476793,0.5182000000476776,0.5339999999999989,0.5543000000119207,0.5664000000357632,0.5829000000357567,0.5996000000238411,0.618800000011916,0.6374000000357611,0.6546000000238408,0.6717000000476787,0.6879999999999953,0.70470000004768,0.7204999999999941,0.7383000000119182,0.7497000000476817,0.7664000000357589,0.7829999999999941,0.7997000000476788,0.8215000000000003,0.8329999999999984,0.8499000000357597,0.866600000023837,0.884999999999998,0.8999000000357569,0.9164000000357575,0.936200000047684,0.9497000000476774,0.9664000000357618,0.9863000000119158,1.0004999999999953,1.0167000000476776,1.0358000000119176,1.0524000000357603,1.0692000000476796,1.0849999999999937,1.099600000023841,1.1164000000357603,1.13660000002384,1.153700000047678,1.1732000000476788,1.1832000000476839,1.1997000000476774,1.2166000000238384,1.2382000000476836,1.2496000000238396,1.266400000035759,1.284200000047683,1.3038000000119183,1.3164999999999978,1.3329000000357567,1.349700000047683,1.366600000023837,1.387300000011919,1.4039000000357618,1.4193000000119156,1.4375,1.4496000000238354,1.4664000000357618,1.4828000000119204,1.4998000000119163,1.5164999999999935,1.53330000001192,1.554800000011923,1.5731000000238424,1.583300000011917,1.5999000000357597,1.6207000000476768,1.6392000000476799,1.649800000011922,1.6664999999999992,1.688400000035756,1.7055000000000007,1.7167000000476804,1.733200000047674,1.7552000000476795,1.7722000000476754,1.7832000000476853,1.7998000000119134,1.821800000011919,1.8391000000238336,1.8499000000357597,1.866700000047686,1.8870000000000005,1.902800000011922,1.9162000000476809,1.9331000000238419,1.9533000000119216,1.9694999999999965,1.983000000000004,1.9997000000476817,2.0174000000357637,2.0374000000357597,2.0498000000119134,2.0698000000119237,2.086500000000001,2.104300000011918,2.116700000047686,2.1329999999999956,2.1526000000238383,2.1694000000357647,2.190700000047684,2.1997000000476845,2.2163000000119126,2.235500000000002,2.2549999999999955,2.2680000000000007,2.2830000000000013,2.3044000000357556,2.316300000011921,2.3329999999999984,2.353499999999997,2.370700000047677,2.38810000002384,2.405200000047685,2.4163000000119155,2.433100000023842,2.451999999999998,2.4663000000119126,2.483200000047674,2.4999000000357654,2.51720000004768,2.5330000000000013,2.5498000000119134,2.566400000035756,2.5829999999999984,2.6046000000238365,2.620700000047677,2.6386000000238425,2.6544999999999987,2.666499999999999,2.682900000035758,2.700200000047687,2.7174000000357665,2.7382000000476836,2.7496000000238325,2.7666000000238427,2.783900000035757,2.8039000000357532,2.820400000035761,2.8383000000119125,2.849700000047676,2.8663000000119183,2.8868000000119167,2.9034000000357594,2.920600000023839,2.9393000000119116]","[1732938943163,1732938943182,1732938943195,1732938943211,1732938943228,1732938943245,1732938943261,1732938943278,1732938943295,1732938943312,1732938943328,1732938943347,1732938943362,1732938943378,1732938943395,1732938943411,1732938943429,1732938943445,1732938943462,1732938943481,1732938943498,1732938943511,1732938943528,1732938943545,1732938943561,1732938943581,1732938943597,1732938943615,1732938943631,1732938943648,1732938943662,1732938943680,1732938943696,1732938943716,1732938943728,1732938943745,1732938943761,1732938943780,1732938943799,1732938943816,1732938943833,1732938943850,1732938943866,1732938943882,1732938943900,1732938943911,1732938943928,1732938943945,1732938943961,1732938943983,1732938943995,1732938944012,1732938944028,1732938944047,1732938944062,1732938944078,1732938944098,1732938944111,1732938944128,1732938944148,1732938944162,1732938944178,1732938944198,1732938944214,1732938944231,1732938944247,1732938944261,1732938944278,1732938944298,1732938944315,1732938944335,1732938944345,1732938944361,1732938944378,1732938944400,1732938944411,1732938944428,1732938944446,1732938944466,1732938944478,1732938944495,1732938944511,1732938944528,1732938944549,1732938944566,1732938944581,1732938944599,1732938944611,1732938944628,1732938944645,1732938944662,1732938944678,1732938944695,1732938944717,1732938944735,1732938944745,1732938944762,1732938944782,1732938944801,1732938944812,1732938944828,1732938944850,1732938944867,1732938944878,1732938944895,1732938944917,1732938944934,1732938944945,1732938944962,1732938944984,1732938945001,1732938945012,1732938945028,1732938945049,1732938945065,1732938945078,1732938945095,1732938945115,1732938945131,1732938945145,1732938945161,1732938945179,1732938945199,1732938945212,1732938945232,1732938945248,1732938945266,1732938945278,1732938945295,1732938945314,1732938945331,1732938945352,1732938945361,1732938945378,1732938945397,1732938945417,1732938945430,1732938945445,1732938945466,1732938945478,1732938945495,1732938945515,1732938945532,1732938945550,1732938945567,1732938945578,1732938945595,1732938945614,1732938945628,1732938945645,1732938945662,1732938945679,1732938945695,1732938945711,1732938945728,1732938945745,1732938945766,1732938945782,1732938945800,1732938945816,1732938945828,1732938945845,1732938945862,1732938945879,1732938945900,1732938945911,1732938945928,1732938945946,1732938945966,1732938945982,1732938946000,1732938946011,1732938946028,1732938946049,1732938946065,1732938946082,1732938946101]","[[829.3,414.8],[835.4,401.9],[842.3,406.8],[828,402.9],[816.6,422.1],[804.2,416.8],[810.5,421.8],[786.5,412.1],[777.2,406.7],[766.7,383.5],[757.8,365.9],[752,352.4],[754.2,337.5],[754.2,337.5],[772.2,355.9],[799,351.2],[787.6,369.2],[787.6,369.2],[781.9,387.4],[769.8,390.2],[792.5,398.9],[792.5,398.9],[793.6,421.6],[820,430.6],[825.5,439.1],[826.1,459.6],[813.7,457.4],[791.6,465.6],[798.1,449.7],[824.3,434.8],[860.6,429.3],[844.1,434.6],[836.2,441.5],[783.3,447.1],[783.3,447.1],[751.3,453.2],[721.3,462.8],[691.3,472.4],[667.5,472.3],[654.9,465.2],[622.6,457.1],[580.7,467.7],[561.5,461.1],[550.4,456.9],[559,467.7],[559,467.7],[569.6,480.5],[567.3,489.8],[565,499.1],[556.2,505.5],[556.2,505.5],[536.2,518.9],[532.3,536.6],[516.5,554],[516.5,554],[500.7,571.4],[473.1,608.4],[473.1,608.4],[466.2,615.2],[457.3,620],[469.2,610.5],[481.1,601],[496,603],[510.9,605],[555.9,598.5],[625.9,587.6],[625.9,587.6],[710.9,583.7],[793.4,577.4],[863.4,578.3],[933.4,579.2],[933.4,579.2],[1003.7,586.6],[1073.1,606.8],[1143.7,625.8],[1143.7,625.8],[1213.4,607.3],[1240.7,609.4],[1266.6,606.9],[1266.6,606.9],[1266.7,584.9],[1279.7,553.3],[1284.5,544.7],[1289.3,536.1],[1274.7,543.8],[1269.8,515.7],[1273.9,496.2],[1273.9,496.2],[1273.3,510.2],[1268.7,502],[1264.4,488.6],[1264.4,488.6],[1270.9,487.7],[1274.3,480],[1255.3,473.4],[1255.3,473.4],[1237.9,467],[1237.1,434.2],[1219.3,422.5],[1219.3,422.5],[1192.1,398.1],[1183.3,377.6],[1170,366.1],[1170,366.1],[1151.3,348.7],[1130.5,326],[1107.9,321.9],[1107.9,321.9],[1107.7,316.7],[1120.1,309.8],[1121.4,303.4],[1121.4,303.4],[1131.7,300.7],[1152.3,314.5],[1145.4,317.9],[1145.4,317.9],[1140.8,319.3],[1142.2,314.7],[1144.2,338.4],[1144.2,338.4],[1157.3,335.8],[1160.5,331.2],[1160.5,331.2],[1158.3,329.3],[1162,350.5],[1180.3,356.6],[1188.7,350.3],[1188.7,350.3],[1207.3,359.4],[1224.4,353.7],[1239.4,367.1],[1255.9,357.5],[1255.9,357.5],[1285.8,382.3],[1293,381.8],[1292.4,382.4],[1292.4,382.4],[1272.1,378.2],[1214.6,378.4],[1214.6,378.4],[1160.9,385.3],[1109.6,393.3],[1084.3,413.3],[1059.7,421.8],[1020.3,434],[1020.3,434],[943.1,410.9],[903.3,424],[903.3,424],[862.5,434.8],[860.4,425.5],[892.6,464.2],[892.6,464.2],[924.7,486.2],[968.4,485],[988.7,485.2],[1014.2,504.8],[1054.5,520.7],[1105.6,547],[1154.1,557],[1154.1,557],[1205.4,559.8],[1241.4,583.6],[1262.1,562.8],[1272.4,552.4],[1272.4,552.4],[1279,566.3],[1282.3,613.5],[1279.7,652.8],[1244.6,699.3],[1205.7,729.9],[1205.7,729.9],[1135.4,757],[1039.1,764.3],[940.5,766.4],[855.9,786.7],[781.2,815]]","[0,0.3527331528]","[0.3527331528,0.3527331528]","[-0.3527331528,0]","[-0.3527331528,-0.3527331528]","[0,0]","[0.3527331528,0]","[0,-0.3527331528]","[0.3527331528,-0.3527331528]",0,1,1,1,1,1,Tablet,9,1,11,5
