inst1_resp.keys,inst1_resp.rt,calibrationMouse.x,calibrationMouse.y,calibrationMouse.leftButton,calibrationMouse.midButton,calibrationMouse.rightButton,calibrationClick.x,calibrationClick.y,calibrationClick.leftButton,calibrationClick.midButton,calibrationClick.rightButton,trialsc.thisRepN,trialsc.thisTrialN,trialsc.thisN,trialsc.thisIndex,trialsc.ran,calibration_x,calibration_y,participant,session,date,expName,psychopyVersion,OS,frameRate,calibrationClick.clicked_name,ScreenRes_pixels,Camera_pixels,mouse_2.x,mouse_2.y,mouse_2.leftButton,mouse_2.midButton,mouse_2.rightButton,mouse_2.time,mouse_2.clicked_name,mouse.x,mouse.y,mouse.leftButton,mouse.midButton,mouse.rightButton,mouse.time,mouse.clicked_name,Choice,Trial,TrialDuration,MOUSE_GAZE,ET_GAZE,ET_GAZE_x_T,time,unixTime,ET_GAZE_NF,Loc_Option1_label,Loc_Option2_label,Loc_Cost_label,Loc_Qual_label,Loc_Option1_cost,Loc_Option2_cost,Loc_Option1_quality,Loc_Option2_quality,trials.thisRepN,trials.thisTrialN,trials.thisN,trials.thisIndex,trials.ran,Block,Device,cost1,qual1,cost2,qual2
space,4.0905,-1,-0.162962963,1,0,0,-0.272916667,0.161111111,0,0,0,0,0,0,14,1,0.33,-0.67,07,001,2024-12-01_14h02.12.422,Attention_exp_legacy,2023.1.0,Win32,60.24096386,,,,,,,,,,,,,,,,,,,,,,,,,,,,,,,,,,,,,,,,,,,,,
,,,,,,,-0.3375,0.675925926,1,0,0,0,1,1,8,1,-0.33,0.67,07,001,2024-12-01_14h02.12.422,Attention_exp_legacy,2023.1.0,Win32,60.24096386,calibration_square,,,,,,,,,,,,,,,,,,,,,,,,,,,,,,,,,,,,,,,,,,,,
,,,,,,,0.322916667,0.672222222,1,0,0,0,2,2,18,1,0.33,0.67,07,001,2024-12-01_14h02.12.422,Attention_exp_legacy,2023.1.0,Win32,60.24096386,calibration_square,,,,,,,,,,,,,,,,,,,,,,,,,,,,,,,,,,,,,,,,,,,,
,,,,,,,-0.667708333,0.32037037,1,0,0,0,3,3,3,1,-0.67,0.33,07,001,2024-12-01_14h02.12.422,Attention_exp_legacy,2023.1.0,Win32,60.24096386,calibration_square,,,,,,,,,,,,,,,,,,,,,,,,,,,,,,,,,,,,,,,,,,,,
,,,,,,,0.322916667,0.001851852,1,0,0,0,4,4,16,1,0.33,0,07,001,2024-12-01_14h02.12.422,Attention_exp_legacy,2023.1.0,Win32,60.24096386,calibration_square,,,,,,,,,,,,,,,,,,,,,,,,,,,,,,,,,,,,,,,,,,,,
,,,,,,,-0.330208333,0.335185185,1,0,0,0,5,5,7,1,-0.33,0.33,07,001,2024-12-01_14h02.12.422,Attention_exp_legacy,2023.1.0,Win32,60.24096386,calibration_square,,,,,,,,,,,,,,,,,,,,,,,,,,,,,,,,,,,,,,,,,,,,
,,,,,,,0.001041667,-0.327777778,1,0,0,0,6,6,10,1,0,-0.33,07,001,2024-12-01_14h02.12.422,Attention_exp_legacy,2023.1.0,Win32,60.24096386,calibration_square,,,,,,,,,,,,,,,,,,,,,,,,,,,,,,,,,,,,,,,,,,,,
,,,,,,,0.333333333,0.327777778,1,0,0,0,7,7,17,1,0.33,0.33,07,001,2024-12-01_14h02.12.422,Attention_exp_legacy,2023.1.0,Win32,60.24096386,calibration_square,,,,,,,,,,,,,,,,,,,,,,,,,,,,,,,,,,,,,,,,,,,,
,,,,,,,-0.673958333,0.005555556,1,0,0,0,8,8,2,1,-0.67,0,07,001,2024-12-01_14h02.12.422,Attention_exp_legacy,2023.1.0,Win32,60.24096386,calibration_square,,,,,,,,,,,,,,,,,,,,,,,,,,,,,,,,,,,,,,,,,,,,
,,,,,,,0.009375,-0.672222222,1,0,0,0,9,9,9,1,0,-0.67,07,001,2024-12-01_14h02.12.422,Attention_exp_legacy,2023.1.0,Win32,60.24096386,calibration_square,,,,,,,,,,,,,,,,,,,,,,,,,,,,,,,,,,,,,,,,,,,,
,,,,,,,-0.333333333,-0.322222222,1,0,0,0,10,10,5,1,-0.33,-0.33,07,001,2024-12-01_14h02.12.422,Attention_exp_legacy,2023.1.0,Win32,60.24096386,calibration_square,,,,,,,,,,,,,,,,,,,,,,,,,,,,,,,,,,,,,,,,,,,,
,,,,,,,-0.328125,-0.67962963,1,0,0,0,11,11,4,1,-0.33,-0.67,07,001,2024-12-01_14h02.12.422,Attention_exp_legacy,2023.1.0,Win32,60.24096386,calibration_square,,,,,,,,,,,,,,,,,,,,,,,,,,,,,,,,,,,,,,,,,,,,
,,,,,,,0.6625,0.672222222,1,0,0,0,12,12,19,1,0.67,0.67,07,001,2024-12-01_14h02.12.422,Attention_exp_legacy,2023.1.0,Win32,60.24096386,calibration_square,,,,,,,,,,,,,,,,,,,,,,,,,,,,,,,,,,,,,,,,,,,,
,,,,,,,0.003125,0.664814815,1,0,0,0,13,13,13,1,0,0.67,07,001,2024-12-01_14h02.12.422,Attention_exp_legacy,2023.1.0,Win32,60.24096386,calibration_square,,,,,,,,,,,,,,,,,,,,,,,,,,,,,,,,,,,,,,,,,,,,
,,,,,,,-0.328125,0,1,0,0,0,14,14,6,1,-0.33,0,07,001,2024-12-01_14h02.12.422,Attention_exp_legacy,2023.1.0,Win32,60.24096386,calibration_square,,,,,,,,,,,,,,,,,,,,,,,,,,,,,,,,,,,,,,,,,,,,
,,,,,,,-0.669791667,-0.675925926,1,0,0,0,15,15,0,1,-0.67,-0.67,07,001,2024-12-01_14h02.12.422,Attention_exp_legacy,2023.1.0,Win32,60.24096386,calibration_square,,,,,,,,,,,,,,,,,,,,,,,,,,,,,,,,,,,,,,,,,,,,
,,,,,,,0.328125,-0.327777778,1,0,0,0,16,16,15,1,0.33,-0.33,07,001,2024-12-01_14h02.12.422,Attention_exp_legacy,2023.1.0,Win32,60.24096386,calibration_square,,,,,,,,,,,,,,,,,,,,,,,,,,,,,,,,,,,,,,,,,,,,
,,,,,,,0.002083333,0.32962963,1,0,0,0,17,17,12,1,0,0.33,07,001,2024-12-01_14h02.12.422,Attention_exp_legacy,2023.1.0,Win32,60.24096386,calibration_square,,,,,,,,,,,,,,,,,,,,,,,,,,,,,,,,,,,,,,,,,,,,
,,,,,,,0.002083333,0,1,0,0,0,18,18,11,1,0,0,07,001,2024-12-01_14h02.12.422,Attention_exp_legacy,2023.1.0,Win32,60.24096386,calibration_square,,,,,,,,,,,,,,,,,,,,,,,,,,,,,,,,,,,,,,,,,,,,
,,,,,,,0.675,-0.672222222,1,0,0,0,19,19,20,1,0.67,-0.67,07,001,2024-12-01_14h02.12.422,Attention_exp_legacy,2023.1.0,Win32,60.24096386,calibration_square,,,,,,,,,,,,,,,,,,,,,,,,,,,,,,,,,,,,,,,,,,,,
,,,,,,,-0.670833333,-0.337037037,1,0,0,0,20,20,1,1,-0.67,-0.33,07,001,2024-12-01_14h02.12.422,Attention_exp_legacy,2023.1.0,Win32,60.24096386,calibration_square,,,,,,,,,,,,,,,,,,,,,,,,,,,,,,,,,,,,,,,,,,,,
,,,,,,,,,,,,,,,,,,,07,001,2024-12-01_14h02.12.422,Attention_exp_legacy,2023.1.0,Win32,60.24096386,,"[1920,1080]","[640,480]",[-0.011458333333333333],[-0.48703703703703705],[1],[0],[0],[5.630999999999993],"[""StartButton""]",[0.146875],[0.5296296296296297],[1],[0],[0],[7.818399999976151],"[""Option1_label""]",Option1_label,1,8.8263,"[[-0.008333333333333333,-0.47962962962962963],[-0.008333333333333333,-0.47962962962962963],[-0.008333333333333333,-0.47962962962962963],[-0.008333333333333333,-0.47962962962962963],[-0.008333333333333333,-0.47962962962962963],[-0.008333333333333333,-0.47962962962962963],[-0.008333333333333333,-0.47962962962962963],[-0.008333333333333333,-0.47962962962962963],[-0.008333333333333333,-0.47962962962962963],[-0.008333333333333333,-0.47962962962962963],[-0.008333333333333333,-0.47962962962962963],[-0.008333333333333333,-0.47962962962962963],[-0.008333333333333333,-0.47962962962962963],[-0.008333333333333333,-0.47962962962962963],[-0.008333333333333333,-0.47962962962962963],[-0.008333333333333333,-0.47962962962962963],[-0.008333333333333333,-0.47962962962962963],[-0.008333333333333333,-0.47962962962962963],[-0.008333333333333333,-0.47962962962962963],[-0.007291666666666667,-0.4777777777777778],[-0.007291666666666667,-0.4777777777777778],[-0.007291666666666667,-0.4777777777777778],[-0.007291666666666667,-0.4777777777777778],[-0.007291666666666667,-0.4777777777777778],[-0.007291666666666667,-0.4777777777777778],[-0.007291666666666667,-0.4777777777777778],[-0.007291666666666667,-0.4777777777777778],[-0.007291666666666667,-0.4777777777777778],[-0.007291666666666667,-0.4777777777777778],[-0.007291666666666667,-0.4777777777777778],[-0.007291666666666667,-0.4777777777777778],[-0.007291666666666667,-0.4777777777777778],[-0.007291666666666667,-0.4777777777777778],[-0.007291666666666667,-0.4777777777777778],[-0.007291666666666667,-0.4777777777777778],[-0.007291666666666667,-0.4777777777777778],[-0.007291666666666667,-0.4777777777777778],[-0.007291666666666667,-0.4777777777777778],[-0.007291666666666667,-0.4777777777777778],[-0.007291666666666667,-0.4777777777777778],[-0.007291666666666667,-0.4777777777777778],[-0.007291666666666667,-0.4777777777777778],[-0.007291666666666667,-0.4777777777777778],[-0.007291666666666667,-0.4777777777777778],[-0.007291666666666667,-0.4777777777777778],[-0.007291666666666667,-0.4777777777777778],[-0.007291666666666667,-0.4777777777777778],[-0.007291666666666667,-0.4777777777777778],[-0.007291666666666667,-0.4777777777777778],[-0.007291666666666667,-0.4777777777777778],[-0.007291666666666667,-0.4777777777777778],[-0.007291666666666667,-0.4777777777777778],[-0.007291666666666667,-0.4777777777777778],[-0.007291666666666667,-0.4777777777777778],[-0.007291666666666667,-0.4777777777777778],[-0.007291666666666667,-0.4777777777777778],[-0.007291666666666667,-0.4777777777777778],[-0.007291666666666667,-0.4777777777777778],[-0.007291666666666667,-0.4777777777777778],[-0.007291666666666667,-0.4777777777777778],[-0.007291666666666667,-0.4777777777777778],[-0.007291666666666667,-0.4777777777777778],[-0.007291666666666667,-0.4777777777777778],[-0.007291666666666667,-0.4777777777777778],[-0.007291666666666667,-0.4777777777777778],[-0.007291666666666667,-0.4777777777777778],[-0.007291666666666667,-0.4777777777777778],[-0.007291666666666667,-0.4777777777777778],[-0.007291666666666667,-0.4777777777777778],[-0.007291666666666667,-0.4777777777777778],[-0.007291666666666667,-0.4777777777777778],[-0.007291666666666667,-0.4777777777777778],[-0.007291666666666667,-0.4777777777777778],[-0.007291666666666667,-0.4777777777777778],[-0.007291666666666667,-0.4777777777777778],[-0.007291666666666667,-0.4777777777777778],[-0.007291666666666667,-0.4777777777777778],[-0.007291666666666667,-0.4777777777777778],[-0.007291666666666667,-0.4777777777777778],[-0.007291666666666667,-0.4777777777777778],[-0.007291666666666667,-0.4777777777777778],[-0.007291666666666667,-0.4777777777777778],[-0.007291666666666667,-0.4777777777777778],[-0.007291666666666667,-0.4777777777777778],[-0.007291666666666667,-0.4777777777777778],[-0.007291666666666667,-0.4777777777777778],[-0.007291666666666667,-0.4777777777777778],[-0.007291666666666667,-0.4777777777777778],[-0.007291666666666667,-0.4777777777777778],[-0.007291666666666667,-0.4777777777777778],[-0.007291666666666667,-0.4777777777777778],[-0.007291666666666667,-0.4777777777777778],[-0.007291666666666667,-0.4777777777777778],[-0.007291666666666667,-0.4777777777777778],[-0.007291666666666667,-0.4777777777777778],[-0.007291666666666667,-0.4777777777777778],[-0.007291666666666667,-0.4777777777777778],[-0.007291666666666667,-0.4777777777777778],[-0.007291666666666667,-0.4777777777777778],[-0.007291666666666667,-0.4777777777777778],[-0.007291666666666667,-0.4777777777777778],[-0.007291666666666667,-0.4777777777777778],[-0.007291666666666667,-0.4777777777777778],[-0.007291666666666667,-0.4777777777777778],[-0.007291666666666667,-0.4777777777777778],[-0.007291666666666667,-0.4777777777777778],[-0.007291666666666667,-0.4777777777777778],[-0.007291666666666667,-0.4777777777777778],[-0.007291666666666667,-0.4777777777777778],[-0.007291666666666667,-0.4777777777777778],[-0.007291666666666667,-0.4777777777777778],[-0.007291666666666667,-0.4777777777777778],[-0.007291666666666667,-0.4777777777777778],[-0.007291666666666667,-0.4777777777777778],[-0.007291666666666667,-0.4777777777777778],[-0.007291666666666667,-0.4777777777777778],[-0.00625,-0.4777777777777778],[-0.00625,-0.4777777777777778],[-0.00625,-0.4777777777777778],[-0.00625,-0.4777777777777778],[-0.00625,-0.4777777777777778],[-0.00625,-0.4777777777777778],[-0.00625,-0.4777777777777778],[-0.00625,-0.4777777777777778],[-0.00625,-0.4777777777777778],[-0.00625,-0.4777777777777778],[-0.00625,-0.4777777777777778],[-0.00625,-0.4777777777777778],[-0.00625,-0.4777777777777778],[-0.00625,-0.4777777777777778],[-0.00625,-0.4777777777777778],[-0.00625,-0.4777777777777778],[-0.00625,-0.4777777777777778],[-0.00625,-0.4777777777777778],[-0.00625,-0.4777777777777778],[-0.00625,-0.4777777777777778],[-0.00625,-0.4777777777777778],[-0.00625,-0.4777777777777778],[-0.00625,-0.4777777777777778],[-0.00625,-0.4777777777777778],[-0.00625,-0.4777777777777778],[-0.00625,-0.4777777777777778],[-0.00625,-0.4777777777777778],[-0.00625,-0.4777777777777778],[-0.00625,-0.4777777777777778],[-0.00625,-0.4777777777777778],[-0.00625,-0.4777777777777778],[-0.00625,-0.4777777777777778],[-0.00625,-0.4777777777777778],[-0.00625,-0.4777777777777778],[-0.005208333333333333,-0.4759259259259259],[-0.005208333333333333,-0.4759259259259259],[-0.004166666666666667,-0.4759259259259259],[-0.004166666666666667,-0.4740740740740741],[-0.004166666666666667,-0.4740740740740741],[-0.003125,-0.4722222222222222],[-0.0020833333333333333,-0.4722222222222222],[-0.0020833333333333333,-0.4703703703703704],[0.0010416666666666667,-0.4666666666666667],[0.003125,-0.4648148148148148],[0.009375,-0.45740740740740743],[0.01875,-0.4444444444444444],[0.029166666666666667,-0.4351851851851852],[0.041666666666666664,-0.42407407407407405],[0.06145833333333333,-0.40185185185185185],[0.06770833333333333,-0.3925925925925926],[0.08229166666666667,-0.37592592592592594],[0.09479166666666666,-0.3574074074074074],[0.10208333333333333,-0.34444444444444444],[0.10833333333333334,-0.3351851851851852],[0.1125,-0.32222222222222224],[0.115625,-0.3148148148148148],[0.11770833333333333,-0.30925925925925923],[0.11875,-0.3],[0.11875,-0.2962962962962963],[0.11979166666666667,-0.28888888888888886],[0.11979166666666667,-0.2833333333333333],[0.11979166666666667,-0.2759259259259259],[0.11979166666666667,-0.26851851851851855],[0.11979166666666667,-0.2537037037037037],[0.11979166666666667,-0.2351851851851852],[0.11979166666666667,-0.2222222222222222],[0.11979166666666667,-0.21296296296296297],[0.11979166666666667,-0.2037037037037037],[0.11979166666666667,-0.19814814814814816],[0.11875,-0.19444444444444445],[0.11875,-0.1925925925925926],[0.11875,-0.19074074074074074],[0.11875,-0.19074074074074074],[0.11875,-0.19074074074074074],[0.11875,-0.19074074074074074],[0.11875,-0.19074074074074074],[0.11875,-0.19074074074074074],[0.11875,-0.19074074074074074],[0.11875,-0.19074074074074074],[0.11875,-0.19074074074074074],[0.11875,-0.19074074074074074],[0.11875,-0.19074074074074074],[0.11875,-0.19074074074074074],[0.11875,-0.19074074074074074],[0.11875,-0.19074074074074074],[0.11875,-0.19074074074074074],[0.11875,-0.19074074074074074],[0.11875,-0.19074074074074074],[0.11875,-0.19074074074074074],[0.11875,-0.19074074074074074],[0.11875,-0.19074074074074074],[0.11875,-0.19074074074074074],[0.11875,-0.19074074074074074],[0.11875,-0.19074074074074074],[0.11875,-0.19074074074074074],[0.11875,-0.19074074074074074],[0.11875,-0.19074074074074074],[0.11875,-0.19074074074074074],[0.11875,-0.19074074074074074],[0.11875,-0.19074074074074074],[0.11875,-0.19074074074074074],[0.11875,-0.19074074074074074],[0.11875,-0.19074074074074074],[0.11875,-0.19074074074074074],[0.11875,-0.19074074074074074],[0.11875,-0.19074074074074074],[0.11875,-0.19074074074074074],[0.11875,-0.19074074074074074],[0.11875,-0.19074074074074074],[0.11875,-0.19074074074074074],[0.11875,-0.19074074074074074],[0.11875,-0.19074074074074074],[0.11875,-0.19074074074074074],[0.11875,-0.19074074074074074],[0.11875,-0.19074074074074074],[0.11875,-0.19074074074074074],[0.11875,-0.19074074074074074],[0.11875,-0.19074074074074074],[0.11875,-0.19074074074074074],[0.11875,-0.19074074074074074],[0.11875,-0.19074074074074074],[0.11875,-0.19074074074074074],[0.11875,-0.19074074074074074],[0.11875,-0.19074074074074074],[0.11875,-0.19074074074074074],[0.11875,-0.19074074074074074],[0.11875,-0.19074074074074074],[0.11875,-0.19074074074074074],[0.11875,-0.19074074074074074],[0.11875,-0.19074074074074074],[0.11875,-0.19074074074074074],[0.11875,-0.19074074074074074],[0.11875,-0.19074074074074074],[0.11875,-0.19074074074074074],[0.11875,-0.19074074074074074],[0.11875,-0.19074074074074074],[0.11875,-0.19074074074074074],[0.11875,-0.19074074074074074],[0.11875,-0.19074074074074074],[0.11875,-0.19074074074074074],[0.11875,-0.19074074074074074],[0.11875,-0.19074074074074074],[0.11875,-0.19074074074074074],[0.11875,-0.19074074074074074],[0.11875,-0.19074074074074074],[0.121875,-0.18703703703703703],[0.128125,-0.18333333333333332],[0.13125,-0.18333333333333332],[0.13958333333333334,-0.1814814814814815],[0.15,-0.17777777777777778],[0.16875,-0.17037037037037037],[0.18958333333333333,-0.15555555555555556],[0.225,-0.11851851851851852],[0.2677083333333333,-0.06481481481481481],[0.31666666666666665,-0.005555555555555556],[0.37083333333333335,0.07037037037037037],[0.43125,0.14814814814814814],[0.490625,0.21851851851851853],[0.53125,0.26851851851851855],[0.5802083333333333,0.3314814814814815],[0.596875,0.35185185185185186],[0.61875,0.37407407407407406],[0.6427083333333333,0.3962962962962963],[0.6510416666666666,0.4074074074074074],[0.6583333333333333,0.4148148148148148],[0.6625,0.4185185185185185],[0.665625,0.42407407407407405],[0.66875,0.42592592592592593],[0.6697916666666667,0.42777777777777776],[0.6697916666666667,0.42777777777777776],[0.6697916666666667,0.42777777777777776],[0.6708333333333333,0.42962962962962964],[0.6708333333333333,0.42962962962962964],[0.6708333333333333,0.42962962962962964],[0.6708333333333333,0.42962962962962964],[0.671875,0.43148148148148147],[0.671875,0.43148148148148147],[0.6729166666666667,0.43148148148148147],[0.6739583333333333,0.43333333333333335],[0.675,0.43333333333333335],[0.6770833333333334,0.43703703703703706],[0.6802083333333333,0.4388888888888889],[0.68125,0.44074074074074077],[0.6885416666666667,0.4462962962962963],[0.6916666666666667,0.44814814814814813],[0.6958333333333333,0.45],[0.7041666666666667,0.4537037037037037],[0.709375,0.45555555555555555],[0.7145833333333333,0.45555555555555555],[0.7177083333333333,0.45555555555555555],[0.7229166666666667,0.45555555555555555],[0.7270833333333333,0.45925925925925926],[0.73125,0.46111111111111114],[0.734375,0.46111111111111114],[0.7375,0.46111111111111114],[0.7385416666666667,0.46111111111111114],[0.7395833333333334,0.46111111111111114],[0.7395833333333334,0.46111111111111114],[0.740625,0.46111111111111114],[0.740625,0.46111111111111114],[0.7416666666666667,0.46111111111111114],[0.7416666666666667,0.46111111111111114],[0.7416666666666667,0.46111111111111114],[0.7416666666666667,0.46111111111111114],[0.7416666666666667,0.46111111111111114],[0.7416666666666667,0.46111111111111114],[0.7416666666666667,0.46111111111111114],[0.7416666666666667,0.46111111111111114],[0.7427083333333333,0.46111111111111114],[0.7427083333333333,0.46111111111111114],[0.7427083333333333,0.46111111111111114],[0.7427083333333333,0.46111111111111114],[0.7427083333333333,0.46111111111111114],[0.7427083333333333,0.46111111111111114],[0.7427083333333333,0.46111111111111114],[0.7427083333333333,0.46111111111111114],[0.7427083333333333,0.46111111111111114],[0.7427083333333333,0.46111111111111114],[0.7427083333333333,0.46111111111111114],[0.7427083333333333,0.46111111111111114],[0.7427083333333333,0.46111111111111114],[0.7427083333333333,0.46111111111111114],[0.7427083333333333,0.46111111111111114],[0.7427083333333333,0.46111111111111114],[0.7427083333333333,0.46111111111111114],[0.7427083333333333,0.46111111111111114],[0.7427083333333333,0.46111111111111114],[0.7427083333333333,0.46111111111111114],[0.7427083333333333,0.46111111111111114],[0.7427083333333333,0.46111111111111114],[0.7427083333333333,0.46111111111111114],[0.7427083333333333,0.46111111111111114],[0.7427083333333333,0.46111111111111114],[0.7427083333333333,0.46111111111111114],[0.7427083333333333,0.46111111111111114],[0.7427083333333333,0.46111111111111114],[0.7427083333333333,0.46111111111111114],[0.7427083333333333,0.46111111111111114],[0.7427083333333333,0.46111111111111114],[0.7427083333333333,0.46111111111111114],[0.7427083333333333,0.46111111111111114],[0.7427083333333333,0.46111111111111114],[0.7427083333333333,0.46111111111111114],[0.7427083333333333,0.46111111111111114],[0.7427083333333333,0.46111111111111114],[0.7427083333333333,0.46111111111111114],[0.7427083333333333,0.46111111111111114],[0.7427083333333333,0.46111111111111114],[0.7427083333333333,0.46111111111111114],[0.7427083333333333,0.46111111111111114],[0.7427083333333333,0.46111111111111114],[0.7427083333333333,0.46111111111111114],[0.7427083333333333,0.46111111111111114],[0.7427083333333333,0.46111111111111114],[0.7427083333333333,0.46111111111111114],[0.7427083333333333,0.46111111111111114],[0.7427083333333333,0.46111111111111114],[0.7427083333333333,0.46111111111111114],[0.7427083333333333,0.46111111111111114],[0.7427083333333333,0.46111111111111114],[0.7427083333333333,0.46111111111111114],[0.7427083333333333,0.46111111111111114],[0.7427083333333333,0.46111111111111114],[0.7427083333333333,0.46111111111111114],[0.7427083333333333,0.46111111111111114],[0.7427083333333333,0.46111111111111114],[0.7427083333333333,0.46111111111111114],[0.7427083333333333,0.46111111111111114],[0.7427083333333333,0.46111111111111114],[0.7427083333333333,0.46111111111111114],[0.7427083333333333,0.46111111111111114],[0.7427083333333333,0.46111111111111114],[0.7427083333333333,0.46111111111111114],[0.7427083333333333,0.46111111111111114],[0.7427083333333333,0.46111111111111114],[0.7427083333333333,0.46111111111111114],[0.7427083333333333,0.46111111111111114],[0.7427083333333333,0.46111111111111114],[0.7427083333333333,0.46111111111111114],[0.7427083333333333,0.46111111111111114],[0.7427083333333333,0.46111111111111114],[0.7427083333333333,0.46111111111111114],[0.7427083333333333,0.46111111111111114],[0.7427083333333333,0.46111111111111114],[0.7427083333333333,0.46111111111111114],[0.7427083333333333,0.46111111111111114],[0.7427083333333333,0.46111111111111114],[0.7427083333333333,0.46111111111111114],[0.7427083333333333,0.46111111111111114],[0.7427083333333333,0.46111111111111114],[0.7427083333333333,0.46111111111111114],[0.7427083333333333,0.46111111111111114],[0.7427083333333333,0.46111111111111114],[0.7427083333333333,0.46111111111111114],[0.7427083333333333,0.46111111111111114],[0.7427083333333333,0.46111111111111114],[0.7427083333333333,0.46111111111111114],[0.7427083333333333,0.46111111111111114],[0.7427083333333333,0.46111111111111114],[0.7427083333333333,0.46111111111111114],[0.7427083333333333,0.46111111111111114],[0.7427083333333333,0.46111111111111114],[0.7427083333333333,0.46111111111111114],[0.7427083333333333,0.46111111111111114],[0.7427083333333333,0.46111111111111114],[0.7427083333333333,0.46111111111111114],[0.7427083333333333,0.46111111111111114],[0.7427083333333333,0.46111111111111114],[0.7427083333333333,0.46111111111111114],[0.7427083333333333,0.46111111111111114],[0.7427083333333333,0.46111111111111114],[0.7427083333333333,0.46111111111111114],[0.7427083333333333,0.46111111111111114],[0.7427083333333333,0.46111111111111114],[0.7427083333333333,0.46111111111111114],[0.7427083333333333,0.46111111111111114],[0.7427083333333333,0.46111111111111114],[0.7427083333333333,0.46111111111111114],[0.7427083333333333,0.46111111111111114],[0.7427083333333333,0.46111111111111114],[0.7333333333333333,0.45740740740740743],[0.6895833333333333,0.4444444444444444],[0.6177083333333333,0.4351851851851852],[0.5302083333333333,0.4351851851851852],[0.4666666666666667,0.4425925925925926],[0.421875,0.46111111111111114],[0.3875,0.4703703703703704],[0.35833333333333334,0.48518518518518516],[0.353125,0.4888888888888889],[0.340625,0.4925925925925926],[0.33125,0.5],[0.3229166666666667,0.5037037037037037],[0.31666666666666665,0.5092592592592593],[0.30520833333333336,0.5111111111111111],[0.29270833333333335,0.512962962962963],[0.278125,0.5185185185185185],[0.2635416666666667,0.5222222222222223],[0.2520833333333333,0.5259259259259259],[0.23645833333333333,0.5277777777777778],[0.228125,0.5277777777777778],[0.22291666666666668,0.5296296296296297],[0.21145833333333333,0.5296296296296297],[0.190625,0.5296296296296297],[0.17708333333333334,0.5296296296296297],[0.16458333333333333,0.5296296296296297],[0.15625,0.5296296296296297],[0.15104166666666666,0.5296296296296297],[0.14895833333333333,0.5296296296296297],[0.14791666666666667,0.5296296296296297],[0.14791666666666667,0.5296296296296297],[0.14791666666666667,0.5296296296296297],[0.146875,0.5296296296296297],[0.146875,0.5296296296296297],[0.146875,0.5296296296296297],[0.146875,0.5296296296296297],[0.146875,0.5296296296296297],[0.146875,0.5296296296296297],[0.146875,0.5296296296296297],[0.146875,0.5296296296296297],[0.146875,0.5296296296296297],[0.146875,0.5296296296296297],[0.146875,0.5296296296296297],[0.146875,0.5296296296296297],[0.146875,0.5296296296296297],[0.146875,0.5296296296296297],[0.146875,0.5296296296296297],[0.146875,0.5296296296296297],[0.146875,0.5296296296296297],[0.146875,0.5296296296296297],[0.146875,0.5296296296296297],[0.146875,0.5296296296296297],[0.146875,0.5296296296296297],[0.146875,0.5296296296296297],[0.146875,0.5296296296296297],[0.146875,0.5296296296296297],[0.146875,0.5296296296296297],[0.146875,0.5296296296296297],[0.13645833333333332,0.5166666666666667],[0.13125,0.5055555555555555],[0.10625,0.4666666666666667],[0.075,0.4222222222222222],[0.04479166666666667,0.3851851851851852],[0.021875,0.3592592592592593],[0.004166666666666667,0.3425925925925926],[-0.008333333333333333,0.3277777777777778],[-0.016666666666666666,0.31851851851851853],[-0.020833333333333332,0.31666666666666665],[-0.022916666666666665,0.31296296296296294],[-0.025,0.3111111111111111],[-0.025,0.3111111111111111],[-0.025,0.3111111111111111],[-0.025,0.3111111111111111],[-0.025,0.3111111111111111],[-0.025,0.3111111111111111],[-0.025,0.3111111111111111],[-0.025,0.3111111111111111],[-0.025,0.3111111111111111],[-0.025,0.3111111111111111],[-0.025,0.3111111111111111],[-0.025,0.3111111111111111],[-0.025,0.3111111111111111],[-0.025,0.3111111111111111],[-0.026041666666666668,0.30925925925925923],[-0.029166666666666667,0.30185185185185187],[-0.03333333333333333,0.2851851851851852],[-0.04479166666666667,0.24074074074074073],[-0.04791666666666667,0.2222222222222222],[-0.057291666666666664,0.18518518518518517],[-0.065625,0.15],[-0.071875,0.12407407407407407],[-0.07708333333333334,0.10185185185185185],[-0.08333333333333333,0.07407407407407407],[-0.08541666666666667,0.06666666666666667],[-0.0875,0.05555555555555555]]","[[0.1834374999999999,-0.15796296296296297],[0.1834374999999999,-0.15796296296296297],[0.18072916666666666,-0.07370370370370373],[0.18072916666666666,-0.07370370370370373],[0.1568749999999999,-0.08555555555555554],[0.16218750000000004,-0.0977777777777778],[0.17666666666666658,-0.05592592592592591],[0.18385416666666668,-0.02111111111111107],[0.20020833333333338,0.0301851851851851],[0.19375,0.08259259259259263],[0.1618750000000001,0.004814814814814857],[0.15677083333333333,0.005185185185185101],[0.13010416666666677,-0.022222222222222223],[0.1306250000000001,-0.06870370370370374],[0.16145833333333334,-0.02629629629629638],[0.16177083333333328,-0.008148148148148106],[0.15656249999999997,-0.020740740740740823],[0.14291666666666672,-0.03518518518518519],[0.12927083333333325,-0.07888888888888893],[0.09510416666666661,-0.1331481481481481],[0.09510416666666661,-0.1331481481481481],[0.09041666666666662,0.06462962962962959],[0.04874999999999995,0.13203703703703695],[0.035312499999999976,0.21870370370370373],[-0.0026041666666666665,0.2737037037037036],[-0.033645833333333285,0.3114814814814816],[-0.07749999999999997,0.3135185185185184],[-0.07749999999999997,0.3135185185185184],[-0.09281250000000002,0.35833333333333334],[-0.11666666666666667,0.44814814814814813],[-0.1452083333333333,0.5164814814814814],[-0.1452083333333333,0.5164814814814814],[-0.1532291666666667,0.5953703703703703],[-0.125,0.4751851851851852],[-0.10187499999999995,0.3388888888888889],[-0.10187499999999995,0.3388888888888889],[-0.06812499999999998,0.25203703703703706],[-0.025520833333333333,0.18518518518518517],[-0.004062499999999977,0.13277777777777786],[0.026041666666666668,0.10703703703703696],[0.026041666666666668,0.10703703703703696],[0.030520833333333285,0.024814814814814772],[0.04697916666666669,-0.08555555555555554],[0.04697916666666669,-0.08555555555555554],[0.06072916666666662,-0.16314814814814818],[0.09291666666666672,-0.28111111111111114],[0.09291666666666672,-0.28111111111111114],[0.09447916666666671,-0.29259259259259257],[0.11135416666666677,-0.25925925925925924],[0.10760416666666663,-0.27925925925925926],[0.10760416666666663,-0.27925925925925926],[0.11479166666666671,-0.29611111111111105],[0.1224999999999999,-0.3044444444444444],[0.1328125,-0.31870370370370377],[0.14635416666666667,-0.31148148148148147],[0.14791666666666667,-0.32999999999999996],[0.14791666666666667,-0.32999999999999996],[0.1525000000000001,-0.30185185185185187],[0.09541666666666657,-0.20777777777777776],[0.035625000000000046,-0.14444444444444443],[-0.028541666666666642,-0.07148148148148152],[-0.08270833333333331,0.005370370370370328],[-0.14781249999999999,0.07907407407407416],[-0.21458333333333332,0.18129629629629626],[-0.2763541666666666,0.22592592592592592],[-0.33125,0.2759259259259259],[-0.3696875,0.33499999999999996],[-0.40218750000000003,0.3685185185185185],[-0.40218750000000003,0.3685185185185185],[-0.3944791666666667,0.3844444444444445],[-0.3625,0.35759259259259263],[-0.365,0.3685185185185185],[-0.3866666666666667,0.3648148148148148],[-0.4125,0.3483333333333334],[-0.3854166666666667,0.2418518518518519],[-0.3676041666666666,0.19796296296296292],[-0.3676041666666666,0.19796296296296292],[-0.318125,0.20777777777777787],[-0.2640625,0.17851851851851847],[-0.21000000000000002,0.1331481481481481],[-0.21000000000000002,0.1331481481481481],[-0.15354166666666663,0.04296296296296305],[-0.11927083333333334,0.006111111111111027],[-0.060104166666666715,-0.056296296296296254],[0.0125,-0.11962962962962967],[0.09229166666666658,-0.1905555555555555],[0.12541666666666676,-0.1985185185185185],[0.1634375000000001,-0.18481481481481485],[0.1634375000000001,-0.18481481481481485],[0.16979166666666667,-0.23777777777777773],[0.1638541666666666,-0.2712962962962963],[0.16572916666666657,-0.3098148148148148],[0.15791666666666657,-0.27314814814814814],[0.14802083333333324,-0.247037037037037],[0.11645833333333329,-0.21296296296296297],[0.090625,-0.1633333333333333],[0.060104166666666715,-0.09759259259259258],[0.046875,-0.02092592592592584],[0.01229166666666662,0.04407407407407399],[-0.02947916666666662,0.08981481481481482],[-0.06291666666666665,0.14444444444444443],[-0.08666666666666671,0.2111111111111111],[-0.14645833333333336,0.23444444444444448],[-0.20114583333333336,0.26962962962962966],[-0.24343750000000006,0.3162962962962962],[-0.24343750000000006,0.3162962962962962],[-0.28572916666666665,0.362962962962963],[-0.31062500000000004,0.3527777777777778],[-0.35812499999999997,0.3514814814814814],[-0.35812499999999997,0.3514814814814814],[-0.3883333333333333,0.3785185185185185],[-0.4114583333333333,0.387037037037037],[-0.4352083333333333,0.40629629629629627],[-0.48864583333333333,0.4162962962962962],[-0.5010416666666667,0.4346296296296297],[-0.536875,0.4390740740740741],[-0.5433333333333333,0.4024074074074073],[-0.5433333333333333,0.4024074074074073],[-0.4875,0.3822222222222222],[-0.48781250000000004,0.4142592592592593],[-0.5120833333333333,0.42314814814814816],[-0.5111458333333333,0.40925925925925927],[-0.4909375,0.38574074074074066],[-0.47072916666666664,0.3622222222222223],[-0.3637500000000001,0.3375925925925925],[-0.3637500000000001,0.3375925925925925],[-0.2577083333333333,0.3087037037037038],[-0.11041666666666666,0.24370370370370376],[-0.005104166666666643,0.1844444444444445],[-0.005104166666666643,0.1844444444444445],[0.03791666666666664,0.10870370370370379],[0.14427083333333332,0.03425925925925926],[0.2859375,-0.03185185185185194],[0.4040625000000001,-0.10462962962962963],[0.4991666666666667,-0.14370370370370375],[0.58875,-0.19277777777777783],[0.6078125,-0.22999999999999998],[0.6353125000000001,-0.2783333333333334],[0.6389583333333334,-0.27518518518518525],[0.6594791666666666,-0.2687037037037037],[0.7006249999999999,-0.2494444444444444],[0.7110416666666666,-0.21592592592592597],[0.7095833333333333,-0.1911111111111111],[0.7056250000000001,-0.17518518518518522],[0.7008333333333333,-0.15925925925925927],[0.7075,-0.1366666666666667],[0.7058333333333332,-0.1272222222222222],[0.7019791666666667,-0.10574074074074079],[0.7019791666666667,-0.10574074074074079],[0.6980208333333332,-0.09870370370370372],[0.6905208333333335,-0.0742592592592593],[0.6065625,-0.01796296296296305],[0.5730208333333332,-0.009629629629629714],[0.5422916666666666,0.0014814814814813973],[0.5422916666666666,0.0014814814814813973],[0.49333333333333323,0.052037037037037076],[0.43385416666666665,0.0824074074074074],[0.36843750000000003,0.11611111111111119],[0.36843750000000003,0.11611111111111119],[0.29364583333333344,0.18000000000000008],[0.21885416666666657,0.24388888888888896],[0.1453125,0.30351851851851847],[0.1453125,0.30351851851851847],[0.08427083333333343,0.32888888888888895],[0.08052083333333329,0.3131481481481482],[0.08052083333333329,0.3131481481481482],[0.034166666666666616,0.3387037037037037],[0.034166666666666616,0.3387037037037037],[-0.012395833333333309,0.365925925925926],[-0.021354166666666667,0.3472222222222222],[-0.06708333333333331,0.35907407407407405],[-0.06708333333333331,0.35907407407407405],[-0.06927083333333334,0.3701851851851851],[-0.05687500000000002,0.3774074074074073],[-0.049270833333333285,0.37962962962962965],[-0.027499999999999976,0.3633333333333334],[-0.017708333333333333,0.37962962962962965],[-0.03322916666666664,0.3925925925925926],[-0.03322916666666664,0.3925925925925926],[-0.01395833333333331,0.39944444444444455],[-0.007500000000000047,0.397037037037037],[-0.024895833333333308,0.41462962962962957],[-0.024895833333333308,0.41462962962962957],[0.04385416666666669,0.4],[0.05927083333333331,0.42111111111111105],[0.057500000000000044,0.37962962962962965],[0.057500000000000044,0.37962962962962965],[0.042499999999999954,0.29888888888888887],[0.050937499999999976,0.23462962962962972],[0.06708333333333343,0.15555555555555556],[0.11010416666666671,0.11018518518518519],[0.11302083333333333,0.052037037037037076],[0.13385416666666666,0.05351851851851848],[0.15166666666666656,0.016666666666666666],[0.07937500000000004,-0.009259259259259259],[0.009583333333333381,-0.057777777777777754],[-0.033749999999999974,-0.03333333333333333],[-0.059062500000000046,0.03537037037037041],[-0.1282291666666667,0.10851851851851856],[-0.19739583333333333,0.1816666666666667],[-0.2864583333333333,0.23944444444444435],[-0.3702083333333333,0.3161111111111112],[-0.4397916666666667,0.30925925925925923],[-0.4397916666666667,0.30925925925925923],[-0.49041666666666667,0.3207407407407408],[-0.5027083333333333,0.3014814814814814],[-0.5077083333333333,0.2698148148148149],[-0.5536458333333333,0.20685185185185193],[-0.5730208333333333,0.19129629629629621],[-0.5745833333333333,0.1587037037037038],[-0.5964583333333333,0.11500000000000005],[-0.6014583333333333,0.05277777777777778],[-0.6114583333333333,0.0035185185185184764],[-0.6173958333333334,-0.05592592592592591],[-0.6284375,-0.11962962962962967],[-0.6284375,-0.11962962962962967],[-0.5932291666666667,-0.12407407407407407],[-0.5888541666666666,-0.13203703703703706],[-0.5675,-0.20240740740740742],[-0.5761458333333334,-0.29388888888888887],[-0.5691666666666666,-0.32462962962962966],[-0.5496875,-0.32685185185185184],[-0.5442708333333334,-0.37462962962962965],[-0.5478124999999999,-0.4418518518518519],[-0.5119791666666667,-0.43074074074074076],[-0.5119791666666667,-0.43074074074074076],[-0.4825,-0.4088888888888889],[-0.484375,-0.3727777777777778],[-0.44937499999999997,-0.31370370370370365],[-0.39572916666666663,-0.19537037037037036],[-0.33864583333333337,-0.10333333333333336],[-0.3077083333333333,-0.0485185185185186],[-0.24708333333333338,-0.03296296296296288],[-0.19583333333333333,0.03314814814814811],[-0.10666666666666665,0.11481481481481481],[-0.07572916666666671,0.15185185185185185],[-0.04854166666666669,0.21092592592592588],[-0.027604166666666666,0.24055555555555552],[-0.016770833333333356,0.21666666666666667],[-0.004791666666666691,0.19388888888888897],[0.03447916666666669,0.1801851851851851],[0.07249999999999991,0.16296296296296298],[0.08708333333333323,0.15055555555555547],[0.1203125,0.13222222222222219],[0.11875,0.07037037037037037],[0.1296875,0.034444444444444486],[0.1382291666666667,-0.01314814814814819],[0.1525000000000001,-0.06407407407407412],[0.1525000000000001,-0.06407407407407412],[0.17572916666666671,-0.0948148148148148],[0.19135416666666671,-0.1287037037037037],[0.16802083333333329,-0.15962962962962962],[0.17177083333333343,-0.18333333333333332],[0.17864583333333334,-0.20407407407407405],[0.19031250000000005,-0.22388888888888886],[0.2283333333333334,-0.1705555555555556],[0.26749999999999996,-0.10407407407407405],[0.29177083333333326,-0.07740740740740742],[0.33583333333333343,-0.11296296296296296],[0.375,-0.1346296296296296],[0.41166666666666674,-0.10537037037037032],[0.4722916666666668,-0.08759259259259261],[0.46197916666666666,-0.09240740740740737],[0.46197916666666666,-0.09240740740740737],[0.4721874999999999,-0.08611111111111111],[0.4696875000000001,-0.02814814814814823],[0.45427083333333323,-0.07999999999999997],[0.3991666666666667,-0.102962962962963],[0.3991666666666667,-0.102962962962963],[0.37083333333333335,-0.13851851851851854],[0.33781249999999996,-0.12814814814814812],[0.28624999999999995,-0.1175925925925926],[0.28624999999999995,-0.1175925925925926],[0.25125000000000003,-0.0940740740740741],[0.2109375,-0.10055555555555558],[0.22364583333333338,-0.10240740740740743],[0.22364583333333338,-0.10240740740740743],[0.23833333333333329,-0.05814814814814811],[0.2573958333333332,-0.07444444444444442],[0.2573958333333332,-0.07444444444444442],[0.27885416666666674,-0.04759259259259268],[0.31833333333333325,-0.08203703703703706],[0.3586458333333333,-0.05333333333333336],[0.3586458333333333,-0.05333333333333336],[0.3931250000000001,-0.060555555555555536],[0.3931250000000001,-0.060555555555555536],[0.4327083333333334,-0.06611111111111109],[0.4492708333333333,-0.11703703703703702],[0.5039583333333333,-0.1381481481481482],[0.5494791666666666,-0.1485185185185185],[0.535625,-0.1425925925925926],[0.5301041666666667,-0.12777777777777777],[0.5176041666666668,-0.1479629629629629],[0.5118750000000001,-0.16592592592592598],[0.5194791666666667,-0.1727777777777778],[0.5171875,-0.1264814814814815],[0.5171875,-0.1264814814814815],[0.496875,-0.07296296296296292],[0.5152083333333333,-0.034444444444444486],[0.5123958333333334,-0.07999999999999997],[0.5061458333333334,-0.1412962962962963],[0.5061458333333334,-0.1412962962962963],[0.5109375,-0.20981481481481484],[0.5558333333333333,-0.29888888888888887],[0.5721875,-0.31962962962962965],[0.5721875,-0.31962962962962965],[0.6040625000000001,-0.3338888888888889],[0.6426041666666668,-0.3824074074074074],[0.6584374999999999,-0.46277777777777773],[0.6584374999999999,-0.46277777777777773],[0.6903125,-0.5231481481481481],[0.6974999999999999,-0.5587037037037037],[0.6779166666666666,-0.5461111111111111],[0.6617708333333333,-0.5177777777777778],[0.6638541666666666,-0.5062962962962962],[0.63,-0.48462962962962963],[0.6131249999999999,-0.47388888888888886],[0.6131249999999999,-0.47388888888888886],[0.5736458333333334,-0.4390740740740741],[0.5453125,-0.39518518518518514],[0.5277083333333332,-0.3603703703703704],[0.49072916666666655,-0.3383333333333333],[0.46031250000000007,-0.37648148148148153],[0.41593749999999996,-0.3588888888888889],[0.35958333333333337,-0.32037037037037036],[0.38333333333333336,-0.33907407407407414],[0.4046875,-0.3492592592592593],[0.39989583333333345,-0.3418518518518519],[0.42125000000000007,-0.35851851851851857],[0.4033333333333334,-0.4035185185185185],[0.39739583333333334,-0.4075925925925926],[0.4157291666666666,-0.4044444444444444],[0.4304166666666667,-0.36629629629629634],[0.46208333333333323,-0.3544444444444444],[0.46208333333333323,-0.3544444444444444],[0.46239583333333345,-0.3411111111111111],[0.3740624999999999,-0.3224074074074075],[0.3095833333333334,-0.30185185185185187],[0.315625,-0.2927777777777778],[0.28406250000000005,-0.2796296296296296],[0.24510416666666662,-0.24314814814814817],[0.20614583333333342,-0.20666666666666672],[0.20614583333333342,-0.20666666666666672],[0.16239583333333343,-0.18185185185185182],[0.11229166666666662,-0.20999999999999996],[0.11229166666666662,-0.20999999999999996],[0.034791666666666644,-0.18722222222222226],[0.05927083333333331,-0.23592592592592587],[0.06489583333333329,-0.2492592592592593],[0.04489583333333336,-0.2625925925925926],[-0.005937500000000048,-0.2764814814814815],[-0.01572916666666669,-0.28111111111111114],[-0.03135416666666669,-0.28851851851851856],[-0.04697916666666669,-0.2959259259259259],[-0.04697916666666669,-0.2959259259259259],[-0.03999999999999997,-0.32685185185185184],[-0.026250000000000048,-0.2911111111111111],[0.014687500000000023,-0.3001851851851852],[0.014687500000000023,-0.3001851851851852],[-0.0015625,-0.24092592592592596],[-0.024583333333333356,-0.2064814814814815],[-0.017708333333333333,-0.18277777777777776],[-0.019583333333333286,-0.1205555555555556],[-0.04031250000000005,-0.11018518518518519],[-0.049583333333333354,-0.0727777777777778],[-0.058854166666666666,-0.03537037037037041],[-0.08177083333333333,-0.0035185185185184764],[-0.09135416666666671,0.0294444444444444],[-0.10791666666666669,0.05333333333333325],[-0.13572916666666662,0.0712962962962963],[-0.13572916666666662,0.0712962962962963],[-0.11458333333333333,0.10611111111111103],[-0.10802083333333339,0.13629629629629633],[-0.08937499999999995,0.12685185185185185],[-0.07437499999999998,0.14944444444444452],[-0.09031250000000005,0.17685185185185184],[-0.07614583333333336,0.1925925925925926],[-0.050625000000000024,0.22185185185185177],[-0.04239583333333338,0.26444444444444437],[-0.03781249999999995,0.3014814814814814],[-0.002916666666666619,0.3051851851851851],[0.02322916666666662,0.29796296296296293],[0.050520833333333334,0.3194444444444444],[0.06458333333333334,0.3237037037037036],[0.10906250000000005,0.35796296296296287],[0.15729166666666666,0.33537037037037043],[0.190625,0.31240740740740747],[0.190625,0.31240740740740747],[0.22510416666666658,0.27925925925925915],[0.2591666666666666,0.21777777777777782],[0.3210416666666667,0.17851851851851847],[0.346875,0.1638888888888889],[0.3578125,0.1675925925925926],[0.3578125,0.1675925925925926],[0.36124999999999996,0.15685185185185194],[0.36124999999999996,0.15685185185185194],[0.3736458333333334,0.1727777777777777],[0.3477083333333333,0.15907407407407403],[0.35427083333333326,0.17240740740740745],[0.35427083333333326,0.17240740740740745],[0.3578125,0.1698148148148149],[0.36437499999999995,0.18851851851851845],[0.3634375000000001,0.21333333333333343],[0.3490624999999999,0.23296296296296287],[0.3345833333333334,0.2411111111111112],[0.3345833333333334,0.2411111111111112],[0.3349999999999999,0.230925925925926],[0.3349999999999999,0.230925925925926],[0.3631249999999999,0.21962962962962967],[0.3480208333333332,0.17407407407407408],[0.2945833333333333,0.15925925925925927],[0.2553124999999999,0.14388888888888898],[0.21343750000000009,0.15240740740740732],[0.15812499999999996,0.1527777777777778],[0.11447916666666676,0.1594444444444445],[0.06708333333333343,0.16370370370370366],[0.04572916666666664,0.13185185185185194],[0.005833333333333357,0.1088888888888888],[-0.0609375,0.11407407407407412],[-0.08156249999999995,0.12074074074074083],[-0.044270833333333336,0.11925925925925922],[-0.02312500000000005,0.11703703703703712],[-0.019895833333333356,0.1544444444444444],[-0.005520833333333286,0.18092592592592602],[-0.005520833333333286,0.18092592592592602],[0.021145833333333287,0.15592592592592602],[0.03708333333333336,0.12666666666666662],[0.08895833333333343,0.13499999999999995],[0.08895833333333343,0.13499999999999995],[0.14614583333333328,0.14333333333333328],[0.19979166666666662,0.14722222222222223],[0.25750000000000006,0.16740740740740737],[0.25750000000000006,0.16740740740740737],[0.2938541666666666,0.15351851851851847],[0.32937500000000003,0.15203703703703708],[0.36875,0.12629629629629638],[0.36875,0.12629629629629638],[0.39864583333333337,0.02814814814814823],[0.4021874999999999,0.01518518518518527],[0.40208333333333335,0.012407407407407492],[0.40208333333333335,0.012407407407407492],[0.35833333333333334,-0.03537037037037041],[0.33145833333333335,-0.09574074074074072],[0.3212500000000001,-0.16648148148148145],[0.3212500000000001,-0.16648148148148145],[0.31197916666666664,-0.2448148148148148],[0.31239583333333343,-0.31203703703703706],[0.31239583333333343,-0.31203703703703706],[0.3103125000000001,-0.38],[0.29718749999999994,-0.45796296296296296],[0.28666666666666674,-0.45185185185185184],[0.3,-0.48870370370370364],[0.3,-0.48870370370370364],[0.3141666666666666,-0.5427777777777778],[0.3433333333333332,-0.542037037037037],[0.3533333333333334,-0.4812962962962963],[0.3533333333333334,-0.4812962962962963],[0.3765625,-0.4988888888888888],[0.38093750000000004,-0.5157407407407407],[0.38093750000000004,-0.5157407407407407],[0.3870833333333332,-0.5212962962962963],[0.35958333333333337,-0.5037037037037037],[0.37552083333333336,-0.5244444444444444],[0.40499999999999997,-0.5457407407407407],[0.40499999999999997,-0.5457407407407407],[0.4028125000000001,-0.5955555555555556],[0.39895833333333336,-0.6003703703703703],[0.37739583333333326,-0.6096296296296296],[0.3454166666666666,-0.6677777777777778],[0.3454166666666666,-0.6677777777777778],[0.2772916666666667,-0.6587037037037037],[0.23541666666666666,-0.6390740740740741],[0.19093749999999995,-0.6605555555555556],[0.19093749999999995,-0.6605555555555556],[0.1834374999999999,-0.7168518518518519],[0.165625,-0.7146296296296296],[0.11427083333333338,-0.6733333333333333],[0.11427083333333338,-0.6733333333333333],[0.09395833333333338,-0.6294444444444444],[0.09802083333333324,-0.637962962962963],[0.10104166666666667,-0.6296296296296297],[0.11302083333333333,-0.6037037037037037],[0.1365624999999999,-0.6111111111111112],[0.14572916666666677,-0.6140740740740741],[0.14916666666666673,-0.5935185185185186],[0.14916666666666673,-0.5935185185185186],[0.15489583333333337,-0.5483333333333333],[0.1196875000000001,-0.5174074074074073],[0.11708333333333343,-0.5114814814814814],[0.11708333333333343,-0.5114814814814814],[0.10479166666666657,-0.48259259259259263],[0.09468750000000009,-0.4572222222222222],[0.11052083333333323,-0.4729629629629629],[0.14333333333333323,-0.5137037037037037],[0.14333333333333323,-0.5137037037037037],[0.1646874999999999,-0.5322222222222222],[0.18604166666666658,-0.5507407407407408],[0.2150000000000001,-0.5505555555555556],[0.2150000000000001,-0.5505555555555556],[0.23760416666666656,-0.5787037037037037],[0.23114583333333344,-0.582037037037037],[0.23114583333333344,-0.582037037037037],[0.2319791666666667,-0.595],[0.21364583333333323,-0.6012962962962963],[0.16479166666666673,-0.6227777777777778],[0.11416666666666657,-0.5824074074074074],[0.0671875,-0.5607407407407408],[0.02010416666666662,-0.527962962962963],[-0.04760416666666671,-0.46037037037037043],[-0.0828125,-0.42962962962962964],[-0.16812499999999997,-0.3272222222222222],[-0.19406249999999994,-0.2566666666666667],[-0.21531250000000005,-0.22259259259259256],[-0.21531250000000005,-0.22259259259259256],[-0.24500000000000005,-0.20166666666666663],[-0.22781250000000006,-0.13425925925925927],[-0.23343750000000002,-0.12000000000000002],[-0.27145833333333336,-0.07000000000000002],[-0.27145833333333336,-0.07000000000000002],[-0.25666666666666665,-0.04296296296296305],[-0.25666666666666665,-0.04296296296296305],[-0.22687499999999997,-0.03944444444444436],[-0.22687499999999997,-0.03944444444444436],[-0.2079166666666667,-0.018518518518518517],[-0.1388541666666666,0.020370370370370372],[-0.1388541666666666,0.020370370370370372],[-0.08802083333333334,-0.015555555555555513],[-0.11364583333333336,0.0294444444444444],[-0.15499999999999994,0.16500000000000004],[-0.16979166666666667,0.1648148148148148]]","[[0.1834374999999999,-0.15796296296296297,0.00019999998806952135],[0.1834374999999999,-0.15796296296296297,0.042100000023836515],[0.18072916666666666,-0.07370370370370373,0.05319999998806679],[0.18072916666666666,-0.07370370370370373,0.06269999998806952],[0.1568749999999999,-0.08555555555555554,0.07619999998807714],[0.16218750000000004,-0.0977777777777778,0.09530000001191752],[0.17666666666666658,-0.05592592592592591,0.11319999998806907],[0.18385416666666668,-0.02111111111111107,0.12990000003576085],[0.20020833333333338,0.0301851851851851,0.1454999999999984],[0.19375,0.08259259259259263,0.16219999998807566],[0.1618750000000001,0.004814814814814857,0.18010000002384174],[0.15677083333333333,0.005185185185185101,0.19719999998807225],[0.13010416666666677,-0.022222222222222223,0.21290000003575926],[0.1306250000000001,-0.06870370370370374,0.22769999998807577],[0.16145833333333334,-0.02629629629629638,0.24330000001191365],[0.16177083333333328,-0.008148148148148106,0.2646000000238331],[0.15656249999999997,-0.020740740740740823,0.28010000002383606],[0.14291666666666672,-0.03518518518518519,0.29649999999999466],[0.12927083333333325,-0.07888888888888893,0.31210000002383254],[0.09510416666666661,-0.1331481481481481,0.332499999999996],[0.09510416666666661,-0.1331481481481481,0.3429000000357547],[0.09041666666666662,0.06462962962962959,0.35960000002383197],[0.04874999999999995,0.13203703703703695,0.3761999999880743],[0.035312499999999976,0.21870370370370373,0.39440000003575904],[-0.0026041666666666665,0.2737037037037036,0.4094999999999942],[-0.033645833333333285,0.3114814814814816,0.42619999998807145],[-0.07749999999999997,0.3135185185185184,0.4446999999880745],[-0.07749999999999997,0.3135185185185184,0.4596000000238405],[-0.09281250000000002,0.35833333333333334,0.4761999999880686],[-0.11666666666666667,0.44814814814814813,0.4929000000357604],[-0.1452083333333333,0.5164814814814814,0.5099000000357563],[-0.1452083333333333,0.5164814814814814,0.52619999998808],[-0.1532291666666667,0.5953703703703703,0.5429999999999922],[-0.125,0.4751851851851852,0.5649000000357631],[-0.10187499999999995,0.3388888888888889,0.5811999999880726],[-0.10187499999999995,0.3388888888888889,0.5929000000357547],[-0.06812499999999998,0.25203703703703706,0.609499999999997],[-0.025520833333333333,0.18518518518518517,0.6261999999880743],[-0.004062499999999977,0.13277777777777786,0.642800000011917],[0.026041666666666668,0.10703703703703696,0.6654999999999944],[0.026041666666666668,0.10703703703703696,0.6761999999880715],[0.030520833333333285,0.024814814814814772,0.6929000000357632],[0.04697916666666669,-0.08555555555555554,0.7121000000238382],[0.04697916666666669,-0.08555555555555554,0.7263000000119177],[0.06072916666666662,-0.16314814814814818,0.7429000000357604],[0.09291666666666672,-0.28111111111111114,0.7634000000357588],[0.09291666666666672,-0.28111111111111114,0.77619999998808],[0.09447916666666671,-0.29259259259259257,0.7929999999999922],[0.11135416666666677,-0.25925925925925924,0.8094999999999999],[0.10760416666666663,-0.27925925925925926,0.8284000000357565],[0.10760416666666663,-0.27925925925925926,0.8466999999880755],[0.11479166666666671,-0.29611111111111105,0.8634000000357531],[0.1224999999999999,-0.3044444444444444,0.8784999999999883],[0.1328125,-0.31870370370370377,0.8929000000357519],[0.14635416666666667,-0.31148148148148147,0.9096000000238291],[0.14791666666666667,-0.32999999999999996,0.9261999999880715],[0.14791666666666667,-0.32999999999999996,0.9429000000357632],[0.1525000000000001,-0.30185185185185187,0.9596000000238405],[0.09541666666666657,-0.20777777777777776,0.9761999999880686],[0.035625000000000046,-0.14444444444444443,0.992999999999995],[-0.028541666666666642,-0.07148148148148152,1.0126999999880724],[-0.08270833333333331,0.005370370370370328,1.02619999998808],[-0.14781249999999999,0.07907407407407416,1.0429000000357576],[-0.21458333333333332,0.18129629629629626,1.0613000000119115],[-0.2763541666666666,0.22592592592592592,1.0788000000119098],[-0.33125,0.2759259259259259,1.0928000000119198],[-0.3696875,0.33499999999999996,1.109499999999997],[-0.40218750000000003,0.3685185185185185,1.1263000000119092],[-0.40218750000000003,0.3685185185185185,1.1429000000357519],[-0.3944791666666667,0.3844444444444445,1.1594999999999942],[-0.3625,0.35759259259259263,1.1761000000238369],[-0.365,0.3685185185185185,1.1929999999999978],[-0.3866666666666667,0.3648148148148148,1.2124999999999915],[-0.4125,0.3483333333333334,1.227499999999992],[-0.3854166666666667,0.2418518518518519,1.2429000000357604],[-0.3676041666666666,0.19796296296296292,1.262400000035754],[-0.3676041666666666,0.19796296296296292,1.27619999998808],[-0.318125,0.20777777777777787,1.2928000000119084],[-0.2640625,0.17851851851851847,1.3094999999999999],[-0.21000000000000002,0.1331481481481481,1.3261000000238425],[-0.21000000000000002,0.1331481481481481,1.3429000000357547],[-0.15354166666666663,0.04296296296296305,1.359600000023832],[-0.11927083333333334,0.006111111111111027,1.3761999999880743],[-0.060104166666666715,-0.056296296296296254,1.392800000011917],[0.0125,-0.11962962962962967,1.4133000000119154],[0.09229166666666658,-0.1905555555555555,1.4284000000357508],[0.12541666666666676,-0.1985185185185185,1.4429999999999978],[0.1634375000000001,-0.18481481481481485,1.4596000000238405],[0.1634375000000001,-0.18481481481481485,1.4761999999880686],[0.16979166666666667,-0.23777777777777773,1.4929000000357604],[0.1638541666666666,-0.2712962962962963,1.5094999999999885],[0.16572916666666657,-0.3098148148148148,1.52619999998808],[0.15791666666666657,-0.27314814814814814,1.5428000000119084],[0.14802083333333324,-0.247037037037037,1.5594999999999999],[0.11645833333333329,-0.21296296296296297,1.5761999999880771],[0.090625,-0.1633333333333333,1.5929000000357547],[0.060104166666666715,-0.09759259259259258,1.609499999999997],[0.046875,-0.02092592592592584,1.6261999999880743],[0.01229166666666662,0.04407407407407399,1.6429000000357519],[-0.02947916666666662,0.08981481481481482,1.662900000035762],[-0.06291666666666665,0.14444444444444443,1.6788000000119183],[-0.08666666666666671,0.2111111111111111,1.696800000011919],[-0.14645833333333336,0.23444444444444448,1.711500000000001],[-0.20114583333333336,0.26962962962962966,1.7261999999880686],[-0.24343750000000006,0.3162962962962962,1.743800000011916],[-0.24343750000000006,0.3162962962962962,1.7596000000238377],[-0.28572916666666665,0.362962962962963,1.776300000011915],[-0.31062500000000004,0.3527777777777778,1.7954000000357553],[-0.35812499999999997,0.3514814814814814,1.8094999999999999],[-0.35812499999999997,0.3514814814814814,1.8261999999880771],[-0.3883333333333333,0.3785185185185185,1.8429000000357547],[-0.4114583333333333,0.387037037037037,1.8609000000357554],[-0.4352083333333333,0.40629629629629627,1.8761000000238397],[-0.48864583333333333,0.4162962962962962,1.892800000011917],[-0.5010416666666667,0.4346296296296297,1.9094999999999942],[-0.536875,0.4390740740740741,1.9261999999880715],[-0.5433333333333333,0.4024074074074073,1.9448000000119094],[-0.5433333333333333,0.4024074074074073,1.9594999999999914],[-0.4875,0.3822222222222222,1.9761999999880686],[-0.48781250000000004,0.4142592592592593,1.9928000000119113],[-0.5120833333333333,0.42314814814814816,2.0094999999999885],[-0.5111458333333333,0.40925925925925927,2.027499999999989],[-0.4909375,0.38574074074074066,2.0428000000119084],[-0.47072916666666664,0.3622222222222223,2.0596999999880694],[-0.3637500000000001,0.3375925925925925,2.076199999988077],[-0.3637500000000001,0.3375925925925925,2.0929000000357547],[-0.2577083333333333,0.3087037037037038,2.109499999999997],[-0.11041666666666666,0.24370370370370376,2.126300000011909],[-0.005104166666666643,0.1844444444444445,2.1430000000000007],[-0.005104166666666643,0.1844444444444445,2.159600000023829],[0.03791666666666664,0.10870370370370379,2.1761999999880715],[0.14427083333333332,0.03425925925925926,2.1931000000238328],[0.2859375,-0.03185185185185194,2.2094999999999914],[0.4040625000000001,-0.10462962962962963,2.2264000000357527],[0.4991666666666667,-0.14370370370370375,2.2428000000119113],[0.58875,-0.19277777777777783,2.2596000000238377],[0.6078125,-0.22999999999999998,2.27619999998808],[0.6353125000000001,-0.2783333333333334,2.2936000000238295],[0.6389583333333334,-0.27518518518518525,2.312600000023835],[0.6594791666666666,-0.2687037037037037,2.326999999999998],[0.7006249999999999,-0.2494444444444444,2.34280000001192],[0.7110416666666666,-0.21592592592592597,2.3598000000119157],[0.7095833333333333,-0.1911111111111111,2.3778000000119164],[0.7056250000000001,-0.17518518518518522,2.394199999988075],[0.7008333333333333,-0.15925925925925927,2.409600000023829],[0.7075,-0.1366666666666667,2.4279999999999973],[0.7058333333333332,-0.1272222222222222,2.4446999999880745],[0.7019791666666667,-0.10574074074074079,2.463800000011915],[0.7019791666666667,-0.10574074074074079,2.4763000000119177],[0.6980208333333332,-0.09870370370370372,2.492999999999995],[0.6905208333333335,-0.0742592592592593,2.513400000035759],[0.6065625,-0.01796296296296305,2.5306000000238384],[0.5730208333333332,-0.009629629629629714,2.54640000003576],[0.5422916666666666,0.0014814814814813973,2.56960000002384],[0.5422916666666666,0.0014814814814813973,2.5768000000119144],[0.49333333333333323,0.052037037037037076,2.5931000000238384],[0.43385416666666665,0.0824074074074074,2.609600000023832],[0.36843750000000003,0.11611111111111119,2.6321999999880745],[0.36843750000000003,0.11611111111111119,2.6431000000238356],[0.29364583333333344,0.18000000000000008,2.659699999988078],[0.21885416666666657,0.24388888888888896,2.6789000000357532],[0.1453125,0.30351851851851847,2.6949000000357586],[0.1453125,0.30351851851851847,2.7096000000238405],[0.08427083333333343,0.32888888888888895,2.7301999999880735],[0.08052083333333329,0.3131481481481482,2.7481000000238396],[0.08052083333333329,0.3131481481481482,2.759999999999991],[0.034166666666666616,0.3387037037037037,2.780699999988073],[0.034166666666666616,0.3387037037037037,2.7931000000238413],[-0.012395833333333309,0.365925925925926,2.8096999999880694],[-0.021354166666666667,0.3472222222222222,2.826300000011912],[-0.06708333333333331,0.35907407407407405,2.849600000023841],[-0.06708333333333331,0.35907407407407405,2.859600000023832],[-0.06927083333333334,0.3701851851851851,2.876300000011909],[-0.05687500000000002,0.3774074074074073,2.8930000000000007],[-0.049270833333333285,0.37962962962962965,2.9148000000119083],[-0.027499999999999976,0.3633333333333334,2.931199999988067],[-0.017708333333333333,0.37962962962962965,2.9471000000238377],[-0.03322916666666664,0.3925925925925926,2.9673000000119174],[-0.03322916666666664,0.3925925925925926,2.9763000000119177],[-0.01395833333333331,0.39944444444444455,2.992999999999995],[-0.007500000000000047,0.397037037037037,3.0098000000119214],[-0.024895833333333308,0.41462962962962957,3.0296999999880683],[-0.024895833333333308,0.41462962962962957,3.042999999999992],[0.04385416666666669,0.4,3.0596999999880694],[0.05927083333333331,0.42111111111111105,3.079499999999996],[0.057500000000000044,0.37962962962962965,3.097199999988078],[0.057500000000000044,0.37962962962962965,3.109600000023832],[0.042499999999999954,0.29888888888888887,3.1298000000119117],[0.050937499999999976,0.23462962962962972,3.145900000035752],[0.06708333333333343,0.15555555555555556,3.1626000000238292],[0.11010416666666671,0.11018518518518519,3.1803000000119113],[0.11302083333333333,0.052037037037037076,3.196900000035754],[0.13385416666666666,0.05351851851851848,3.212100000023838],[0.15166666666666656,0.016666666666666666,3.2266000000238364],[0.07937500000000004,-0.009259259259259259,3.2429000000357604],[0.009583333333333381,-0.057777777777777754,3.2620000000000005],[-0.033749999999999974,-0.03333333333333333,3.2783000000119102],[-0.059062500000000046,0.03537037037037041,3.293199999988076],[-0.1282291666666667,0.10851851851851856,3.3096999999880694],[-0.19739583333333333,0.1816666666666667,3.330199999988068],[-0.2864583333333333,0.23944444444444435,3.3453000000119175],[-0.3702083333333333,0.3161111111111112,3.363600000023837],[-0.4397916666666667,0.30925925925925923,3.3814999999999884],[-0.4397916666666667,0.30925925925925923,3.392900000035752],[-0.49041666666666667,0.3207407407407408,3.409499999999994],[-0.5027083333333333,0.3014814814814814,3.426100000023837],[-0.5077083333333333,0.2698148148148149,3.442800000011914],[-0.5536458333333333,0.20685185185185193,3.464400000035752],[-0.5730208333333333,0.19129629629629621,3.4791999999880687],[-0.5745833333333333,0.1587037037037038,3.4943000000119184],[-0.5964583333333333,0.11500000000000005,3.509400000035754],[-0.6014583333333333,0.05277777777777778,3.530100000023836],[-0.6114583333333333,0.0035185185185184764,3.5461000000238414],[-0.6173958333333334,-0.05592592592592591,3.5631000000238373],[-0.6284375,-0.11962962962962967,3.5786000000238403],[-0.6284375,-0.11962962962962967,3.59280000001192],[-0.5932291666666667,-0.12407407407407407,3.609499999999997],[-0.5888541666666666,-0.13203703703703706,3.6261000000238397],[-0.5675,-0.20240740740740742,3.642800000011917],[-0.5761458333333334,-0.29388888888888887,3.6619000000357573],[-0.5691666666666666,-0.32462962962962966,3.679100000023837],[-0.5496875,-0.32685185185185184,3.6956000000238305],[-0.5442708333333334,-0.37462962962962965,3.710100000023843],[-0.5478124999999999,-0.4418518518518519,3.728499999999997],[-0.5119791666666667,-0.43074074074074076,3.745999999999995],[-0.5119791666666667,-0.43074074074074076,3.7594999999999885],[-0.4825,-0.4088888888888889,3.776100000023831],[-0.484375,-0.3727777777777778,3.794800000011918],[-0.44937499999999997,-0.31370370370370365,3.8109000000357582],[-0.39572916666666663,-0.19537037037037036,3.8266000000238307],[-0.33864583333333337,-0.10333333333333336,3.8426999999880707],[-0.3077083333333333,-0.0485185185185186,3.86190000003576],[-0.24708333333333338,-0.03296296296296288,3.8801000000238304],[-0.19583333333333333,0.03314814814814811,3.897199999988075],[-0.10666666666666665,0.11481481481481481,3.9139999999999873],[-0.07572916666666671,0.15185185185185185,3.9309999999999974],[-0.04854166666666669,0.21092592592592588,3.9469999999999885],[-0.027604166666666666,0.24055555555555552,3.963900000035764],[-0.016770833333333356,0.21666666666666667,3.9781000000238294],[-0.004791666666666691,0.19388888888888897,3.996400000035763],[0.03447916666666669,0.1801851851851851,4.011699999988068],[0.07249999999999991,0.16296296296296298,4.028800000011913],[0.08708333333333323,0.15055555555555547,4.04549999999999],[0.1203125,0.13222222222222219,4.063800000011909],[0.11875,0.07037037037037037,4.079999999999998],[0.1296875,0.034444444444444486,4.09580000001192],[0.1382291666666667,-0.01314814814814819,4.110699999988071],[0.1525000000000001,-0.06407407407407412,4.127900000035751],[0.1525000000000001,-0.06407407407407412,4.142800000011917],[0.17572916666666671,-0.0948148148148148,4.159499999999994],[0.19135416666666671,-0.1287037037037037,4.176100000023837],[0.16802083333333329,-0.15962962962962962,4.192800000011914],[0.17177083333333343,-0.18333333333333332,4.213100000023843],[0.17864583333333334,-0.20407407407407405,4.227499999999992],[0.19031250000000005,-0.22388888888888886,4.242999999999995],[0.2283333333333334,-0.1705555555555556,4.260900000035761],[0.26749999999999996,-0.10407407407407405,4.279300000011915],[0.29177083333333326,-0.07740740740740742,4.29660000002383],[0.33583333333333343,-0.11296296296296296,4.311999999999998],[0.375,-0.1346296296296296,4.32769999998807],[0.41166666666666674,-0.10537037037037032,4.344800000011915],[0.4722916666666668,-0.08759259259259261,4.365499999999997],[0.46197916666666666,-0.09240740740740737,4.381100000023835],[0.46197916666666666,-0.09240740740740737,4.392900000035752],[0.4721874999999999,-0.08611111111111111,4.409600000023829],[0.4696875000000001,-0.02814814814814823,4.429600000023839],[0.45427083333333323,-0.07999999999999997,4.445699999988079],[0.3991666666666667,-0.102962962962963,4.462300000011922],[0.3991666666666667,-0.102962962962963,4.480499999999992],[0.37083333333333335,-0.13851851851851854,4.49290000003576],[0.33781249999999996,-0.12814814814814812,4.509600000023838],[0.28624999999999995,-0.1175925925925926,4.528800000011913],[0.28624999999999995,-0.1175925925925926,4.542900000035758],[0.25125000000000003,-0.0940740740740741,4.559699999988069],[0.2109375,-0.10055555555555558,4.576199999988077],[0.22364583333333338,-0.10240740740740743,4.599600000023841],[0.22364583333333338,-0.10240740740740743,4.609699999988067],[0.23833333333333329,-0.05814814814814811,4.626300000011909],[0.2573958333333332,-0.07444444444444442,4.649699999988073],[0.2573958333333332,-0.07444444444444442,4.659600000023829],[0.27885416666666674,-0.04759259259259268,4.6764000000357555],[0.31833333333333325,-0.08203703703703706,4.6933000000119165],[0.3586458333333333,-0.05333333333333336,4.71480000001192],[0.3586458333333333,-0.05333333333333336,4.733600000023841],[0.3931250000000001,-0.060555555555555536,4.758300000011914],[0.3931250000000001,-0.060555555555555536,4.766800000011912],[0.4327083333333334,-0.06611111111111109,4.779400000035764],[0.4492708333333333,-0.11703703703703702,4.797600000023834],[0.5039583333333333,-0.1381481481481482,4.813499999999991],[0.5494791666666666,-0.1485185185185185,4.829100000023843],[0.535625,-0.1425925925925926,4.844100000023843],[0.5301041666666667,-0.12777777777777777,4.861999999999995],[0.5176041666666668,-0.1479629629629629,4.878400000035754],[0.5118750000000001,-0.16592592592592598,4.894499999999994],[0.5194791666666667,-0.1727777777777778,4.909600000023829],[0.5171875,-0.1264814814814815,4.928400000035751],[0.5171875,-0.1264814814814815,4.943100000023833],[0.496875,-0.07296296296296292,4.959699999988075],[0.5152083333333333,-0.034444444444444486,4.979100000023834],[0.5123958333333334,-0.07999999999999997,4.9951000000238395],[0.5061458333333334,-0.1412962962962963,5.009699999988072],[0.5061458333333334,-0.1412962962962963,5.026300000011915],[0.5109375,-0.20981481481481484,5.045699999988074],[0.5558333333333333,-0.29888888888888887,5.062600000023835],[0.5721875,-0.31962962962962965,5.078100000023838],[0.5721875,-0.31962962962962965,5.095199999988068],[0.6040625000000001,-0.3338888888888889,5.109600000023832],[0.6426041666666668,-0.3824074074074074,5.126499999999993],[0.6584374999999999,-0.46277777777777773,5.144999999999996],[0.6584374999999999,-0.46277777777777773,5.159699999988078],[0.6903125,-0.5231481481481481,5.176300000011921],[0.6974999999999999,-0.5587037037037037,5.1946999999880745],[0.6779166666666666,-0.5461111111111111,5.209699999988075],[0.6617708333333333,-0.5177777777777778,5.2301999999880735],[0.6638541666666666,-0.5062962962962962,5.2459000000357605],[0.63,-0.48462962962962963,5.262600000023838],[0.6131249999999999,-0.47388888888888886,5.277999999999992],[0.6131249999999999,-0.47388888888888886,5.292800000011908],[0.5736458333333334,-0.4390740740740741,5.3095],[0.5453125,-0.39518518518518514,5.325999999999993],[0.5277083333333332,-0.3603703703703704,5.34280000001192],[0.49072916666666655,-0.3383333333333333,5.363800000011921],[0.46031250000000007,-0.37648148148148153,5.37819999998807],[0.41593749999999996,-0.3588888888888889,5.394199999988075],[0.35958333333333337,-0.32037037037037036,5.411699999988073],[0.38333333333333336,-0.33907407407407414,5.4261999999880715],[0.4046875,-0.3492592592592593,5.442699999988079],[0.39989583333333345,-0.3418518518518519,5.459400000035757],[0.42125000000000007,-0.35851851851851857,5.476100000023834],[0.4033333333333334,-0.4035185185185185,5.492800000011911],[0.39739583333333334,-0.4075925925925926,5.509400000035754],[0.4157291666666666,-0.4044444444444444,5.528999999999996],[0.4304166666666667,-0.36629629629629634,5.5436000000238295],[0.46208333333333323,-0.3544444444444444,5.5599000000357535],[0.46208333333333323,-0.3544444444444444,5.576199999988077],[0.46239583333333345,-0.3411111111111111,5.59280000001192],[0.3740624999999999,-0.3224074074074075,5.609499999999997],[0.3095833333333334,-0.30185185185185187,5.626199999988074],[0.315625,-0.2927777777777778,5.644199999988075],[0.28406250000000005,-0.2796296296296296,5.661000000000001],[0.24510416666666662,-0.24314814814814817,5.676100000023837],[0.20614583333333342,-0.20666666666666672,5.6941000000238375],[0.20614583333333342,-0.20666666666666672,5.709400000035757],[0.16239583333333343,-0.18185185185185182,5.726100000023834],[0.11229166666666662,-0.20999999999999996,5.742999999999995],[0.11229166666666662,-0.20999999999999996,5.7594999999999885],[0.034791666666666644,-0.18722222222222226,5.77619999998808],[0.05927083333333331,-0.23592592592592587,5.793300000011911],[0.06489583333333329,-0.2492592592592593,5.8095],[0.04489583333333336,-0.2625925925925926,5.8261000000238425],[-0.005937500000000048,-0.2764814814814815,5.845699999988071],[-0.01572916666666669,-0.28111111111111114,5.86210000002383],[-0.03135416666666669,-0.28851851851851856,5.876499999999993],[-0.04697916666666669,-0.2959259259259259,5.892699999988068],[-0.04697916666666669,-0.2959259259259259,5.909499999999994],[-0.03999999999999997,-0.32685185185185184,5.926100000023837],[-0.026250000000000048,-0.2911111111111111,5.942699999988079],[0.014687500000000023,-0.3001851851851852,5.959999999999994],[0.014687500000000023,-0.3001851851851852,5.976100000023834],[-0.0015625,-0.24092592592592596,5.992800000011911],[-0.024583333333333356,-0.2064814814814815,6.009400000035754],[-0.017708333333333333,-0.18277777777777776,6.026100000023831],[-0.019583333333333286,-0.1205555555555556,6.042800000011908],[-0.04031250000000005,-0.11018518518518519,6.0595],[-0.049583333333333354,-0.0727777777777778,6.0761000000238425],[-0.058854166666666666,-0.03537037037037041,6.09280000001192],[-0.08177083333333333,-0.0035185185185184764,6.1094000000357624],[-0.09135416666666671,0.0294444444444444,6.12610000002384],[-0.10791666666666669,0.05333333333333325,6.142900000035752],[-0.13572916666666662,0.0712962962962963,6.163100000023832],[-0.13572916666666662,0.0712962962962963,6.1761999999880715],[-0.11458333333333333,0.10611111111111103,6.192800000011914],[-0.10802083333333339,0.13629629629629633,6.209400000035757],[-0.08937499999999995,0.12685185185185185,6.226100000023834],[-0.07437499999999998,0.14944444444444452,6.243300000011914],[-0.09031250000000005,0.17685185185185184,6.260900000035761],[-0.07614583333333336,0.1925925925925926,6.276400000035764],[-0.050625000000000024,0.22185185185185177,6.292800000011908],[-0.04239583333333338,0.26444444444444437,6.3095],[-0.03781249999999995,0.3014814814814814,6.3261000000238425],[-0.002916666666666619,0.3051851851851851,6.342699999988071],[0.02322916666666662,0.29796296296296293,6.359499999999997],[0.050520833333333334,0.3194444444444444,6.376900000035761],[0.06458333333333334,0.3237037037037036,6.396100000023836],[0.10906250000000005,0.35796296296296287,6.410800000011918],[0.15729166666666666,0.33537037037037043,6.42760000002383],[0.190625,0.31240740740740747,6.445100000023842],[0.190625,0.31240740740740747,6.459400000035757],[0.22510416666666658,0.27925925925925915,6.476100000023834],[0.2591666666666666,0.21777777777777782,6.492699999988076],[0.3210416666666667,0.17851851851851847,6.509400000035754],[0.346875,0.1638888888888889,6.528800000011913],[0.3578125,0.1675925925925926,6.546300000011911],[0.3578125,0.1675925925925926,6.5595],[0.36124999999999996,0.15685185185185194,6.5761000000238425],[0.36124999999999996,0.15685185185185194,6.59280000001192],[0.3736458333333334,0.1727777777777777,6.609499999999997],[0.3477083333333333,0.15907407407407403,6.62610000002384],[0.35427083333333326,0.17240740740740745,6.643000000000001],[0.35427083333333326,0.17240740740740745,6.659499999999994],[0.3578125,0.1698148148148149,6.676100000023837],[0.36437499999999995,0.18851851851851845,6.692800000011914],[0.3634375000000001,0.21333333333333343,6.709499999999991],[0.3490624999999999,0.23296296296296287,6.731400000035762],[0.3345833333333334,0.2411111111111112,6.747800000011921],[0.3345833333333334,0.2411111111111112,6.759600000023838],[0.3349999999999999,0.230925925925926,6.776100000023831],[0.3349999999999999,0.230925925925926,6.792800000011908],[0.3631249999999999,0.21962962962962967,6.809400000035751],[0.3480208333333332,0.17407407407407408,6.8261000000238425],[0.2945833333333333,0.15925925925925927,6.842699999988071],[0.2553124999999999,0.14388888888888898,6.86190000003576],[0.21343750000000009,0.15240740740740732,6.879300000011909],[0.15812499999999996,0.1527777777777778,6.896699999988073],[0.11447916666666676,0.1594444444444445,6.912999999999997],[0.06708333333333343,0.16370370370370366,6.931699999988069],[0.04572916666666664,0.13185185185185194,6.946800000011919],[0.005833333333333357,0.1088888888888888,6.964100000023834],[-0.0609375,0.11407407407407412,6.97999999999999],[-0.08156249999999995,0.12074074074074083,6.997699999988072],[-0.044270833333333336,0.11925925925925922,7.0143000000119144],[-0.02312500000000005,0.11703703703703712,7.03130000001191],[-0.019895833333333356,0.1544444444444444,7.046999999999997],[-0.005520833333333286,0.18092592592592602,7.065600000023835],[-0.005520833333333286,0.18092592592592602,7.0761000000238425],[0.021145833333333287,0.15592592592592602,7.092699999988071],[0.03708333333333336,0.12666666666666662,7.109499999999997],[0.08895833333333343,0.13499999999999995,7.126300000011909],[0.08895833333333343,0.13499999999999995,7.142699999988068],[0.14614583333333328,0.14333333333333328,7.159499999999994],[0.19979166666666662,0.14722222222222223,7.176100000023837],[0.25750000000000006,0.16740740740740737,7.192900000035763],[0.25750000000000006,0.16740740740740737,7.209400000035757],[0.2938541666666666,0.15351851851851847,7.226100000023834],[0.32937500000000003,0.15203703703703708,7.242800000011911],[0.36875,0.12629629629629638,7.261600000023833],[0.36875,0.12629629629629638,7.280000000000001],[0.39864583333333337,0.02814814814814823,7.292900000035758],[0.4021874999999999,0.01518518518518527,7.309699999988069],[0.40208333333333335,0.012407407407407492,7.330400000035752],[0.40208333333333335,0.012407407407407492,7.343199999988073],[0.35833333333333334,-0.03537037037037041,7.359600000023832],[0.33145833333333335,-0.09574074074074072,7.379800000011912],[0.3212500000000001,-0.16648148148148145,7.397800000011912],[0.3212500000000001,-0.16648148148148145,7.409900000035762],[0.31197916666666664,-0.2448148148148148,7.426300000011921],[0.31239583333333343,-0.31203703703703706,7.448999999999998],[0.31239583333333343,-0.31203703703703706,7.4596000000238405],[0.3103125000000001,-0.38,7.476199999988069],[0.29718749999999994,-0.45796296296296296,7.492999999999995],[0.28666666666666674,-0.45185185185185184,7.512499999999989],[0.3,-0.48870370370370364,7.529100000023831],[0.3,-0.48870370370370364,7.542900000035758],[0.3141666666666666,-0.5427777777777778,7.563199999988072],[0.3433333333333332,-0.542037037037037,7.579600000023831],[0.3533333333333334,-0.4812962962962963,7.5953000000119175],[0.3533333333333334,-0.4812962962962963,7.614300000011909],[0.3765625,-0.4988888888888888,7.626199999988074],[0.38093750000000004,-0.5157407407407407,7.647800000011912],[0.38093750000000004,-0.5157407407407407,7.659600000023829],[0.3870833333333332,-0.5212962962962963,7.680300000011911],[0.35958333333333337,-0.5037037037037037,7.696600000023835],[0.37552083333333336,-0.5244444444444444,7.712300000011922],[0.40499999999999997,-0.5457407407407407,7.73090000003576],[0.40499999999999997,-0.5457407407407407,7.742999999999995],[0.4028125000000001,-0.5955555555555556,7.759600000023838],[0.39895833333333336,-0.6003703703703703,7.77619999998808],[0.37739583333333326,-0.6096296296296296,7.798199999988071],[0.3454166666666666,-0.6677777777777778,7.815800000011919],[0.3454166666666666,-0.6677777777777778,7.825999999999993],[0.2772916666666667,-0.6587037037037037,7.84280000001192],[0.23541666666666666,-0.6390740740740741,7.863300000011918],[0.19093749999999995,-0.6605555555555556,7.881999999999991],[0.19093749999999995,-0.6605555555555556,7.892699999988068],[0.1834374999999999,-0.7168518518518519,7.90940000003576],[0.165625,-0.7146296296296296,7.926100000023837],[0.11427083333333338,-0.6733333333333333,7.942699999988079],[0.11427083333333338,-0.6733333333333333,7.959900000035759],[0.09395833333333338,-0.6294444444444444,7.976199999988069],[0.09802083333333324,-0.637962962962963,7.993199999988079],[0.10104166666666667,-0.6296296296296297,8.010999999999996],[0.11302083333333333,-0.6037037037037037,8.029499999999999],[0.1365624999999999,-0.6111111111111112,8.045600000023839],[0.14572916666666677,-0.6140740740740741,8.063699999988074],[0.14916666666666673,-0.5935185185185186,8.079300000011912],[0.14916666666666673,-0.5935185185185186,8.09269999998807],[0.15489583333333337,-0.5483333333333333,8.109400000035762],[0.1196875000000001,-0.5174074074074073,8.12630000001191],[0.11708333333333343,-0.5114814814814814,8.142800000011917],[0.11708333333333343,-0.5114814814814814,8.159499999999994],[0.10479166666666657,-0.48259259259259263,8.176199999988071],[0.09468750000000009,-0.4572222222222222,8.192800000011914],[0.11052083333333323,-0.4729629629629629,8.209400000035757],[0.14333333333333323,-0.5137037037037037,8.23280000001192],[0.14333333333333323,-0.5137037037037037,8.24290000003576],[0.1646874999999999,-0.5322222222222222,8.259600000023838],[0.18604166666666658,-0.5507407407407408,8.27619999998808],[0.2150000000000001,-0.5505555555555556,8.30130000001192],[0.2150000000000001,-0.5505555555555556,8.3095],[0.23760416666666656,-0.5787037037037037,8.32660000002383],[0.23114583333333344,-0.582037037037037,8.342900000035755],[0.23114583333333344,-0.582037037037037,8.36410000002384],[0.2319791666666667,-0.595,8.37630000001191],[0.21364583333333323,-0.6012962962962963,8.392900000035752],[0.16479166666666673,-0.6227777777777778,8.412900000035762],[0.11416666666666657,-0.5824074074074074,8.429999999999993],[0.0671875,-0.5607407407407408,8.44569999998808],[0.02010416666666662,-0.527962962962963,8.462999999999994],[-0.04760416666666671,-0.46037037037037043,8.479199999988069],[-0.0828125,-0.42962962962962964,8.496900000035751],[-0.16812499999999997,-0.3272222222222222,8.51330000001191],[-0.19406249999999994,-0.2566666666666667,8.53030000001192],[-0.21531250000000005,-0.22259259259259256,8.547199999988067],[-0.21531250000000005,-0.22259259259259256,8.5595],[-0.24500000000000005,-0.20166666666666663,8.575999999999993],[-0.22781250000000006,-0.13425925925925927,8.594100000023843],[-0.23343750000000002,-0.12000000000000002,8.610100000023834],[-0.27145833333333336,-0.07000000000000002,8.626999999999995],[-0.27145833333333336,-0.07000000000000002,8.646699999988073],[-0.25666666666666665,-0.04296296296296305,8.65960000002383],[-0.25666666666666665,-0.04296296296296305,8.680100000023842],[-0.22687499999999997,-0.03944444444444436,8.703100000023838],[-0.22687499999999997,-0.03944444444444436,8.710300000011912],[-0.2079166666666667,-0.018518518518518517,8.726400000035753],[-0.1388541666666666,0.020370370370370372,8.742999999999995],[-0.1388541666666666,0.020370370370370372,8.763400000035759],[-0.08802083333333334,-0.015555555555555513,8.776400000035764],[-0.11364583333333336,0.0294444444444444,8.796199999988076],[-0.15499999999999994,0.16500000000000004,8.811699999988079],[-0.16979166666666667,0.1648148148148148,8.826300000011912]]","[0.00019999998806952135,0.042100000023836515,0.05319999998806679,0.06269999998806952,0.07619999998807714,0.09530000001191752,0.11319999998806907,0.12990000003576085,0.1454999999999984,0.16219999998807566,0.18010000002384174,0.19719999998807225,0.21290000003575926,0.22769999998807577,0.24330000001191365,0.2646000000238331,0.28010000002383606,0.29649999999999466,0.31210000002383254,0.332499999999996,0.3429000000357547,0.35960000002383197,0.3761999999880743,0.39440000003575904,0.4094999999999942,0.42619999998807145,0.4446999999880745,0.4596000000238405,0.4761999999880686,0.4929000000357604,0.5099000000357563,0.52619999998808,0.5429999999999922,0.5649000000357631,0.5811999999880726,0.5929000000357547,0.609499999999997,0.6261999999880743,0.642800000011917,0.6654999999999944,0.6761999999880715,0.6929000000357632,0.7121000000238382,0.7263000000119177,0.7429000000357604,0.7634000000357588,0.77619999998808,0.7929999999999922,0.8094999999999999,0.8284000000357565,0.8466999999880755,0.8634000000357531,0.8784999999999883,0.8929000000357519,0.9096000000238291,0.9261999999880715,0.9429000000357632,0.9596000000238405,0.9761999999880686,0.992999999999995,1.0126999999880724,1.02619999998808,1.0429000000357576,1.0613000000119115,1.0788000000119098,1.0928000000119198,1.109499999999997,1.1263000000119092,1.1429000000357519,1.1594999999999942,1.1761000000238369,1.1929999999999978,1.2124999999999915,1.227499999999992,1.2429000000357604,1.262400000035754,1.27619999998808,1.2928000000119084,1.3094999999999999,1.3261000000238425,1.3429000000357547,1.359600000023832,1.3761999999880743,1.392800000011917,1.4133000000119154,1.4284000000357508,1.4429999999999978,1.4596000000238405,1.4761999999880686,1.4929000000357604,1.5094999999999885,1.52619999998808,1.5428000000119084,1.5594999999999999,1.5761999999880771,1.5929000000357547,1.609499999999997,1.6261999999880743,1.6429000000357519,1.662900000035762,1.6788000000119183,1.696800000011919,1.711500000000001,1.7261999999880686,1.743800000011916,1.7596000000238377,1.776300000011915,1.7954000000357553,1.8094999999999999,1.8261999999880771,1.8429000000357547,1.8609000000357554,1.8761000000238397,1.892800000011917,1.9094999999999942,1.9261999999880715,1.9448000000119094,1.9594999999999914,1.9761999999880686,1.9928000000119113,2.0094999999999885,2.027499999999989,2.0428000000119084,2.0596999999880694,2.076199999988077,2.0929000000357547,2.109499999999997,2.126300000011909,2.1430000000000007,2.159600000023829,2.1761999999880715,2.1931000000238328,2.2094999999999914,2.2264000000357527,2.2428000000119113,2.2596000000238377,2.27619999998808,2.2936000000238295,2.312600000023835,2.326999999999998,2.34280000001192,2.3598000000119157,2.3778000000119164,2.394199999988075,2.409600000023829,2.4279999999999973,2.4446999999880745,2.463800000011915,2.4763000000119177,2.492999999999995,2.513400000035759,2.5306000000238384,2.54640000003576,2.56960000002384,2.5768000000119144,2.5931000000238384,2.609600000023832,2.6321999999880745,2.6431000000238356,2.659699999988078,2.6789000000357532,2.6949000000357586,2.7096000000238405,2.7301999999880735,2.7481000000238396,2.759999999999991,2.780699999988073,2.7931000000238413,2.8096999999880694,2.826300000011912,2.849600000023841,2.859600000023832,2.876300000011909,2.8930000000000007,2.9148000000119083,2.931199999988067,2.9471000000238377,2.9673000000119174,2.9763000000119177,2.992999999999995,3.0098000000119214,3.0296999999880683,3.042999999999992,3.0596999999880694,3.079499999999996,3.097199999988078,3.109600000023832,3.1298000000119117,3.145900000035752,3.1626000000238292,3.1803000000119113,3.196900000035754,3.212100000023838,3.2266000000238364,3.2429000000357604,3.2620000000000005,3.2783000000119102,3.293199999988076,3.3096999999880694,3.330199999988068,3.3453000000119175,3.363600000023837,3.3814999999999884,3.392900000035752,3.409499999999994,3.426100000023837,3.442800000011914,3.464400000035752,3.4791999999880687,3.4943000000119184,3.509400000035754,3.530100000023836,3.5461000000238414,3.5631000000238373,3.5786000000238403,3.59280000001192,3.609499999999997,3.6261000000238397,3.642800000011917,3.6619000000357573,3.679100000023837,3.6956000000238305,3.710100000023843,3.728499999999997,3.745999999999995,3.7594999999999885,3.776100000023831,3.794800000011918,3.8109000000357582,3.8266000000238307,3.8426999999880707,3.86190000003576,3.8801000000238304,3.897199999988075,3.9139999999999873,3.9309999999999974,3.9469999999999885,3.963900000035764,3.9781000000238294,3.996400000035763,4.011699999988068,4.028800000011913,4.04549999999999,4.063800000011909,4.079999999999998,4.09580000001192,4.110699999988071,4.127900000035751,4.142800000011917,4.159499999999994,4.176100000023837,4.192800000011914,4.213100000023843,4.227499999999992,4.242999999999995,4.260900000035761,4.279300000011915,4.29660000002383,4.311999999999998,4.32769999998807,4.344800000011915,4.365499999999997,4.381100000023835,4.392900000035752,4.409600000023829,4.429600000023839,4.445699999988079,4.462300000011922,4.480499999999992,4.49290000003576,4.509600000023838,4.528800000011913,4.542900000035758,4.559699999988069,4.576199999988077,4.599600000023841,4.609699999988067,4.626300000011909,4.649699999988073,4.659600000023829,4.6764000000357555,4.6933000000119165,4.71480000001192,4.733600000023841,4.758300000011914,4.766800000011912,4.779400000035764,4.797600000023834,4.813499999999991,4.829100000023843,4.844100000023843,4.861999999999995,4.878400000035754,4.894499999999994,4.909600000023829,4.928400000035751,4.943100000023833,4.959699999988075,4.979100000023834,4.9951000000238395,5.009699999988072,5.026300000011915,5.045699999988074,5.062600000023835,5.078100000023838,5.095199999988068,5.109600000023832,5.126499999999993,5.144999999999996,5.159699999988078,5.176300000011921,5.1946999999880745,5.209699999988075,5.2301999999880735,5.2459000000357605,5.262600000023838,5.277999999999992,5.292800000011908,5.3095,5.325999999999993,5.34280000001192,5.363800000011921,5.37819999998807,5.394199999988075,5.411699999988073,5.4261999999880715,5.442699999988079,5.459400000035757,5.476100000023834,5.492800000011911,5.509400000035754,5.528999999999996,5.5436000000238295,5.5599000000357535,5.576199999988077,5.59280000001192,5.609499999999997,5.626199999988074,5.644199999988075,5.661000000000001,5.676100000023837,5.6941000000238375,5.709400000035757,5.726100000023834,5.742999999999995,5.7594999999999885,5.77619999998808,5.793300000011911,5.8095,5.8261000000238425,5.845699999988071,5.86210000002383,5.876499999999993,5.892699999988068,5.909499999999994,5.926100000023837,5.942699999988079,5.959999999999994,5.976100000023834,5.992800000011911,6.009400000035754,6.026100000023831,6.042800000011908,6.0595,6.0761000000238425,6.09280000001192,6.1094000000357624,6.12610000002384,6.142900000035752,6.163100000023832,6.1761999999880715,6.192800000011914,6.209400000035757,6.226100000023834,6.243300000011914,6.260900000035761,6.276400000035764,6.292800000011908,6.3095,6.3261000000238425,6.342699999988071,6.359499999999997,6.376900000035761,6.396100000023836,6.410800000011918,6.42760000002383,6.445100000023842,6.459400000035757,6.476100000023834,6.492699999988076,6.509400000035754,6.528800000011913,6.546300000011911,6.5595,6.5761000000238425,6.59280000001192,6.609499999999997,6.62610000002384,6.643000000000001,6.659499999999994,6.676100000023837,6.692800000011914,6.709499999999991,6.731400000035762,6.747800000011921,6.759600000023838,6.776100000023831,6.792800000011908,6.809400000035751,6.8261000000238425,6.842699999988071,6.86190000003576,6.879300000011909,6.896699999988073,6.912999999999997,6.931699999988069,6.946800000011919,6.964100000023834,6.97999999999999,6.997699999988072,7.0143000000119144,7.03130000001191,7.046999999999997,7.065600000023835,7.0761000000238425,7.092699999988071,7.109499999999997,7.126300000011909,7.142699999988068,7.159499999999994,7.176100000023837,7.192900000035763,7.209400000035757,7.226100000023834,7.242800000011911,7.261600000023833,7.280000000000001,7.292900000035758,7.309699999988069,7.330400000035752,7.343199999988073,7.359600000023832,7.379800000011912,7.397800000011912,7.409900000035762,7.426300000011921,7.448999999999998,7.4596000000238405,7.476199999988069,7.492999999999995,7.512499999999989,7.529100000023831,7.542900000035758,7.563199999988072,7.579600000023831,7.5953000000119175,7.614300000011909,7.626199999988074,7.647800000011912,7.659600000023829,7.680300000011911,7.696600000023835,7.712300000011922,7.73090000003576,7.742999999999995,7.759600000023838,7.77619999998808,7.798199999988071,7.815800000011919,7.825999999999993,7.84280000001192,7.863300000011918,7.881999999999991,7.892699999988068,7.90940000003576,7.926100000023837,7.942699999988079,7.959900000035759,7.976199999988069,7.993199999988079,8.010999999999996,8.029499999999999,8.045600000023839,8.063699999988074,8.079300000011912,8.09269999998807,8.109400000035762,8.12630000001191,8.142800000011917,8.159499999999994,8.176199999988071,8.192800000011914,8.209400000035757,8.23280000001192,8.24290000003576,8.259600000023838,8.27619999998808,8.30130000001192,8.3095,8.32660000002383,8.342900000035755,8.36410000002384,8.37630000001191,8.392900000035752,8.412900000035762,8.429999999999993,8.44569999998808,8.462999999999994,8.479199999988069,8.496900000035751,8.51330000001191,8.53030000001192,8.547199999988067,8.5595,8.575999999999993,8.594100000023843,8.610100000023834,8.626999999999995,8.646699999988073,8.65960000002383,8.680100000023842,8.703100000023838,8.710300000011912,8.726400000035753,8.742999999999995,8.763400000035759,8.776400000035764,8.796199999988076,8.811699999988079,8.826300000011912]","[1733032998372,1733032998407,1733032998418,1733032998427,1733032998441,1733032998460,1733032998478,1733032998494,1733032998510,1733032998527,1733032998545,1733032998562,1733032998577,1733032998592,1733032998608,1733032998629,1733032998645,1733032998661,1733032998677,1733032998697,1733032998707,1733032998724,1733032998741,1733032998759,1733032998774,1733032998791,1733032998809,1733032998824,1733032998841,1733032998857,1733032998875,1733032998891,1733032998907,1733032998929,1733032998946,1733032998957,1733032998974,1733032998991,1733032999007,1733032999030,1733032999041,1733032999057,1733032999077,1733032999091,1733032999107,1733032999128,1733032999141,1733032999157,1733032999174,1733032999193,1733032999211,1733032999228,1733032999243,1733032999257,1733032999274,1733032999291,1733032999307,1733032999324,1733032999341,1733032999358,1733032999377,1733032999391,1733032999407,1733032999426,1733032999443,1733032999457,1733032999474,1733032999491,1733032999507,1733032999524,1733032999541,1733032999557,1733032999577,1733032999592,1733032999607,1733032999627,1733032999641,1733032999657,1733032999674,1733032999691,1733032999707,1733032999724,1733032999741,1733032999757,1733032999778,1733032999793,1733032999807,1733032999824,1733032999841,1733032999857,1733032999874,1733032999891,1733032999907,1733032999924,1733032999941,1733032999957,1733032999974,1733032999991,1733033000007,1733033000027,1733033000043,1733033000061,1733033000076,1733033000091,1733033000108,1733033000124,1733033000141,1733033000160,1733033000174,1733033000191,1733033000207,1733033000225,1733033000241,1733033000257,1733033000274,1733033000291,1733033000309,1733033000324,1733033000341,1733033000357,1733033000374,1733033000392,1733033000407,1733033000424,1733033000441,1733033000457,1733033000474,1733033000491,1733033000508,1733033000524,1733033000541,1733033000558,1733033000574,1733033000591,1733033000607,1733033000624,1733033000641,1733033000658,1733033000677,1733033000691,1733033000707,1733033000724,1733033000742,1733033000759,1733033000774,1733033000792,1733033000809,1733033000828,1733033000841,1733033000857,1733033000878,1733033000895,1733033000911,1733033000934,1733033000941,1733033000957,1733033000974,1733033000997,1733033001007,1733033001024,1733033001043,1733033001059,1733033001074,1733033001095,1733033001113,1733033001124,1733033001145,1733033001158,1733033001174,1733033001191,1733033001214,1733033001224,1733033001241,1733033001257,1733033001279,1733033001296,1733033001312,1733033001332,1733033001341,1733033001357,1733033001374,1733033001394,1733033001407,1733033001424,1733033001444,1733033001462,1733033001474,1733033001494,1733033001510,1733033001527,1733033001545,1733033001561,1733033001577,1733033001591,1733033001607,1733033001627,1733033001643,1733033001658,1733033001674,1733033001695,1733033001710,1733033001728,1733033001746,1733033001757,1733033001774,1733033001791,1733033001807,1733033001829,1733033001844,1733033001859,1733033001874,1733033001895,1733033001911,1733033001928,1733033001943,1733033001957,1733033001974,1733033001991,1733033002007,1733033002026,1733033002044,1733033002060,1733033002075,1733033002093,1733033002110,1733033002124,1733033002141,1733033002159,1733033002175,1733033002191,1733033002207,1733033002226,1733033002245,1733033002262,1733033002278,1733033002295,1733033002311,1733033002328,1733033002343,1733033002361,1733033002376,1733033002393,1733033002410,1733033002428,1733033002444,1733033002460,1733033002475,1733033002492,1733033002507,1733033002524,1733033002541,1733033002557,1733033002578,1733033002592,1733033002607,1733033002625,1733033002644,1733033002661,1733033002676,1733033002692,1733033002709,1733033002730,1733033002746,1733033002757,1733033002774,1733033002794,1733033002810,1733033002827,1733033002845,1733033002857,1733033002874,1733033002893,1733033002907,1733033002924,1733033002941,1733033002964,1733033002974,1733033002991,1733033003014,1733033003024,1733033003041,1733033003058,1733033003079,1733033003098,1733033003123,1733033003131,1733033003144,1733033003162,1733033003178,1733033003194,1733033003209,1733033003226,1733033003243,1733033003259,1733033003274,1733033003293,1733033003308,1733033003324,1733033003344,1733033003360,1733033003374,1733033003391,1733033003410,1733033003427,1733033003443,1733033003460,1733033003474,1733033003491,1733033003509,1733033003524,1733033003541,1733033003559,1733033003574,1733033003595,1733033003610,1733033003627,1733033003642,1733033003657,1733033003674,1733033003691,1733033003707,1733033003728,1733033003743,1733033003759,1733033003776,1733033003791,1733033003807,1733033003824,1733033003841,1733033003857,1733033003874,1733033003893,1733033003908,1733033003924,1733033003941,1733033003957,1733033003974,1733033003991,1733033004009,1733033004025,1733033004041,1733033004059,1733033004074,1733033004091,1733033004107,1733033004124,1733033004141,1733033004158,1733033004174,1733033004191,1733033004210,1733033004227,1733033004241,1733033004257,1733033004274,1733033004291,1733033004307,1733033004324,1733033004341,1733033004357,1733033004374,1733033004391,1733033004407,1733033004424,1733033004441,1733033004457,1733033004474,1733033004491,1733033004507,1733033004528,1733033004541,1733033004557,1733033004574,1733033004591,1733033004608,1733033004625,1733033004641,1733033004657,1733033004674,1733033004691,1733033004707,1733033004724,1733033004741,1733033004761,1733033004775,1733033004792,1733033004810,1733033004824,1733033004841,1733033004857,1733033004874,1733033004893,1733033004911,1733033004924,1733033004941,1733033004957,1733033004974,1733033004991,1733033005008,1733033005024,1733033005041,1733033005057,1733033005074,1733033005096,1733033005112,1733033005124,1733033005141,1733033005157,1733033005174,1733033005191,1733033005207,1733033005226,1733033005244,1733033005261,1733033005277,1733033005296,1733033005311,1733033005329,1733033005345,1733033005362,1733033005379,1733033005396,1733033005411,1733033005430,1733033005441,1733033005457,1733033005474,1733033005491,1733033005507,1733033005524,1733033005541,1733033005557,1733033005574,1733033005591,1733033005607,1733033005626,1733033005644,1733033005657,1733033005674,1733033005695,1733033005708,1733033005724,1733033005744,1733033005762,1733033005774,1733033005791,1733033005813,1733033005824,1733033005841,1733033005857,1733033005877,1733033005894,1733033005907,1733033005928,1733033005944,1733033005960,1733033005979,1733033005991,1733033006012,1733033006024,1733033006045,1733033006061,1733033006077,1733033006095,1733033006108,1733033006124,1733033006141,1733033006163,1733033006180,1733033006191,1733033006207,1733033006228,1733033006246,1733033006257,1733033006274,1733033006291,1733033006307,1733033006324,1733033006341,1733033006358,1733033006375,1733033006394,1733033006410,1733033006428,1733033006444,1733033006457,1733033006474,1733033006491,1733033006507,1733033006524,1733033006541,1733033006557,1733033006574,1733033006597,1733033006607,1733033006624,1733033006641,1733033006666,1733033006674,1733033006691,1733033006707,1733033006729,1733033006741,1733033006757,1733033006777,1733033006794,1733033006810,1733033006827,1733033006844,1733033006861,1733033006878,1733033006895,1733033006912,1733033006924,1733033006941,1733033006959,1733033006975,1733033006992,1733033007011,1733033007024,1733033007045,1733033007068,1733033007075,1733033007091,1733033007107,1733033007128,1733033007141,1733033007161,1733033007176,1733033007191]","[[1136.1,454.7],[1136.1,454.7],[1133.5,500.2],[1133.5,500.2],[1110.6,493.8],[1115.7,487.2],[1129.6,509.8],[1136.5,528.6],[1152.2,556.3],[1146,584.6],[1115.4,542.6],[1110.5,542.8],[1084.9,528],[1085.4,502.9],[1115,525.8],[1115.3,535.6],[1110.3,528.8],[1097.2,521],[1084.1,497.4],[1051.3,468.1],[1051.3,468.1],[1046.8,574.9],[1006.8,611.3],[993.9,658.1],[957.5,687.8],[927.7,708.2],[885.6,709.3],[885.6,709.3],[870.9,733.5],[848,782],[820.6,818.9],[820.6,818.9],[812.9,861.5],[840,796.6],[862.2,723],[862.2,723],[894.6,676.1],[935.5,640],[956.1,611.7],[985,597.8],[985,597.8],[989.3,553.4],[1005.1,493.8],[1005.1,493.8],[1018.3,451.9],[1049.2,388.2],[1049.2,388.2],[1050.7,382],[1066.9,400],[1063.3,389.2],[1063.3,389.2],[1070.2,380.1],[1077.6,375.6],[1087.5,367.9],[1100.5,371.8],[1102,361.8],[1102,361.8],[1106.4,377],[1051.6,427.8],[994.2,462],[932.6,501.4],[880.6,542.9],[818.1,582.7],[754,637.9],[694.7,662],[642,689],[605.1,720.9],[573.9,739],[573.9,739],[581.3,747.6],[612,733.1],[609.6,739],[588.8,737],[564,728.1],[590,670.6],[607.1,646.9],[607.1,646.9],[654.6,652.2],[706.5,636.4],[758.4,611.9],[758.4,611.9],[812.6,563.2],[845.5,543.3],[902.3,509.6],[972,475.4],[1048.6,437.1],[1080.4,432.8],[1116.9,440.2],[1116.9,440.2],[1123,411.6],[1117.3,393.5],[1119.1,372.7],[1111.6,392.5],[1102.1,406.6],[1071.8,425],[1047,451.8],[1017.7,487.3],[1005,528.7],[971.8,563.8],[931.7,588.5],[899.6,618],[876.8,654],[819.4,666.6],[766.9,685.6],[726.3,710.8],[726.3,710.8],[685.7,736],[661.8,730.5],[616.2,729.8],[616.2,729.8],[587.2,744.4],[565,749],[542.2,759.4],[490.9,764.8],[479,774.7],[444.6,777.1],[438.4,757.3],[438.4,757.3],[492,746.4],[491.7,763.7],[468.4,768.5],[469.3,761],[488.7,748.3],[508.1,735.6],[610.8,722.3],[610.8,722.3],[712.6,706.7],[854,671.6],[955.1,639.6],[955.1,639.6],[996.4,598.7],[1098.5,558.5],[1234.5,522.8],[1347.9,483.5],[1439.2,462.4],[1525.2,435.9],[1543.5,415.8],[1569.9,389.7],[1573.4,391.4],[1593.1,394.9],[1632.6,405.3],[1642.6,423.4],[1641.2,436.8],[1637.4,445.4],[1632.8,454],[1639.2,466.2],[1637.6,471.3],[1633.9,482.9],[1633.9,482.9],[1630.1,486.7],[1622.9,499.9],[1542.3,530.3],[1510.1,534.8],[1480.6,540.8],[1480.6,540.8],[1433.6,568.1],[1376.5,584.5],[1313.7,602.7],[1313.7,602.7],[1241.9,637.2],[1170.1,671.7],[1099.5,703.9],[1099.5,703.9],[1040.9,717.6],[1037.3,709.1],[1037.3,709.1],[992.8,722.9],[992.8,722.9],[948.1,737.6],[939.5,727.5],[895.6,733.9],[895.6,733.9],[893.5,739.9],[905.4,743.8],[912.7,745],[933.6,736.2],[943,745],[928.1,752],[928.1,752],[946.6,755.7],[952.8,754.4],[936.1,763.9],[936.1,763.9],[1002.1,756],[1016.9,767.4],[1015.2,745],[1015.2,745],[1000.8,701.4],[1008.9,666.7],[1024.4,624],[1065.7,599.5],[1068.5,568.1],[1088.5,568.9],[1105.6,549],[1036.2,535],[969.2,508.8],[927.6,522],[903.3,559.1],[836.9,598.6],[770.5,638.1],[685,669.3],[604.6,710.7],[537.8,707],[537.8,707],[489.2,713.2],[477.4,702.8],[472.6,685.7],[428.5,651.7],[409.9,643.3],[408.4,625.7],[387.4,602.1],[382.6,568.5],[373,541.9],[367.3,509.8],[356.7,475.4],[356.7,475.4],[390.5,473],[394.7,468.7],[415.2,430.7],[406.9,381.3],[413.6,364.7],[432.3,363.5],[437.5,337.7],[434.1,301.4],[468.5,307.4],[468.5,307.4],[496.8,319.2],[495,338.7],[528.6,370.6],[580.1,434.5],[634.9,484.2],[664.6,513.8],[722.8,522.2],[772,557.9],[857.6,602],[887.3,622],[913.4,653.9],[933.5,669.9],[943.9,657],[955.4,644.7],[993.1,637.3],[1029.6,628],[1043.6,621.3],[1075.5,611.4],[1074,578],[1084.5,558.6],[1092.7,532.9],[1106.4,505.4],[1106.4,505.4],[1128.7,488.8],[1143.7,470.5],[1121.3,453.8],[1124.9,441],[1131.5,429.8],[1142.7,419.1],[1179.2,447.9],[1216.8,483.8],[1240.1,498.2],[1282.4,479],[1320,467.3],[1355.2,483.1],[1413.4,492.7],[1403.5,490.1],[1403.5,490.1],[1413.3,493.5],[1410.9,524.8],[1396.1,496.8],[1343.2,484.4],[1343.2,484.4],[1316,465.2],[1284.3,470.8],[1234.8,476.5],[1234.8,476.5],[1201.2,489.2],[1162.5,485.7],[1174.7,484.7],[1174.7,484.7],[1188.8,508.6],[1207.1,499.8],[1207.1,499.8],[1227.7,514.3],[1265.6,495.7],[1304.3,511.2],[1304.3,511.2],[1337.4,507.3],[1337.4,507.3],[1375.4,504.3],[1391.3,476.8],[1443.8,465.4],[1487.5,459.8],[1474.2,463],[1468.9,471],[1456.9,460.1],[1451.4,450.4],[1458.7,446.7],[1456.5,471.7],[1456.5,471.7],[1437,500.6],[1454.6,521.4],[1451.9,496.8],[1445.9,463.7],[1445.9,463.7],[1450.5,426.7],[1493.6,378.6],[1509.3,367.4],[1509.3,367.