inst1_resp.keys,inst1_resp.rt,calibrationMouse.x,calibrationMouse.y,calibrationMouse.leftButton,calibrationMouse.midButton,calibrationMouse.rightButton,calibrationClick.x,calibrationClick.y,calibrationClick.leftButton,calibrationClick.midButton,calibrationClick.rightButton,calibrationClick.clicked_name,trialsc.thisRepN,trialsc.thisTrialN,trialsc.thisN,trialsc.thisIndex,trialsc.ran,calibration_x,calibration_y,participant,session,date,expName,psychopyVersion,OS,frameRate,ScreenRes_pixels,mouse_2.x,mouse_2.y,mouse_2.leftButton,mouse_2.midButton,mouse_2.rightButton,mouse_2.time,mouse_2.clicked_name,Camera_pixels,mouse.x,mouse.y,mouse.leftButton,mouse.midButton,mouse.rightButton,mouse.time,mouse.clicked_name,Choice,Trial,TrialDuration,MOUSE_GAZE,ET_GAZE,ET_GAZE_x_T,time,unixTime,ET_GAZE_NF,Loc_Option1_label,Loc_Option2_label,Loc_Cost_label,Loc_Qual_label,Loc_Option1_cost,Loc_Option2_cost,Loc_Option1_quality,Loc_Option2_quality,trials.thisRepN,trials.thisTrialN,trials.thisN,trials.thisIndex,trials.ran,Block,Device,cost1,qual1,cost2,qual2
space,2.3144,-0.647916667,0.981481481,1,0,0,-0.001041667,-0.337037037,1,0,0,calibration_square,0,0,0,10,1,0,-0.33,38,001,2024-12-01_14h12.49.246,Attention_exp_legacy,2023.1.0,Win32,59.88023952,,,,,,,,,,,,,,,,,,,,,,,,,,,,,,,,,,,,,,,,,,,,
,,,,,,,-0.680208333,-0.001851852,1,0,0,,0,1,1,2,1,-0.67,0,38,001,2024-12-01_14h12.49.246,Attention_exp_legacy,2023.1.0,Win32,59.88023952,,,,,,,,,,,,,,,,,,,,,,,,,,,,,,,,,,,,,,,,,,,,
,,,,,,,0.326041667,-0.67962963,1,0,0,calibration_square,0,2,2,14,1,0.33,-0.67,38,001,2024-12-01_14h12.49.246,Attention_exp_legacy,2023.1.0,Win32,59.88023952,,,,,,,,,,,,,,,,,,,,,,,,,,,,,,,,,,,,,,,,,,,,
,,,,,,,0.341666667,0.007407407,1,0,0,,0,3,3,16,1,0.33,0,38,001,2024-12-01_14h12.49.246,Attention_exp_legacy,2023.1.0,Win32,59.88023952,,,,,,,,,,,,,,,,,,,,,,,,,,,,,,,,,,,,,,,,,,,,
,,,,,,,-0.320833333,-0.318518519,1,0,0,,0,4,4,5,1,-0.33,-0.33,38,001,2024-12-01_14h12.49.246,Attention_exp_legacy,2023.1.0,Win32,59.88023952,,,,,,,,,,,,,,,,,,,,,,,,,,,,,,,,,,,,,,,,,,,,
,,,,,,,0.673958333,-0.668518519,1,0,0,calibration_square,0,5,5,20,1,0.67,-0.67,38,001,2024-12-01_14h12.49.246,Attention_exp_legacy,2023.1.0,Win32,59.88023952,,,,,,,,,,,,,,,,,,,,,,,,,,,,,,,,,,,,,,,,,,,,
,,,,,,,0,0.325925926,1,0,0,calibration_square,0,6,6,12,1,0,0.33,38,001,2024-12-01_14h12.49.246,Attention_exp_legacy,2023.1.0,Win32,59.88023952,,,,,,,,,,,,,,,,,,,,,,,,,,,,,,,,,,,,,,,,,,,,
,,,,,,,0.667708333,0.672222222,1,0,0,calibration_square,0,7,7,19,1,0.67,0.67,38,001,2024-12-01_14h12.49.246,Attention_exp_legacy,2023.1.0,Win32,59.88023952,,,,,,,,,,,,,,,,,,,,,,,,,,,,,,,,,,,,,,,,,,,,
,,,,,,,-0.001041667,0.007407407,1,0,0,calibration_square,0,8,8,11,1,0,0,38,001,2024-12-01_14h12.49.246,Attention_exp_legacy,2023.1.0,Win32,59.88023952,,,,,,,,,,,,,,,,,,,,,,,,,,,,,,,,,,,,,,,,,,,,
,,,,,,,-0.334375,0.324074074,1,0,0,calibration_square,0,9,9,7,1,-0.33,0.33,38,001,2024-12-01_14h12.49.246,Attention_exp_legacy,2023.1.0,Win32,59.88023952,,,,,,,,,,,,,,,,,,,,,,,,,,,,,,,,,,,,,,,,,,,,
,,,,,,,-0.334375,0.685185185,1,0,0,,0,10,10,8,1,-0.33,0.67,38,001,2024-12-01_14h12.49.246,Attention_exp_legacy,2023.1.0,Win32,59.88023952,,,,,,,,,,,,,,,,,,,,,,,,,,,,,,,,,,,,,,,,,,,,
,,,,,,,-0.672916667,0.340740741,1,0,0,,0,11,11,3,1,-0.67,0.33,38,001,2024-12-01_14h12.49.246,Attention_exp_legacy,2023.1.0,Win32,59.88023952,,,,,,,,,,,,,,,,,,,,,,,,,,,,,,,,,,,,,,,,,,,,
,,,,,,,0.328125,0.67037037,1,0,0,calibration_square,0,12,12,18,1,0.33,0.67,38,001,2024-12-01_14h12.49.246,Attention_exp_legacy,2023.1.0,Win32,59.88023952,,,,,,,,,,,,,,,,,,,,,,,,,,,,,,,,,,,,,,,,,,,,
,,,,,,,0.33125,-0.32962963,1,0,0,calibration_square,0,13,13,15,1,0.33,-0.33,38,001,2024-12-01_14h12.49.246,Attention_exp_legacy,2023.1.0,Win32,59.88023952,,,,,,,,,,,,,,,,,,,,,,,,,,,,,,,,,,,,,,,,,,,,
,,,,,,,0.320833333,0.335185185,1,0,0,calibration_square,0,14,14,17,1,0.33,0.33,38,001,2024-12-01_14h12.49.246,Attention_exp_legacy,2023.1.0,Win32,59.88023952,,,,,,,,,,,,,,,,,,,,,,,,,,,,,,,,,,,,,,,,,,,,
,,,,,,,0.001041667,-0.677777778,1,0,0,calibration_square,0,15,15,9,1,0,-0.67,38,001,2024-12-01_14h12.49.246,Attention_exp_legacy,2023.1.0,Win32,59.88023952,,,,,,,,,,,,,,,,,,,,,,,,,,,,,,,,,,,,,,,,,,,,
,,,,,,,0.002083333,0.675925926,1,0,0,calibration_square,0,16,16,13,1,0,0.67,38,001,2024-12-01_14h12.49.246,Attention_exp_legacy,2023.1.0,Win32,59.88023952,,,,,,,,,,,,,,,,,,,,,,,,,,,,,,,,,,,,,,,,,,,,
,,,,,,,-0.671875,-0.331481481,1,0,0,calibration_square,0,17,17,1,1,-0.67,-0.33,38,001,2024-12-01_14h12.49.246,Attention_exp_legacy,2023.1.0,Win32,59.88023952,,,,,,,,,,,,,,,,,,,,,,,,,,,,,,,,,,,,,,,,,,,,
,,,,,,,-0.326041667,-0.012962963,1,0,0,,0,18,18,6,1,-0.33,0,38,001,2024-12-01_14h12.49.246,Attention_exp_legacy,2023.1.0,Win32,59.88023952,,,,,,,,,,,,,,,,,,,,,,,,,,,,,,,,,,,,,,,,,,,,
,,,,,,,-0.320833333,-0.687037037,1,0,0,,0,19,19,4,1,-0.33,-0.67,38,001,2024-12-01_14h12.49.246,Attention_exp_legacy,2023.1.0,Win32,59.88023952,,,,,,,,,,,,,,,,,,,,,,,,,,,,,,,,,,,,,,,,,,,,
,,,,,,,-0.667708333,-0.674074074,1,0,0,calibration_square,0,20,20,0,1,-0.67,-0.67,38,001,2024-12-01_14h12.49.246,Attention_exp_legacy,2023.1.0,Win32,59.88023952,,,,,,,,,,,,,,,,,,,,,,,,,,,,,,,,,,,,,,,,,,,,
,,,,,,,,,,,,,,,,,,,,38,001,2024-12-01_14h12.49.246,Attention_exp_legacy,2023.1.0,Win32,59.88023952,"[1920,1080]",[-0.040625],[-0.5277777777777778],[1],[0],[0],[0.9329999999999998],"[""StartButton""]","[640,480]","[0.03854166666666667,0.04791666666666667]","[0.25925925925925924,0.35]","[1,1]","[0,0]","[0,0]","[3.272299999952317,4.003099999964242]","[""Option1_label"",""Option1_label""]",Option1_label,1,4.2817,"[[0.004166666666666667,-0.37407407407407406],[0.004166666666666667,-0.37407407407407406],[0.004166666666666667,-0.37407407407407406],[0.004166666666666667,-0.37407407407407406],[0.004166666666666667,-0.37407407407407406],[0.004166666666666667,-0.37407407407407406],[0.004166666666666667,-0.37407407407407406],[0.004166666666666667,-0.37407407407407406],[0.004166666666666667,-0.37407407407407406],[0.004166666666666667,-0.37407407407407406],[0.004166666666666667,-0.37407407407407406],[0.004166666666666667,-0.37407407407407406],[0.004166666666666667,-0.37407407407407406],[0.004166666666666667,-0.37407407407407406],[0.004166666666666667,-0.37407407407407406],[0.004166666666666667,-0.37407407407407406],[0.004166666666666667,-0.37407407407407406],[0.004166666666666667,-0.37407407407407406],[0.004166666666666667,-0.37407407407407406],[0.004166666666666667,-0.37407407407407406],[0.004166666666666667,-0.37407407407407406],[0.004166666666666667,-0.37407407407407406],[0.004166666666666667,-0.37407407407407406],[0.004166666666666667,-0.37407407407407406],[0.004166666666666667,-0.37407407407407406],[0.004166666666666667,-0.37407407407407406],[0.004166666666666667,-0.37407407407407406],[0.004166666666666667,-0.37407407407407406],[0.004166666666666667,-0.37407407407407406],[0.004166666666666667,-0.37407407407407406],[0.004166666666666667,-0.37407407407407406],[0.004166666666666667,-0.37407407407407406],[0.004166666666666667,-0.37407407407407406],[0.004166666666666667,-0.37407407407407406],[0.004166666666666667,-0.37407407407407406],[0.004166666666666667,-0.37407407407407406],[0.004166666666666667,-0.37407407407407406],[0.004166666666666667,-0.37407407407407406],[0.004166666666666667,-0.37407407407407406],[0.004166666666666667,-0.37407407407407406],[0.004166666666666667,-0.37407407407407406],[0.004166666666666667,-0.37407407407407406],[0.004166666666666667,-0.37407407407407406],[0.004166666666666667,-0.37407407407407406],[0.004166666666666667,-0.37407407407407406],[0.004166666666666667,-0.37407407407407406],[0.004166666666666667,-0.37407407407407406],[0.004166666666666667,-0.37407407407407406],[0.004166666666666667,-0.37407407407407406],[0.004166666666666667,-0.37407407407407406],[0.004166666666666667,-0.37407407407407406],[0.004166666666666667,-0.37407407407407406],[0.004166666666666667,-0.37407407407407406],[0.004166666666666667,-0.37407407407407406],[0.004166666666666667,-0.37407407407407406],[0.00625,-0.37222222222222223],[0.00625,-0.37222222222222223],[0.00625,-0.37222222222222223],[0.00625,-0.37222222222222223],[0.00625,-0.37222222222222223],[0.00625,-0.37222222222222223],[0.00625,-0.37222222222222223],[0.00625,-0.37222222222222223],[0.00625,-0.37222222222222223],[0.00625,-0.37222222222222223],[0.00625,-0.37222222222222223],[0.00625,-0.37222222222222223],[0.00625,-0.37222222222222223],[0.00625,-0.37222222222222223],[0.007291666666666667,-0.37222222222222223],[0.019791666666666666,-0.40185185185185185],[0.022916666666666665,-0.4111111111111111],[0.022916666666666665,-0.4111111111111111],[0.022916666666666665,-0.4111111111111111],[0.022916666666666665,-0.4111111111111111],[0.022916666666666665,-0.4111111111111111],[0.022916666666666665,-0.4111111111111111],[0.022916666666666665,-0.4111111111111111],[0.022916666666666665,-0.4111111111111111],[0.022916666666666665,-0.4111111111111111],[0.022916666666666665,-0.4111111111111111],[0.022916666666666665,-0.4111111111111111],[0.022916666666666665,-0.4111111111111111],[0.022916666666666665,-0.4111111111111111],[0.022916666666666665,-0.4111111111111111],[0.022916666666666665,-0.4111111111111111],[0.022916666666666665,-0.4111111111111111],[0.022916666666666665,-0.4111111111111111],[0.022916666666666665,-0.4111111111111111],[0.022916666666666665,-0.4111111111111111],[0.022916666666666665,-0.4111111111111111],[0.022916666666666665,-0.4111111111111111],[0.022916666666666665,-0.4111111111111111],[0.022916666666666665,-0.4111111111111111],[0.013541666666666667,-0.40555555555555556],[0.007291666666666667,-0.387037037037037],[0.0020833333333333333,-0.38333333333333336],[0.0010416666666666667,-0.37407407407407406],[-0.0010416666666666667,-0.3592592592592593],[-0.0010416666666666667,-0.34814814814814815],[-0.0010416666666666667,-0.34074074074074073],[-0.0010416666666666667,-0.31851851851851853],[-0.003125,-0.2851851851851852],[-0.008333333333333333,-0.24444444444444444],[-0.017708333333333333,-0.1962962962962963],[-0.023958333333333335,-0.15185185185185185],[-0.0375,-0.07222222222222222],[-0.051041666666666666,0.012962962962962963],[-0.06041666666666667,0.07407407407407407],[-0.06458333333333334,0.11851851851851852],[-0.06770833333333333,0.15925925925925927],[-0.06770833333333333,0.19814814814814816],[-0.06770833333333333,0.22777777777777777],[-0.0625,0.25555555555555554],[-0.05625,0.2851851851851852],[-0.041666666666666664,0.32037037037037036],[-0.019791666666666666,0.3537037037037037],[0,0.37592592592592594],[0.03229166666666667,0.4074074074074074],[0.04791666666666667,0.42407407407407405],[0.059375,0.4351851851851852],[0.06875,0.44074074074074077],[0.078125,0.4444444444444444],[0.08645833333333333,0.4444444444444444],[0.1,0.4462962962962963],[0.11666666666666667,0.4462962962962963],[0.146875,0.4462962962962963],[0.15833333333333333,0.4462962962962963],[0.18541666666666667,0.43148148148148147],[0.21979166666666666,0.412962962962963],[0.2989583333333333,0.37222222222222223],[0.35625,0.3388888888888889],[0.41041666666666665,0.31296296296296294],[0.45625,0.28888888888888886],[0.4895833333333333,0.2740740740740741],[0.5260416666666666,0.25555555555555554],[0.534375,0.24814814814814815],[0.546875,0.2388888888888889],[0.5541666666666667,0.23148148148148148],[0.559375,0.22407407407407406],[0.5604166666666667,0.22037037037037038],[0.5645833333333333,0.2074074074074074],[0.56875,0.16666666666666666],[0.5708333333333333,0.13333333333333333],[0.5739583333333333,0.1037037037037037],[0.5760416666666667,0.07777777777777778],[0.578125,0.053703703703703705],[0.5802083333333333,0.02962962962962963],[0.5822916666666667,0.022222222222222223],[0.5833333333333334,0.012962962962962963],[0.584375,0.005555555555555556],[0.5875,-0.001851851851851852],[0.5885416666666666,-0.001851851851851852],[0.5885416666666666,-0.005555555555555556],[0.5927083333333333,-0.011111111111111112],[0.59375,-0.012962962962962963],[0.5979166666666667,-0.012962962962962963],[0.603125,-0.014814814814814815],[0.6104166666666667,-0.014814814814814815],[0.6302083333333334,-0.014814814814814815],[0.6385416666666667,-0.014814814814814815],[0.6552083333333333,-0.014814814814814815],[0.6833333333333333,0.001851851851851852],[0.7083333333333334,0.020370370370370372],[0.7166666666666667,0.025925925925925925],[0.7291666666666666,0.04259259259259259],[0.7427083333333333,0.06481481481481481],[0.7458333333333333,0.07592592592592592],[0.746875,0.08703703703703704],[0.746875,0.10185185185185185],[0.7385416666666667,0.1259259259259259],[0.6927083333333334,0.17777777777777778],[0.6552083333333333,0.20185185185185187],[0.5427083333333333,0.2574074074074074],[0.35520833333333335,0.34444444444444444],[0.19166666666666668,0.4],[0.15104166666666666,0.40925925925925927],[0.12083333333333333,0.4185185185185185],[0.096875,0.4203703703703704],[0.096875,0.4203703703703704],[0.096875,0.4203703703703704],[0.09583333333333334,0.4203703703703704],[0.09479166666666666,0.4166666666666667],[0.09166666666666666,0.40370370370370373],[0.08229166666666667,0.37777777777777777],[0.075,0.35555555555555557],[0.06041666666666667,0.3074074074074074],[0.05520833333333333,0.2962962962962963],[0.04895833333333333,0.2796296296296296],[0.041666666666666664,0.26481481481481484],[0.03958333333333333,0.26296296296296295],[0.03854166666666667,0.25925925925925924],[0.03854166666666667,0.25925925925925924],[0.03854166666666667,0.25925925925925924],[0.03854166666666667,0.25925925925925924],[0.03854166666666667,0.25925925925925924],[0.03854166666666667,0.25925925925925924],[0.03854166666666667,0.25925925925925924],[0.03854166666666667,0.25925925925925924],[0.03854166666666667,0.25925925925925924],[0.03854166666666667,0.25925925925925924],[0.03854166666666667,0.25925925925925924],[0.03854166666666667,0.25925925925925924],[0.03854166666666667,0.25925925925925924],[0.03854166666666667,0.25925925925925924],[0.03854166666666667,0.25925925925925924],[0.03854166666666667,0.25925925925925924],[0.03854166666666667,0.25925925925925924],[0.03854166666666667,0.25925925925925924],[0.03854166666666667,0.25925925925925924],[0.03854166666666667,0.25925925925925924],[0.03854166666666667,0.25925925925925924],[0.03854166666666667,0.25925925925925924],[0.03854166666666667,0.25925925925925924],[0.03854166666666667,0.25925925925925924],[0.03854166666666667,0.25925925925925924],[0.03854166666666667,0.25925925925925924],[0.03854166666666667,0.25925925925925924],[0.03854166666666667,0.25925925925925924],[0.03854166666666667,0.25925925925925924],[0.03854166666666667,0.25925925925925924],[0.03854166666666667,0.25925925925925924],[0.03854166666666667,0.25925925925925924],[0.03854166666666667,0.25925925925925924],[0.03854166666666667,0.25925925925925924],[0.03854166666666667,0.25925925925925924],[0.03854166666666667,0.25925925925925924],[0.03854166666666667,0.25925925925925924],[0.03854166666666667,0.25925925925925924],[0.03854166666666667,0.26296296296296295],[0.03854166666666667,0.26666666666666666],[0.03958333333333333,0.2740740740740741],[0.040625,0.2851851851851852],[0.041666666666666664,0.29074074074074074],[0.042708333333333334,0.30925925925925923],[0.04375,0.3277777777777778],[0.04479166666666667,0.34074074074074073],[0.046875,0.34814814814814815],[0.04791666666666667,0.35],[0.04791666666666667,0.35],[0.04791666666666667,0.35],[0.04791666666666667,0.35],[0.04791666666666667,0.35],[0.04791666666666667,0.35],[0.04791666666666667,0.35],[0.04791666666666667,0.35],[0.04791666666666667,0.35],[0.04791666666666667,0.35],[0.04791666666666667,0.35],[0.04791666666666667,0.35],[0.04791666666666667,0.35],[0.04791666666666667,0.35],[0.04791666666666667,0.35],[0.04791666666666667,0.35],[0.04791666666666667,0.35],[0.04791666666666667,0.35],[0.04791666666666667,0.35]]","[[-0.008541666666666715,0.15111111111111114],[-0.008541666666666715,0.15111111111111114],[-0.008541666666666715,0.15111111111111114],[-0.029999999999999954,0.05277777777777778],[-0.03270833333333331,-0.018703703703703747],[-0.03270833333333331,-0.018703703703703747],[-0.04135416666666671,-0.05],[-0.051145833333333356,-0.06648148148148143],[-0.019583333333333286,-0.06796296296296295],[-0.019583333333333286,-0.06796296296296295],[-0.007083333333333286,-0.12685185185185185],[-0.007083333333333286,-0.12685185185185185],[0.007083333333333286,-0.19888888888888884],[0.014374999999999952,-0.2161111111111111],[0.012395833333333309,-0.252962962962963],[0.008124999999999953,-0.30166666666666664],[-0.002812500000000047,-0.327962962962963],[-0.002812500000000047,-0.327962962962963],[-0.04562499999999995,-0.35037037037037033],[-0.06447916666666664,-0.35611111111111116],[-0.041770833333333354,-0.3712962962962963],[-0.04541666666666669,-0.38425925925925924],[-0.04593750000000003,-0.3787037037037037],[-0.04812500000000005,-0.35999999999999993],[-0.050312499999999954,-0.325],[-0.050312499999999954,-0.325],[-0.04479166666666667,-0.3081481481481481],[-0.017812500000000023,-0.2535185185185185],[0.010000000000000024,-0.21240740740740738],[0.010000000000000024,-0.21240740740740738],[0.042604166666666644,-0.19518518518518516],[0.0756249999999999,-0.1648148148148148],[0.07177083333333342,-0.13222222222222219],[0.08822916666666672,-0.09833333333333337],[0.08822916666666672,-0.09833333333333337],[0.10635416666666657,-0.060370370370370414],[0.11541666666666663,-0.01962962962962967],[0.07385416666666676,-0.0007407407407406986],[0.024583333333333356,0.03629629629629634],[-0.02802083333333331,0.03685185185185181],[-0.08562500000000005,0.0455555555555556],[-0.08562500000000005,0.0455555555555556],[-0.13687499999999997,0.0787037037037037],[-0.18854166666666666,0.09870370370370361],[-0.19406249999999994,0.10407407407407415],[-0.22708333333333333,0.10240740740740732],[-0.22708333333333333,0.10240740740740732],[-0.2561458333333333,0.11129629629629634],[-0.29583333333333334,0.11592592592592597],[-0.29583333333333334,0.11592592592592597],[-0.29635416666666664,0.10333333333333325],[-0.3042708333333334,0.07296296296296292],[-0.294375,0.08629629629629634],[-0.2520833333333333,0.10851851851851856],[-0.23666666666666672,0.05648148148148148],[-0.2140625,0.024814814814814772],[-0.21937500000000001,0.007962962962962878],[-0.20218750000000002,0.039074074074074115],[-0.20218750000000002,0.039074074074074115],[-0.1829166666666667,0.08740740740740749],[-0.14072916666666668,0.09018518518518527],[-0.10249999999999998,0.0985185185185186],[-0.05687500000000002,0.12462962962962955],[-0.033958333333333354,0.0985185185185186],[-0.03166666666666664,0.06055555555555564],[-0.028958333333333287,0.09907407407407408],[-0.03343750000000002,0.11722222222222214],[-0.036145833333333384,0.13962962962962958],[-0.06843750000000005,0.17814814814814822],[-0.10218750000000003,0.18499999999999997],[-0.10218750000000003,0.18499999999999997],[-0.1544791666666666,0.18944444444444436],[-0.1764583333333333,0.18796296296296297],[-0.2107291666666666,0.18925925925925935],[-0.2107291666666666,0.18925925925925935],[-0.25541666666666674,0.23870370370370367],[-0.27791666666666665,0.24166666666666667],[-0.28072916666666664,0.22351851851851862],[-0.31062500000000004,0.22166666666666676],[-0.3541666666666667,0.2168518518518519],[-0.3648958333333333,0.12888888888888894],[-0.37562500000000004,0.04092592592592597],[-0.37562500000000004,0.04092592592592597],[-0.37395833333333334,0.01629629629629621],[-0.4007291666666667,-0.00592592592592601],[-0.41916666666666663,-0.03851851851851843],[-0.4205208333333334,-0.09648148148148153],[-0.44895833333333335,-0.09074074074074075],[-0.4844791666666667,-0.08314814814814811],[-0.4822916666666667,-0.07999999999999997],[-0.46937500000000004,-0.05944444444444449],[-0.475,-0.014074074074074116],[-0.4671875,0.023333333333333376],[-0.45645833333333335,0.04685185185185177],[-0.470625,0.09407407407407399],[-0.470625,0.09407407407407399],[-0.41041666666666665,0.10925925925925926],[-0.34260416666666665,0.16574074074074074],[-0.27104166666666674,0.2081481481481481],[-0.19885416666666664,0.23796296296296296],[-0.19885416666666664,0.23796296296296296],[-0.09968750000000005,0.27240740740740743],[0.003854166666666714,0.297037037037037],[0.003854166666666714,0.297037037037037],[0.09697916666666657,0.2838888888888888],[0.15177083333333338,0.2668518518518519],[0.1990624999999999,0.27148148148148155],[0.1990624999999999,0.27148148148148155],[0.29031250000000003,0.25],[0.30656249999999996,0.2603703703703704],[0.32156250000000003,0.23111111111111102],[0.32156250000000003,0.23111111111111102],[0.31927083333333334,0.21277777777777773],[0.34229166666666655,0.19574074074074083],[0.28114583333333343,0.15222222222222231],[0.28114583333333343,0.15222222222222231],[0.21906249999999997,0.07555555555555547],[0.16791666666666671,0.08277777777777787],[0.16791666666666671,0.08277777777777787],[0.18333333333333332,0.10796296296296289],[0.18354166666666671,0.09722222222222222],[0.1696875000000001,0.04592592592592584],[0.14677083333333343,-0.0020370370370370794],[0.14677083333333343,-0.0020370370370370794],[0.11749999999999995,-0.051666666666666625],[0.10114583333333324,-0.0787037037037037],[0.06749999999999995,-0.12851851851851848],[0.06749999999999995,-0.12851851851851848],[0.08468749999999996,-0.18907407407407412],[0.08468749999999996,-0.18907407407407412],[0.09083333333333338,-0.1618518518518518],[0.11593749999999996,-0.1905555555555555],[0.11593749999999996,-0.1905555555555555],[0.10447916666666662,-0.23407407407407405],[0.09500000000000004,-0.2837037037037037],[0.11687500000000005,-0.29314814814814816],[0.11687500000000005,-0.29314814814814816],[0.16635416666666672,-0.28296296296296297],[0.16541666666666663,-0.23981481481481481],[0.16239583333333343,-0.225],[0.16239583333333343,-0.225],[0.19000000000000009,-0.2235185185185185],[0.23604166666666657,-0.225],[0.2924999999999999,-0.24055555555555552],[0.2924999999999999,-0.24055555555555552],[0.3095833333333334,-0.28962962962962957],[0.3430208333333333,-0.30407407407407405],[0.39656250000000004,-0.26944444444444443],[0.39656250000000004,-0.26944444444444443],[0.3993750000000001,-0.262037037037037],[0.4259375000000001,-0.2975925925925926],[0.4712500000000001,-0.3675925925925926],[0.4712500000000001,-0.3675925925925926],[0.5165625000000001,-0.4375925925925926],[0.5172916666666666,-0.44370370370370377],[0.5172916666666666,-0.44370370370370377],[0.5088541666666667,-0.42296296296296293],[0.49885416666666677,-0.42296296296296293],[0.5087500000000001,-0.37962962962962965],[0.4952083333333334,-0.3516666666666666],[0.4952083333333334,-0.3516666666666666],[0.49885416666666677,-0.35462962962962963],[0.51375,-0.32333333333333336],[0.5029166666666666,-0.26240740740740737],[0.5029166666666666,-0.26240740740740737],[0.5198958333333332,-0.19981481481481478],[0.5198958333333332,-0.19981481481481478],[0.5159374999999999,-0.1427777777777778],[0.5159374999999999,-0.1427777777777778],[0.5191666666666668,-0.11481481481481481],[0.4859375,-0.06481481481481481],[0.47645833333333343,-0.0690740740740741],[0.47645833333333343,-0.0690740740740741],[0.4647916666666667,-0.0455555555555556],[0.4566666666666668,-0.07370370370370373],[0.4457291666666668,-0.056666666666666705],[0.4457291666666668,-0.056666666666666705],[0.41468749999999993,-0.10722222222222218],[0.35302083333333345,-0.12962962962962962],[0.3315624999999999,-0.1668518518518519],[0.3228125000000001,-0.18259259259259264],[0.30499999999999994,-0.21425925925925923],[0.31302083333333336,-0.26722222222222225],[0.31302083333333336,-0.26722222222222225],[0.3185416666666666,-0.2646296296296296],[0.3252083333333334,-0.3014814814814815],[0.3099999999999999,-0.29888888888888887],[0.2869791666666667,-0.3683333333333333],[0.2846874999999999,-0.3266666666666666],[0.30104166666666665,-0.31500000000000006],[0.30104166666666665,-0.31500000000000006],[0.2742708333333333,-0.3118518518518518],[0.2672916666666666,-0.36129629629629634],[0.27458333333333323,-0.384074074074074],[0.2775000000000001,-0.3266666666666666],[0.27458333333333323,-0.36814814814814817],[0.2413541666666667,-0.3507407407407407],[0.2413541666666667,-0.3507407407407407],[0.22843749999999996,-0.3316666666666667],[0.20968749999999994,-0.2983333333333334],[0.22791666666666663,-0.34574074074074074],[0.22791666666666663,-0.34574074074074074],[0.2341666666666666,-0.39148148148148143],[0.25760416666666663,-0.3427777777777778],[0.18270833333333342,-0.21444444444444447],[0.09302083333333329,-0.1388888888888889],[0.004791666666666691,-0.14740740740740746],[-0.05916666666666662,-0.060370370370370414],[-0.09177083333333336,-0.020555555555555598],[-0.09177083333333336,-0.020555555555555598],[-0.10666666666666665,-0.0257407407407407],[-0.12166666666666662,-0.016111111111111194],[-0.22250000000000003,0.06185185185185181],[-0.28312499999999996,0.13407407407407404],[-0.28312499999999996,0.13407407407407404],[-0.37864583333333335,0.15462962962962962],[-0.36739583333333337,0.15203703703703708],[-0.35604166666666665,0.16129629629629633],[-0.3154166666666666,0.1557407407407408],[-0.32614583333333336,0.13648148148148156],[-0.35562499999999997,0.11870370370370374],[-0.4028125000000001,0.14592592592592585],[-0.4396875,0.17962962962962964],[-0.4248958333333333,0.1757407407407407],[-0.4235416666666667,0.19611111111111107],[-0.40302083333333333,0.16592592592592598],[-0.4046875,0.1331481481481481],[-0.36770833333333336,0.08481481481481473],[-0.3210416666666667,0.08907407407407411],[-0.26968749999999997,0.03888888888888889],[-0.2123958333333333,0.0031481481481482323],[-0.1397916666666667,-0.019259259259259216],[-0.07791666666666662,-0.039074074074074115],[-0.07791666666666662,-0.039074074074074115],[-0.020833333333333332,-0.09907407407407408],[0.01739583333333338,-0.17796296296296302],[0.057395833333333354,-0.25555555555555554],[0.09937500000000009,-0.3118518518518518],[0.09937500000000009,-0.3118518518518518],[0.10791666666666658,-0.3131481481481482],[0.07625000000000005,-0.35777777777777775],[0.06895833333333339,-0.34018518518518515],[0.06822916666666666,-0.3714814814814815],[0.052187500000000026,-0.4161111111111111],[0.034687499999999954,-0.43074074074074076],[0.02374999999999995,-0.40499999999999997],[0.024270833333333287,-0.3811111111111111],[0.024479166666666666,-0.34333333333333327],[0.015312500000000047,-0.3244444444444444],[0.015625,-0.30407407407407405],[0.015625,-0.30407407407407405],[0.01864583333333331,-0.27462962962962967],[0.011249999999999953,-0.28185185185185185],[0.012083333333333357,-0.2646296296296296],[0.012916666666666642,-0.24740740740740744],[0.0032291666666666905,-0.24092592592592596],[-0.006458333333333381,-0.23444444444444448]]","[[-0.008541666666666715,0.15111111111111114,0.0003000000119186552],[-0.008541666666666715,0.15111111111111114,0.03860000002384112],[-0.008541666666666715,0.15111111111111114,0.044600000023841346],[-0.029999999999999954,0.05277777777777778,0.06080000001191621],[-0.03270833333333331,-0.018703703703703747,0.08369999998807742],[-0.03270833333333331,-0.018703703703703747,0.0940000000000012],[-0.04135416666666671,-0.05,0.11089999997615507],[-0.051145833333333356,-0.06648148148148143,0.1303000000119212],[-0.019583333333333286,-0.06796296296296295,0.14969999998807992],[-0.019583333333333286,-0.06796296296296295,0.16089999997615934],[-0.007083333333333286,-0.12685185185185185,0.17789999997615524],[-0.007083333333333286,-0.12685185185185185,0.19419999998807924],[0.007083333333333286,-0.19888888888888884,0.2108999999761565],[0.014374999999999952,-0.2161111111111111,0.22849999999999682],[0.012395833333333309,-0.252962962962963,0.24680000001191615],[0.008124999999999953,-0.30166666666666664,0.2644999999999982],[-0.002812500000000047,-0.327962962962963,0.2833000000119199],[-0.002812500000000047,-0.327962962962963,0.2943000000119156],[-0.04562499999999995,-0.35037037037037033,0.3108000000119162],[-0.06447916666666664,-0.35611111111111116,0.32750000000000057],[-0.041770833333333354,-0.3712962962962963,0.34439999997615445],[-0.04541666666666669,-0.38425925925925924,0.3616999999880761],[-0.04593750000000003,-0.3787037037037037,0.3821000000238399],[-0.04812500000000005,-0.35999999999999993,0.3988999999761589],[-0.050312499999999954,-0.325,0.4146999999880805],[-0.050312499999999954,-0.325,0.42739999997615286],[-0.04479166666666667,-0.3081481481481481,0.44430000001192127],[-0.017812500000000023,-0.2535185185185185,0.4608999999761565],[0.010000000000000024,-0.21240740740740738,0.48099999999999454],[0.010000000000000024,-0.21240740740740738,0.4941000000238418],[0.042604166666666644,-0.19518518518518516,0.5108999999761537],[0.0756249999999999,-0.1648148148148148,0.5278999999761567],[0.07177083333333342,-0.13222222222222219,0.544800000011918],[0.08822916666666672,-0.09833333333333337,0.5678999999761558],[0.08822916666666672,-0.09833333333333337,0.5776999999880772],[0.10635416666666657,-0.060370370370370414,0.5941000000238432],[0.11541666666666663,-0.01962962962962967,0.6108999999761551],[0.07385416666666676,-0.0007407407407406986,0.6308999999761582],[0.024583333333333356,0.03629629629629634,0.6483000000119219],[-0.02802083333333331,0.03685185185185181,0.6648000000119154],[-0.08562500000000005,0.0455555555555556,0.6821000000238371],[-0.08562500000000005,0.0455555555555556,0.6943999999761559],[-0.13687499999999997,0.0787037037037037,0.7108000000119219],[-0.18854166666666666,0.09870370370370361,0.7278000000119178],[-0.19406249999999994,0.10407407407407415,0.7446999999880788],[-0.22708333333333333,0.10240740740740732,0.7629999999999981],[-0.22708333333333333,0.10240740740740732,0.7776000000238383],[-0.2561458333333333,0.11129629629629634,0.7941999999880736],[-0.29583333333333334,0.11592592592592597,0.8134999999999977],[-0.29583333333333334,0.11592592592592597,0.830999999999996],[-0.29635416666666664,0.10333333333333325,0.8444999999999965],[-0.3042708333333334,0.07296296296296292,0.8608999999761551],[-0.294375,0.08629629629629634,0.8799999999999955],[-0.2520833333333333,0.10851851851851856,0.894899999976154],[-0.23666666666666672,0.05648148148148148,0.9138999999761594],[-0.2140625,0.024814814814814772,0.9324999999999974],[-0.21937500000000001,0.007962962962962878,0.9471000000238377],[-0.20218750000000002,0.039074074074074115,0.9653999999761567],[-0.20218750000000002,0.039074074074074115,0.9776000000238412],[-0.1829166666666667,0.08740740740740749,0.9941999999880764],[-0.14072916666666668,0.09018518518518527,1.0108999999761537],[-0.10249999999999998,0.0985185185185186,1.0273999999761543],[-0.05687500000000002,0.12462962962962955,1.046999999999997],[-0.033958333333333354,0.0985185185185186,1.060899999976158],[-0.03166666666666664,0.06055555555555564,1.0781000000238379],[-0.028958333333333287,0.09907407407407408,1.0941999999880778],[-0.03343750000000002,0.11722222222222214,1.1136999999880786],[-0.036145833333333384,0.13962962962962958,1.1276999999880744],[-0.06843750000000005,0.17814814814814822,1.1445000000000007],[-0.10218750000000003,0.18499999999999997,1.1659999999999968],[-0.10218750000000003,0.18499999999999997,1.1778000000119206],[-0.1544791666666666,0.18944444444444436,1.1943999999761559],[-0.1764583333333333,0.18796296296296297,1.213100000023843],[-0.2107291666666666,0.18925925925925935,1.2281000000238365],[-0.2107291666666666,0.18925925925925935,1.2441999999880764],[-0.25541666666666674,0.23870370370370367,1.260800000011919],[-0.27791666666666665,0.24166666666666667,1.278399999976159],[-0.28072916666666664,0.22351851851851862,1.2943000000119156],[-0.31062500000000004,0.22166666666666676,1.3113999999761532],[-0.3541666666666667,0.2168518518518519,1.3273999999761585],[-0.3648958333333333,0.12888888888888894,1.3441999999880778],[-0.37562500000000004,0.04092592592592597,1.360899999976155],[-0.37562500000000004,0.04092592592592597,1.3776000000238398],[-0.37395833333333334,0.01629629629629621,1.3941000000238404],[-0.4007291666666667,-0.00592592592592601,1.4108999999761593],[-0.41916666666666663,-0.03851851851851843,1.4273999999761529],[-0.4205208333333334,-0.09648148148148153,1.444499999999998],[-0.44895833333333335,-0.09074074074074075,1.462899999976159],[-0.4844791666666667,-0.08314814814814811,1.4806000000238413],[-0.4822916666666667,-0.07999999999999997,1.4941999999880764],[-0.46937500000000004,-0.05944444444444449,1.5111000000238377],[-0.475,-0.014074074074074116,1.5281999999880753],[-0.4671875,0.023333333333333376,1.544800000011918],[-0.45645833333333335,0.04685185185185177,1.560899999976158],[-0.470625,0.09407407407407399,1.5853000000119195],[-0.470625,0.09407407407407399,1.5943000000119198],[-0.41041666666666665,0.10925925925925926,1.610999999999997],[-0.34260416666666665,0.16574074074074074,1.6278000000119164],[-0.27104166666666674,0.2081481481481481,1.649100000023843],[-0.19885416666666664,0.23796296296296296,1.6661999999880805],[-0.19885416666666664,0.23796296296296296,1.6778000000119206],[-0.09968750000000005,0.27240740740740743,1.6941999999880792],[0.003854166666666714,0.297037037037037,1.7169999999999987],[0.003854166666666714,0.297037037037037,1.7274999999999991],[0.09697916666666657,0.2838888888888888,1.744499999999995],[0.15177083333333338,0.2668518518518519,1.7611999999880794],[0.1990624999999999,0.27148148148148155,1.7868000000119224],[0.1990624999999999,0.27148148148148155,1.7948999999761597],[0.29031250000000003,0.25,1.811100000023842],[0.30656249999999996,0.2603703703703704,1.8281000000238379],[0.32156250000000003,0.23111111111111102,1.8481999999880756],[0.32156250000000003,0.23111111111111102,1.8613999999761575],[0.31927083333333334,0.21277777777777773,1.877899999976158],[0.34229166666666655,0.19574074074074083,1.8946000000238428],[0.28114583333333343,0.15222222222222231,1.9149999999999991],[0.28114583333333343,0.15222222222222231,1.9276999999880786],[0.21906249999999997,0.07555555555555547,1.9443999999761559],[0.16791666666666671,0.08277777777777787,1.9663000000119197],[0.16791666666666671,0.08277777777777787,1.9778000000119178],[0.18333333333333332,0.10796296296296289,1.9943000000119184],[0.18354166666666671,0.09722222222222222,2.0109999999999957],[0.1696875000000001,0.04592592592592584,2.03180000001192],[0.14677083333333343,-0.0020370370370370794,2.0481000000238367],[0.14677083333333343,-0.0020370370370370794,2.061100000023842],[0.11749999999999995,-0.051666666666666625,2.077699999988077],[0.10114583333333324,-0.0787037037037037,2.09880000001192],[0.06749999999999995,-0.12851851851851848,2.1146999999880762],[0.06749999999999995,-0.12851851851851848,2.1274999999999977],[0.08468749999999996,-0.18907407407407412,2.14969999998808],[0.08468749999999996,-0.18907407407407412,2.1610000000000014],[0.09083333333333338,-0.1618518518518518,2.1778999999761552],[0.11593749999999996,-0.1905555555555555,2.2013999999761538],[0.11593749999999996,-0.1905555555555555,2.2109999999999985],[0.10447916666666662,-0.23407407407407405,2.227600000023841],[0.09500000000000004,-0.2837037037037037,2.244800000011921],[0.11687500000000005,-0.29314814814814816,2.2698000000119194],[0.11687500000000005,-0.29314814814814816,2.27769999998808],[0.16635416666666672,-0.28296296296296297,2.2943999999761573],[0.16541666666666663,-0.23981481481481481,2.311800000011921],[0.16239583333333343,-0.225,2.3328999999761564],[0.16239583333333343,-0.225,2.34430000001192],[0.19000000000000009,-0.2235185185185185,2.360999999999997],[0.23604166666666657,-0.225,2.382800000011919],[0.2924999999999999,-0.24055555555555552,2.3998999999761566],[0.2924999999999999,-0.24055555555555552,2.4110000000000014],[0.3095833333333334,-0.28962962962962957,2.427600000023837],[0.3430208333333333,-0.30407407407407405,2.4478000000119167],[0.39656250000000004,-0.26944444444444443,2.4658000000119173],[0.39656250000000004,-0.26944444444444443,2.4776999999880758],[0.3993750000000001,-0.262037037037037,2.494399999976153],[0.4259375000000001,-0.2975925925925926,2.514800000011917],[0.4712500000000001,-0.3675925925925926,2.533199999988078],[0.4712500000000001,-0.3675925925925926,2.5443000000119156],[0.5165625000000001,-0.4375925925925926,2.561100000023842],[0.5172916666666666,-0.44370370370370377,2.585100000023843],[0.5172916666666666,-0.44370370370370377,2.5943999999761544],[0.5088541666666667,-0.42296296296296293,2.6111999999880737],[0.49885416666666677,-0.42296296296296293,2.627899999976158],[0.5087500000000001,-0.37962962962962965,2.64819999998808],[0.4952083333333334,-0.3516666666666666,2.6669999999999945],[0.4952083333333334,-0.3516666666666666,2.6778000000119206],[0.49885416666666677,-0.35462962962962963,2.694499999999998],[0.51375,-0.32333333333333336,2.7166000000238384],[0.5029166666666666,-0.26240740740740737,2.7319999999999993],[0.5029166666666666,-0.26240740740740737,2.744399999976153],[0.5198958333333332,-0.19981481481481478,2.7609999999999957],[0.5198958333333332,-0.19981481481481478,2.7811999999880754],[0.5159374999999999,-0.1427777777777778,2.7943999999761573],[0.5159374999999999,-0.1427777777777778,2.811],[0.5191666666666668,-0.11481481481481481,2.8276000000238426],[0.4859375,-0.06481481481481481,2.8476000000238386],[0.47645833333333343,-0.0690740740740741,2.8653000000119206],[0.47645833333333343,-0.0690740740740741,2.877899999976158],[0.4647916666666667,-0.0455555555555556,2.8983999999761565],[0.4566666666666668,-0.07370370370370373,2.916100000023839],[0.4457291666666668,-0.056666666666666705,2.9418000000119164],[0.4457291666666668,-0.056666666666666705,2.955199999988075],[0.41468749999999993,-0.10722222222222218,2.9609999999999985],[0.35302083333333345,-0.12962962962962962,2.978999999999999],[0.3315624999999999,-0.1668518518518519,2.9943000000119184],[0.3228125000000001,-0.18259259259259264,3.0108999999761537],[0.30499999999999994,-0.21425925925925923,3.0319999999999965],[0.31302083333333336,-0.26722222222222225,3.0466999999880784],[0.31302083333333336,-0.26722222222222225,3.061],[0.3185416666666666,-0.2646296296296296,3.078100000023838],[0.3252083333333334,-0.3014814814814815,3.0985000000000014],[0.3099999999999999,-0.29888888888888887,3.113899999976155],[0.2869791666666667,-0.3683333333333333,3.1288999999761558],[0.2846874999999999,-0.3266666666666666,3.14669999998808],[0.30104166666666665,-0.31500000000000006,3.169699999988076],[0.30104166666666665,-0.31500000000000006,3.178899999976153],[0.2742708333333333,-0.3118518518518518,3.1943000000119213],[0.2672916666666666,-0.36129629629629634,3.210800000011922],[0.27458333333333323,-0.384074074074074,3.2303000000119155],[0.2775000000000001,-0.3266666666666666,3.246300000011921],[0.27458333333333323,-0.36814814814814817,3.2611000000238377],[0.2413541666666667,-0.3507407407407407,3.2801999999880778],[0.2413541666666667,-0.3507407407407407,3.2941999999880736],[0.22843749999999996,-0.3316666666666667,3.310899999976158],[0.20968749999999994,-0.2983333333333334,3.3284999999999982],[0.22791666666666663,-0.34574074074074074,3.3441000000238432],[0.22791666666666663,-0.34574074074074074,3.360899999976155],[0.2341666666666666,-0.39148148148148143,3.3774999999999977],[0.25760416666666663,-0.3427777777777778,3.3939999999999984],[0.18270833333333342,-0.21444444444444447,3.4108999999761593],[0.09302083333333329,-0.1388888888888889,3.4303000000119184],[0.004791666666666691,-0.14740740740740746,3.445300000011919],[-0.05916666666666662,-0.060370370370370414,3.4608999999761565],[-0.09177083333333336,-0.020555555555555598,3.477800000011918],[-0.09177083333333336,-0.020555555555555598,3.4941999999880764],[-0.10666666666666665,-0.0257407407407407,3.510800000011919],[-0.12166666666666662,-0.016111111111111194,3.5273999999761543],[-0.22250000000000003,0.06185185185185181,3.544100000023839],[-0.28312499999999996,0.13407407407407404,3.566199999988079],[-0.28312499999999996,0.13407407407407404,3.5776000000238426],[-0.37864583333333335,0.15462962962962962,3.5941000000238432],[-0.36739583333333337,0.15203703703703708,3.610899999976155],[-0.35604166666666665,0.16129629629629633,3.6321999999880745],[-0.3154166666666666,0.1557407407407408,3.646800000011922],[-0.32614583333333336,0.13648148148148156,3.6606999999880756],[-0.35562499999999997,0.11870370370370374,3.6778000000119206],[-0.4028125000000001,0.14592592592592585,3.6941000000238375],[-0.4396875,0.17962962962962964,3.7131999999880776],[-0.4248958333333333,0.1757407407407407,3.7276999999880758],[-0.4235416666666667,0.19611111111111107,3.744100000023842],[-0.40302083333333333,0.16592592592592598,3.760800000011919],[-0.4046875,0.1331481481481481,3.7804999999999964],[-0.36770833333333336,0.08481481481481473,3.7943999999761573],[-0.3210416666666667,0.08907407407407411,3.810899999976158],[-0.26968749999999997,0.03888888888888889,3.8321999999880774],[-0.2123958333333333,0.0031481481481482323,3.848100000023841],[-0.1397916666666667,-0.019259259259259216,3.864999999999995],[-0.07791666666666662,-0.039074074074074115,3.8844999999999956],[-0.07791666666666662,-0.039074074074074115,3.8945000000000007],[-0.020833333333333332,-0.09907407407407408,3.9108999999761593],[0.01739583333333338,-0.17796296296296302,3.927600000023837],[0.057395833333333354,-0.25555555555555554,3.9484999999999957],[0.09937500000000009,-0.3118518518518518,3.9678999999761544],[0.09937500000000009,-0.3118518518518518,3.9776999999880758],[0.10791666666666658,-0.3131481481481482,3.994100000023842],[0.07625000000000005,-0.35777777777777775,4.011100000023838],[0.06895833333333339,-0.34018518518518515,4.027499999999996],[0.06822916666666666,-0.3714814814814815,4.044199999988074],[0.052187500000000026,-0.4161111111111111,4.060800000011916],[0.034687499999999954,-0.43074074074074076,4.080999999999996],[0.02374999999999995,-0.40499999999999997,4.097100000023843],[0.024270833333333287,-0.3811111111111111,4.112800000011916],[0.024479166666666666,-0.34333333333333327,4.127300000011921],[0.015312500000000047,-0.3244444444444444,4.144399999976159],[0.015625,-0.30407407407407405,4.161199999988078],[0.015625,-0.30407407407407405,4.177499999999995],[0.01864583333333331,-0.27462962962962967,4.194199999988079],[0.011249999999999953,-0.28185185185185185,4.210800000011922],[0.012083333333333357,-0.2646296296296296,4.227800000011918],[0.012916666666666642,-0.24740740740740744,4.247399999976153],[0.0032291666666666905,-0.24092592592592596,4.265499999999996],[-0.006458333333333381,-0.23444444444444448,4.281699999988078]]","[0.0003000000119186552,0.03860000002384112,0.044600000023841346,0.06080000001191621,0.08369999998807742,0.0940000000000012,0.11089999997615507,0.1303000000119212,0.14969999998807992,0.16089999997615934,0.17789999997615524,0.19419999998807924,0.2108999999761565,0.22849999999999682,0.24680000001191615,0.2644999999999982,0.2833000000119199,0.2943000000119156,0.3108000000119162,0.32750000000000057,0.34439999997615445,0.3616999999880761,0.3821000000238399,0.3988999999761589,0.4146999999880805,0.42739999997615286,0.44430000001192127,0.4608999999761565,0.48099999999999454,0.4941000000238418,0.5108999999761537,0.5278999999761567,0.544800000011918,0.5678999999761558,0.5776999999880772,0.5941000000238432,0.6108999999761551,0.6308999999761582,0.6483000000119219,0.6648000000119154,0.6821000000238371,0.6943999999761559,0.7108000000119219,0.7278000000119178,0.7446999999880788,0.7629999999999981,0.7776000000238383,0.7941999999880736,0.8134999999999977,0.830999999999996,0.8444999999999965,0.8608999999761551,0.8799999999999955,0.894899999976154,0.9138999999761594,0.9324999999999974,0.9471000000238377,0.9653999999761567,0.9776000000238412,0.9941999999880764,1.0108999999761537,1.0273999999761543,1.046999999999997,1.060899999976158,1.0781000000238379,1.0941999999880778,1.1136999999880786,1.1276999999880744,1.1445000000000007,1.1659999999999968,1.1778000000119206,1.1943999999761559,1.213100000023843,1.2281000000238365,1.2441999999880764,1.260800000011919,1.278399999976159,1.2943000000119156,1.3113999999761532,1.3273999999761585,1.3441999999880778,1.360899999976155,1.3776000000238398,1.3941000000238404,1.4108999999761593,1.4273999999761529,1.444499999999998,1.462899999976159,1.4806000000238413,1.4941999999880764,1.5111000000238377,1.5281999999880753,1.544800000011918,1.560899999976158,1.5853000000119195,1.5943000000119198,1.610999999999997,1.6278000000119164,1.649100000023843,1.6661999999880805,1.6778000000119206,1.6941999999880792,1.7169999999999987,1.7274999999999991,1.744499999999995,1.7611999999880794,1.7868000000119224,1.7948999999761597,1.811100000023842,1.8281000000238379,1.8481999999880756,1.8613999999761575,1.877899999976158,1.8946000000238428,1.9149999999999991,1.9276999999880786,1.9443999999761559,1.9663000000119197,1.9778000000119178,1.9943000000119184,2.0109999999999957,2.03180000001192,2.0481000000238367,2.061100000023842,2.077699999988077,2.09880000001192,2.1146999999880762,2.1274999999999977,2.14969999998808,2.1610000000000014,2.1778999999761552,2.2013999999761538,2.2109999999999985,2.227600000023841,2.244800000011921,2.2698000000119194,2.27769999998808,2.2943999999761573,2.311800000011921,2.3328999999761564,2.34430000001192,2.360999999999997,2.382800000011919,2.3998999999761566,2.4110000000000014,2.427600000023837,2.4478000000119167,2.4658000000119173,2.4776999999880758,2.494399999976153,2.514800000011917,2.533199999988078,2.5443000000119156,2.561100000023842,2.585100000023843,2.5943999999761544,2.6111999999880737,2.627899999976158,2.64819999998808,2.6669999999999945,2.6778000000119206,2.694499999999998,2.7166000000238384,2.7319999999999993,2.744399999976153,2.7609999999999957,2.7811999999880754,2.7943999999761573,2.811,2.8276000000238426,2.8476000000238386,2.8653000000119206,2.877899999976158,2.8983999999761565,2.916100000023839,2.9418000000119164,2.955199999988075,2.9609999999999985,2.978999999999999,2.9943000000119184,3.0108999999761537,3.0319999999999965,3.0466999999880784,3.061,3.078100000023838,3.0985000000000014,3.113899999976155,3.1288999999761558,3.14669999998808,3.169699999988076,3.178899999976153,3.1943000000119213,3.210800000011922,3.2303000000119155,3.246300000011921,3.2611000000238377,3.2801999999880778,3.2941999999880736,3.310899999976158,3.3284999999999982,3.3441000000238432,3.360899999976155,3.3774999999999977,3.3939999999999984,3.4108999999761593,3.4303000000119184,3.445300000011919,3.4608999999761565,3.477800000011918,3.4941999999880764,3.510800000011919,3.5273999999761543,3.544100000023839,3.566199999988079,3.5776000000238426,3.5941000000238432,3.610899999976155,3.6321999999880745,3.646800000011922,3.6606999999880756,3.6778000000119206,3.6941000000238375,3.7131999999880776,3.7276999999880758,3.744100000023842,3.760800000011919,3.7804999999999964,3.7943999999761573,3.810899999976158,3.8321999999880774,3.848100000023841,3.864999999999995,3.8844999999999956,3.8945000000000007,3.9108999999761593,3.927600000023837,3.9484999999999957,3.9678999999761544,3.9776999999880758,3.994100000023842,4.011100000023838,4.027499999999996,4.044199999988074,4.060800000011916,4.080999999999996,4.097100000023843,4.112800000011916,4.127300000011921,4.144399999976159,4.161199999988078,4.177499999999995,4.194199999988079,4.210800000011922,4.227800000011918,4.247399999976153,4.265499999999996,4.281699999988078]","[1733033612095,1733033612126,1733033612132,1733033612148,1733033612171,1733033612181,1733033612198,1733033612217,1733033612237,1733033612248,1733033612265,1733033612281,1733033612298,1733033612316,1733033612334,1733033612352,1733033612370,1733033612381,1733033612398,1733033612414,1733033612431,1733033612449,1733033612469,1733033612486,1733033612502,1733033612515,1733033612531,1733033612548,1733033612568,1733033612581,1733033612598,1733033612615,1733033612632,1733033612655,1733033612665,1733033612681,1733033612698,1733033612718,1733033612735,1733033612752,1733033612769,1733033612781,1733033612798,1733033612815,1733033612832,1733033612850,1733033612865,1733033612881,1733033612901,1733033612918,1733033612932,1733033612948,1733033612967,1733033612982,1733033613001,1733033613020,1733033613034,1733033613052,1733033613065,1733033613081,1733033613098,1733033613114,1733033613134,1733033613148,1733033613165,1733033613181,1733033613201,1733033613215,1733033613232,1733033613253,1733033613265,1733033613281,1733033613300,1733033613315,1733033613331,1733033613348,1733033613365,1733033613381,1733033613399,1733033613414,1733033613431,1733033613448,1733033613465,1733033613481,1733033613498,1733033613514,1733033613532,1733033613550,1733033613568,1733033613581,1733033613598,1733033613615,1733033613632,1733033613648,1733033613672,1733033613681,1733033613698,1733033613715,1733033613736,1733033613753,1733033613765,1733033613781,1733033613804,1733033613815,1733033613831,1733033613848,1733033613874,1733033613882,1733033613898,1733033613915,1733033613935,1733033613948,1733033613965,1733033613982,1733033614002,1733033614015,1733033614031,1733033614053,1733033614065,1733033614081,1733033614098,1733033614119,1733033614135,1733033614148,1733033614165,1733033614186,1733033614202,1733033614215,1733033614237,1733033614248,1733033614265,1733033614288,1733033614298,1733033614315,1733033614332,1733033614357,1733033614365,1733033614381,1733033614399,1733033614420,1733033614431,1733033614448,1733033614470,1733033614487,1733033614498,1733033614515,1733033614535,1733033614553,1733033614565,1733033614581,1733033614602,1733033614620,1733033614631,1733033614648,1733033614672,1733033614681,1733033614698,1733033614715,1733033614735,1733033614754,1733033614765,1733033614781,1733033614804,1733033614819,1733033614831,1733033614848,1733033614868,1733033614881,1733033614898,1733033614915,1733033614935,1733033614952,1733033614965,1733033614985,1733033615003,1733033615029,1733033615042,1733033615048,1733033615066,1733033615081,1733033615098,1733033615119,1733033615134,1733033615148,1733033615165,1733033615186,1733033615201,1733033615216,1733033615234,1733033615257,1733033615266,1733033615281,1733033615298,1733033615317,1733033615333,1733033615348,1733033615367,1733033615381,1733033615398,1733033615415,1733033615431,1733033615448,1733033615464,1733033615481,1733033615498,1733033615517,1733033615532,1733033615548,1733033615565,1733033615581,1733033615598,1733033615614,1733033615631,1733033615653,1733033615665,1733033615681,1733033615698,1733033615719,1733033615734,1733033615748,1733033615765,1733033615781,1733033615800,1733033615815,1733033615831,1733033615848,1733033615868,1733033615881,1733033615898,1733033615919,1733033615935,1733033615952,1733033615972,1733033615982,1733033615998,1733033616015,1733033616036,1733033616055,1733033616065,1733033616081,1733033616098,1733033616115,1733033616131,1733033616148,1733033616168,1733033616184,1733033616200,1733033616214,1733033616231,1733033616248,1733033616265,1733033616281,1733033616298,1733033616315,1733033616334,1733033616353,1733033616369]","[[951.8,621.6],[951.8,621.6],[951.8,621.6],[931.2,568.5],[928.6,529.9],[928.6,529.9],[920.3,513],[910.9,504.1],[941.2,503.3],[941.2,503.3],[953.2,471.5],[953.2,471.5],[966.8,432.6],[973.8,423.3],[971.9,403.4],[967.8,377.1],[957.3,362.9],[957.3,362.9],[916.2,350.8],[898.1,347.7],[919.9,339.5],[916.4,332.5],[915.9,335.5],[913.8,345.6],[911.7,364.5],[911.7,364.5],[917,373.6],[942.9,403.1],[969.6,425.3],[969.6,425.3],[1000.9,434.6],[1032.6,451],[1028.9,468.6],[1044.7,486.9],[1044.7,486.9],[1062.1,507.4],[1070.8,529.4],[1030.9,539.6],[983.6,559.6],[933.1,559.9],[877.8,564.6],[877.8,564.6],[828.6,582.5],[779,593.3],[773.7,596.2],[742,595.3],[742,595.3],[714.1,600.1],[676,602.6],[676,602.6],[675.5,595.8],[667.9,579.4],[677.4,586.6],[718,598.6],[732.8,570.5],[754.5,553.4],[749.4,544.3],[765.9,561.1],[765.9,561.1],[784.4,587.2],[824.9,588.7],[861.6,593.2],[905.4,607.3],[927.4,593.2],[929.6,572.7],[932.2,593.5],[927.9,603.3],[925.3,615.4],[894.3,636.2],[861.9,639.9],[861.9,639.9],[811.7,642.3],[790.6,641.5],[757.7,642.2],[757.7,642.2],[714.8,668.9],[693.2,670.5],[690.5,660.7],[661.8,659.7],[620,657.1],[609.7,609.6],[599.4,562.1],[599.4,562.1],[601,548.8],[575.3,536.8],[557.6,519.2],[556.3,487.9],[529,491],[494.9,495.1],[497,496.8],[509.4,507.9],[504,532.4],[511.5,552.6],[521.8,565.3],[508.2,590.8],[508.2,590.8],[566,599],[631.1,629.5],[699.8,652.4],[769.1,668.5],[769.1,668.5],[864.3,687.1],[963.7,700.4],[963.7,700.4],[1053.1,693.3],[1105.7,684.1],[1151.1,686.6],[1151.1,686.6],[1238.7,675],[1254.3,680.6],[1268.7,664.8],[1268.7,664.8],[1266.5,654.9],[1288.6,645.7],[1229.9,622.2],[1229.9,622.2],[1170.3,580.8],[1121.2,584.7],[1121.2,584.7],[1136,598.3],[1136.2,592.5],[1122.9,564.8],[1100.9,538.9],[1100.9,538.9],[1072.8,512.1],[1057.1,497.5],[1024.8,470.6],[1024.8,470.6],[1041.3,437.9],[1041.3,437.9],[1047.2,452.6],[1071.3,437.1],[1071.3,437.1],[1060.3,413.6],[1051.2,386.8],[1072.2,381.7],[1072.2,381.7],[1119.7,387.2],[1118.8,410.5],[1115.9,418.5],[1115.9,418.5],[1142.4,419.3],[1186.6,418.5],[1240.8,410.1],[1240.8,410.1],[1257.2,383.6],[1289.3,375.8],[1340.7,394.5],[1340.7,394.5],[1343.4,398.5],[1368.9,379.3],[1412.4,341.5],[1412.4,341.5],[1455.9,303.7],[1456.6,300.4],[1456.6,300.4],[1448.5,311.6],[1438.9,311.6],[1448.4,335],[1435.4,350.1],[1435.4,350.1],[1438.9,348.5],[1453.2,365.4],[1442.8,398.3],[1442.8,398.3],[1459.1,432.1],[1459.1,432.1],[1455.3,462.9],[1455.3,462.9],[1458.4,478],[1426.5,505],[1417.4,502.7],[1417.4,502.7],[1406.2,515.4],[1398.4,500.2],[1387.9,509.4],[1387.9,509.4],[1358.1,482.1],[1298.9,470],[1278.3,449.9],[1269.9,441.4],[1252.8,424.3],[1260.5,395.7],[1260.5,395.7],[1265.8,397.1],[1272.2,377.2],[1257.6,378.6],[1235.5,341.1],[1233.3,363.6],[1249,369.9],[1249,369.9],[1223.3,371.6],[1216.6,344.9],[1223.6,332.6],[1226.4,363.6],[1223.6,341.2],[1191.7,350.6],[1191.7,350.6],[1179.3,360.9],[1161.3,378.9],[1178.8,353.3],[1178.8,353.3],[1184.8,328.6],[1207.3,354.9],[1135.4,424.2],[1049.3,465],[964.6,460.4],[903.2,507.4],[871.9,528.9],[871.9,528.9],[857.6,526.1],[843.2,531.3],[746.4,573.4],[688.2,612.4],[688.2,612.4],[596.5,623.5],[607.3,622.1],[618.2,627.1],[657.2,624.1],[646.9,613.7],[618.6,604.1],[573.3,618.8],[537.9,637],[552.1,634.9],[553.4,645.9],[573.1,629.6],[571.5,611.9],[607,585.8],[651.8,588.1],[701.1,561],[756.1,541.7],[825.8,529.6],[885.2,518.9],[885.2,518.9],[940,486.5],[976.7,443.9],[1015.1,402],[1055.4,371.6],[1055.4,371.6],[1063.6,370.9],[1033.2,346.8],[1026.2,356.3],[1025.5,339.4],[1010.1,315.3],[993.3,307.4],[982.8,321.3],[983.3,334.2],[983.5,354.6],[974.7,364.8],[975,375.8],[975,375.8],[977.9,391.7],[970.8,387.8],[971.6,397.1],[972.4,406.4],[963.1,409.9],[953.8,413.4]]","[0,0.3527331528]","[0.3527331528,0.3527331528]","[-0.3527331528,-0.3527331528]","[-0.3527331528,0]","[0,-0.3527331528]","[0.3527331528,-0.3527331528]","[0,0]","[0.3527331528,0]",0,0,0,0,1,3,Tablet,11,9,9,1
,,,,,,,,,,,,,,,,,,,,38,001,2024-12-01_14h12.49.246,Attention_exp_legacy,2023.1.0,Win32,59.88023952,,,,,,,,,,[-0.021875],[0.3351851851851852],[1],[0],[0],[3.0316000000238432],"[""Option1_label""]",Option1_label,2,4.036,"[[0.04791666666666667,0.35],[0.04791666666666667,0.35],[0.04791666666666667,0.35],[0.04791666666666667,0.35],[0.04791666666666667,0.35],[0.04791666666666667,0.35],[0.04791666666666667,0.35],[0.04791666666666667,0.35],[0.04791666666666667,0.35],[0.04791666666666667,0.35],[0.04791666666666667,0.35],[0.04791666666666667,0.35],[0.04791666666666667,0.35],[0.04791666666666667,0.35],[0.04791666666666667,0.35],[0.04791666666666667,0.35],[0.04791666666666667,0.35],[0.04791666666666667,0.35],[0.04791666666666667,0.35],[0.04791666666666667,0.35],[0.04791666666666667,0.35],[0.04791666666666667,0.35],[0.04791666666666667,0.35],[0.04791666666666667,0.35],[0.04791666666666667,0.35],[0.04791666666666667,0.35],[0.04791666666666667,0.35],[0.04791666666666667,0.35],[0.04791666666666667,0.35],[0.04791666666666667,0.35],[0.04791666666666667,0.35],[0.04791666666666667,0.35],[0.04791666666666667,0.35],[0.04791666666666667,0.35],[0.04791666666666667,0.35],[0.04791666666666667,0.35],[0.04791666666666667,0.35],[0.04791666666666667,0.35],[0.04791666666666667,0.35],[0.04791666666666667,0.35],[0.04791666666666667,0.35],[0.04791666666666667,0.35],[0.04791666666666667,0.35],[0.04791666666666667,0.35],[0.04791666666666667,0.35],[0.04791666666666667,0.35185185185185186],[0.05625,0.35185185185185186],[0.0625,0.35185185185185186],[0.08020833333333334,0.35185185185185186],[0.10208333333333333,0.35185185185185186],[0.13958333333333334,0.35185185185185186],[0.16041666666666668,0.35185185185185186],[0.18229166666666666,0.35],[0.20416666666666666,0.3388888888888889],[0.22395833333333334,0.3333333333333333],[0.24583333333333332,0.32222222222222224],[0.26145833333333335,0.31296296296296294],[0.27291666666666664,0.30925925925925923],[0.28020833333333334,0.3037037037037037],[0.284375,0.30185185185185187],[0.2864583333333333,0.30185185185185187],[0.2864583333333333,0.30185185185185187],[0.2875,0.29814814814814816],[0.2875,0.29814814814814816],[0.2875,0.29814814814814816],[0.2875,0.29814814814814816],[0.2875,0.29814814814814816],[0.2875,0.29814814814814816],[0.2875,0.29814814814814816],[0.2875,0.29814814814814816],[0.2875,0.29814814814814816],[0.28854166666666664,0.29814814814814816],[0.28958333333333336,0.29814814814814816],[0.29270833333333335,0.29814814814814816],[0.29791666666666666,0.29814814814814816],[0.30625,0.29814814814814816],[0.3229166666666667,0.29814814814814816],[0.35520833333333335,0.28888888888888886],[0.37604166666666666,0.2851851851851852],[0.38958333333333334,0.2833333333333333],[0.4041666666666667,0.2777777777777778],[0.41770833333333335,0.2759259259259259],[0.4270833333333333,0.2722222222222222],[0.4354166666666667,0.27037037037037037],[0.4375,0.26851851851851855],[0.4375,0.26851851851851855],[0.4375,0.26666666666666666],[0.43854166666666666,0.26666666666666666],[0.43854166666666666,0.26666666666666666],[0.43854166666666666,0.26666666666666666],[0.43854166666666666,0.26666666666666666],[0.43854166666666666,0.26666666666666666],[0.4395833333333333,0.26851851851851855],[0.4395833333333333,0.26851851851851855],[0.4395833333333333,0.26851851851851855],[0.4395833333333333,0.26851851851851855],[0.4395833333333333,0.26851851851851855],[0.4395833333333333,0.26851851851851855],[0.4395833333333333,0.27037037037037037],[0.4395833333333333,0.27037037037037037],[0.4395833333333333,0.27037037037037037],[0.4395833333333333,0.27037037037037037],[0.4395833333333333,0.27037037037037037],[0.4395833333333333,0.27037037037037037],[0.4395833333333333,0.27037037037037037],[0.4395833333333333,0.27037037037037037],[0.4395833333333333,0.27037037037037037],[0.4395833333333333,0.27037037037037037],[0.4395833333333333,0.27037037037037037],[0.4395833333333333,0.27037037037037037],[0.4395833333333333,0.27037037037037037],[0.4395833333333333,0.27037037037037037],[0.4395833333333333,0.27037037037037037],[0.4395833333333333,0.27037037037037037],[0.4395833333333333,0.27037037037037037],[0.4395833333333333,0.27037037037037037],[0.4395833333333333,0.27037037037037037],[0.4395833333333333,0.27037037037037037],[0.4395833333333333,0.27037037037037037],[0.4395833333333333,0.27037037037037037],[0.4395833333333333,0.27037037037037037],[0.4395833333333333,0.27037037037037037],[0.4395833333333333,0.27037037037037037],[0.4395833333333333,0.27037037037037037],[0.4395833333333333,0.27037037037037037],[0.4395833333333333,0.27037037037037037],[0.4395833333333333,0.27037037037037037],[0.4395833333333333,0.27037037037037037],[0.4395833333333333,0.27037037037037037],[0.4395833333333333,0.27037037037037037],[0.4395833333333333,0.27037037037037037],[0.4395833333333333,0.27037037037037037],[0.4395833333333333,0.27037037037037037],[0.4395833333333333,0.27037037037037037],[0.4395833333333333,0.27037037037037037],[0.4395833333333333,0.27037037037037037],[0.4395833333333333,0.27037037037037037],[0.4395833333333333,0.27037037037037037],[0.4395833333333333,0.27037037037037037],[0.4395833333333333,0.27037037037037037],[0.4395833333333333,0.27037037037037037],[0.4395833333333333,0.27037037037037037],[0.4395833333333333,0.27037037037037037],[0.4395833333333333,0.27037037037037037],[0.4395833333333333,0.27037037037037037],[0.4395833333333333,0.27037037037037037],[0.4395833333333333,0.27037037037037037],[0.4395833333333333,0.27037037037037037],[0.4395833333333333,0.27037037037037037],[0.4395833333333333,0.27037037037037037],[0.4395833333333333,0.27037037037037037],[0.4395833333333333,0.27037037037037037],[0.4395833333333333,0.27037037037037037],[0.4395833333333333,0.27037037037037037],[0.4395833333333333,0.27037037037037037],[0.4395833333333333,0.27037037037037037],[0.4395833333333333,0.27037037037037037],[0.4395833333333333,0.27037037037037037],[0.4395833333333333,0.27037037037037037],[0.4395833333333333,0.27037037037037037],[0.4395833333333333,0.27037037037037037],[0.4395833333333333,0.27037037037037037],[0.4395833333333333,0.27037037037037037],[0.43645833333333334,0.26851851851851855],[0.41770833333333335,0.2611111111111111],[0.3854166666666667,0.2537037037037037],[0.3177083333333333,0.2537037037037037],[0.24479166666666666,0.2537037037037037],[0.165625,0.2537037037037037],[0.09270833333333334,0.26666666666666666],[0.04583333333333333,0.2814814814814815],[0,0.3037037037037037],[-0.010416666666666666,0.3148148148148148],[-0.01875,0.32592592592592595],[-0.019791666666666666,0.32592592592592595],[-0.020833333333333332,0.3314814814814815],[-0.021875,0.3333333333333333],[-0.021875,0.3333333333333333],[-0.021875,0.3333333333333333],[-0.021875,0.3351851851851852],[-0.021875,0.3351851851851852],[-0.021875,0.3351851851851852],[-0.021875,0.3351851851851852],[-0.021875,0.3351851851851852],[-0.021875,0.3351851851851852],[-0.021875,0.3351851851851852],[-0.021875,0.3351851851851852],[-0.021875,0.3351851851851852],[-0.021875,0.3351851851851852],[-0.021875,0.3351851851851852],[-0.021875,0.3351851851851852],[-0.021875,0.3351851851851852],[-0.021875,0.3351851851851852],[-0.021875,0.3351851851851852],[-0.021875,0.3351851851851852],[-0.021875,0.3351851851851852],[-0.021875,0.3351851851851852],[-0.021875,0.3351851851851852],[-0.021875,0.3351851851851852],[-0.021875,0.3351851851851852],[-0.021875,0.3351851851851852],[-0.021875,0.3351851851851852],[-0.021875,0.3351851851851852],[-0.021875,0.3351851851851852],[-0.021875,0.3351851851851852],[-0.021875,0.3351851851851852],[-0.021875,0.3351851851851852],[-0.021875,0.3351851851851852],[-0.021875,0.3351851851851852],[-0.021875,0.3351851851851852],[-0.021875,0.3351851851851852],[-0.021875,0.3351851851851852],[-0.021875,0.3351851851851852],[-0.021875,0.3351851851851852],[-0.021875,0.3351851851851852],[-0.021875,0.3351851851851852],[-0.021875,0.3351851851851852],[-0.021875,0.3351851851851852],[-0.021875,0.3351851851851852],[-0.021875,0.3351851851851852],[-0.021875,0.3351851851851852],[-0.021875,0.3351851851851852],[-0.021875,0.3351851851851852],[-0.021875,0.3351851851851852],[-0.021875,0.3351851851851852],[-0.021875,0.3351851851851852],[-0.021875,0.3351851851851852],[-0.021875,0.3351851851851852],[-0.021875,0.3351851851851852],[-0.021875,0.3351851851851852],[-0.021875,0.3351851851851852],[-0.021875,0.3351851851851852],[-0.021875,0.3351851851851852],[-0.021875,0.3351851851851852],[-0.021875,0.3351851851851852],[-0.021875,0.3351851851851852],[-0.021875,0.3351851851851852],[-0.021875,0.3351851851851852],[-0.021875,0.3351851851851852],[-0.021875,0.3351851851851852],[-0.021875,0.3351851851851852],[-0.021875,0.3351851851851852],[-0.021875,0.3351851851851852]]","[[0.11541666666666663,0.072037037037037],[0.12979166666666658,0.06611111111111119],[0.13916666666666658,0.028888888888888933],[0.11010416666666671,-0.012037037037037037],[0.10697916666666671,-0.004444444444444402],[0.11364583333333324,-0.03592592592592588],[0.11947916666666672,-0.06296296296296296],[0.11947916666666672,-0.06296296296296296],[0.13031249999999991,-0.02296296296296292],[0.1259375000000001,-0.0025925925925925505],[0.12385416666666677,-0.0005555555555554713],[0.11614583333333334,-0.0003703703703704546],[0.11614583333333334,-0.0003703703703704546],[0.10541666666666671,-0.020740740740740823],[0.09739583333333333,-0.007037037037036953],[0.09739583333333333,-0.007037037037036953],[0.11010416666666671,-0.016666666666666666],[0.1326041666666666,0.008333333333333333],[0.13312499999999997,0.007592592592592635],[0.12854166666666675,0.020740740740740823],[0.12687499999999996,0.03481481481481473],[0.1466666666666666,-0.025925925925925925],[0.14510416666666662,-0.04796296296296292],[0.14489583333333325,-0.11055555555555553],[0.14947916666666666,-0.205],[0.12322916666666663,-0.26796296296296296],[0.11635416666666672,-0.29981481481481476],[0.11635416666666672,-0.29981481481481476],[0.09427083333333333,-0.36259259259259263],[0.08260416666666662,-0.4148148148148148],[0.07427083333333329,-0.4662962962962963],[0.07427083333333329,-0.4662962962962963],[0.08677083333333328,-0.4987037037037037],[0.041770833333333354,-0.42611111111111116],[-0.0037500000000000237,-0.3827777777777778],[-0.0037500000000000237,-0.3827777777777778],[-0.050625000000000024,-0.29888888888888887],[-0.09916666666666671,-0.23111111111111113],[-0.12250000000000003,-0.152962962962963],[-0.12250000000000003,-0.152962962962963],[-0.14624999999999996,-0.048333333333333374],[-0.18020833333333333,0.004259259259259175],[-0.24093749999999994,0.04685185185185177],[-0.2648958333333333,0.1],[-0.2648958333333333,0.1],[-0.3025,0.11518518518518527],[-0.28875000000000006,0.08648148148148156],[-0.28875000000000006,0.08648148148148156],[-0.23843749999999997,0.015555555555555513],[-0.1983333333333333,-0.012777777777777735],[-0.16291666666666665,-0.062037037037037036],[-0.1297916666666667,-0.09574074074074072],[-0.1297916666666667,-0.09574074074074072],[-0.0811458333333333,-0.16629629629629633],[-0.0811458333333333,-0.16629629629629633],[-0.020833333333333332,-0.19981481481481478],[0.06354166666666666,-0.21666666666666667],[0.06354166666666666,-0.21666666666666667],[0.10760416666666663,-0.20055555555555557],[0.13697916666666668,-0.18722222222222226],[0.18125,-0.2368518518518518],[0.18125,-0.2368518518518518],[0.19281249999999991,-0.2235185185185185],[0.20260416666666667,-0.2103703703703704],[0.2091666666666666,-0.16314814814814818],[0.21593749999999995,-0.1492592592592593],[0.23052083333333329,-0.127962962962963],[0.23187499999999991,-0.1301851851851852],[0.23187499999999991,-0.1301851851851852],[0.22729166666666673,-0.1257407407407407],[0.23791666666666675,-0.19037037037037038],[0.26708333333333345,-0.21666666666666667],[0.26708333333333345,-0.21666666666666667],[0.27708333333333335,-0.207962962962963],[0.2789583333333333,-0.20555555555555555],[0.30614583333333345,-0.2479629629629629],[0.30614583333333345,-0.2479629629629629],[0.31270833333333337,-0.32759259259259255],[0.32750000000000007,-0.3477777777777778],[0.3311458333333334,-0.3544444444444444],[0.3311458333333334,-0.3544444444444444],[0.3554166666666667,-0.37833333333333335],[0.37000000000000005,-0.42907407407407405],[0.37739583333333326,-0.42981481481481487],[0.37739583333333326,-0.42981481481481487],[0.39343750000000005,-0.41444444444444445],[0.3931250000000001,-0.415925925925926],[0.40260416666666665,-0.42018518518518516],[0.40260416666666665,-0.42018518518518516],[0.38562500000000005,-0.41574074074074074],[0.4,-0.37407407407407406],[0.4240624999999999,-0.3827777777777778],[0.4357291666666666,-0.36370370370370364],[0.4357291666666666,-0.36370370370370364],[0.4379166666666668,-0.22851851851851848],[0.4354166666666667,-0.004074074074074159],[0.44291666666666674,0.16796296296296304],[0.43479166666666674,0.3007407407407407],[0.4712500000000001,0.48203703703703693],[0.4712500000000001,0.48203703703703693],[0.48250000000000004,0.5094444444444445],[0.47322916666666665,0.5885185185185184],[0.43635416666666677,0.6577777777777779],[0.39718749999999997,0.692962962962963],[0.35656249999999995,0.6987037037037036],[0.35656249999999995,0.6987037037037036],[0.32020833333333343,0.6577777777777779],[0.29968750000000005,0.5492592592592593],[0.29968750000000005,0.5492592592592593],[0.2747916666666666,0.4794444444444444],[0.24375,0.40777777777777785],[0.19406249999999994,0.33666666666666656],[0.1772916666666667,0.39944444444444455],[0.1772916666666667,0.39944444444444455],[0.17072916666666677,0.425],[0.17197916666666657,0.42166666666666675],[0.15968749999999995,0.46111111111111114],[0.15968749999999995,0.46111111111111114],[0.159375,0.4631481481481482],[0.159375,0.4631481481481482],[0.18635416666666677,0.475],[0.22531249999999994,0.4448148148148149],[0.2517708333333334,0.37296296296296294],[0.2764583333333334,0.32388888888888884],[0.29500000000000004,0.2788888888888889],[0.29500000000000004,0.2788888888888889],[0.3077083333333334,0.2390740740740741],[0.32927083333333323,0.20333333333333325],[0.32927083333333323,0.20333333333333325],[0.3640625,0.1427777777777778],[0.3818749999999999,0.11833333333333329],[0.3881249999999999,0.11833333333333329],[0.3790625000000001,0.10444444444444441],[0.35656249999999995,0.13777777777777775],[0.3390625,0.18296296296296288],[0.3234375,0.21444444444444435],[0.30625,0.2338888888888888],[0.30625,0.2338888888888888],[0.2990624999999999,0.22611111111111115],[0.32312500000000005,0.19759259259259268],[0.3382291666666667,0.244074074074074],[0.3445833333333333,0.2598148148148147],[0.35791666666666655,0.2507407407407407],[0.35791666666666655,0.2507407407407407],[0.3477083333333333,0.2162962962962962],[0.3419791666666666,0.18722222222222226],[0.3545833333333334,0.14462962962962966],[0.3607291666666666,0.12962962962962962],[0.36697916666666663,0.11500000000000005],[0.35010416666666655,0.14981481481481476],[0.34489583333333323,0.20500000000000007],[0.3444791666666667,0.24870370370370362],[0.36958333333333326,0.2742592592592593],[0.39187500000000003,0.337037037037037],[0.39812500000000006,0.3737037037037036],[0.4235416666666666,0.43185185185185193],[0.4257291666666667,0.515925925925926],[0.43427083333333344,0.5633333333333335],[0.43427083333333344,0.5633333333333335],[0.4428124999999999,0.6107407407407407],[0.44989583333333344,0.6300000000000001],[0.4319791666666667,0.6170370370370372],[0.4319791666666667,0.6170370370370372],[0.4428124999999999,0.5822222222222222],[0.4118750000000001,0.522962962962963],[0.38947916666666677,0.4353703703703704],[0.38947916666666677,0.4353703703703704],[0.39645833333333325,0.3859259259259259],[0.36989583333333326,0.3592592592592593],[0.3506249999999999,0.30462962962962964],[0.3154166666666666,0.23666666666666658],[0.29145833333333326,0.2081481481481481],[0.29145833333333326,0.2081481481481481],[0.26500000000000007,0.11481481481481481],[0.26500000000000007,0.11481481481481481],[0.23114583333333344,0.0507407407407407],[0.1570833333333333,-0.013518518518518435],[0.13354166666666673,-0.05240740740740743],[0.09812500000000005,-0.030000000000000086],[0.07666666666666658,0.0005555555555554713],[0.03947916666666664,-0.08407407407407404],[0.013854166666666619,-0.11703703703703702],[0.013854166666666619,-0.11703703703703702],[-0.009791666666666643,-0.1727777777777778],[-0.035312499999999976,-0.257962962962963],[-0.04072916666666669,-0.275],[-0.04208333333333331,-0.31351851851851853],[-0.041666666666666664,-0.3237037037037037],[-0.04354166666666662,-0.3292592592592593],[-0.04354166666666662,-0.3292592592592593],[-0.04822916666666662,-0.3883333333333333],[-0.0625,-0.48222222222222216],[-0.06312500000000003,-0.4624074074074074],[-0.051874999999999956,-0.46055555555555555],[-0.02010416666666662,-0.44222222222222224],[-0.02010416666666662,-0.44222222222222224],[0.004479166666666619,-0.46351851851851855],[0.016145833333333335,-0.47851851851851845],[0.02958333333333331,-0.492037037037037],[0.05270833333333336,-0.5118518518518518],[0.06958333333333329,-0.47611111111111115],[0.08802083333333334,-0.4324074074074074],[0.051770833333333384,-0.37333333333333335],[0.051770833333333384,-0.37333333333333335],[0.05145833333333331,-0.3557407407407408],[-0.016770833333333356,-0.3235185185185185],[-0.09156249999999998,-0.27166666666666667],[-0.09156249999999998,-0.27166666666666667],[-0.14416666666666664,-0.22462962962962965],[-0.1953125,-0.15407407407407406],[-0.2482291666666666,-0.08499999999999996],[-0.2482291666666666,-0.08499999999999996],[-0.3016666666666667,-0.027037037037037078],[-0.36833333333333335,-0.03833333333333342],[-0.4345833333333334,-0.04944444444444453],[-0.4345833333333334,-0.04944444444444453],[-0.4538541666666667,-0.05407407407407405],[-0.463125,-0.037037037037037035],[-0.43854166666666666,-0.04203703703703712],[-0.43854166666666666,-0.04203703703703712],[-0.39093749999999994,-0.07666666666666662],[-0.3807291666666667,-0.04796296296296292],[-0.36208333333333337,-0.046481481481481526],[-0.36208333333333337,-0.046481481481481526],[-0.3242708333333333,-0.06259259259259262],[-0.2826041666666666,-0.060555555555555536],[-0.22270833333333329,-0.056851851851851834],[-0.16281249999999994,-0.053148148148148125],[-0.10645833333333338,-0.04277777777777782],[-0.08406250000000005,-0.06074074074074076],[-0.05343749999999995,-0.08944444444444447],[-0.059895833333333336,-0.06333333333333331],[-0.059895833333333336,-0.06333333333333331],[-0.04479166666666667,-0.06851851851851852],[-0.03447916666666669,-0.06629629629629631],[-0.03458333333333338,-0.08148148148148149],[-0.03802083333333333,-0.1037037037037037],[-0.06916666666666664,-0.07574074074074069],[-0.10572916666666667,-0.05648148148148148],[-0.10802083333333339,-0.05407407407407405],[-0.11020833333333328,-0.0514814814814814],[-0.10770833333333331,-0.0257407407407407],[-0.09489583333333336,-0.04000000000000004]]","[[0.11541666666666663,0.072037037037037,0.00020000004767695145],[0.12979166666666658,0.06611111111111119,0.018200000047677634],[0.13916666666666658,0.028888888888888933,0.03599999999999426],[0.11010416666666671,-0.012037037037037037,0.050499999999999545],[0.10697916666666671,-0.004444444444444402,0.06580000001191877],[0.11364583333333324,-0.03592592592592588,0.08280000001191468],[0.11947916666666672,-0.06296296296296296,0.09910000002383867],[0.11947916666666672,-0.06296296296296296,0.11590000003575796],[0.13031249999999991,-0.02296296296296292,0.13240000003575858],[0.1259375000000001,-0.0025925925925925505,0.15030000001191723],[0.12385416666666677,-0.0005555555555554713,0.1664000000357575],[0.11614583333333334,-0.0003703703703704546,0.18530000001192093],[0.11614583333333334,-0.0003703703703704546,0.19920000004768212],[0.10541666666666671,-0.020740740740740823,0.21590000003575938],[0.09739583333333333,-0.007037037037036953,0.232999999999997],[0.09739583333333333,-0.007037037037036953,0.24920000004767928],[0.11010416666666671,-0.016666666666666666,0.26590000003575653],[0.1326041666666666,0.008333333333333333,0.285600000023841],[0.13312499999999997,0.007592592592592635,0.30220000004768366],[0.12854166666666675,0.020740740740740823,0.3182000000476819],[0.12687499999999996,0.03481481481481473,0.3324000000357614],[0.1466666666666666,-0.025925925925925925,0.34940000003575733],[0.14510416666666662,-0.04796296296296292,0.36570000004768133],[0.14489583333333325,-0.11055555555555553,0.3859999999999957],[0.14947916666666666,-0.205,0.4001000000238406],[0.12322916666666663,-0.26796296296296296,0.41680000001191786],[0.11635416666666672,-0.29981481481481476,0.43240000003575574],[0.11635416666666672,-0.29981481481481476,0.4493000000119167],[0.09427083333333333,-0.36259259259259263,0.4659000000357594],[0.08260416666666662,-0.4148148148148148,0.4864999999999995],[0.07427083333333329,-0.4662962962962963,0.502300000011914],[0.07427083333333329,-0.4662962962962963,0.5159000000357565],[0.08677083333333328,-0.4987037037037037,0.5324999999999989],[0.041770833333333354,-0.42611111111111116,0.5504000000357578],[-0.0037500000000000237,-0.3827777777777778,0.5659000000357608],[-0.0037500000000000237,-0.3827777777777778,0.582499999999996],[-0.050625000000000024,-0.29888888888888887,0.5992000000476807],[-0.09916666666666671,-0.23111111111111113,0.6199000000357557],[-0.12250000000000003,-0.152962962962963,0.6356000000238353],[-0.12250000000000003,-0.152962962962963,0.6493000000119196],[-0.14624999999999996,-0.048333333333333374,0.6658000000119202],[-0.18020833333333333,0.004259259259259175,0.6849000000357606],[-0.24093749999999994,0.04685185185185177,0.6994000000357588],[-0.2648958333333333,0.1,0.721600000023841],[-0.2648958333333333,0.1,0.7324999999999946],[-0.3025,0.11518518518518527,0.7534999999999954],[-0.28875000000000006,0.08648148148148156,0.7709000000357591],[-0.28875000000000006,0.08648148148148156,0.7829999999999941],[-0.23843749999999997,0.015555555555555513,0.7992000000476835],[-0.1983333333333333,-0.012777777777777735,0.8194000000357562],[-0.16291666666666665,-0.062037037037037036,0.8364000000357592],[-0.1297916666666667,-0.09574074074074072,0.8564000000357623],[-0.1297916666666667,-0.09574074074074072,0.8769999999999953],[-0.0811458333333333,-0.16629629629629633,0.8864000000357564],[-0.0811458333333333,-0.16629629629629633,0.8994000000357616],[-0.020833333333333332,-0.19981481481481478,0.9163000000119155],[0.06354166666666666,-0.21666666666666667,0.9397000000476794],[0.06354166666666666,-0.21666666666666667,0.9492000000476821],[0.10760416666666663,-0.20055555555555557,0.966200000047678],[0.13697916666666668,-0.18722222222222226,0.9867000000476835],[0.18125,-0.2368518518518518,1.0074000000357586],[0.18125,-0.2368518518518518,1.0161000000238403],[0.19281249999999991,-0.2235185185185185,1.032700000047683],[0.20260416666666667,-0.2103703703703704,1.0492000000476835],[0.2091666666666666,-0.16314814814814818,1.070999999999998],[0.21593749999999995,-0.1492592592592593,1.0869999999999962],[0.23052083333333329,-0.127962962962963,1.1037000000476809],[0.23187499999999991,-0.1301851851851852,1.1194000000357605],[0.23187499999999991,-0.1301851851851852,1.1324000000357586],[0.22729166666666673,-0.1257407407407407,1.1494000000357616],[0.23791666666666675,-0.19037037037037038,1.1658000000119202],[0.26708333333333345,-0.21666666666666667,1.189900000035756],[0.26708333333333345,-0.21666666666666667,1.1993000000119167],[0.27708333333333335,-0.207962962962963,1.215999999999994],[0.2789583333333333,-0.20555555555555555,1.2326000000238366],[0.30614583333333345,-0.2479629629629629,1.2534000000357608],[0.30614583333333345,-0.2479629629629629,1.2659000000357565],[0.31270833333333337,-0.32759259259259255,1.2828000000119175],[0.32750000000000007,-0.3477777777777778,1.3049999999999997],[0.3311458333333334,-0.3544444444444444,1.320300000011919],[0.3311458333333334,-0.3544444444444444,1.332499999999996],[0.3554166666666667,-0.37833333333333335,1.3494000000357573],[0.37000000000000005,-0.42907407407407405,1.3714000000357558],[0.37739583333333326,-0.42981481481481487,1.38660000002384],[0.37739583333333326,-0.42981481481481487,1.3994000000357616],[0.39343750000000005,-0.41444444444444445,1.4158000000119202],[0.3931250000000001,-0.415925925925926,1.4364999999999952],[0.40260416666666665,-0.42018518518518516,1.4527000000476775],[0.40260416666666665,-0.42018518518518516,1.4658000000119173],[0.38562500000000005,-0.41574074074074074,1.4826000000238366],[0.4,-0.37407407407407406,1.4991000000238373],[0.4240624999999999,-0.3827777777777778,1.5159000000357565],[0.4357291666666666,-0.36370370370370364,1.5388000000119177],[0.4357291666666666,-0.36370370370370364,1.5492000000476835],[0.4379166666666668,-0.22851851851851848,1.5659999999999954],[0.4354166666666667,-0.004074074074074159,1.5853000000119195],[0.44291666666666674,0.16796296296296304,1.6036000000238388],[0.43479166666666674,0.3007407407407407,1.620300000011916],[0.4712500000000001,0.48203703703703693,1.6403000000119192],[0.4712500000000001,0.48203703703703693,1.6494000000357616],[0.48250000000000004,0.5094444444444445,1.6659000000357622],[0.47322916666666665,0.5885185185185184,1.6872000000476817],[0.43635416666666677,0.6577777777777779,1.70320000004768],[0.39718749999999997,0.692962962962963,1.7194000000357619],[0.35656249999999995,0.6987037037037036,1.7379999999999995],[0.35656249999999995,0.6987037037037036,1.7492000000476793],[0.32020833333333343,0.6577777777777779,1.7659999999999982],[0.29968750000000005,0.5492592592592593,1.7876000000238363],[0.29968750000000005,0.5492592592592593,1.8036000000238417],[0.2747916666666666,0.4794444444444444,1.8158000000119188],[0.24375,0.40777777777777785,1.8324000000357614],[0.19406249999999994,0.33666666666666656,1.8493000000119153],[0.1772916666666667,0.39944444444444455,1.8731000000238396],[0.1772916666666667,0.39944444444444455,1.8826000000238352],[0.17072916666666677,0.425,1.8992000000476779],[0.17197916666666657,0.42166666666666675,1.9159999999999968],[0.15968749999999995,0.46111111111111114,1.9324000000357557],[0.15968749999999995,0.46111111111111114,1.9492000000476821],[0.159375,0.4631481481481482,1.9658000000119173],[0.159375,0.4631481481481482,1.9824999999999946],[0.18635416666666677,0.475,1.9992000000476793],[0.22531249999999994,0.4448148148148149,2.0164999999999935],[0.2517708333333334,0.37296296296296294,2.0347000000476783],[0.2764583333333334,0.32388888888888884,2.0524000000357603],[0.29500000000000004,0.2788888888888889,2.0709000000357562],[0.29500000000000004,0.2788888888888889,2.08270000004768],[0.3077083333333334,0.2390740740740741,2.0993000000119153],[0.32927083333333323,0.20333333333333325,2.115900000035758],[0.32927083333333323,0.20333333333333325,2.1324000000357586],[0.3640625,0.1427777777777778,2.149100000023836],[0.3818749999999999,0.11833333333333329,2.165900000035762],[0.3881249999999999,0.11833333333333329,2.184400000035758],[0.3790625000000001,0.10444444444444441,2.19910000002384],[0.35656249999999995,0.13777777777777775,2.2158000000119173],[0.3390625,0.18296296296296288,2.2324999999999946],[0.3234375,0.21444444444444435,2.2524999999999977],[0.30625,0.2338888888888888,2.269400000035759],[0.30625,0.2338888888888888,2.283100000023836],[0.2990624999999999,0.22611111111111115,2.2991000000238415],[0.32312500000000005,0.19759259259259268,2.3158000000119188],[0.3382291666666667,0.244074074074074,2.335499999999996],[0.3445833333333333,0.2598148148148147,2.35330000001192],[0.35791666666666655,0.2507407407407407,2.371100000023837],[0.35791666666666655,0.2507407407407407,2.382499999999993],[0.3477083333333333,0.2162962962962962,2.399100000023836],[0.3419791666666666,0.18722222222222226,2.415900000035762],[0.3545833333333334,0.14462962962962966,2.433700000047679],[0.3607291666666666,0.12962962962962962,2.4493000000119167],[0.36697916666666663,0.11500000000000005,2.4658000000119173],[0.35010416666666655,0.14981481481481476,2.485999999999997],[0.34489583333333323,0.20500000000000007,2.5019999999999953],[0.3444791666666667,0.24870370370370362,2.5159999999999982],[0.36958333333333326,0.2742592592592593,2.532400000035757],[0.39187500000000003,0.337037037037037,2.549300000011918],[0.39812500000000006,0.3737037037037036,2.568200000047682],[0.4235416666666666,0.43185185185185193,2.582499999999996],[0.4257291666666667,0.515925925925926,2.5994000000357573],[0.43427083333333344,0.5633333333333335,2.615900000035758],[0.43427083333333344,0.5633333333333335,2.6324000000357586],[0.4428124999999999,0.6107407407407407,2.649200000047678],[0.44989583333333344,0.6300000000000001,2.66580000001192],[0.4319791666666667,0.6170370370370372,2.684400000035758],[0.4319791666666667,0.6170370370370372,2.69910000002384],[0.4428124999999999,0.5822222222222222,2.7197000000476805],[0.4118750000000001,0.522962962962963,2.7359000000357625],[0.38947916666666677,0.4353703703703704,2.7521000000238374],[0.38947916666666677,0.4353703703703704,2.7659999999999982],[0.39645833333333325,0.3859259259259259,2.7861000000238363],[0.36989583333333326,0.3592592592592593,2.7994999999999948],[0.3506249999999999,0.30462962962962964,2.8159999999999954],[0.3154166666666666,0.23666666666666658,2.8368000000119196],[0.29145833333333326,0.2081481481481481,2.8539000000357575],[0.29145833333333326,0.2081481481481481,2.8659999999999997],[0.26500000000000007,0.11481481481481481,2.8829999999999956],[0.26500000000000007,0.11481481481481481,2.9049000000357594],[0.23114583333333344,0.0507407407407407,2.916100000023839],[0.1570833333333333,-0.013518518518518435,2.9324999999999974],[0.13354166666666673,-0.05240740740740743,2.948999999999998],[0.09812500000000005,-0.030000000000000086,2.965999999999994],[0.07666666666666658,0.0005555555555554713,2.987200000047679],[0.03947916666666664,-0.08407407407407404,3.0022000000476794],[0.013854166666666619,-0.11703703703703702,3.0194999999999936],[0.013854166666666619,-0.11703703703703702,3.0328000000119175],[-0.009791666666666643,-0.1727777777777778,3.0492000000476835],[-0.035312499999999976,-0.257962962962963,3.0692000000476796],[-0.04072916666666669,-0.275,3.086499999999994],[-0.04208333333333331,-0.31351851851851853,3.1039000000357575],[-0.041666666666666664,-0.3237037037037037,3.119600000023837],[-0.04354166666666662,-0.3292592592592593,3.1357000000476773],[-0.04354166666666662,-0.3292592592592593,3.149499999999996],[-0.04822916666666662,-0.3883333333333333,3.165900000035762],[-0.0625,-0.48222222222222216,3.186800000011914],[-0.06312500000000003,-0.4624074074074074,3.2034000000357565],[-0.051874999999999956,-0.46055555555555555,3.220499999999994],[-0.02010416666666662,-0.44222222222222224,3.237600000023839],[-0.02010416666666662,-0.44222222222222224,3.2492000000476793],[0.004479166666666619,-0.46351851851851855,3.2659000000357565],[0.016145833333333335,-0.47851851851851845,3.2849999999999966],[0.02958333333333331,-0.492037037037037,3.3028000000119206],[0.05270833333333336,-0.5118518518518518,3.319700000047682],[0.06958333333333329,-0.47611111111111115,3.333400000035759],[0.08802083333333334,-0.4324074074074074,3.350999999999999],[0.051770833333333384,-0.37333333333333335,3.370600000023842],[0.051770833333333384,-0.37333333333333335,3.3824000000357586],[0.05145833333333331,-0.3557407407407408,3.399200000047678],[-0.016770833333333356,-0.3235185185185185,3.415999999999997],[-0.09156249999999998,-0.27166666666666667,3.4324999999999974],[-0.09156249999999998,-0.27166666666666667,3.449200000047682],[-0.14416666666666664,-0.22462962962962965,3.4658000000119173],[-0.1953125,-0.15407407407407406,3.4836000000238414],[-0.2482291666666666,-0.08499999999999996,3.4989999999999952],[-0.2482291666666666,-0.08499999999999996,3.5159000000357565],[-0.3016666666666667,-0.027037037037037078,3.532400000035757],[-0.36833333333333335,-0.03833333333333342,3.5498000000119205],[-0.4345833333333334,-0.04944444444444453,3.565900000035761],[-0.4345833333333334,-0.04944444444444453,3.582499999999996],[-0.4538541666666667,-0.05407407407407405,3.5991000000238387],[-0.463125,-0.037037037037037035,3.615900000035758],[-0.43854166666666666,-0.04203703703703712,3.6359999999999957],[-0.43854166666666666,-0.04203703703703712,3.651300000011915],[-0.39093749999999994,-0.07666666666666662,3.66580000001192],[-0.3807291666666667,-0.04796296296296292,3.6824999999999974],[-0.36208333333333337,-0.046481481481481526,3.698999999999998],[-0.36208333333333337,-0.046481481481481526,3.7159000000357594],[-0.3242708333333333,-0.06259259259259262,3.73240000003576],[-0.2826041666666666,-0.060555555555555536,3.7489999999999952],[-0.22270833333333329,-0.056851851851851834,3.7659000000357565],[-0.16281249999999994,-0.053148148148148125,3.786400000035762],[-0.10645833333333338,-0.04277777777777782,3.800300000011916],[-0.08406250000000005,-0.06074074074074076,3.815700000047677],[-0.05343749999999995,-0.08944444444444447,3.8324000000357614],[-0.059895833333333336,-0.06333333333333331,3.85330000001192],[-0.059895833333333336,-0.06333333333333331,3.865800000011916],[-0.04479166666666667,-0.06851851851851852,3.8827000000476772],[-0.03447916666666669,-0.06629629629629631,3.901400000035757],[-0.03458333333333338,-0.08148148148148149,3.916100000023839],[-0.03802083333333333,-0.1037037037037037,3.9324000000357557],[-0.06916666666666664,-0.07574074074074069,3.94910000002384],[-0.10572916666666667,-0.05648148148148148,3.9664000000357618],[-0.10802083333333339,-0.05407407407407405,3.9858000000119205],[-0.11020833333333328,-0.0514814814814814,4.001700000047677],[-0.10770833333333331,-0.0257407407407407,4.017700000047682],[-0.09489583333333336,-0.04000000000000004,4.035999999999994]]","[0.00020000004767695145,0.018200000047677634,0.03599999999999426,0.050499999999999545,0.06580000001191877,0.08280000001191468,0.09910000002383867,0.11590000003575796,0.13240000003575858,0.15030000001191723,0.1664000000357575,0.18530000001192093,0.19920000004768212,0.21590000003575938,0.232999999999997,0.24920000004767928,0.26590000003575653,0.285600000023841,0.30220000004768366,0.3182000000476819,0.3324000000357614,0.34940000003575733,0.36570000004768133,0.3859999999999957,0.4001000000238406,0.41680000001191786,0.43240000003575574,0.4493000000119167,0.4659000000357594,0.4864999999999995,0.502300000011914,0.5159000000357565,0.5324999999999989,0.5504000000357578,0.5659000000357608,0.582499999999996,0.5992000000476807,0.6199000000357557,0.6356000000238353,0.6493000000119196,0.6658000000119202,0.6849000000357606,0.6994000000357588,0.721600000023841,0.7324999999999946,0.7534999999999954,0.7709000000357591,0.7829999999999941,0.7992000000476835,0.8194000000357562,0.8364000000357592,0.8564000000357623,0.8769999999999953,0.8864000000357564,0.8994000000357616,0.9163000000119155,0.9397000000476794,0.9492000000476821,0.966200000047678,0.9867000000476835,1.0074000000357586,1.0161000000238403,1.032700000047683,1.0492000000476835,1.070999999999998,1.0869999999999962,1.1037000000476809,1.1194000000357605,1.1324000000357586,1.1494000000357616,1.1658000000119202,1.189900000035756,1.1993000000119167,1.215999999999994,1.2326000000238366,1.2534000000357608,1.2659000000357565,1.2828000000119175,1.3049999999999997,1.320300000011919,1.332499999999996,1.3494000000357573,1.3714000000357558,1.38660000002384,1.3994000000357616,1.4158000000119202,1.4364999999999952,1.4527000000476775,1.4658000000119173,1.4826000000238366,1.4991000000238373,1.5159000000357565,1.5388000000119177,1.5492000000476835,1.5659999999999954,1.5853000000119195,1.6036000000238388,1.620300000011916,1.6403000000119192,1.6494000000357616,1.6659000000357622,1.6872000000476817,1.70320000004768,1.7194000000357619,1.7379999999999995,1.7492000000476793,1.7659999999999982,1.7876000000238363,1.8036000000238417,1.8158000000119188,1.8324000000357614,1.8493000000119153,1.8731000000238396,1.8826000000238352,1.8992000000476779,1.9159999999999968,1.9324000000357557,1.9492000000476821,1.9658000000119173,1.9824999999999946,1.9992000000476793,2.0164999999999935,2.0347000000476783,2.0524000000357603,2.0709000000357562,2.08270000004768,2.0993000000119153,2.115900000035758,2.1324000000357586,2.149100000023836,2.165900000035762,2.184400000035758,2.19910000002384,2.2158000000119173,2.2324999999999946,2.2524999999999977,2.269400000035759,2.283100000023836,2.2991000000238415,2.3158000000119188,2.335499999999996,2.35330000001192,2.371100000023837,2.382499999999993,2.399100000023836,2.415900000035762,2.433700000047679,2.4493000000119167,2.4658000000119173,2.485999999999997,2.5019999999999953,2.5159999999999982,2.532400000035757,2.549300000011918,2.568200000047682,2.582499999999996,2.5994000000357573,2.615900000035758,2.6324000000357586,2.649200000047678,2.66580000001192,2.684400000035758,2.69910000002384,2.7197000000476805,2.7359000000357625,2.7521000000238374,2.7659999999999982,2.7861000000238363,2.7994999999999948,2.8159999999999954,2.8368000000119196,2.8539000000357575,2.8659999999999997,2.8829999999999956,2.9049000000357594,2.916100000023839,2.9324999999999974,2.948999999999998,2.965999999999994,2.987200000047679,3.0022000000476794,3.0194999999999936,3.0328000000119175,3.0492000000476835,3.0692000000476796,3.086499999999994,3.1039000000357575,3.119600000023837,3.1357000000476773,3.149499999999996,3.165900000035762,3.186800000011914,3.2034000000357565,3.220499999999994,3.237600000023839,3.2492000000476793,3.2659000000357565,3.2849999999999966,3.3028000000119206,3.319700000047682,3.333400000035759,3.350999999999999,3.370600000023842,3.3824000000357586,3.399200000047678,3.415999999999997,3.4324999999999974,3.449200000047682,3.4658000000119173,3.4836000000238414,3.4989999999999952,3.5159000000357565,3.532400000035757,3.5498000000119205,3.565900000035761,3.582499999999996,3.5991000000238387,3.615900000035758,3.6359999999999957,3.651300000011915,3.66580000001192,3.6824999999999974,3.698999999999998,3.7159000000357594,3.73240000003576,3.7489999999999952,3.7659000000357565,3.786400000035762,3.800300000011916,3.815700000047677,3.8324000000357614,3.85330000001192,3.865800000011916,3.8827000000476772,3.901400000035757,3.916100000023839,3.9324000000357557,3.94910000002384,3.9664000000357618,3.9858000000119205,4.001700000047677,4.017700000047682,4.035999999999994]","[1733033617383,1733033617400,1733033617418,1733033617432,1733033617448,1733033617465,1733033617481,1733033617498,1733033617514,1733033617532,1733033617548,1733033617567,1733033617581,1733033617598,1733033617615,1733033617631,1733033617648,1733033617668,1733033617684,1733033617700,1733033617714,1733033617731,1733033617748,1733033617768,1733033617782,1733033617799,1733033617814,1733033617831,1733033617848,1733033617868,1733033617884,1733033617898,1733033617914,1733033617932,1733033617948,1733033617964,1733033617981,1733033618002,1733033618017,1733033618031,1733033618048,1733033618067,1733033618081,1733033618104,1733033618114,1733033618135,1733033618153,1733033618165,1733033618181,1733033618201,1733033618218,1733033618238,1733033618259,1733033618268,1733033618281,1733033618298,1733033618322,1733033618331,1733033618348,1733033618369,1733033618389,1733033618398,1733033618415,1733033618431,1733033618453,1733033618469,1733033618486,1733033618501,1733033618514,1733033618531,1733033618548,1733033618572,1733033618581,1733033618598,1733033618615,1733033618635,1733033618648,1733033618665,1733033618687,1733033618702,1733033618714,1733033618731,1733033618753,1733033618769,1733033618781,1733033618798,1733033618818,1733033618835,1733033618848,1733033618864,1733033618881,1733033618898,1733033618921,1733033618931,1733033618948,1733033618967,1733033618986,1733033619002,1733033619022,1733033619031,1733033619048,1733033619069,1733033619085,1733033619101,1733033619120,1733033619131,1733033619148,1733033619170,1733033619186,1733033619198,1733033619214,1733033619231,1733033619255,1733033619265,1733033619281,1733033619298,1733033619314,1733033619331,1733033619348,1733033619365,1733033619381,1733033619398,1733033619417,1733033619434,1733033619453,1733033619465,1733033619481,1733033619498,1733033619514,1733033619531,1733033619548,1733033619566,1733033619581,1733033619598,1733033619614,1733033619634,1733033619651,1733033619665,1733033619681,1733033619698,1733033619718,1733033619735,1733033619753,1733033619764,1733033619781,1733033619798,1733033619816,1733033619831,1733033619848,1733033619868,1733033619884,1733033619898,1733033619914,1733033619931,1733033619950,1733033619964,1733033619981,1733033619998,1733033620014,1733033620031,1733033620048,1733033620066,1733033620081,1733033620102,1733033620118,1733033620134,1733033620148,1733033620168,1733033620181,1733033620198,1733033620219,1733033620236,1733033620248,1733033620265,1733033620287,1733033620298,1733033620314,1733033620331,1733033620348,1733033620369,1733033620384,1733033620401,1733033620415,1733033620431,1733033620451,1733033620468,1733033620486,1733033620502,1733033620518,1733033620531,1733033620548,1733033620569,1733033620585,1733033620602,1733033620619,1733033620631,1733033620648,1733033620667,1733033620685,1733033620702,1733033620715,1733033620733,1733033620753,1733033620764,1733033620781,1733033620798,1733033620814,1733033620831,1733033620848,1733033620865,1733033620881,1733033620898,1733033620914,1733033620932,1733033620948,1733033620964,1733033620981,1733033620998,1733033621018,1733033621033,1733033621048,1733033621064,1733033621081,1733033621098,1733033621114,1733033621131,1733033621148,1733033621168,1733033621182,1733033621198,1733033621214,1733033621235,1733033621248,1733033621265,1733033621283,1733033621298,1733033621314,1733033621331,1733033621348,1733033621368,1733033621384,1733033621400,1733033621418]","[[1070.8,578.9],[1084.6,575.7],[1093.6,555.6],[1065.7,533.5],[1062.7,537.6],[1069.1,520.6],[1074.7,506],[1074.7,506],[1085.1,527.6],[1080.9,538.6],[1078.9,539.7],[1071.5,539.8],[1071.5,539.8],[1061.2,528.8],[1053.5,536.2],[1053.5,536.2],[1065.7,531],[1087.3,544.5],[1087.8,544.1],[1083.4,551.2],[1081.8,558.8],[1100.8,526],[1099.3,514.1],[1099.1,480.3],[1103.5,429.3],[1078.3,395.3],[1071.7,378.1],[1071.7,378.1],[1050.5,344.2],[1039.3,316],[1031.3,288.2],[1031.3,288.2],[1043.3,270.7],[1000.1,309.9],[956.4,333.3],[956.4,333.3],[911.4,378.6],[864.8,415.2],[842.4,457.4],[842.4,457.4],[819.6,513.9],[787,542.3],[728.7,565.3],[705.7,594],[705.7,594],[669.6,602.2],[682.8,586.7],[682.8,586.7],[731.1,548.4],[769.6,533.1],[803.6,506.5],[835.4,488.3],[835.4,488.3],[882.1,450.2],[882.1,450.2],[940,432.1],[1021,423],[1021,423],[1063.3,431.7],[1091.5,438.9],[1134,412.1],[1134,412.1],[1145.1,419.3],[1154.5,426.4],[1160.8,451.9],[1167.3,459.4],[1181.3,470.9],[1182.6,469.7],[1182.6,469.7],[1178.2,472.1],[1188.4,437.2],[1216.4,423],[1216.4,423],[1226,427.7],[1227.8,429],[1253.9,406.1],[1253.9,406.1],[1260.2,363.1],[1274.4,352.2],[1277.9,348.6],[1277.9,348.6],[1301.2,335.7],[1315.2,308.3],[1322.3,307.9],[1322.3,307.9],[1337.7,316.2],[1337.4,315.4],[1346.5,313.1],[1346.5,313.1],[1330.2,315.5],[1344,338],[1367.1,333.3],[1378.3,343.6],[1378.3,343.6],[1380.4,416.6],[1378,537.8],[1385.2,630.7],[1377.4,702.4],[1412.4,800.3],[1412.4,800.3],[1423.2,815.1],[1414.3,857.8],[1378.9,895.2],[1341.3,914.2],[1302.3,917.3],[1302.3,917.3],[1267.4,895.2],[1247.7,836.6],[1247.7,836.6],[1223.8,798.9],[1194,760.2],[1146.3,721.8],[1130.2,755.7],[1130.2,755.7],[1123.9,769.5],[1125.1,767.7],[1113.3,789],[1113.3,789],[1113,790.1],[1113,790.1],[1138.9,796.5],[1176.3,780.2],[1201.7,741.4],[1225.4,714.9],[1243.2,690.6],[1243.2,690.6],[1255.4,669.1],[1276.1,649.8],[1276.1,649.8],[1309.5,617.1],[1326.6,603.9],[1332.6,603.9],[1323.9,596.4],[1302.3,614.4],[1285.5,638.8],[1270.5,655.8],[1254,666.3],[1254,666.3],[1247.1,662.1],[1270.2,646.7],[1284.7,671.8],[1290.8,680.3],[1303.6,675.4],[1303.6,675.4],[1293.8,656.8],[1288.3,641.1],[1300.4,618.1],[1306.3,610],[1312.3,602.1],[1296.1,620.9],[1291.1,650.7],[1290.7,674.3],[1314.8,688.1],[1336.2,722],[1342.2,741.8],[1366.6,773.2],[1368.7,818.6],[1376.9,844.2],[1376.9,844.2],[1385.1,869.8],[1391.9,880.2],[1374.7,873.2],[1374.7,873.2],[1385.1,854.4],[1355.4,822.4],[1333.9,775.1],[1333.9,775.1],[1340.6,748.4],[1315.1,734],[1296.6,704.5],[1262.8,667.8],[1239.8,652.4],[1239.8,652.4],[1214.4,602],[1214.4,602],[1181.9,567.4],[1110.8,532.7],[1088.2,511.7],[1054.2,523.8],[1033.6,540.3],[997.9,494.6],[973.3,476.8],[973.3,476.8],[950.6,446.7],[926.1,400.7],[920.9,391.5],[919.6,370.7],[920,365.2],[918.2,362.2],[918.2,362.2],[913.7,330.3],[900,279.6],[899.4,290.3],[910.2,291.3],[940.7,301.2],[940.7,301.2],[964.3,289.7],[975.5,281.6],[988.4,274.3],[1010.6,263.6],[1026.8,282.9],[1044.5,306.5],[1009.7,338.4],[1009.7,338.4],[1009.4,347.9],[943.9,365.3],[872.1,393.3],[872.1,393.3],[821.6,418.7],[772.5,456.8],[721.7,494.1],[721.7,494.1],[670.4,525.4],[606.4,519.3],[542.8,513.3],[542.8,513.3],[524.3,510.8],[515.4,520],[539,517.3],[539,517.3],[584.7,498.6],[594.5,514.1],[612.4,514.9],[612.4,514.9],[648.7,506.2],[688.7,507.3],[746.2,509.3],[803.7,511.3],[857.8,516.9],[879.3,507.2],[908.7,491.7],[902.5,505.8],[902.5,505.8],[917,503],[926.9,504.2],[926.8,496],[923.5,484],[893.6,499.1],[858.5,509.5],[856.3,510.8],[854.2,512.2],[856.6,526.1],[868.9,518.4]]","[0,0.3527331528]","[0.3527331528,0.3527331528]","[-0.3527331528,-0.3527331528]","[-0.3527331528,0]","[0,-0.3527331528]","[0.3527331528,-0.3527331528]","[0,0]","[0.3527331528,0]",0,1,1,1,1,3,Tablet,5,5,13,7
