inst1_resp.keys,inst1_resp.rt,calibrationMouse.x,calibrationMouse.y,calibrationMouse.leftButton,calibrationMouse.midButton,calibrationMouse.rightButton,calibrationClick.x,calibrationClick.y,calibrationClick.leftButton,calibrationClick.midButton,calibrationClick.rightButton,calibrationClick.clicked_name,trialsc.thisRepN,trialsc.thisTrialN,trialsc.thisN,trialsc.thisIndex,trialsc.ran,calibration_x,calibration_y,participant,session,date,expName,psychopyVersion,OS,frameRate,ScreenRes_pixels,Camera_pixels,mouse_2.x,mouse_2.y,mouse_2.leftButton,mouse_2.midButton,mouse_2.rightButton,mouse_2.time,mouse_2.clicked_name,mouse.x,mouse.y,mouse.leftButton,mouse.midButton,mouse.rightButton,mouse.time,mouse.clicked_name,Choice,Trial,TrialDuration,MOUSE_GAZE,ET_GAZE,ET_GAZE_x_T,time,unixTime,ET_GAZE_NF,Loc_Option1_label,Loc_Option2_label,Loc_Cost_label,Loc_Qual_label,Loc_Option1_cost,Loc_Option2_cost,Loc_Option1_quality,Loc_Option2_quality,trials.thisRepN,trials.thisTrialN,trials.thisN,trials.thisIndex,trials.ran,Block,Device,cost1,qual1,cost2,qual2
space,2.9762,0.28125,-0.305555556,1,0,0,-0.677083333,0.009259259,1,0,0,calibration_square,0,0,0,2,1,-0.67,0,12,001,2024-12-02_14h20.03.893,Attention_exp_legacy,2023.1.0,Win32,59.52380952,,,,,,,,,,,,,,,,,,,,,,,,,,,,,,,,,,,,,,,,,,,,
,,,,,,,-0.678125,-0.653703704,1,0,0,,0,1,1,0,1,-0.67,-0.67,12,001,2024-12-02_14h20.03.893,Attention_exp_legacy,2023.1.0,Win32,59.52380952,,,,,,,,,,,,,,,,,,,,,,,,,,,,,,,,,,,,,,,,,,,,
,,,,,,,-0.002083333,0.661111111,1,0,0,calibration_square,0,2,2,13,1,0,0.67,12,001,2024-12-02_14h20.03.893,Attention_exp_legacy,2023.1.0,Win32,59.52380952,,,,,,,,,,,,,,,,,,,,,,,,,,,,,,,,,,,,,,,,,,,,
,,,,,,,-0.322916667,-0.005555556,1,0,0,calibration_square,0,3,3,6,1,-0.33,0,12,001,2024-12-02_14h20.03.893,Attention_exp_legacy,2023.1.0,Win32,59.52380952,,,,,,,,,,,,,,,,,,,,,,,,,,,,,,,,,,,,,,,,,,,,
,,,,,,,0.695833333,-0.677777778,1,0,0,,0,4,4,20,1,0.67,-0.67,12,001,2024-12-02_14h20.03.893,Attention_exp_legacy,2023.1.0,Win32,59.52380952,,,,,,,,,,,,,,,,,,,,,,,,,,,,,,,,,,,,,,,,,,,,
,,,,,,,0.65625,0.675925926,1,0,0,,0,5,5,19,1,0.67,0.67,12,001,2024-12-02_14h20.03.893,Attention_exp_legacy,2023.1.0,Win32,59.52380952,,,,,,,,,,,,,,,,,,,,,,,,,,,,,,,,,,,,,,,,,,,,
,,,,,,,-0.003125,-0.324074074,1,0,0,calibration_square,0,6,6,10,1,0,-0.33,12,001,2024-12-02_14h20.03.893,Attention_exp_legacy,2023.1.0,Win32,59.52380952,,,,,,,,,,,,,,,,,,,,,,,,,,,,,,,,,,,,,,,,,,,,
,,,,,,,-0.329166667,-0.651851852,1,0,0,,0,7,7,4,1,-0.33,-0.67,12,001,2024-12-02_14h20.03.893,Attention_exp_legacy,2023.1.0,Win32,59.52380952,,,,,,,,,,,,,,,,,,,,,,,,,,,,,,,,,,,,,,,,,,,,
,,,,,,,-0.697916667,0.342592593,1,0,0,,0,8,8,3,1,-0.67,0.33,12,001,2024-12-02_14h20.03.893,Attention_exp_legacy,2023.1.0,Win32,59.52380952,,,,,,,,,,,,,,,,,,,,,,,,,,,,,,,,,,,,,,,,,,,,
,,,,,,,-0.3375,0.327777778,1,0,0,calibration_square,0,9,9,7,1,-0.33,0.33,12,001,2024-12-02_14h20.03.893,Attention_exp_legacy,2023.1.0,Win32,59.52380952,,,,,,,,,,,,,,,,,,,,,,,,,,,,,,,,,,,,,,,,,,,,
,,,,,,,-0.005208333,-0.675925926,1,0,0,calibration_square,0,10,10,9,1,0,-0.67,12,001,2024-12-02_14h20.03.893,Attention_exp_legacy,2023.1.0,Win32,59.52380952,,,,,,,,,,,,,,,,,,,,,,,,,,,,,,,,,,,,,,,,,,,,
,,,,,,,-0.019791667,0.018518519,1,0,0,,0,11,11,11,1,0,0,12,001,2024-12-02_14h20.03.893,Attention_exp_legacy,2023.1.0,Win32,59.52380952,,,,,,,,,,,,,,,,,,,,,,,,,,,,,,,,,,,,,,,,,,,,
,,,,,,,-0.352083333,-0.32037037,1,0,0,,0,12,12,5,1,-0.33,-0.33,12,001,2024-12-02_14h20.03.893,Attention_exp_legacy,2023.1.0,Win32,59.52380952,,,,,,,,,,,,,,,,,,,,,,,,,,,,,,,,,,,,,,,,,,,,
,,,,,,,0.321875,-0.32962963,1,0,0,calibration_square,0,13,13,15,1,0.33,-0.33,12,001,2024-12-02_14h20.03.893,Attention_exp_legacy,2023.1.0,Win32,59.52380952,,,,,,,,,,,,,,,,,,,,,,,,,,,,,,,,,,,,,,,,,,,,
,,,,,,,0.329166667,0.325925926,1,0,0,calibration_square,0,14,14,17,1,0.33,0.33,12,001,2024-12-02_14h20.03.893,Attention_exp_legacy,2023.1.0,Win32,59.52380952,,,,,,,,,,,,,,,,,,,,,,,,,,,,,,,,,,,,,,,,,,,,
,,,,,,,0.329166667,0.675925926,1,0,0,calibration_square,0,15,15,18,1,0.33,0.67,12,001,2024-12-02_14h20.03.893,Attention_exp_legacy,2023.1.0,Win32,59.52380952,,,,,,,,,,,,,,,,,,,,,,,,,,,,,,,,,,,,,,,,,,,,
,,,,,,,-0.33125,0.653703704,1,0,0,,0,16,16,8,1,-0.33,0.67,12,001,2024-12-02_14h20.03.893,Attention_exp_legacy,2023.1.0,Win32,59.52380952,,,,,,,,,,,,,,,,,,,,,,,,,,,,,,,,,,,,,,,,,,,,
,,,,,,,0.348958333,0.012962963,1,0,0,,0,17,17,16,1,0.33,0,12,001,2024-12-02_14h20.03.893,Attention_exp_legacy,2023.1.0,Win32,59.52380952,,,,,,,,,,,,,,,,,,,,,,,,,,,,,,,,,,,,,,,,,,,,
,,,,,,,0.33125,-0.666666667,1,0,0,calibration_square,0,18,18,14,1,0.33,-0.67,12,001,2024-12-02_14h20.03.893,Attention_exp_legacy,2023.1.0,Win32,59.52380952,,,,,,,,,,,,,,,,,,,,,,,,,,,,,,,,,,,,,,,,,,,,
,,,,,,,-0.667708333,-0.318518519,1,0,0,,0,19,19,1,1,-0.67,-0.33,12,001,2024-12-02_14h20.03.893,Attention_exp_legacy,2023.1.0,Win32,59.52380952,,,,,,,,,,,,,,,,,,,,,,,,,,,,,,,,,,,,,,,,,,,,
,,,,,,,0.011458333,0.35,1,0,0,,0,20,20,12,1,0,0.33,12,001,2024-12-02_14h20.03.893,Attention_exp_legacy,2023.1.0,Win32,59.52380952,,,,,,,,,,,,,,,,,,,,,,,,,,,,,,,,,,,,,,,,,,,,
,,,,,,,,,,,,,,,,,,,,12,001,2024-12-02_14h20.03.893,Attention_exp_legacy,2023.1.0,Win32,59.52380952,"[1920,1080]","[640,480]",[0.11354166666666667],[-0.5092592592592593],[1],[0],[0],[2.1984999999999957],"[""StartButton""]",[0.334375],[0.31296296296296294],[1],[0],[0],[5.720400000000367],"[""Option2_label""]",Option2_label,1,6.7307,"[[0.1125,-0.5092592592592593],[0.1125,-0.5092592592592593],[0.1125,-0.5092592592592593],[0.1125,-0.5092592592592593],[0.1125,-0.5092592592592593],[0.1125,-0.5092592592592593],[0.1125,-0.5092592592592593],[0.1125,-0.5092592592592593],[0.1125,-0.5092592592592593],[0.1125,-0.5092592592592593],[0.1125,-0.5092592592592593],[0.1125,-0.5092592592592593],[0.1125,-0.5092592592592593],[0.1125,-0.5092592592592593],[0.1125,-0.5092592592592593],[0.1125,-0.5092592592592593],[0.1125,-0.5092592592592593],[0.1125,-0.5092592592592593],[0.1125,-0.5092592592592593],[0.1125,-0.5092592592592593],[0.1125,-0.5092592592592593],[0.1125,-0.5092592592592593],[0.1125,-0.5092592592592593],[0.1125,-0.5092592592592593],[0.1125,-0.5092592592592593],[0.1125,-0.5092592592592593],[0.1125,-0.5092592592592593],[0.1125,-0.5092592592592593],[0.1125,-0.5092592592592593],[0.1125,-0.5092592592592593],[0.1125,-0.5092592592592593],[0.1125,-0.5092592592592593],[0.1125,-0.5092592592592593],[0.1125,-0.5092592592592593],[0.1125,-0.5092592592592593],[0.11041666666666666,-0.5092592592592593],[0.09270833333333334,-0.5092592592592593],[0.06875,-0.5092592592592593],[0.026041666666666668,-0.5],[-0.030208333333333334,-0.45925925925925926],[-0.06458333333333334,-0.3888888888888889],[-0.090625,-0.34444444444444444],[-0.11770833333333333,-0.3148148148148148],[-0.11979166666666667,-0.3111111111111111],[-0.11979166666666667,-0.30185185185185187],[-0.10833333333333334,-0.26851851851851855],[-0.08125,-0.2],[-0.05416666666666667,-0.13333333333333333],[-0.019791666666666666,-0.04814814814814815],[0.011458333333333333,0.04259259259259259],[0.046875,0.15185185185185185],[0.078125,0.2796296296296296],[0.08958333333333333,0.3074074074074074],[0.09583333333333334,0.3296296296296296],[0.096875,0.337037037037037],[0.096875,0.3388888888888889],[0.096875,0.3388888888888889],[0.096875,0.3388888888888889],[0.096875,0.3388888888888889],[0.09791666666666667,0.3388888888888889],[0.09791666666666667,0.3388888888888889],[0.10104166666666667,0.3388888888888889],[0.103125,0.3388888888888889],[0.10416666666666667,0.3388888888888889],[0.10625,0.3388888888888889],[0.10625,0.3388888888888889],[0.10729166666666666,0.3388888888888889],[0.10833333333333334,0.3388888888888889],[0.109375,0.3388888888888889],[0.11041666666666666,0.3388888888888889],[0.11041666666666666,0.3388888888888889],[0.1125,0.3388888888888889],[0.1125,0.3388888888888889],[0.11354166666666667,0.3388888888888889],[0.115625,0.3388888888888889],[0.11875,0.3388888888888889],[0.12291666666666666,0.3388888888888889],[0.13229166666666667,0.3388888888888889],[0.146875,0.3388888888888889],[0.16875,0.3388888888888889],[0.19895833333333332,0.337037037037037],[0.24583333333333332,0.32037037037037036],[0.29270833333333335,0.30185185185185187],[0.33541666666666664,0.2796296296296296],[0.359375,0.26851851851851855],[0.37395833333333334,0.26296296296296295],[0.38125,0.2611111111111111],[0.38125,0.2611111111111111],[0.38125,0.2611111111111111],[0.38125,0.2611111111111111],[0.38125,0.2611111111111111],[0.38125,0.2611111111111111],[0.38125,0.2611111111111111],[0.38125,0.2611111111111111],[0.38125,0.2611111111111111],[0.38125,0.2611111111111111],[0.38125,0.2611111111111111],[0.38125,0.2611111111111111],[0.38125,0.2611111111111111],[0.38125,0.2611111111111111],[0.38125,0.2611111111111111],[0.38125,0.2611111111111111],[0.38125,0.2611111111111111],[0.38125,0.2611111111111111],[0.38125,0.2611111111111111],[0.38125,0.2611111111111111],[0.38125,0.2611111111111111],[0.38125,0.2611111111111111],[0.38125,0.2611111111111111],[0.38125,0.2611111111111111],[0.38125,0.2611111111111111],[0.38125,0.2611111111111111],[0.38125,0.2611111111111111],[0.38125,0.2611111111111111],[0.38125,0.2611111111111111],[0.38125,0.2611111111111111],[0.38125,0.2611111111111111],[0.38125,0.2611111111111111],[0.38125,0.2611111111111111],[0.38125,0.2611111111111111],[0.38125,0.2611111111111111],[0.38125,0.2611111111111111],[0.38125,0.2611111111111111],[0.38125,0.2611111111111111],[0.38125,0.2611111111111111],[0.38125,0.2611111111111111],[0.38125,0.2611111111111111],[0.38125,0.2611111111111111],[0.38125,0.25925925925925924],[0.38125,0.25925925925925924],[0.38125,0.25555555555555554],[0.378125,0.25555555555555554],[0.3729166666666667,0.25],[0.3697916666666667,0.2462962962962963],[0.365625,0.24444444444444444],[0.365625,0.24259259259259258],[0.365625,0.24259259259259258],[0.365625,0.24259259259259258],[0.365625,0.24259259259259258],[0.365625,0.24259259259259258],[0.365625,0.24259259259259258],[0.365625,0.24259259259259258],[0.365625,0.24259259259259258],[0.365625,0.24259259259259258],[0.365625,0.24259259259259258],[0.365625,0.24259259259259258],[0.365625,0.24259259259259258],[0.365625,0.24259259259259258],[0.365625,0.24259259259259258],[0.365625,0.24259259259259258],[0.365625,0.24259259259259258],[0.365625,0.24259259259259258],[0.365625,0.24259259259259258],[0.365625,0.24259259259259258],[0.365625,0.24259259259259258],[0.365625,0.24259259259259258],[0.365625,0.24259259259259258],[0.365625,0.24259259259259258],[0.365625,0.24259259259259258],[0.365625,0.24259259259259258],[0.365625,0.24259259259259258],[0.365625,0.24259259259259258],[0.37083333333333335,0.24444444444444444],[0.38229166666666664,0.25],[0.39375,0.25925925925925924],[0.4083333333333333,0.26481481481481484],[0.421875,0.2722222222222222],[0.43020833333333336,0.2777777777777778],[0.4354166666666667,0.2814814814814815],[0.440625,0.2851851851851852],[0.44479166666666664,0.28888888888888886],[0.4479166666666667,0.29074074074074074],[0.45,0.29444444444444445],[0.453125,0.29444444444444445],[0.45416666666666666,0.2962962962962963],[0.4552083333333333,0.3],[0.45625,0.3],[0.45729166666666665,0.30185185185185187],[0.4583333333333333,0.3037037037037037],[0.46041666666666664,0.3055555555555556],[0.46145833333333336,0.30925925925925923],[0.4625,0.30925925925925923],[0.4635416666666667,0.31296296296296294],[0.4635416666666667,0.31296296296296294],[0.4635416666666667,0.3148148148148148],[0.46458333333333335,0.31666666666666665],[0.465625,0.31666666666666665],[0.465625,0.31666666666666665],[0.465625,0.31851851851851853],[0.465625,0.31851851851851853],[0.465625,0.31851851851851853],[0.465625,0.31851851851851853],[0.465625,0.31851851851851853],[0.465625,0.31851851851851853],[0.45416666666666666,0.32037037037037036],[0.4166666666666667,0.32037037037037036],[0.38645833333333335,0.32037037037037036],[0.359375,0.32037037037037036],[0.33958333333333335,0.32037037037037036],[0.3260416666666667,0.32037037037037036],[0.321875,0.32037037037037036],[0.31979166666666664,0.32037037037037036],[0.31979166666666664,0.32037037037037036],[0.31979166666666664,0.32037037037037036],[0.31979166666666664,0.32037037037037036],[0.31979166666666664,0.32037037037037036],[0.31979166666666664,0.32037037037037036],[0.32083333333333336,0.32037037037037036],[0.325,0.32037037037037036],[0.3302083333333333,0.32222222222222224],[0.33958333333333335,0.3277777777777778],[0.35,0.3333333333333333],[0.36354166666666665,0.337037037037037],[0.37395833333333334,0.3388888888888889],[0.38229166666666664,0.3425925925925926],[0.38958333333333334,0.34444444444444444],[0.39479166666666665,0.34444444444444444],[0.396875,0.34444444444444444],[0.4,0.34629629629629627],[0.4,0.34629629629629627],[0.4010416666666667,0.34629629629629627],[0.4010416666666667,0.34814814814814815],[0.4010416666666667,0.34814814814814815],[0.4010416666666667,0.34814814814814815],[0.4010416666666667,0.34814814814814815],[0.4010416666666667,0.34814814814814815],[0.4010416666666667,0.34814814814814815],[0.4010416666666667,0.34814814814814815],[0.4010416666666667,0.34814814814814815],[0.4010416666666667,0.34814814814814815],[0.4010416666666667,0.34814814814814815],[0.4010416666666667,0.34814814814814815],[0.4010416666666667,0.34814814814814815],[0.4010416666666667,0.34814814814814815],[0.4010416666666667,0.34814814814814815],[0.4010416666666667,0.34814814814814815],[0.4010416666666667,0.34814814814814815],[0.4010416666666667,0.34814814814814815],[0.4010416666666667,0.34814814814814815],[0.4010416666666667,0.34814814814814815],[0.4010416666666667,0.34814814814814815],[0.4010416666666667,0.34814814814814815],[0.4010416666666667,0.34814814814814815],[0.4010416666666667,0.34814814814814815],[0.4010416666666667,0.34814814814814815],[0.4010416666666667,0.34814814814814815],[0.4010416666666667,0.34814814814814815],[0.4010416666666667,0.34814814814814815],[0.4010416666666667,0.34814814814814815],[0.4010416666666667,0.34814814814814815],[0.4010416666666667,0.34814814814814815],[0.4010416666666667,0.34814814814814815],[0.4010416666666667,0.34814814814814815],[0.4010416666666667,0.34814814814814815],[0.4010416666666667,0.34814814814814815],[0.4010416666666667,0.34814814814814815],[0.4010416666666667,0.34814814814814815],[0.4010416666666667,0.34814814814814815],[0.4010416666666667,0.34814814814814815],[0.4010416666666667,0.34814814814814815],[0.4010416666666667,0.34814814814814815],[0.4010416666666667,0.34814814814814815],[0.4010416666666667,0.34814814814814815],[0.4010416666666667,0.34814814814814815],[0.4010416666666667,0.34814814814814815],[0.396875,0.34814814814814815],[0.3885416666666667,0.34629629629629627],[0.37604166666666666,0.3425925925925926],[0.3729166666666667,0.3425925925925926],[0.3729166666666667,0.3425925925925926],[0.36875,0.3425925925925926],[0.36354166666666665,0.3425925925925926],[0.36041666666666666,0.34074074074074073],[0.36041666666666666,0.34074074074074073],[0.36041666666666666,0.34074074074074073],[0.36041666666666666,0.34074074074074073],[0.36041666666666666,0.34074074074074073],[0.36041666666666666,0.34074074074074073],[0.36041666666666666,0.34074074074074073],[0.36041666666666666,0.34074074074074073],[0.36041666666666666,0.34074074074074073],[0.36041666666666666,0.34074074074074073],[0.36041666666666666,0.34074074074074073],[0.36041666666666666,0.34074074074074073],[0.36041666666666666,0.34074074074074073],[0.36041666666666666,0.34074074074074073],[0.35520833333333335,0.3296296296296296],[0.346875,0.31666666666666665],[0.34375,0.31296296296296294],[0.34270833333333334,0.31296296296296294],[0.34270833333333334,0.31296296296296294],[0.34270833333333334,0.31296296296296294],[0.34270833333333334,0.31296296296296294],[0.34270833333333334,0.31296296296296294],[0.34270833333333334,0.31296296296296294],[0.34270833333333334,0.31296296296296294],[0.34270833333333334,0.31296296296296294],[0.34270833333333334,0.31296296296296294],[0.34270833333333334,0.31296296296296294],[0.34270833333333334,0.31296296296296294],[0.34270833333333334,0.31296296296296294],[0.34270833333333334,0.31296296296296294],[0.34270833333333334,0.31296296296296294],[0.34270833333333334,0.31296296296296294],[0.34270833333333334,0.31296296296296294],[0.34270833333333334,0.31296296296296294],[0.34270833333333334,0.31296296296296294],[0.34270833333333334,0.31296296296296294],[0.34270833333333334,0.31296296296296294],[0.34270833333333334,0.31296296296296294],[0.34270833333333334,0.31296296296296294],[0.34270833333333334,0.31296296296296294],[0.34270833333333334,0.31296296296296294],[0.33958333333333335,0.30925925925925923],[0.3385416666666667,0.30925925925925923],[0.3385416666666667,0.30925925925925923],[0.3385416666666667,0.30925925925925923],[0.3385416666666667,0.30925925925925923],[0.3416666666666667,0.30925925925925923],[0.34375,0.30925925925925923],[0.34479166666666666,0.3111111111111111],[0.3458333333333333,0.3111111111111111],[0.346875,0.31296296296296294],[0.35104166666666664,0.31296296296296294],[0.35833333333333334,0.3148148148148148],[0.3697916666666667,0.31666666666666665],[0.3927083333333333,0.31666666666666665],[0.39895833333333336,0.31666666666666665],[0.41354166666666664,0.31666666666666665],[0.415625,0.31666666666666665],[0.4166666666666667,0.31666666666666665],[0.4166666666666667,0.31666666666666665],[0.415625,0.31666666666666665],[0.4041666666666667,0.31296296296296294],[0.3875,0.30925925925925923],[0.36770833333333336,0.30925925925925923],[0.34375,0.30925925925925923],[0.33645833333333336,0.3111111111111111],[0.334375,0.31296296296296294],[0.334375,0.31296296296296294],[0.334375,0.31296296296296294],[0.334375,0.31296296296296294],[0.334375,0.31296296296296294],[0.334375,0.31296296296296294],[0.334375,0.31296296296296294],[0.334375,0.31296296296296294],[0.334375,0.31296296296296294],[0.334375,0.31296296296296294],[0.334375,0.31296296296296294],[0.3385416666666667,0.31851851851851853],[0.346875,0.32037037037037036],[0.35625,0.32037037037037036],[0.36875,0.32037037037037036],[0.39166666666666666,0.3055555555555556],[0.41458333333333336,0.2851851851851852],[0.4354166666666667,0.26296296296296295],[0.446875,0.24814814814814815],[0.45625,0.23148148148148148],[0.459375,0.22037037037037038],[0.46041666666666664,0.2037037037037037],[0.46041666666666664,0.1814814814814815],[0.46041666666666664,0.15555555555555556],[0.45729166666666665,0.12407407407407407],[0.45208333333333334,0.0962962962962963],[0.44583333333333336,0.07037037037037037],[0.4427083333333333,0.05925925925925926],[0.44166666666666665,0.053703703703703705],[0.440625,0.05185185185185185],[0.440625,0.05185185185185185],[0.4395833333333333,0.05],[0.4395833333333333,0.05],[0.43854166666666666,0.04814814814814815],[0.43854166666666666,0.04814814814814815],[0.43854166666666666,0.04814814814814815],[0.43854166666666666,0.04814814814814815],[0.43854166666666666,0.04814814814814815],[0.43854166666666666,0.04814814814814815],[0.43854166666666666,0.04814814814814815],[0.43854166666666666,0.04814814814814815],[0.43854166666666666,0.04814814814814815],[0.43854166666666666,0.04814814814814815],[0.43854166666666666,0.04814814814814815],[0.43854166666666666,0.04814814814814815],[0.43854166666666666,0.04814814814814815],[0.43854166666666666,0.04814814814814815],[0.43854166666666666,0.04814814814814815],[0.4375,0.04814814814814815],[0.43645833333333334,0.04814814814814815],[0.43020833333333336,0.05],[0.415625,0.05555555555555555],[0.4083333333333333,0.06666666666666667],[0.4041666666666667,0.08333333333333333],[0.403125,0.10740740740740741],[0.4010416666666667,0.12777777777777777],[0.39895833333333336,0.14629629629629629],[0.39895833333333336,0.16666666666666666],[0.39895833333333336,0.17592592592592593],[0.39895833333333336,0.18703703703703703],[0.39895833333333336,0.1962962962962963],[0.39895833333333336,0.20925925925925926],[0.39895833333333336,0.21481481481481482],[0.39895833333333336,0.22037037037037038],[0.39895833333333336,0.22592592592592592]]","[[-0.2345833333333334,-0.18055555555555555],[-0.2345833333333334,-0.18055555555555555],[-0.2033333333333334,-0.11407407407407412],[-0.2033333333333334,-0.11407407407407412],[-0.20427083333333335,-0.08518518518518518],[-0.20427083333333335,-0.08518518518518518],[-0.19739583333333333,-0.07999999999999997],[-0.19739583333333333,-0.07999999999999997],[-0.20812499999999995,-0.07148148148148152],[-0.20812499999999995,-0.07148148148148152],[-0.1898958333333333,-0.029259259259259176],[-0.1898958333333333,-0.029259259259259176],[-0.16979166666666667,0.020740740740740823],[-0.16979166666666667,0.020740740740740823],[-0.1423958333333334,0.03685185185185181],[-0.1423958333333334,0.03685185185185181],[-0.1592708333333333,0.062407407407407495],[-0.1592708333333333,0.062407407407407495],[-0.1798958333333334,0.07611111111111116],[-0.1798958333333334,0.07611111111111116],[-0.17406250000000004,0.07074074074074083],[-0.17552083333333332,0.05611111111111103],[-0.14479166666666668,0.07907407407407416],[-0.14479166666666668,0.07907407407407416],[-0.13645833333333332,0.09574074074074082],[-0.13645833333333332,0.09574074074074082],[-0.09750000000000002,0.12129629629629629],[-0.09750000000000002,0.12129629629629629],[-0.13416666666666663,0.06129629629629634],[-0.17906249999999999,-0.018888888888888972],[-0.17906249999999999,-0.018888888888888972],[-0.22604166666666667,-0.08518518518518518],[-0.2482291666666666,-0.17518518518518522],[-0.26979166666666665,-0.25462962962962965],[-0.3134375,-0.3287037037037037],[-0.349375,-0.3998148148148148],[-0.3180208333333333,-0.3603703703703704],[-0.27531249999999996,-0.30759259259259264],[-0.24270833333333333,-0.2640740740740741],[-0.19156249999999997,-0.19222222222222224],[-0.13322916666666665,-0.08222222222222218],[-0.07572916666666671,0.0020370370370370794],[-0.07572916666666671,0.0020370370370370794],[-0.04677083333333331,0.12092592592592584],[-0.04677083333333331,0.12092592592592584],[-0.0006250000000000236,0.24462962962962967],[0.04666666666666662,0.3653703703703703],[0.06687500000000005,0.5114814814814815],[0.03791666666666664,0.5666666666666667],[0.007395833333333357,0.5598148148148148],[-0.026041666666666668,0.55],[-0.08020833333333334,0.5481481481481482],[-0.08666666666666671,0.4609259259259259],[-0.12302083333333336,0.45314814814814824],[-0.13177083333333334,0.4244444444444445],[-0.10343749999999995,0.41],[-0.10343749999999995,0.41],[-0.07625000000000005,0.3985185185185186],[-0.05395833333333329,0.3346296296296297],[-0.03104166666666662,0.22092592592592583],[-0.0036458333333333334,0.2064814814814815],[0.03322916666666664,0.1844444444444445],[0.10572916666666667,0.15685185185185194],[0.10833333333333334,0.15092592592592594],[0.11666666666666667,0.1455555555555556],[0.125,0.14018518518518527],[0.08354166666666671,0.105925925925926],[0.08354166666666671,0.105925925925926],[0.0875,0.041111111111111195],[0.10104166666666667,0.0418518518518519],[0.09583333333333334,0.07277777777777769],[0.05375000000000003,0.08074074074074078],[0.03760416666666669,0.03092592592592601],[-0.004270833333333357,0.0257407407407407],[-0.024791666666666618,0.05851851851851856],[0.022187499999999954,-0.01777777777777782],[0.05593750000000005,-0.07388888888888885],[0.0912499999999999,-0.12074074074074072],[0.09916666666666671,-0.1492592592592593],[0.09427083333333333,-0.18574074074074076],[0.08937499999999995,-0.2222222222222222],[0.1224999999999999,-0.29314814814814816],[0.13583333333333342,-0.29148148148148145],[0.17052083333333337,-0.3225925925925926],[0.19500000000000003,-0.3453703703703704],[0.17697916666666677,-0.3133333333333333],[0.175,-0.30629629629629623],[0.1701041666666666,-0.29740740740740745],[0.14093749999999997,-0.26500000000000007],[0.14697916666666658,-0.2631481481481482],[0.17864583333333334,-0.28351851851851856],[0.19666666666666663,-0.26722222222222225],[0.1990624999999999,-0.2581481481481481],[0.19083333333333338,-0.2601851851851852],[0.1734375,-0.25629629629629624],[0.17802083333333343,-0.24148148148148144],[0.17979166666666657,-0.22185185185185188],[0.1877083333333334,-0.2270370370370371],[0.20187499999999994,-0.24351851851851852],[0.20906250000000004,-0.24462962962962967],[0.1896874999999999,-0.21851851851851853],[0.16885416666666658,-0.20203703703703707],[0.14802083333333324,-0.18555555555555553],[0.14572916666666677,-0.15055555555555558],[0.14739583333333334,-0.1366666666666667],[0.12354166666666658,-0.13481481481481483],[0.09968750000000005,-0.13296296296296298],[0.0696875000000001,-0.10629629629629625],[0.07177083333333342,-0.06407407407407412],[0.08083333333333324,-0.03722222222222227],[0.07374999999999995,-0.022037037037036994],[0.09739583333333333,-0.020185185185185143],[0.07677083333333339,-0.008148148148148106],[0.04822916666666662,-0.0035185185185184764],[0.023958333333333335,0.02111111111111107],[0.022187499999999954,0.01703703703703712],[0.03802083333333333,0.02962962962962963],[0.03822916666666672,0.018333333333333292],[0.00635416666666669,-0.00851851851851856],[-0.019687499999999976,-0.041111111111111195],[-0.0265625,-0.06518518518518517],[-0.058437500000000024,-0.06759259259259259],[-0.04604166666666672,-0.0801851851851852],[-0.025729166666666713,-0.08944444444444447],[0.005729166666666666,-0.11185185185185181],[0.022291666666666644,-0.09796296296296292],[0.021249999999999977,-0.1007407407407407],[0.058854166666666666,-0.0940740740740741],[0.09645833333333324,-0.08740740740740739],[0.0900000000000001,-0.06611111111111109],[0.08145833333333338,-0.04666666666666675],[0.07822916666666657,-0.042407407407407366],[0.07302083333333324,-0.03685185185185181],[0.07302083333333324,-0.03685185185185181],[0.10447916666666662,-0.05796296296296299],[0.1482291666666666,-0.06333333333333331],[0.17468750000000005,-0.08796296296296297],[0.20114583333333325,-0.11259259259259262],[0.20958333333333337,-0.10759259259259263],[0.22062499999999996,-0.10685185185185184],[0.22062499999999996,-0.10685185185185184],[0.2642708333333334,-0.12814814814814812],[0.2642708333333334,-0.12814814814814812],[0.32135416666666666,-0.1537037037037037],[0.35989583333333336,-0.17592592592592593],[0.35989583333333336,-0.17592592592592593],[0.39124999999999993,-0.17999999999999997],[0.39124999999999993,-0.17999999999999997],[0.37218749999999995,-0.16833333333333328],[0.37218749999999995,-0.16833333333333328],[0.33395833333333325,-0.20185185185185187],[0.33395833333333325,-0.20185185185185187],[0.3154166666666666,-0.20462962962962963],[0.3154166666666666,-0.20462962962962963],[0.30927083333333344,-0.21814814814814817],[0.30927083333333344,-0.21814814814814817],[0.29812500000000003,-0.24685185185185188],[0.29812500000000003,-0.24685185185185188],[0.28791666666666677,-0.2712962962962963],[0.28791666666666677,-0.2712962962962963],[0.2603125000000001,-0.26740740740740737],[0.2603125000000001,-0.26740740740740737],[0.24114583333333334,-0.28648148148148145],[0.24114583333333334,-0.28648148148148145],[0.23781249999999995,-0.26777777777777784],[0.23781249999999995,-0.26777777777777784],[0.2569791666666667,-0.2803703703703703],[0.2569791666666667,-0.2803703703703703],[0.2772916666666667,-0.2898148148148148],[0.2772916666666667,-0.2898148148148148],[0.3211458333333333,-0.2735185185185185],[0.3211458333333333,-0.2735185185185185],[0.35260416666666666,-0.26944444444444443],[0.3841666666666666,-0.23555555555555555],[0.3841666666666666,-0.23555555555555555],[0.4028125000000001,-0.2518518518518518],[0.4158333333333334,-0.22981481481481486],[0.45979166666666677,-0.23425925925925925],[0.4730208333333332,-0.2168518518518519],[0.48895833333333344,-0.24055555555555552],[0.49979166666666663,-0.2331481481481481],[0.5259375000000001,-0.2081481481481481],[0.5427083333333333,-0.19537037037037036],[0.5654166666666666,-0.18833333333333332],[0.5630208333333333,-0.2264814814814815],[0.5640625,-0.2227777777777778],[0.5671875,-0.2574074074074074],[0.5623958333333334,-0.2807407407407408],[0.5467708333333334,-0.28944444444444445],[0.5514583333333334,-0.26666666666666666],[0.5479166666666667,-0.2631481481481482],[0.53125,-0.2933333333333333],[0.5072916666666667,-0.30759259259259264],[0.4913541666666667,-0.305],[0.4913541666666667,-0.305],[0.4775000000000001,-0.2972222222222222],[0.46937499999999993,-0.27925925925925926],[0.465625,-0.25870370370370366],[0.4618750000000001,-0.2381481481481482],[0.4618750000000001,-0.2381481481481482],[0.46770833333333334,-0.22018518518518515],[0.4539583333333333,-0.2551851851851852],[0.4566666666666668,-0.29444444444444445],[0.44541666666666657,-0.30888888888888894],[0.43156249999999996,-0.3061111111111111],[0.4179166666666667,-0.3290740740740741],[0.4002083333333334,-0.32518518518518524],[0.39041666666666663,-0.3177777777777778],[0.39000000000000007,-0.32999999999999996],[0.38958333333333334,-0.34222222222222226],[0.3811458333333334,-0.34870370370370374],[0.3867708333333333,-0.3618518518518518],[0.3776041666666667,-0.37833333333333335],[0.3837500000000001,-0.3814814814814815],[0.3837500000000001,-0.3814814814814815],[0.3870833333333332,-0.39037037037037037],[0.3854166666666667,-0.3822222222222222],[0.3992708333333333,-0.36944444444444446],[0.39822916666666663,-0.3901851851851852],[0.3902083333333332,-0.3738888888888888],[0.4048958333333334,-0.3381481481481482],[0.42958333333333343,-0.3442592592592592],[0.43947916666666675,-0.32222222222222224],[0.43302083333333335,-0.2383333333333333],[0.4261458333333332,-0.19092592592592597],[0.4127083333333334,-0.11944444444444445],[0.4007291666666667,-0.06222222222222226],[0.38312499999999994,-0.009444444444444486],[0.3877083333333334,0.04203703703703712],[0.38552083333333326,0.07351851851851861],[0.3444791666666667,0.04685185185185177],[0.3115624999999999,0.049629629629629544],[0.2709374999999999,0.049074074074074076],[0.24500000000000005,-0.005740740740740783],[0.21947916666666673,-0.04222222222222214],[0.21416666666666656,-0.14592592592592596],[0.17479166666666662,-0.22611111111111115],[0.14947916666666666,-0.3177777777777778],[0.08677083333333328,-0.3690740740740741],[0.009791666666666643,-0.3992592592592593],[-0.035416666666666666,-0.3979629629629629],[-0.09489583333333336,-0.4007407407407407],[-0.1453125,-0.387037037037037],[-0.2251041666666667,-0.3588888888888889],[-0.30375,-0.3301851851851852],[-0.38250000000000006,-0.25759259259259265],[-0.4047916666666667,-0.19129629629629633],[-0.4527083333333334,-0.12037037037037036],[-0.4746875,-0.060370370370370414],[-0.4496875000000001,-0.05407407407407405],[-0.421875,-0.04277777777777782],[-0.3797916666666667,-0.027407407407407325],[-0.34135416666666674,-0.03166666666666671],[-0.2735416666666667,-0.050370370370370454],[-0.22447916666666667,-0.0514814814814814],[-0.21302083333333333,-0.04407407407407399],[-0.22864583333333333,-0.0477777777777777],[-0.2280208333333333,-0.0507407407407407],[-0.22697916666666665,-0.038703703703703664],[-0.25020833333333337,-0.07462962962962966],[-0.29187500000000005,-0.10833333333333334],[-0.33270833333333333,-0.06592592592592597],[-0.37124999999999997,-0.01703703703703712],[-0.365625,0.04296296296296305],[-0.34125,0.08537037037037042],[-0.3098958333333333,0.04759259259259268],[-0.2280208333333333,0.0003703703703704546],[-0.2280208333333333,0.0003703703703704546],[-0.16875,-0.07740740740740742],[-0.16875,-0.07740740740740742],[-0.09864583333333338,-0.15351851851851847],[-0.03895833333333331,-0.17592592592592593],[0.020729166666666642,-0.1983333333333334],[0.09885416666666676,-0.25555555555555554],[0.17687499999999995,-0.31425925925925924],[0.2107291666666666,-0.384074074074074],[0.23145833333333338,-0.4553703703703703],[0.27468750000000003,-0.46722222222222226],[0.27291666666666664,-0.4838888888888889],[0.29375,-0.47000000000000003],[0.31437499999999996,-0.42185185185185187],[0.3390625,-0.36518518518518517],[0.3611458333333334,-0.2975925925925926],[0.3611458333333334,-0.2975925925925926],[0.3802083333333333,-0.31574074074074077],[0.3802083333333333,-0.31574074074074077],[0.4127083333333334,-0.3007407407407407],[0.4127083333333334,-0.3007407407407407],[0.40479166666666655,-0.2851851851851852],[0.40479166666666655,-0.2851851851851852],[0.40302083333333344,-0.24870370370370373],[0.3922916666666666,-0.22555555555555556],[0.3922916666666666,-0.22555555555555556],[0.37604166666666666,-0.1881481481481482],[0.37604166666666666,-0.1881481481481482],[0.41354166666666664,-0.1440740740740741],[0.41354166666666664,-0.1440740740740741],[0.42166666666666663,-0.1838888888888889],[0.4490624999999999,-0.18425925925925926],[0.4490624999999999,-0.18425925925925926],[0.4544791666666666,-0.18425925925925926],[0.4544791666666666,-0.18425925925925926],[0.4288541666666667,-0.11518518518518517],[0.4288541666666667,-0.11518518518518517],[0.39177083333333323,-0.09888888888888885],[0.39177083333333323,-0.09888888888888885],[0.37781250000000005,-0.07592592592592592],[0.37781250000000005,-0.07592592592592592],[0.3741666666666667,-0.06222222222222226],[0.3741666666666667,-0.06222222222222226],[0.4010416666666667,-0.03462962962962971],[0.4010416666666667,-0.03462962962962971],[0.4417708333333332,-0.04018518518518527],[0.4417708333333332,-0.04018518518518527],[0.38218750000000007,-0.026111111111111154],[0.38218750000000007,-0.026111111111111154],[0.32625000000000004,-0.002407407407407323],[0.32625000000000004,-0.002407407407407323],[0.25812499999999994,0.027777777777777776],[0.25812499999999994,0.027777777777777776],[0.23968749999999991,0.003333333333333249],[0.23468749999999997,-0.041666666666666664],[0.22781250000000006,-0.06555555555555552],[0.24520833333333342,-0.10092592592592593],[0.24468750000000009,-0.14833333333333337],[0.22260416666666671,-0.1962962962962963],[0.18916666666666657,-0.19944444444444442],[0.21687500000000004,-0.23851851851851855],[0.2493750000000001,-0.24981481481481477],[0.2775000000000001,-0.2903703703703704],[0.29010416666666666,-0.2935185185185185],[0.30406250000000007,-0.3007407407407407],[0.32000000000000006,-0.3072222222222222],[0.3334374999999999,-0.32407407407407407],[0.3614583333333333,-0.33907407407407414],[0.3757291666666667,-0.3622222222222223],[0.3898958333333333,-0.3718518518518519],[0.3697916666666667,-0.3844444444444445],[0.35958333333333337,-0.4014814814814815],[0.34135416666666674,-0.3809259259259259],[0.3189583333333334,-0.3425925925925926],[0.3132291666666667,-0.3375925925925926],[0.2964583333333332,-0.34370370370370373],[0.3016666666666666,-0.3731481481481482],[0.3068749999999999,-0.40259259259259256],[0.32302083333333326,-0.3901851851851852],[0.3497916666666666,-0.3987037037037037],[0.3962500000000001,-0.40611111111111114],[0.42312500000000003,-0.4094444444444445],[0.44291666666666674,-0.4335185185185186],[0.4578125,-0.4714814814814815],[0.4560416666666666,-0.47611111111111115],[0.4609375,-0.4638888888888889],[0.43937499999999996,-0.4137037037037037],[0.41520833333333323,-0.38370370370370366],[0.40510416666666677,-0.38629629629629636],[0.38312499999999994,-0.39166666666666666],[0.37489583333333343,-0.4027777777777778],[0.38166666666666677,-0.36518518518518517],[0.4032291666666666,-0.34222222222222226],[0.3929166666666667,-0.3274074074074074],[0.4197916666666667,-0.3116666666666667],[0.42239583333333336,-0.3198148148148148],[0.4357291666666666,-0.33370370370370367],[0.4517708333333334,-0.2959259259259259],[0.4339583333333332,-0.2492592592592593],[0.4150000000000001,-0.20407407407407405],[0.36739583333333337,-0.16518518518518516],[0.3567708333333333,-0.16129629629629633],[0.34437499999999993,-0.15259259259259256],[0.36395833333333344,-0.14574074074074073],[0.34572916666666675,-0.12777777777777777],[0.3522916666666667,-0.09870370370370372],[0.3423958333333334,-0.08185185185185183],[0.3423958333333334,-0.08185185185185183],[0.3337500000000001,-0.05703703703703706],[0.33531250000000007,-0.04666666666666675],[0.33354166666666674,-0.03592592592592588],[0.36520833333333325,-0.014259259259259343],[0.38520833333333326,0.0016666666666666245],[0.4025000000000001,0.012222222222222264],[0.39302083333333326,0.017592592592592594],[0.3841666666666666,0.010925925925925884],[0.38645833333333335,-0.0235185185185186],[0.4032291666666666,-0.0235185185185186],[0.4301041666666668,-0.055185185185185205],[0.4501041666666666,-0.06703703703703702],[0.5016666666666666,-0.11129629629629634],[0.5346875,-0.14296296296296293],[0.5289583333333333,-0.18037037037037032],[0.5296875,-0.23111111111111113],[0.5296875,-0.23111111111111113],[0.553125,-0.23018518518518521],[0.5724999999999999,-0.23037037037037034],[0.5849999999999999,-0.21203703703703702],[0.5730208333333332,-0.20240740740740742],[0.5684375,-0.18555555555555553],[0.5752083333333334,-0.18462962962962962],[0.5567708333333333,-0.16222222222222227],[0.5235416666666666,-0.13425925925925927],[0.5115624999999999,-0.11444444444444446],[0.4931250000000001,-0.08129629629629626],[0.4861458333333334,-0.07833333333333335]]","[[-0.2345833333333334,-0.18055555555555555,0.00019999999926056944],[-0.2345833333333334,-0.18055555555555555,0.042399999998515625],[-0.2033333333333334,-0.11407407407407412,0.06639999999851653],[-0.2033333333333334,-0.11407407407407412,0.07309999999963424],[-0.20427083333333335,-0.08518518518518518,0.10059999999963054],[-0.20427083333333335,-0.08518518518518518,0.10819999999925756],[-0.19739583333333333,-0.07999999999999997,0.13329999999888287],[-0.19739583333333333,-0.07999999999999997,0.14100000000000534],[-0.20812499999999995,-0.07148148148148152,0.16669999999925977],[-0.20812499999999995,-0.07148148148148152,0.1735000000000042],[-0.1898958333333333,-0.029259259259259176,0.19979999999888776],[-0.1898958333333333,-0.029259259259259176,0.20709999999962747],[-0.16979166666666667,0.020740740740740823,0.2321999999992599],[-0.16979166666666667,0.020740740740740823,0.2456999999992604],[-0.1423958333333334,0.03685185185185181,0.261299999998883],[-0.1423958333333334,0.03685185185185181,0.27789999999851034],[-0.1592708333333333,0.062407407407407495,0.2945000000000064],[-0.1592708333333333,0.062407407407407495,0.3111999999992605],[-0.1798958333333334,0.07611111111111116,0.32779999999888787],[-0.1798958333333334,0.07611111111111116,0.34469999999925705],[-0.17406250000000004,0.07074074074074083,0.36119999999925767],[-0.17552083333333332,0.05611111111111103,0.3825000000000003],[-0.14479166666666668,0.07907407407407416,0.39909999999962764],[-0.14479166666666668,0.07907407407407416,0.41119999999925483],[-0.13645833333333332,0.09574074074074082,0.427899999998516],[-0.13645833333333332,0.09574074074074082,0.44459999999963173],[-0.09750000000000002,0.12129629629629629,0.4612999999988858],[-0.09750000000000002,0.12129629629629629,0.47779999999888645],[-0.13416666666666663,0.06129629629629634,0.49450000000000216],[-0.17906249999999999,-0.018888888888888972,0.5150000000000006],[-0.17906249999999999,-0.018888888888888972,0.5277999999988836],[-0.22604166666666667,-0.08518518518518518,0.5445999999996332],[-0.2482291666666666,-0.17518518518518522,0.5631999999992559],[-0.26979166666666665,-0.25462962962962965,0.5778999999985146],[-0.3134375,-0.3287037037037037,0.5945000000000036],[-0.349375,-0.3998148148148148,0.615000000000002],[-0.3180208333333333,-0.3603703703703704,0.630500000000005],[-0.27531249999999996,-0.30759259259259264,0.6473999999985125],[-0.24270833333333333,-0.2640740740740741,0.6652999999988864],[-0.19156249999999997,-0.19222222222222224,0.6805000000000021],[-0.13322916666666665,-0.08222222222222218,0.6968999999985144],[-0.07572916666666671,0.0020370370370370794,0.721500000000006],[-0.07572916666666671,0.0020370370370370794,0.7390000000000043],[-0.04677083333333331,0.12092592592592584,0.7560999999996341],[-0.04677083333333331,0.12092592592592584,0.7637999999988878],[-0.0006250000000000236,0.24462962962962967,0.7808999999985105],[0.04666666666666662,0.3653703703703703,0.7973999999985111],[0.06687500000000005,0.5114814814814815,0.8111999999992605],[0.03791666666666664,0.5666666666666667,0.8306999999992613],[0.007395833333333357,0.5598148148148148,0.8448999999985105],[-0.026041666666666668,0.55,0.8612999999988844],[-0.08020833333333334,0.5481481481481482,0.8808999999985119],[-0.08666666666666671,0.4609259259259259,0.8961999999992614],[-0.12302083333333336,0.45314814814814824,0.9113999999985154],[-0.13177083333333334,0.4244444444444445,0.9310000000000045],[-0.10343749999999995,0.41,0.9453999999985143],[-0.10343749999999995,0.41,0.9611999999992591],[-0.07625000000000005,0.3985185185185186,0.9778999999985132],[-0.05395833333333329,0.3346296296296297,0.9945999999996289],[-0.03104166666666662,0.22092592592592583,1.014299999998883],[-0.0036458333333333334,0.2064814814814815,1.0280999999996325],[0.03322916666666664,0.1844444444444445,1.0463999999985134],[0.10572916666666667,0.15685185185185194,1.0645000000000024],[0.10833333333333334,0.15092592592592594,1.0780999999996297],[0.11666666666666667,0.1455555555555556,1.094699999999257],[0.125,0.14018518518518527,1.1111999999992577],[0.08354166666666671,0.105925925925926,1.131099999999634],[0.08354166666666671,0.105925925925926,1.144799999998888],[0.0875,0.041111111111111195,1.1613999999985154],[0.10104166666666667,0.0418518518518519,1.1780000000000044],[0.09583333333333334,0.07277777777777769,1.194500000000005],[0.05375000000000003,0.08074074074074078,1.2130999999996277],[0.03760416666666669,0.03092592592592601,1.2277999999988864],[-0.004270833333333357,0.0257407407407407,1.2493999999985164],[-0.024791666666666618,0.05851851851851856,1.2651999999992611],[0.022187499999999954,-0.01777777777777782,1.2800999999996279],[0.05593750000000005,-0.07388888888888885,1.2945999999996332],[0.0912499999999999,-0.12074074074074072,1.3115000000000023],[0.09916666666666671,-0.1492592592592593,1.3310999999996298],[0.09427083333333333,-0.18574074074074076,1.347099999999628],[0.08937499999999995,-0.2222222222222222,1.3612999999988844],[0.1224999999999999,-0.29314814814814816,1.3800999999996293],[0.13583333333333342,-0.29148148148148145,1.3945999999996275],[0.17052083333333337,-0.3225925925925926,1.4113999999985154],[0.19500000000000003,-0.3453703703703704,1.4280000000000044],[0.17697916666666677,-0.3133333333333333,1.4473999999985097],[0.175,-0.30629629629629623,1.46359999999963],[0.1701041666666666,-0.29740740740740745,1.4777999999988864],[0.14093749999999997,-0.26500000000000007,1.4945000000000022],[0.14697916666666658,-0.2631481481481482,1.5110999999996295],[0.17864583333333334,-0.28351851851851856,1.5277999999988836],[0.19666666666666663,-0.26722222222222225,1.5446999999992599],[0.1990624999999999,-0.2581481481481481,1.5611999999992605],[0.19083333333333338,-0.2601851851851852,1.5777999999988879],[0.1734375,-0.25629629629629624,1.5945000000000036],[0.17802083333333343,-0.24148148148148144,1.6111999999992577],[0.17979166666666657,-0.22185185185185188,1.627799999998885],[0.1877083333333334,-0.2270370370370371,1.6445999999996275],[0.20187499999999994,-0.24351851851851852,1.661099999999628],[0.20906250000000004,-0.24462962962962967,1.677899999998516],[0.1896874999999999,-0.21851851851851853,1.694500000000005],[0.16885416666666658,-0.20203703703703707,1.711199999999259],[0.14802083333333324,-0.18555555555555553,1.7277999999988864],[0.14572916666666677,-0.15055555555555558,1.744599999999629],[0.14739583333333334,-0.1366666666666667,1.7611999999992562],[0.12354166666666658,-0.13481481481481483,1.7777999999988836],[0.09968750000000005,-0.13296296296296298,1.7945000000000064],[0.0696875000000001,-0.10629629629629625,1.8110999999996338],[0.07177083333333342,-0.06407407407407412,1.8277999999988879],[0.08083333333333324,-0.03722222222222227,1.8445000000000036],[0.07374999999999995,-0.022037037037036994,1.8611999999992577],[0.09739583333333333,-0.020185185185185143,1.8778999999985118],[0.07677083333333339,-0.008148148148148106,1.8945000000000007],[0.04822916666666662,-0.0035185185185184764,1.911099999999628],[0.023958333333333335,0.02111111111111107,1.9277999999988822],[0.022187499999999954,0.01703703703703712,1.9445999999996317],[0.03802083333333333,0.02962962962962963,1.961199999999259],[0.03822916666666672,0.018333333333333292,1.9778999999985132],[0.00635416666666669,-0.00851851851851856,1.9945000000000022],[-0.019687499999999976,-0.041111111111111195,2.0110999999996295],[-0.0265625,-0.06518518518518517,2.0277999999988836],[-0.058437500000000024,-0.06759259259259259,2.044599999999633],[-0.04604166666666672,-0.0801851851851852,2.0611999999992605],[-0.025729166666666713,-0.08944444444444447,2.077799999998888],[0.005729166666666666,-0.11185185185185181,2.0945000000000036],[0.022291666666666644,-0.09796296296296292,2.1111999999992577],[0.021249999999999977,-0.1007407407407407,2.1278999999985118],[0.058854166666666666,-0.0940740740740741,2.1445000000000007],[0.09645833333333324,-0.08740740740740739,2.164799999998884],[0.0900000000000001,-0.06611111111111109,2.177899999998516],[0.08145833333333338,-0.04666666666666675,2.194899999998512],[0.07822916666666657,-0.042407407407407366,2.211299999998886],[0.07302083333333324,-0.03685185185185181,2.2308999999985133],[0.07302083333333324,-0.03685185185185181,2.2462999999988824],[0.10447916666666662,-0.05796296296296299,2.261599999999632],[0.1482291666666666,-0.06333333333333331,2.278000000000006],[0.17468750000000005,-0.08796296296296297,2.2966999999992552],[0.20114583333333325,-0.11259259259259262,2.311099999999634],[0.20958333333333337,-0.10759259259259263,2.327799999998888],[0.22062499999999996,-0.10685185185185184,2.3458999999985153],[0.22062499999999996,-0.10685185185185184,2.3611999999992577],[0.2642708333333334,-0.12814814814814812,2.377799999998885],[0.2642708333333334,-0.12814814814814812,2.3945999999996275],[0.32135416666666666,-0.1537037037037037,2.411199999999255],[0.35989583333333336,-0.17592592592592593,2.4325999999996313],[0.35989583333333336,-0.17592592592592593,2.444899999998512],[0.39124999999999993,-0.17999999999999997,2.461199999999259],[0.39124999999999993,-0.17999999999999997,2.477899999998513],[0.37218749999999995,-0.16833333333333328,2.494599999999629],[0.37218749999999995,-0.16833333333333328,2.5111999999992562],[0.33395833333333325,-0.20185185185185187,2.528000000000006],[0.33395833333333325,-0.20185185185185187,2.5445000000000064],[0.3154166666666666,-0.20462962962962963,2.5611999999992605],[0.3154166666666666,-0.20462962962962963,2.5778999999985146],[0.30927083333333344,-0.21814814814814817,2.5945000000000036],[0.30927083333333344,-0.21814814814814817,2.6111999999992577],[0.29812500000000003,-0.24685185185185188,2.6278999999985118],[0.29812500000000003,-0.24685185185185188,2.6445999999996275],[0.28791666666666677,-0.2712962962962963,2.661199999999255],[0.28791666666666677,-0.2712962962962963,2.677799999998882],[0.2603125000000001,-0.26740740740740737,2.6946999999992585],[0.2603125000000001,-0.26740740740740737,2.7110999999996324],[0.24114583333333334,-0.28648148148148145,2.7335000000000065],[0.24114583333333334,-0.28648148148148145,2.7447999999988824],[0.23781249999999995,-0.26777777777777784,2.761599999999632],[0.23781249999999995,-0.26777777777777784,2.778000000000006],[0.2569791666666667,-0.2803703703703703,2.799799999998889],[0.2569791666666667,-0.2803703703703703,2.8112999999988872],[0.2772916666666667,-0.2898148148148148,2.8280999999996297],[0.2772916666666667,-0.2898148148148148,2.849599999999633],[0.3211458333333333,-0.2735185185185185,2.8615999999996333],[0.3211458333333333,-0.2735185185185185,2.878],[0.35260416666666666,-0.26944444444444443,2.8946999999992613],[0.3841666666666666,-0.23555555555555555,2.91969999999926],[0.3841666666666666,-0.23555555555555555,2.9280000000000044],[0.4028125000000001,-0.2518518518518518,2.944899999998512],[0.4158333333333334,-0.22981481481481486,2.9637999999988835],[0.45979166666666677,-0.23425925925925925,2.9823999999985134],[0.4730208333333332,-0.2168518518518519,2.996699999999258],[0.48895833333333344,-0.24055555555555552,3.0111999999992562],[0.49979166666666663,-0.2331481481481481,3.0280999999996325],[0.5259375000000001,-0.2081481481481481,3.048500000000004],[0.5427083333333333,-0.19537037037037036,3.063799999998885],[0.5654166666666666,-0.18833333333333332,3.077799999998888],[0.5630208333333333,-0.2264814814814815,3.098000000000006],[0.5640625,-0.2227777777777778,3.113899999998516],[0.5671875,-0.2574074074074074,3.128],[0.5623958333333334,-0.2807407407407408,3.1445999999996275],[0.5467708333333334,-0.28944444444444445,3.1651999999992597],[0.5514583333333334,-0.26666666666666666,3.1801999999992603],[0.5479166666666667,-0.2631481481481482,3.194799999998885],[0.53125,-0.2933333333333333,3.2110999999996324],[0.5072916666666667,-0.30759259259259264,3.2277999999988864],[0.4913541666666667,-0.305,3.244500000000002],[0.4913541666666667,-0.305,3.2641999999992564],[0.4775000000000001,-0.2972222222222222,3.278000000000006],[0.46937499999999993,-0.27925925925925926,3.294599999999633],[0.465625,-0.25870370370370366,3.3112999999988872],[0.4618750000000001,-0.2381481481481482,3.3305000000000007],[0.4618750000000001,-0.2381481481481482,3.3447999999988838],[0.46770833333333334,-0.22018518518518515,3.361399999998511],[0.4539583333333333,-0.2551851851851852,3.378],[0.4566666666666668,-0.29444444444444445,3.3943999999985124],[0.44541666666666657,-0.30888888888888894,3.411099999999628],[0.43156249999999996,-0.3061111111111111,3.427799999998882],[0.4179166666666667,-0.3290740740740741,3.4445999999996317],[0.4002083333333334,-0.32518518518518524,3.4632999999988883],[0.39041666666666663,-0.3177777777777778,3.480399999998511],[0.39000000000000007,-0.32999999999999996,3.494599999999629],[0.38958333333333334,-0.34222222222222226,3.511299999998883],[0.3811458333333334,-0.34870370370370374,3.531500000000001],[0.3867708333333333,-0.3618518518518518,3.5480999999996286],[0.3776041666666667,-0.37833333333333335,3.563199999999256],[0.3837500000000001,-0.3814814814814815,3.5820000000000007],[0.3837500000000001,-0.3814814814814815,3.5945999999996303],[0.3870833333333332,-0.39037037037037037,3.6112999999988844],[0.3854166666666667,-0.3822222222222222,3.628],[0.3992708333333333,-0.36944444444444446,3.6476999999992614],[0.39822916666666663,-0.3901851851851852,3.663599999999633],[0.3902083333333332,-0.3738888888888888,3.677799999998882],[0.4048958333333334,-0.3381481481481482,3.6988999999985097],[0.42958333333333343,-0.3442592592592592,3.713399999998515],[0.43947916666666675,-0.32222222222222224,3.7277999999988864],[0.43302083333333335,-0.2383333333333333,3.744599999999629],[0.4261458333333332,-0.19092592592592597,3.761500000000005],[0.4127083333333334,-0.11944444444444445,3.7777999999988836],[0.4007291666666667,-0.06222222222222226,3.794599999999633],[0.38312499999999994,-0.009444444444444486,3.811099999999634],[0.3877083333333334,0.04203703703703712,3.827799999998888],[0.38552083333333326,0.07351851851851861,3.8445999999996303],[0.3444791666666667,0.04685185185185177,3.861099999999631],[0.3115624999999999,0.049629629629629544,3.877799999998885],[0.2709374999999999,0.049074074074074076,3.8945000000000007],[0.24500000000000005,-0.005740740740740783,3.911199999999255],[0.21947916666666673,-0.04222222222222214,3.927799999998882],[0.21416666666666656,-0.14592592592592596,3.9458999999985167],[0.17479166666666662,-0.22611111111111115,3.9610999999996324],[0.14947916666666666,-0.3177777777777778,3.9800999999996307],[0.08677083333333328,-0.3690740740740741,3.994500000000002],[0.009791666666666643,-0.3992592592592593,4.0110999999996295],[-0.035416666666666666,-0.3979629629629629,4.027799999998884],[-0.09489583333333336,-0.4007407407407407,4.044500000000006],[-0.1453125,-0.387037037037037,4.061099999999634],[-0.2251041666666667,-0.3588888888888889,4.077699999999261],[-0.30375,-0.3301851851851852,4.094500000000004],[-0.38250000000000006,-0.25759259259259265,4.111099999999631],[-0.4047916666666667,-0.19129629629629633,4.129699999999261],[-0.4527083333333334,-0.12037037037037036,4.146000000000001],[-0.4746875,-0.060370370370370414,4.164500000000004],[-0.4496875000000001,-0.05407407407407405,4.179799999998885],[-0.421875,-0.04277777777777782,4.194500000000005],[-0.3797916666666667,-0.027407407407407325,4.211199999999259],[-0.34135416666666674,-0.03166666666666671,4.2277999999988864],[-0.2735416666666667,-0.050370370370370454,4.244500000000002],[-0.22447916666666667,-0.0514814814814814,4.265799999998883],[-0.21302083333333333,-0.04407407407407399,4.281500000000001],[-0.22864583333333333,-0.0477777777777777,4.294799999998887],[-0.2280208333333333,-0.0507407407407407,4.311099999999634],[-0.22697916666666665,-0.038703703703703664,4.327799999998888],[-0.25020833333333337,-0.07462962962962966,4.34459999999963],[-0.29187500000000005,-0.10833333333333334,4.361099999999631],[-0.33270833333333333,-0.06592592592592597,4.377899999998512],[-0.37124999999999997,-0.01703703703703712,4.394399999998512],[-0.365625,0.04296296296296305,4.411099999999628],[-0.34125,0.08537037037037042,4.427799999998882],[-0.3098958333333333,0.04759259259259268,4.449199999999259],[-0.2280208333333333,0.0003703703703704546,4.464299999998886],[-0.2280208333333333,0.0003703703703704546,4.488899999998516],[-0.16875,-0.07740740740740742,4.505699999999258],[-0.16875,-0.07740740740740742,4.5123999999985145],[-0.09864583333333338,-0.15351851851851847,4.528000000000006],[-0.03895833333333331,-0.17592592592592593,4.545000000000002],[0.020729166666666642,-0.1983333333333334,4.564199999999261],[0.09885416666666676,-0.25555555555555554,4.577799999998888],[0.17687499999999995,-0.31425925925925924,4.594399999998515],[0.2107291666666666,-0.384074074074074,4.611099999999631],[0.23145833333333338,-0.4553703703703703,4.629899999998514],[0.27468750000000003,-0.46722222222222226,4.6445999999996275],[0.27291666666666664,-0.4838888888888889,4.661099999999628],[0.29375,-0.47000000000000003,4.677799999998882],[0.31437499999999996,-0.42185185185185187,4.694500000000005],[0.3390625,-0.36518518518518517,4.711099999999632],[0.3611458333333334,-0.2975925925925926,4.7277999999988864],[0.3611458333333334,-0.2975925925925926,4.744599999999629],[0.3802083333333333,-0.31574074074074077,4.7610999999996295],[0.3802083333333333,-0.31574074074074077,4.777799999998884],[0.4127083333333334,-0.3007407407407407,4.799799999998889],[0.4127083333333334,-0.3007407407407407,4.811399999998514],[0.40479166666666655,-0.2851851851851852,4.828199999999256],[0.40479166666666655,-0.2851851851851852,4.844699999999257],[0.40302083333333344,-0.24870370370370373,4.861099999999631],[0.3922916666666666,-0.22555555555555556,4.881599999999629],[0.3922916666666666,-0.22555555555555556,4.8945999999996275],[0.37604166666666666,-0.1881481481481482,4.911099999999628],[0.37604166666666666,-0.1881481481481482,4.928000000000004],[0.41354166666666664,-0.1440740740740741,4.944599999999632],[0.41354166666666664,-0.1440740740740741,4.961199999999259],[0.42166666666666663,-0.1838888888888889,4.9777999999988864],[0.4490624999999999,-0.18425925925925926,4.999699999999258],[0.4490624999999999,-0.18425925925925926,5.0110999999996295],[0.4544791666666666,-0.18425925925925926,5.027799999998884],[0.4544791666666666,-0.18425925925925926,5.044599999999633],[0.4288541666666667,-0.11518518518518517,5.061099999999634],[0.4288541666666667,-0.11518518518518517,5.077799999998888],[0.39177083333333323,-0.09888888888888885,5.094500000000004],[0.39177083333333323,-0.09888888888888885,5.111099999999631],[0.37781250000000005,-0.07592592592592592,5.127799999998885],[0.37781250000000005,-0.07592592592592592,5.145000000000003],[0.3741666666666667,-0.06222222222222226,5.161199999999255],[0.3741666666666667,-0.06222222222222226,5.177799999998882],[0.4010416666666667,-0.03462962962962971,5.194500000000005],[0.4010416666666667,-0.03462962962962971,5.211199999999259],[0.4417708333333332,-0.04018518518518527,5.228099999999628],[0.4417708333333332,-0.04018518518518527,5.250699999999256],[0.38218750000000007,-0.026111111111111154,5.261299999998883],[0.38218750000000007,-0.026111111111111154,5.277799999998884],[0.32625000000000004,-0.002407407407407323,5.294500000000006],[0.32625000000000004,-0.002407407407407323,5.311099999999634],[0.25812499999999994,0.027777777777777776,5.331899999998512],[0.25812499999999994,0.027777777777777776,5.345399999998513],[0.23968749999999991,0.003333333333333249,5.361500000000007],[0.23468749999999997,-0.041666666666666664,5.378],[0.22781250000000006,-0.06555555555555552,5.397599999999628],[0.24520833333333342,-0.10092592592592593,5.411299999998889],[0.24468750000000009,-0.14833333333333337,5.428099999999631],[0.22260416666666671,-0.1962962962962963,5.448],[0.18916666666666657,-0.19944444444444442,5.464000000000006],[0.21687500000000004,-0.23851851851851855,5.4780000000000015],[0.2493750000000001,-0.24981481481481477,5.494599999999629],[0.2775000000000001,-0.2903703703703704,5.514299999998883],[0.29010416666666666,-0.2935185185185185,5.528299999998886],[0.30406250000000007,-0.3007407407407407,5.544500000000006],[0.32000000000000006,-0.3072222222222222,5.564599999999629],[0.3334374999999999,-0.32407407407407407,5.580099999999632],[0.3614583333333333,-0.33907407407407414,5.594699999999257],[0.3757291666666667,-0.3622222222222223,5.614799999998887],[0.3898958333333333,-0.3718518518518519,5.631],[0.3697916666666667,-0.3844444444444445,5.6473999999985125],[0.35958333333333337,-0.4014814814814815,5.661399999998515],[0.34135416666666674,-0.3809259259259259,5.6776999999992555],[0.3189583333333334,-0.3425925925925926,5.694399999998517],[0.3132291666666667,-0.3375925925925926,5.711099999999632],[0.2964583333333332,-0.34370370370370373,5.7277999999988864],[0.3016666666666666,-0.3731481481481482,5.744500000000002],[0.3068749999999999,-0.40259259259259256,5.7610999999996295],[0.32302083333333326,-0.3901851851851852,5.777799999998884],[0.3497916666666666,-0.3987037037037037,5.794399999998511],[0.3962500000000001,-0.40611111111111114,5.811099999999634],[0.42312500000000003,-0.4094444444444445,5.827799999998888],[0.44291666666666674,-0.4335185185185186,5.848799999998889],[0.4578125,-0.4714814814814815,5.8642999999988845],[0.4560416666666666,-0.47611111111111115,5.878399999998514],[0.4609375,-0.4638888888888889,5.8945999999996275],[0.43937499999999996,-0.4137037037037037,5.913599999999633],[0.41520833333333323,-0.38370370370370366,5.927899999998516],[0.40510416666666677,-0.38629629629629636,5.944799999998885],[0.38312499999999994,-0.39166666666666666,5.964399999998513],[0.37489583333333343,-0.4027777777777778,5.980000000000004],[0.38166666666666677,-0.36518518518518517,5.994500000000002],[0.4032291666666666,-0.34222222222222226,6.01409999999963],[0.3929166666666667,-0.3274074074074074,6.028299999998886],[0.4197916666666667,-0.3116666666666667,6.045599999999631],[0.42239583333333336,-0.3198148148148148,6.061299999998887],[0.4357291666666666,-0.33370370370370367,6.080799999998888],[0.4517708333333334,-0.2959259259259259,6.097299999998889],[0.4339583333333332,-0.2492592592592593,6.112000000000002],[0.4150000000000001,-0.20407407407407405,6.127899999998512],[0.36739583333333337,-0.16518518518518516,6.148000000000003],[0.3567708333333333,-0.16129629629629633,6.163399999998511],[0.34437499999999993,-0.15259259259259256,6.177899999998516],[0.36395833333333344,-0.14574074074074073,6.194500000000005],[0.34572916666666675,-0.12777777777777777,6.21389999999851],[0.3522916666666667,-0.09870370370370372,6.2277999999988864],[0.3423958333333334,-0.08185185185185183,6.244500000000002],[0.3423958333333334,-0.08185185185185183,6.2610999999996295],[0.3337500000000001,-0.05703703703703706,6.27789999999851],[0.33531250000000007,-0.04666666666666675,6.294500000000006],[0.33354166666666674,-0.03592592592592588,6.311099999999634],[0.36520833333333325,-0.014259259259259343,6.327799999998888],[0.38520833333333326,0.0016666666666666245,6.347899999998511],[0.4025000000000001,0.012222222222222264,6.365500000000004],[0.39302083333333326,0.017592592592592594,6.380699999999258],[0.3841666666666666,0.010925925925925884,6.39659999999963],[0.38645833333333335,-0.0235185185185186,6.411099999999628],[0.4032291666666666,-0.0235185185185186,6.4276999999992555],[0.4301041666666668,-0.055185185185185205,6.444500000000005],[0.4501041666666666,-0.06703703703703702,6.46389999999851],[0.5016666666666666,-0.11129629629629634,6.477899999998513],[0.5346875,-0.14296296296296293,6.495199999999258],[0.5289583333333333,-0.18037037037037032,6.511299999998883],[0.5296875,-0.23111111111111113,6.5317999999988885],[0.5296875,-0.23111111111111113,6.544599999999633],[0.553125,-0.23018518518518521,6.561399999998514],[0.5724999999999999,-0.23037037037037034,6.578000000000003],[0.5849999999999999,-0.21203703703703702,6.597099999999628],[0.5730208333333332,-0.20240740740740742,6.611199999999258],[0.5684375,-0.18555555555555553,6.628099999999634],[0.5752083333333334,-0.18462962962962962,6.6445999999996275],[0.5567708333333333,-0.16222222222222227,6.663899999998513],[0.5235416666666666,-0.13425925925925927,6.6800999999996336],[0.5115624999999999,-0.11444444444444446,6.6946999999992585],[0.4931250000000001,-0.08129629629629626,6.711299999998886],[0.4861458333333334,-0.07833333333333335,6.73069999999926]]","[0.00019999999926056944,0.042399999998515625,0.06639999999851653,0.07309999999963424,0.10059999999963054,0.10819999999925756,0.13329999999888287,0.14100000000000534,0.16669999999925977,0.1735000000000042,0.19979999999888776,0.20709999999962747,0.2321999999992599,0.2456999999992604,0.261299999998883,0.27789999999851034,0.2945000000000064,0.3111999999992605,0.32779999999888787,0.34469999999925705,0.36119999999925767,0.3825000000000003,0.39909999999962764,0.41119999999925483,0.427899999998516,0.44459999999963173,0.4612999999988858,0.47779999999888645,0.49450000000000216,0.5150000000000006,0.5277999999988836,0.5445999999996332,0.5631999999992559,0.5778999999985146,0.5945000000000036,0.615000000000002,0.630500000000005,0.6473999999985125,0.6652999999988864,0.6805000000000021,0.6968999999985144,0.721500000000006,0.7390000000000043,0.7560999999996341,0.7637999999988878,0.7808999999985105,0.7973999999985111,0.8111999999992605,0.8306999999992613,0.8448999999985105,0.8612999999988844,0.8808999999985119,0.8961999999992614,0.9113999999985154,0.9310000000000045,0.9453999999985143,0.9611999999992591,0.9778999999985132,0.9945999999996289,1.014299999998883,1.0280999999996325,1.0463999999985134,1.0645000000000024,1.0780999999996297,1.094699999999257,1.1111999999992577,1.131099999999634,1.144799999998888,1.1613999999985154,1.1780000000000044,1.194500000000005,1.2130999999996277,1.2277999999988864,1.2493999999985164,1.2651999999992611,1.2800999999996279,1.2945999999996332,1.3115000000000023,1.3310999999996298,1.347099999999628,1.3612999999988844,1.3800999999996293,1.3945999999996275,1.4113999999985154,1.4280000000000044,1.4473999999985097,1.46359999999963,1.4777999999988864,1.4945000000000022,1.5110999999996295,1.5277999999988836,1.5446999999992599,1.5611999999992605,1.5777999999988879,1.5945000000000036,1.6111999999992577,1.627799999998885,1.6445999999996275,1.661099999999628,1.677899999998516,1.694500000000005,1.711199999999259,1.7277999999988864,1.744599999999629,1.7611999999992562,1.7777999999988836,1.7945000000000064,1.8110999999996338,1.8277999999988879,1.8445000000000036,1.8611999999992577,1.8778999999985118,1.8945000000000007,1.911099999999628,1.9277999999988822,1.9445999999996317,1.961199999999259,1.9778999999985132,1.9945000000000022,2.0110999999996295,2.0277999999988836,2.044599999999633,2.0611999999992605,2.077799999998888,2.0945000000000036,2.1111999999992577,2.1278999999985118,2.1445000000000007,2.164799999998884,2.177899999998516,2.194899999998512,2.211299999998886,2.2308999999985133,2.2462999999988824,2.261599999999632,2.278000000000006,2.2966999999992552,2.311099999999634,2.327799999998888,2.3458999999985153,2.3611999999992577,2.377799999998885,2.3945999999996275,2.411199999999255,2.4325999999996313,2.444899999998512,2.461199999999259,2.477899999998513,2.494599999999629,2.5111999999992562,2.528000000000006,2.5445000000000064,2.5611999999992605,2.5778999999985146,2.5945000000000036,2.6111999999992577,2.6278999999985118,2.6445999999996275,2.661199999999255,2.677799999998882,2.6946999999992585,2.7110999999996324,2.7335000000000065,2.7447999999988824,2.761599999999632,2.778000000000006,2.799799999998889,2.8112999999988872,2.8280999999996297,2.849599999999633,2.8615999999996333,2.878,2.8946999999992613,2.91969999999926,2.9280000000000044,2.944899999998512,2.9637999999988835,2.9823999999985134,2.996699999999258,3.0111999999992562,3.0280999999996325,3.048500000000004,3.063799999998885,3.077799999998888,3.098000000000006,3.113899999998516,3.128,3.1445999999996275,3.1651999999992597,3.1801999999992603,3.194799999998885,3.2110999999996324,3.2277999999988864,3.244500000000002,3.2641999999992564,3.278000000000006,3.294599999999633,3.3112999999988872,3.3305000000000007,3.3447999999988838,3.361399999998511,3.378,3.3943999999985124,3.411099999999628,3.427799999998882,3.4445999999996317,3.4632999999988883,3.480399999998511,3.494599999999629,3.511299999998883,3.531500000000001,3.5480999999996286,3.563199999999256,3.5820000000000007,3.5945999999996303,3.6112999999988844,3.628,3.6476999999992614,3.663599999999633,3.677799999998882,3.6988999999985097,3.713399999998515,3.7277999999988864,3.744599999999629,3.761500000000005,3.7777999999988836,3.794599999999633,3.811099999999634,3.827799999998888,3.8445999999996303,3.861099999999631,3.877799999998885,3.8945000000000007,3.911199999999255,3.927799999998882,3.9458999999985167,3.9610999999996324,3.9800999999996307,3.994500000000002,4.0110999999996295,4.027799999998884,4.044500000000006,4.061099999999634,4.077699999999261,4.094500000000004,4.111099999999631,4.129699999999261,4.146000000000001,4.164500000000004,4.179799999998885,4.194500000000005,4.211199999999259,4.2277999999988864,4.244500000000002,4.265799999998883,4.281500000000001,4.294799999998887,4.311099999999634,4.327799999998888,4.34459999999963,4.361099999999631,4.377899999998512,4.394399999998512,4.411099999999628,4.427799999998882,4.449199999999259,4.464299999998886,4.488899999998516,4.505699999999258,4.5123999999985145,4.528000000000006,4.545000000000002,4.564199999999261,4.577799999998888,4.594399999998515,4.611099999999631,4.629899999998514,4.6445999999996275,4.661099999999628,4.677799999998882,4.694500000000005,4.711099999999632,4.7277999999988864,4.744599999999629,4.7610999999996295,4.777799999998884,4.799799999998889,4.811399999998514,4.828199999999256,4.844699999999257,4.861099999999631,4.881599999999629,4.8945999999996275,4.911099999999628,4.928000000000004,4.944599999999632,4.961199999999259,4.9777999999988864,4.999699999999258,5.0110999999996295,5.027799999998884,5.044599999999633,5.061099999999634,5.077799999998888,5.094500000000004,5.111099999999631,5.127799999998885,5.145000000000003,5.161199999999255,5.177799999998882,5.194500000000005,5.211199999999259,5.228099999999628,5.250699999999256,5.261299999998883,5.277799999998884,5.294500000000006,5.311099999999634,5.331899999998512,5.345399999998513,5.361500000000007,5.378,5.397599999999628,5.411299999998889,5.428099999999631,5.448,5.464000000000006,5.4780000000000015,5.494599999999629,5.514299999998883,5.528299999998886,5.544500000000006,5.564599999999629,5.580099999999632,5.594699999999257,5.614799999998887,5.631,5.6473999999985125,5.661399999998515,5.6776999999992555,5.694399999998517,5.711099999999632,5.7277999999988864,5.744500000000002,5.7610999999996295,5.777799999998884,5.794399999998511,5.811099999999634,5.827799999998888,5.848799999998889,5.8642999999988845,5.878399999998514,5.8945999999996275,5.913599999999633,5.927899999998516,5.944799999998885,5.964399999998513,5.980000000000004,5.994500000000002,6.01409999999963,6.028299999998886,6.045599999999631,6.061299999998887,6.080799999998888,6.097299999998889,6.112000000000002,6.127899999998512,6.148000000000003,6.163399999998511,6.177899999998516,6.194500000000005,6.21389999999851,6.2277999999988864,6.244500000000002,6.2610999999996295,6.27789999999851,6.294500000000006,6.311099999999634,6.327799999998888,6.347899999998511,6.365500000000004,6.380699999999258,6.39659999999963,6.411099999999628,6.4276999999992555,6.444500000000005,6.46389999999851,6.477899999998513,6.495199999999258,6.511299999998883,6.5317999999988885,6.544599999999633,6.561399999998514,6.578000000000003,6.597099999999628,6.611199999999258,6.628099999999634,6.6445999999996275,6.663899999998513,6.6800999999996336,6.6946999999992585,6.711299999998886,6.73069999999926]","[1733120445988,1733120446023,1733120446047,1733120446054,1733120446081,1733120446089,1733120446114,1733120446122,1733120446147,1733120446154,1733120446180,1733120446188,1733120446213,1733120446226,1733120446242,1733120446258,1733120446275,1733120446292,1733120446308,1733120446325,1733120446342,1733120446363,1733120446380,1733120446392,1733120446408,1733120446425,1733120446442,1733120446458,1733120446475,1733120446496,1733120446508,1733120446525,1733120446544,1733120446558,1733120446575,1733120446596,1733120446611,1733120446628,1733120446646,1733120446661,1733120446677,1733120446702,1733120446719,1733120446737,1733120446744,1733120446761,1733120446778,1733120446792,1733120446811,1733120446825,1733120446842,1733120446861,1733120446877,1733120446892,1733120446912,1733120446926,1733120446942,1733120446958,1733120446975,1733120446995,1733120447009,1733120447027,1733120447045,1733120447059,1733120447075,1733120447092,1733120447112,1733120447125,1733120447142,1733120447159,1733120447175,1733120447194,1733120447208,1733120447230,1733120447246,1733120447261,1733120447275,1733120447292,1733120447312,1733120447328,1733120447342,1733120447361,1733120447375,1733120447392,1733120447409,1733120447428,1733120447444,1733120447458,1733120447475,1733120447492,1733120447508,1733120447526,1733120447542,1733120447558,1733120447575,1733120447592,1733120447608,1733120447625,1733120447642,1733120447658,1733120447675,1733120447692,1733120447708,1733120447725,1733120447742,1733120447758,1733120447775,1733120447792,1733120447808,1733120447825,1733120447842,1733120447858,1733120447875,1733120447892,1733120447908,1733120447925,1733120447942,1733120447958,1733120447975,1733120447992,1733120448008,1733120448025,1733120448042,1733120448058,1733120448075,1733120448092,1733120448108,1733120448125,1733120448145,1733120448158,1733120448175,1733120448192,1733120448211,1733120448227,1733120448242,1733120448259,1733120448277,1733120448292,1733120448308,1733120448327,1733120448342,1733120448358,1733120448375,1733120448392,1733120448413,1733120448426,1733120448442,1733120448458,1733120448475,1733120448492,1733120448508,1733120448525,1733120448542,1733120448558,1733120448575,1733120448592,1733120448608,1733120448625,1733120448642,1733120448658,1733120448675,1733120448692,1733120448714,1733120448725,1733120448742,1733120448758,1733120448780,1733120448792,1733120448809,1733120448830,1733120448842,1733120448858,1733120448875,1733120448900,1733120448909,1733120448925,1733120448944,1733120448963,1733120448977,1733120448992,1733120449009,1733120449029,1733120449044,1733120449058,1733120449079,1733120449094,1733120449109,1733120449125,1733120449146,1733120449161,1733120449175,1733120449192,1733120449208,1733120449225,1733120449245,1733120449259,1733120449275,1733120449292,1733120449311,1733120449325,1733120449342,1733120449359,1733120449375,1733120449392,1733120449408,1733120449425,1733120449444,1733120449461,1733120449475,1733120449492,1733120449512,1733120449529,1733120449544,1733120449563,1733120449575,1733120449592,1733120449609,1733120449628,1733120449644,1733120449658,1733120449679,1733120449694,1733120449708,1733120449725,1733120449742,1733120449758,1733120449775,1733120449792,1733120449808,1733120449825,1733120449842,1733120449858,1733120449875,1733120449892,1733120449908,1733120449926,1733120449942,1733120449961,1733120449975,1733120449992,1733120450008,1733120450025,1733120450042,1733120450058,1733120450075,1733120450092,1733120450110,1733120450126,1733120450145,1733120450160,1733120450175,1733120450192,1733120450208,1733120450225,1733120450246,1733120450262,1733120450275,1733120450292,1733120450308,1733120450325,1733120450342,1733120450358,1733120450375,1733120450392,1733120450408,1733120450430,1733120450445,1733120450469,1733120450486,1733120450493,1733120450509,1733120450526,1733120450545,1733120450558,1733120450575,1733120450592,1733120450610,1733120450625,1733120450642,1733120450658,1733120450675,1733120450692,1733120450708,1733120450725,1733120450742,1733120450758,1733120450780,1733120450792,1733120450809,1733120450825,1733120450842,1733120450862,1733120450875,1733120450892,1733120450909,1733120450925,1733120450942,1733120450958,1733120450980,1733120450992,1733120451008,1733120451025,1733120451042,1733120451058,1733120451075,1733120451092,1733120451108,1733120451126,1733120451142,1733120451158,1733120451175,1733120451192,1733120451209,1733120451231,1733120451242,1733120451258,1733120451275,1733120451292,1733120451312,1733120451326,1733120451342,1733120451359,1733120451378,1733120451392,1733120451409,1733120451429,1733120451445,1733120451459,1733120451475,1733120451495,1733120451509,1733120451525,1733120451545,1733120451561,1733120451575,1733120451595,1733120451612,1733120451628,1733120451642,1733120451658,1733120451675,1733120451692,1733120451709,1733120451725,1733120451742,1733120451758,1733120451775,1733120451792,1733120451808,1733120451829,1733120451845,1733120451859,1733120451875,1733120451894,1733120451908,1733120451925,1733120451945,1733120451961,1733120451975,1733120451995,1733120452009,1733120452026,1733120452042,1733120452061,1733120452078,1733120452093,1733120452108,1733120452129,1733120452144,1733120452158,1733120452175,1733120452194,1733120452208,1733120452225,1733120452242,1733120452258,1733120452275,1733120452292,1733120452308,1733120452328,1733120452346,1733120452361,1733120452377,1733120452392,1733120452408,1733120452425,1733120452444,1733120452458,1733120452476,1733120452492,1733120452512,1733120452525,1733120452542,1733120452558,1733120452578,1733120452592,1733120452609,1733120452625,1733120452644,1733120452661,1733120452675,1733120452692,1733120452711]","[[734.8,442.5],[734.8,442.5],[764.8,478.4],[764.8,478.4],[763.9,494],[763.9,494],[770.5,496.8],[770.5,496.8],[760.2,501.4],[760.2,501.4],[777.7,524.2],[777.7,524.2],[797,551.2],[797,551.2],[823.3,559.9],[823.3,559.9],[807.1,573.7],[807.1,573.7],[787.3,581.1],[787.3,581.1],[792.9,578.2],[791.5,570.3],[821,582.7],[821,582.7],[829,591.7],[829,591.7],[866.4,605.5],[866.4,605.5],[831.2,573.1],[788.1,529.8],[788.1,529.8],[743,494],[721.7,445.4],[701,402.5],[659.1,362.5],[624.6,324.1],[654.7,345.4],[695.7,373.9],[727,397.4],[776.1,436.2],[832.1,495.6],[887.3,541.1],[887.3,541.1],[915.1,605.3],[915.1,605.3],[959.4,672.1],[1004.8,737.3],[1024.2,816.2],[996.4,846],[967.1,842.3],[935,837],[883,836],[876.8,788.9],[841.9,784.7],[833.5,769.2],[860.7,761.4],[860.7,761.4],[886.8,755.2],[908.2,720.7],[930.2,659.3],[956.5,651.5],[991.9,639.6],[1061.5,624.7],[1064,621.5],[1072,618.6],[1080,615.7],[1040.2,597.2],[1040.2,597.2],[1044,562.2],[1057,562.6],[1052,579.3],[1011.6,583.6],[996.1,556.7],[955.9,553.9],[936.2,571.6],[981.3,530.4],[1013.7,500.1],[1047.6,474.8],[1055.2,459.4],[1050.5,439.7],[1045.8,420],[1077.6,381.7],[1090.4,382.6],[1123.7,365.8],[1147.2,353.5],[1129.9,370.8],[1128,374.6],[1123.3,379.4],[1095.3,396.9],[1101.1,397.9],[1131.5,386.9],[1148.8,395.7],[1151.1,400.6],[1143.2,399.5],[1126.5,401.6],[1130.9,409.6],[1132.6,420.2],[1140.2,417.4],[1153.8,408.5],[1160.7,407.9],[1142.1,422],[1122.1,430.9],[1102.1,439.8],[1099.9,458.7],[1101.5,466.2],[1078.6,467.2],[1055.7,468.2],[1026.9,482.6],[1028.9,505.4],[1037.6,519.9],[1030.8,528.1],[1053.5,529.1],[1033.7,535.6],[1006.3,538.1],[983,551.4],[981.3,549.2],[996.5,556],[996.7,549.9],[966.1,535.4],[941.1,517.8],[934.5,504.8],[903.9,503.5],[915.8,496.7],[935.3,491.7],[965.5,479.6],[981.4,487.1],[980.4,485.6],[1016.5,489.2],[1052.6,492.8],[1046.4,504.3],[1038.2,514.8],[1035.1,517.1],[1030.1,520.1],[1030.1,520.1],[1060.3,508.7],[1102.3,505.8],[1127.7,492.5],[1153.1,479.2],[1161.2,481.9],[1171.8,482.3],[1171.8,482.3],[1213.7,470.8],[1213.7,470.8],[1268.5,457],[1305.5,445],[1305.5,445],[1335.6,442.8],[1335.6,442.8],[1317.3,449.1],[1317.3,449.1],[1280.6,431],[1280.6,431],[1262.8,429.5],[1262.8,429.5],[1256.9,422.2],[1256.9,422.2],[1246.2,406.7],[1246.2,406.7],[1236.4,393.5],[1236.4,393.5],[1209.9,395.6],[1209.9,395.6],[1191.5,385.3],[1191.5,385.3],[1188.3,395.4],[1188.3,395.4],[1206.7,388.6],[1206.7,388.6],[1226.2,383.5],[1226.2,383.5],[1268.3,392.3],[1268.3,392.3],[1298.5,394.5],[1328.8,412.8],[1328.8,412.8],[1346.7,404],[1359.2,415.9],[1401.4,413.5],[1414.1,422.9],[1429.4,410.1],[1439.8,414.1],[1464.9,427.6],[1481,434.5],[1502.8,438.3],[1500.5,417.7],[1501.5,419.7],[1504.5,401],[1499.9,388.4],[1484.9,383.7],[1489.4,396],[1486,397.9],[1470,381.6],[1447,373.9],[1431.7,375.3],[1431.7,375.3],[1418.4,379.5],[1410.6,389.2],[1407,400.3],[1403.4,411.4],[1403.4,411.4],[1409,421.1],[1395.8,402.2],[1398.4,381],[1387.6,373.2],[1374.3,374.7],[1361.2,362.3],[1344.2,364.4],[1334.8,368.4],[1334.4,361.8],[1334,355.2],[1325.9,351.7],[1331.3,344.6],[1322.5,335.7],[1328.4,334],[1328.4,334],[1331.6,329.2],[1330,333.6],[1343.3,340.5],[1342.3,329.3],[1334.6,338.1],[1348.7,357.4],[1372.4,354.1],[1381.9,366],[1375.7,411.3],[1369.1,436.9],[1356.2,475.5],[1344.7,506.4],[1327.8,534.9],[1332.2,562.7],[1330.1,579.7],[1290.7,565.3],[1259.1,566.8],[1220.1,566.5],[1195.2,536.9],[1170.7,517.2],[1165.6,461.2],[1127.8,417.9],[1103.5,368.4],[1043.3,340.7],[969.4,324.4],[926,325.1],[868.9,323.6],[820.5,331],[743.9,346.2],[668.4,361.7],[592.8,400.9],[571.4,436.7],[525.4,475],[504.3,507.4],[528.3,510.8],[555,516.9],[595.4,525.2],[632.3,522.9],[697.4,512.8],[744.5,512.2],[755.5,516.2],[740.5,514.2],[741.1,512.6],[742.1,519.1],[719.8,499.7],[679.8,481.5],[640.6,504.4],[603.6,530.8],[609,563.2],[632.4,586.1],[662.5,565.7],[741.1,540.2],[741.1,540.2],[798,498.2],[798,498.2],[865.3,457.1],[922.6,445],[979.9,432.9],[1054.9,402],[1129.8,370.3],[1162.3,332.6],[1182.2,294.1],[1223.7,287.7],[1222,278.7],[1242,286.2],[1261.8,312.2],[1285.5,342.8],[1306.7,379.3],[1306.7,379.3],[1325,369.5],[1325,369.5],[1356.2,377.6],[1356.2,377.6],[1348.6,386],[1348.6,386],[1346.9,405.7],[1336.6,418.2],[1336.6,418.2],[1321,438.4],[1321,438.4],[1357,462.2],[1357,462.2],[1364.8,440.7],[1391.1,440.5],[1391.1,440.5],[1396.3,440.5],[1396.3,440.5],[1371.7,477.8],[1371.7,477.8],[1336.1,486.6],[1336.1,486.6],[1322.7,499],[1322.7,499],[1319.2,506.4],[1319.2,506.4],[1345,521.3],[1345,521.3],[1384.1,518.3],[1384.1,518.3],[1326.9,525.9],[1326.9,525.9],[1273.2,538.7],[1273.2,538.7],[1207.8,555],[1207.8,555],[1190.1,541.8],[1185.3,517.5],[1178.7,504.6],[1195.4,485.5],[1194.9,459.9],[1173.7,434],[1141.6,432.3],[1168.2,411.2],[1199.4,405.1],[1226.4,383.2],[1238.5,381.5],[1251.9,377.6],[1267.2,374.1],[1280.1,365],[1307,356.9],[1320.7,344.4],[1334.3,339.2],[1315,332.4],[1305.2,323.2],[1287.7,334.3],[1266.2,355],[1260.7,357.7],[1244.6,354.4],[1249.6,338.5],[1254.6,322.6],[1270.1,329.3],[1295.8,324.7],[1340.4,320.7],[1366.2,318.9],[1385.2,305.9],[1399.5,285.4],[1397.8,282.9],[1402.5,289.5],[1381.8,316.6],[1358.6,332.8],[1348.9,331.4],[1327.8,328.5],[1319.9,322.5],[1326.4,342.8],[1347.1,355.2],[1337.2,363.2],[1363,371.7],[1365.5,367.3],[1378.3,359.8],[1393.7,380.2],[1376.6,405.4],[1358.4,429.8],[1312.7,450.8],[1302.5,452.9],[1290.6,457.6],[1309.4,461.3],[1291.9,471],[1298.2,486.7],[1288.7,495.8],[1288.7,495.8],[1280.4,509.2],[1281.9,514.8],[1280.2,520.6],[1310.6,532.3],[1329.8,540.9],[1346.4,546.6],[1337.3,549.5],[1328.8,545.9],[1331,527.3],[1347.1,527.3],[1372.9,510.2],[1392.1,503.8],[1441.6,479.9],[1473.3,462.8],[1467.8,442.6],[1468.5,415.2],[1468.5,415.2],[1491,415.7],[1509.6,415.6],[1521.6,425.5],[1510.1,430.7],[1505.7,439.8],[1512.2,440.3],[1494.5,452.4],[1462.6,467.5],[1451.1,478.2],[1433.4,496.1],[1426.7,497.7]]","[0,0.3527331528]","[0.3527331528,0.3527331528]","[-0.3527331528,-0.3527331528]","[-0.3527331528,0]","[0,-0.3527331528]","[0.3527331528,-0.3527331528]","[0,0]","[0.3527331528,0]",0,0,0,0,1,4,Tablet,11,5,13,9
