inst1_resp.keys,inst1_resp.rt,calibrationMouse.x,calibrationMouse.y,calibrationMouse.leftButton,calibrationMouse.midButton,calibrationMouse.rightButton,calibrationClick.x,calibrationClick.y,calibrationClick.leftButton,calibrationClick.midButton,calibrationClick.rightButton,trialsc.thisRepN,trialsc.thisTrialN,trialsc.thisN,trialsc.thisIndex,trialsc.ran,calibration_x,calibration_y,participant,session,date,expName,psychopyVersion,OS,frameRate,calibrationClick.clicked_name,ScreenRes_pixels,Camera_pixels,mouse_2.x,mouse_2.y,mouse_2.leftButton,mouse_2.midButton,mouse_2.rightButton,mouse_2.time,mouse_2.clicked_name,mouse.x,mouse.y,mouse.leftButton,mouse.midButton,mouse.rightButton,mouse.time,mouse.clicked_name,Choice,Trial,TrialDuration,MOUSE_GAZE,ET_GAZE,ET_GAZE_x_T,time,unixTime,ET_GAZE_NF,Loc_Option1_label,Loc_Option2_label,Loc_Cost_label,Loc_Qual_label,Loc_Option1_cost,Loc_Option2_cost,Loc_Option1_quality,Loc_Option2_quality,trials.thisRepN,trials.thisTrialN,trials.thisN,trials.thisIndex,trials.ran,Block,Device,cost1,qual1,cost2,qual2
space,3.1342,0.551041667,-0.388888889,1,0,0,0.55,-0.388888889,0,0,0,0,0,0,18,1,0.33,0.67,20,001,2024-12-02_14h15.19.419,Attention_exp_legacy,2023.1.0,Win32,59.88023952,,,,,,,,,,,,,,,,,,,,,,,,,,,,,,,,,,,,,,,,,,,,,
,,,,,,,0.669791667,-0.672222222,1,0,0,0,1,1,20,1,0.67,-0.67,20,001,2024-12-02_14h15.19.419,Attention_exp_legacy,2023.1.0,Win32,59.88023952,calibration_square,,,,,,,,,,,,,,,,,,,,,,,,,,,,,,,,,,,,,,,,,,,,
,,,,,,,-0.001041667,0.001851852,1,0,0,0,2,2,11,1,0,0,20,001,2024-12-02_14h15.19.419,Attention_exp_legacy,2023.1.0,Win32,59.88023952,calibration_square,,,,,,,,,,,,,,,,,,,,,,,,,,,,,,,,,,,,,,,,,,,,
,,,,,,,-0.332291667,-0.316666667,1,0,0,0,3,3,5,1,-0.33,-0.33,20,001,2024-12-02_14h15.19.419,Attention_exp_legacy,2023.1.0,Win32,59.88023952,,,,,,,,,,,,,,,,,,,,,,,,,,,,,,,,,,,,,,,,,,,,,
,,,,,,,-0.3375,-0.009259259,1,0,0,0,4,4,6,1,-0.33,0,20,001,2024-12-02_14h15.19.419,Attention_exp_legacy,2023.1.0,Win32,59.88023952,calibration_square,,,,,,,,,,,,,,,,,,,,,,,,,,,,,,,,,,,,,,,,,,,,
,,,,,,,-0.003125,-0.65,1,0,0,0,5,5,9,1,0,-0.67,20,001,2024-12-02_14h15.19.419,Attention_exp_legacy,2023.1.0,Win32,59.88023952,,,,,,,,,,,,,,,,,,,,,,,,,,,,,,,,,,,,,,,,,,,,,
,,,,,,,-0.00625,0.338888889,1,0,0,0,6,6,12,1,0,0.33,20,001,2024-12-02_14h15.19.419,Attention_exp_legacy,2023.1.0,Win32,59.88023952,calibration_square,,,,,,,,,,,,,,,,,,,,,,,,,,,,,,,,,,,,,,,,,,,,
,,,,,,,-0.335416667,-0.675925926,1,0,0,0,7,7,4,1,-0.33,-0.67,20,001,2024-12-02_14h15.19.419,Attention_exp_legacy,2023.1.0,Win32,59.88023952,calibration_square,,,,,,,,,,,,,,,,,,,,,,,,,,,,,,,,,,,,,,,,,,,,
,,,,,,,0.342708333,0.018518519,1,0,0,0,8,8,16,1,0.33,0,20,001,2024-12-02_14h15.19.419,Attention_exp_legacy,2023.1.0,Win32,59.88023952,,,,,,,,,,,,,,,,,,,,,,,,,,,,,,,,,,,,,,,,,,,,,
,,,,,,,-0.68125,0.335185185,1,0,0,0,9,9,3,1,-0.67,0.33,20,001,2024-12-02_14h15.19.419,Attention_exp_legacy,2023.1.0,Win32,59.88023952,,,,,,,,,,,,,,,,,,,,,,,,,,,,,,,,,,,,,,,,,,,,,
,,,,,,,-0.680208333,-0.018518519,1,0,0,0,10,10,2,1,-0.67,0,20,001,2024-12-02_14h15.19.419,Attention_exp_legacy,2023.1.0,Win32,59.88023952,,,,,,,,,,,,,,,,,,,,,,,,,,,,,,,,,,,,,,,,,,,,,
,,,,,,,-0.002083333,0.688888889,1,0,0,0,11,11,13,1,0,0.67,20,001,2024-12-02_14h15.19.419,Attention_exp_legacy,2023.1.0,Win32,59.88023952,,,,,,,,,,,,,,,,,,,,,,,,,,,,,,,,,,,,,,,,,,,,,
,,,,,,,0.341666667,0.338888889,1,0,0,0,12,12,17,1,0.33,0.33,20,001,2024-12-02_14h15.19.419,Attention_exp_legacy,2023.1.0,Win32,59.88023952,,,,,,,,,,,,,,,,,,,,,,,,,,,,,,,,,,,,,,,,,,,,,
,,,,,,,0.338541667,-0.337037037,1,0,0,0,13,13,15,1,0.33,-0.33,20,001,2024-12-02_14h15.19.419,Attention_exp_legacy,2023.1.0,Win32,59.88023952,calibration_square,,,,,,,,,,,,,,,,,,,,,,,,,,,,,,,,,,,,,,,,,,,,
,,,,,,,0.6625,0.666666667,1,0,0,0,14,14,19,1,0.67,0.67,20,001,2024-12-02_14h15.19.419,Attention_exp_legacy,2023.1.0,Win32,59.88023952,calibration_square,,,,,,,,,,,,,,,,,,,,,,,,,,,,,,,,,,,,,,,,,,,,
,,,,,,,0.323958333,-0.683333333,1,0,0,0,15,15,14,1,0.33,-0.67,20,001,2024-12-02_14h15.19.419,Attention_exp_legacy,2023.1.0,Win32,59.88023952,,,,,,,,,,,,,,,,,,,,,,,,,,,,,,,,,,,,,,,,,,,,,
,,,,,,,-0.68125,-0.668518519,1,0,0,0,16,16,0,1,-0.67,-0.67,20,001,2024-12-02_14h15.19.419,Attention_exp_legacy,2023.1.0,Win32,59.88023952,,,,,,,,,,,,,,,,,,,,,,,,,,,,,,,,,,,,,,,,,,,,,
,,,,,,,-0.007291667,-0.32962963,1,0,0,0,17,17,10,1,0,-0.33,20,001,2024-12-02_14h15.19.419,Attention_exp_legacy,2023.1.0,Win32,59.88023952,calibration_square,,,,,,,,,,,,,,,,,,,,,,,,,,,,,,,,,,,,,,,,,,,,
,,,,,,,-0.317708333,0.67037037,1,0,0,0,18,18,8,1,-0.33,0.67,20,001,2024-12-02_14h15.19.419,Attention_exp_legacy,2023.1.0,Win32,59.88023952,,,,,,,,,,,,,,,,,,,,,,,,,,,,,,,,,,,,,,,,,,,,,
,,,,,,,-0.655208333,-0.324074074,1,0,0,0,19,19,1,1,-0.67,-0.33,20,001,2024-12-02_14h15.19.419,Attention_exp_legacy,2023.1.0,Win32,59.88023952,,,,,,,,,,,,,,,,,,,,,,,,,,,,,,,,,,,,,,,,,,,,,
,,,,,,,-0.35,0.355555556,1,0,0,0,20,20,7,1,-0.33,0.33,20,001,2024-12-02_14h15.19.419,Attention_exp_legacy,2023.1.0,Win32,59.88023952,,,,,,,,,,,,,,,,,,,,,,,,,,,,,,,,,,,,,,,,,,,,,
,,,,,,,,,,,,,,,,,,,20,001,2024-12-02_14h15.19.419,Attention_exp_legacy,2023.1.0,Win32,59.88023952,,"[1920,1080]","[640,480]",[0.015625],[-0.5203703703703704],[1],[0],[0],[12.531000000000006],"[""StartButton""]",[0.15625],[0.1537037037037037],[1],[0],[0],[8.13709999999962],"[""Option2_label""]",Option2_label,1,9.1607,"[[0.015625,-0.5037037037037037],[0.015625,-0.5037037037037037],[0.015625,-0.5037037037037037],[0.015625,-0.5037037037037037],[0.015625,-0.5037037037037037],[0.015625,-0.5037037037037037],[0.015625,-0.5037037037037037],[0.015625,-0.5037037037037037],[0.015625,-0.5037037037037037],[0.015625,-0.5037037037037037],[0.015625,-0.5037037037037037],[0.015625,-0.5037037037037037],[0.015625,-0.5037037037037037],[0.015625,-0.5037037037037037],[0.015625,-0.5037037037037037],[0.015625,-0.5037037037037037],[0.015625,-0.5037037037037037],[0.015625,-0.5037037037037037],[0.015625,-0.5037037037037037],[0.015625,-0.5037037037037037],[0.015625,-0.5037037037037037],[0.015625,-0.5037037037037037],[0.015625,-0.5037037037037037],[0.015625,-0.5037037037037037],[0.015625,-0.5037037037037037],[0.015625,-0.5037037037037037],[0.015625,-0.5037037037037037],[0.015625,-0.5037037037037037],[0.015625,-0.5037037037037037],[0.015625,-0.5037037037037037],[0.015625,-0.4962962962962963],[0.01875,-0.49074074074074076],[0.026041666666666668,-0.48148148148148145],[0.03229166666666667,-0.4759259259259259],[0.03333333333333333,-0.4722222222222222],[0.034375,-0.4685185185185185],[0.034375,-0.4666666666666667],[0.034375,-0.4666666666666667],[0.034375,-0.4666666666666667],[0.034375,-0.4666666666666667],[0.034375,-0.4666666666666667],[0.034375,-0.4666666666666667],[0.034375,-0.4666666666666667],[0.034375,-0.4666666666666667],[0.034375,-0.4666666666666667],[0.034375,-0.4666666666666667],[0.034375,-0.4666666666666667],[0.034375,-0.4666666666666667],[0.034375,-0.4666666666666667],[0.034375,-0.4666666666666667],[0.034375,-0.4666666666666667],[0.034375,-0.4666666666666667],[0.034375,-0.4666666666666667],[0.034375,-0.4666666666666667],[0.034375,-0.4666666666666667],[0.034375,-0.4666666666666667],[0.034375,-0.4666666666666667],[0.034375,-0.4666666666666667],[0.034375,-0.4666666666666667],[0.034375,-0.4666666666666667],[0.034375,-0.4666666666666667],[0.034375,-0.4666666666666667],[0.034375,-0.4666666666666667],[0.034375,-0.4666666666666667],[0.034375,-0.4666666666666667],[0.034375,-0.4666666666666667],[0.034375,-0.4666666666666667],[0.034375,-0.4666666666666667],[0.034375,-0.4666666666666667],[0.034375,-0.4666666666666667],[0.034375,-0.4666666666666667],[0.034375,-0.45925925925925926],[0.035416666666666666,-0.45],[0.036458333333333336,-0.43703703703703706],[0.036458333333333336,-0.4351851851851852],[0.036458333333333336,-0.43148148148148147],[0.036458333333333336,-0.42777777777777776],[0.036458333333333336,-0.42777777777777776],[0.036458333333333336,-0.42777777777777776],[0.036458333333333336,-0.42777777777777776],[0.036458333333333336,-0.42777777777777776],[0.036458333333333336,-0.42777777777777776],[0.036458333333333336,-0.42777777777777776],[0.036458333333333336,-0.42777777777777776],[0.036458333333333336,-0.42777777777777776],[0.036458333333333336,-0.42777777777777776],[0.036458333333333336,-0.42777777777777776],[0.036458333333333336,-0.42777777777777776],[0.036458333333333336,-0.42777777777777776],[0.036458333333333336,-0.42777777777777776],[0.036458333333333336,-0.42777777777777776],[0.036458333333333336,-0.42592592592592593],[0.036458333333333336,-0.4166666666666667],[0.03854166666666667,-0.3962962962962963],[0.040625,-0.3648148148148148],[0.04375,-0.337037037037037],[0.04375,-0.30925925925925923],[0.04583333333333333,-0.26296296296296295],[0.04583333333333333,-0.21481481481481482],[0.04583333333333333,-0.15925925925925927],[0.04583333333333333,-0.13148148148148148],[0.04479166666666667,-0.10925925925925926],[0.041666666666666664,-0.08518518518518518],[0.03854166666666667,-0.06481481481481481],[0.035416666666666666,-0.05],[0.034375,-0.040740740740740744],[0.03333333333333333,-0.03333333333333333],[0.03125,-0.025925925925925925],[0.030208333333333334,-0.024074074074074074],[0.030208333333333334,-0.022222222222222223],[0.028125,-0.016666666666666666],[0.027083333333333334,-0.012962962962962963],[0.025,-0.007407407407407408],[0.023958333333333335,-0.003703703703703704],[0.022916666666666665,-0.003703703703703704],[0.022916666666666665,0],[0.021875,0.001851851851851852],[0.020833333333333332,0.007407407407407408],[0.019791666666666666,0.016666666666666666],[0.017708333333333333,0.022222222222222223],[0.017708333333333333,0.025925925925925925],[0.016666666666666666,0.03333333333333333],[0.015625,0.03518518518518519],[0.015625,0.04814814814814815],[0.014583333333333334,0.05555555555555555],[0.013541666666666667,0.06481481481481481],[0.013541666666666667,0.07592592592592592],[0.013541666666666667,0.09444444444444444],[0.0125,0.10740740740740741],[0.011458333333333333,0.11851851851851852],[0.009375,0.12407407407407407],[0.009375,0.1259259259259259],[0.009375,0.1259259259259259],[0.009375,0.1259259259259259],[0.008333333333333333,0.1259259259259259],[0.008333333333333333,0.12962962962962962],[0.007291666666666667,0.13518518518518519],[0.007291666666666667,0.13703703703703704],[0.007291666666666667,0.14074074074074075],[0.00625,0.1425925925925926],[0.00625,0.14629629629629629],[0.00625,0.14629629629629629],[0.00625,0.15185185185185185],[0.00625,0.1537037037037037],[0.00625,0.15555555555555556],[0.00625,0.1574074074074074],[0.00625,0.1574074074074074],[0.00625,0.1574074074074074],[0.00625,0.1574074074074074],[0.00625,0.1574074074074074],[0.00625,0.1574074074074074],[0.00625,0.1574074074074074],[0.00625,0.1574074074074074],[0.00625,0.1574074074074074],[0.00625,0.1574074074074074],[0.00625,0.1574074074074074],[0.00625,0.1574074074074074],[0.00625,0.1574074074074074],[0.00625,0.1574074074074074],[0.00625,0.1574074074074074],[0.00625,0.1574074074074074],[0.00625,0.1574074074074074],[0.00625,0.1574074074074074],[0.00625,0.1574074074074074],[0.00625,0.1574074074074074],[0.00625,0.1574074074074074],[0.00625,0.1574074074074074],[0.00625,0.1574074074074074],[0.00625,0.1574074074074074],[0.00625,0.1574074074074074],[0.00625,0.1574074074074074],[0.00625,0.1574074074074074],[0.00625,0.1574074074074074],[0.00625,0.1574074074074074],[0.00625,0.1574074074074074],[0.020833333333333332,0.15],[0.053125,0.14074074074074075],[0.09270833333333334,0.13333333333333333],[0.13854166666666667,0.12037037037037036],[0.16875,0.11296296296296296],[0.19166666666666668,0.10555555555555556],[0.20520833333333333,0.10185185185185185],[0.20729166666666668,0.10185185185185185],[0.20729166666666668,0.10185185185185185],[0.20833333333333334,0.10185185185185185],[0.20833333333333334,0.1],[0.20729166666666668,0.09444444444444444],[0.20104166666666667,0.08333333333333333],[0.19479166666666667,0.06851851851851852],[0.184375,0.05185185185185185],[0.17395833333333333,0.03148148148148148],[0.16458333333333333,0.012962962962962963],[0.16041666666666668,0.001851851851851852],[0.15625,-0.009259259259259259],[0.15520833333333334,-0.014814814814814815],[0.153125,-0.022222222222222223],[0.14895833333333333,-0.03888888888888889],[0.14479166666666668,-0.05185185185185185],[0.14270833333333333,-0.06111111111111111],[0.13958333333333334,-0.07222222222222222],[0.13645833333333332,-0.08518518518518518],[0.13229166666666667,-0.09074074074074075],[0.128125,-0.09444444444444444],[0.11875,-0.09814814814814815],[0.109375,-0.09814814814814815],[0.096875,-0.09814814814814815],[0.07083333333333333,-0.08888888888888889],[0.06354166666666666,-0.08518518518518518],[0.035416666666666666,-0.07222222222222222],[0.026041666666666668,-0.06481481481481481],[0.015625,-0.05185185185185185],[0.009375,-0.04814814814814815],[0.004166666666666667,-0.040740740740740744],[-0.0010416666666666667,-0.03333333333333333],[-0.003125,-0.027777777777777776],[-0.003125,-0.024074074074074074],[-0.003125,-0.020370370370370372],[-0.003125,-0.018518518518518517],[-0.003125,-0.016666666666666666],[-0.003125,-0.016666666666666666],[-0.0020833333333333333,-0.011111111111111112],[-0.0020833333333333333,-0.009259259259259259],[-0.0020833333333333333,-0.007407407407407408],[-0.0020833333333333333,-0.007407407407407408],[-0.0020833333333333333,-0.003703703703703704],[-0.0010416666666666667,0.003703703703703704],[0.0010416666666666667,0.012962962962962963],[0.0020833333333333333,0.024074074074074074],[0.005208333333333333,0.040740740740740744],[0.005208333333333333,0.05740740740740741],[0.00625,0.07407407407407407],[0.008333333333333333,0.08703703703703704],[0.008333333333333333,0.09814814814814815],[0.008333333333333333,0.10185185185185185],[0.008333333333333333,0.10185185185185185],[0.008333333333333333,0.10185185185185185],[0.008333333333333333,0.10185185185185185],[0.008333333333333333,0.10185185185185185],[0.008333333333333333,0.10185185185185185],[0.008333333333333333,0.10185185185185185],[0.008333333333333333,0.10185185185185185],[0.008333333333333333,0.10185185185185185],[0.008333333333333333,0.10185185185185185],[0.008333333333333333,0.10185185185185185],[0.008333333333333333,0.10185185185185185],[0.008333333333333333,0.10185185185185185],[0.008333333333333333,0.10185185185185185],[0.008333333333333333,0.10185185185185185],[0.008333333333333333,0.10185185185185185],[0.008333333333333333,0.10185185185185185],[0.008333333333333333,0.10185185185185185],[0.008333333333333333,0.10185185185185185],[0.008333333333333333,0.10185185185185185],[0.008333333333333333,0.10185185185185185],[0.008333333333333333,0.10740740740740741],[0.009375,0.10925925925925926],[0.011458333333333333,0.11481481481481481],[0.0125,0.11481481481481481],[0.016666666666666666,0.11851851851851852],[0.016666666666666666,0.12037037037037036],[0.01875,0.12222222222222222],[0.01875,0.12222222222222222],[0.01875,0.12222222222222222],[0.01875,0.12222222222222222],[0.01875,0.12222222222222222],[0.01875,0.12222222222222222],[0.01875,0.12222222222222222],[0.01875,0.12222222222222222],[0.01875,0.12222222222222222],[0.01875,0.12222222222222222],[0.01875,0.12222222222222222],[0.01875,0.12222222222222222],[0.01875,0.12222222222222222],[0.01875,0.12222222222222222],[0.01875,0.12222222222222222],[0.01875,0.12222222222222222],[0.019791666666666666,0.12222222222222222],[0.021875,0.1259259259259259],[0.03854166666666667,0.1259259259259259],[0.046875,0.1259259259259259],[0.08645833333333333,0.1259259259259259],[0.10833333333333334,0.1259259259259259],[0.125,0.1259259259259259],[0.13854166666666667,0.1259259259259259],[0.14375,0.1259259259259259],[0.14583333333333334,0.1259259259259259],[0.146875,0.1259259259259259],[0.146875,0.1259259259259259],[0.146875,0.1259259259259259],[0.140625,0.1259259259259259],[0.11041666666666666,0.1259259259259259],[0.09583333333333334,0.12962962962962962],[0.058333333333333334,0.14444444444444443],[0.03854166666666667,0.15185185185185185],[0.025,0.15925925925925927],[0.01875,0.16296296296296298],[0.017708333333333333,0.16296296296296298],[0.016666666666666666,0.16296296296296298],[0.016666666666666666,0.16296296296296298],[0.016666666666666666,0.16296296296296298],[0.016666666666666666,0.16296296296296298],[0.016666666666666666,0.16296296296296298],[0.016666666666666666,0.16296296296296298],[0.016666666666666666,0.16296296296296298],[0.016666666666666666,0.16296296296296298],[0.016666666666666666,0.16296296296296298],[0.016666666666666666,0.16296296296296298],[0.017708333333333333,0.16296296296296298],[0.020833333333333332,0.1648148148148148],[0.023958333333333335,0.1648148148148148],[0.030208333333333334,0.16666666666666666],[0.036458333333333336,0.1685185185185185],[0.04375,0.17037037037037037],[0.04895833333333333,0.17222222222222222],[0.052083333333333336,0.17222222222222222],[0.053125,0.17222222222222222],[0.05416666666666667,0.17222222222222222],[0.05416666666666667,0.17222222222222222],[0.05416666666666667,0.17222222222222222],[0.05416666666666667,0.17222222222222222],[0.05416666666666667,0.17222222222222222],[0.05520833333333333,0.17222222222222222],[0.058333333333333334,0.17222222222222222],[0.065625,0.17222222222222222],[0.07604166666666666,0.17222222222222222],[0.09166666666666666,0.1685185185185185],[0.11041666666666666,0.1648148148148148],[0.12708333333333333,0.15925925925925927],[0.14166666666666666,0.15555555555555556],[0.146875,0.15555555555555556],[0.14791666666666667,0.15555555555555556],[0.14791666666666667,0.15555555555555556],[0.14895833333333333,0.15555555555555556],[0.14895833333333333,0.15555555555555556],[0.14895833333333333,0.15555555555555556],[0.14895833333333333,0.15555555555555556],[0.14895833333333333,0.15555555555555556],[0.14895833333333333,0.15555555555555556],[0.14895833333333333,0.15555555555555556],[0.14895833333333333,0.15555555555555556],[0.14895833333333333,0.15555555555555556],[0.15,0.1537037037037037],[0.15104166666666666,0.1537037037037037],[0.15208333333333332,0.1537037037037037],[0.15416666666666667,0.1537037037037037],[0.15520833333333334,0.1537037037037037],[0.15625,0.1537037037037037],[0.15729166666666666,0.1537037037037037],[0.15833333333333333,0.1537037037037037],[0.15833333333333333,0.1537037037037037],[0.15833333333333333,0.1537037037037037],[0.15833333333333333,0.1537037037037037],[0.15833333333333333,0.1537037037037037],[0.15833333333333333,0.1537037037037037],[0.15833333333333333,0.1537037037037037],[0.15833333333333333,0.1537037037037037],[0.15833333333333333,0.1537037037037037],[0.15833333333333333,0.1537037037037037],[0.15833333333333333,0.1537037037037037],[0.15833333333333333,0.1537037037037037],[0.15833333333333333,0.1537037037037037],[0.15833333333333333,0.1537037037037037],[0.15833333333333333,0.1537037037037037],[0.15833333333333333,0.1537037037037037],[0.15833333333333333,0.1537037037037037],[0.15833333333333333,0.1537037037037037],[0.15833333333333333,0.1537037037037037],[0.15833333333333333,0.1537037037037037],[0.15833333333333333,0.1537037037037037],[0.15833333333333333,0.1537037037037037],[0.15833333333333333,0.1537037037037037],[0.15833333333333333,0.1537037037037037],[0.15833333333333333,0.1537037037037037],[0.15833333333333333,0.1537037037037037],[0.15833333333333333,0.1537037037037037],[0.15833333333333333,0.1537037037037037],[0.15833333333333333,0.1537037037037037],[0.15833333333333333,0.1537037037037037],[0.15833333333333333,0.1537037037037037],[0.15833333333333333,0.1537037037037037],[0.15833333333333333,0.1537037037037037],[0.15833333333333333,0.1537037037037037],[0.15833333333333333,0.1537037037037037],[0.15833333333333333,0.1537037037037037],[0.15833333333333333,0.1537037037037037],[0.15833333333333333,0.1537037037037037],[0.15833333333333333,0.1537037037037037],[0.15833333333333333,0.1537037037037037],[0.15833333333333333,0.1537037037037037],[0.15833333333333333,0.1537037037037037],[0.15833333333333333,0.1537037037037037],[0.15833333333333333,0.1537037037037037],[0.15833333333333333,0.1537037037037037],[0.15833333333333333,0.1537037037037037],[0.15833333333333333,0.1537037037037037],[0.15833333333333333,0.1537037037037037],[0.15833333333333333,0.1537037037037037],[0.15833333333333333,0.1537037037037037],[0.15833333333333333,0.1537037037037037],[0.15833333333333333,0.1537037037037037],[0.15833333333333333,0.1537037037037037],[0.15833333333333333,0.1537037037037037],[0.15833333333333333,0.1537037037037037],[0.15833333333333333,0.1537037037037037],[0.15833333333333333,0.1537037037037037],[0.15833333333333333,0.1537037037037037],[0.15833333333333333,0.1537037037037037],[0.15833333333333333,0.1537037037037037],[0.15833333333333333,0.1537037037037037],[0.15833333333333333,0.1537037037037037],[0.15833333333333333,0.1537037037037037],[0.15833333333333333,0.1537037037037037],[0.15833333333333333,0.1537037037037037],[0.15833333333333333,0.1537037037037037],[0.15833333333333333,0.1537037037037037],[0.15833333333333333,0.1537037037037037],[0.15833333333333333,0.1537037037037037],[0.15833333333333333,0.1537037037037037],[0.15833333333333333,0.1537037037037037],[0.15833333333333333,0.1537037037037037],[0.15833333333333333,0.1537037037037037],[0.15833333333333333,0.1537037037037037],[0.15833333333333333,0.1537037037037037],[0.15833333333333333,0.1537037037037037],[0.15833333333333333,0.1537037037037037],[0.15833333333333333,0.1537037037037037],[0.15833333333333333,0.1537037037037037],[0.15833333333333333,0.1537037037037037],[0.15833333333333333,0.1537037037037037],[0.15833333333333333,0.1537037037037037],[0.15833333333333333,0.1537037037037037],[0.15833333333333333,0.1537037037037037],[0.15833333333333333,0.1537037037037037],[0.15833333333333333,0.1537037037037037],[0.15833333333333333,0.1537037037037037],[0.15833333333333333,0.1537037037037037],[0.15833333333333333,0.1537037037037037],[0.15833333333333333,0.1537037037037037],[0.15833333333333333,0.1537037037037037],[0.15833333333333333,0.1537037037037037],[0.15833333333333333,0.1537037037037037],[0.15833333333333333,0.1537037037037037],[0.15833333333333333,0.1537037037037037],[0.15833333333333333,0.1537037037037037],[0.15833333333333333,0.1537037037037037],[0.15833333333333333,0.1537037037037037],[0.15833333333333333,0.1537037037037037],[0.15833333333333333,0.1537037037037037],[0.15833333333333333,0.1537037037037037],[0.15833333333333333,0.1537037037037037],[0.15833333333333333,0.1537037037037037],[0.15833333333333333,0.1537037037037037],[0.15833333333333333,0.1537037037037037],[0.15833333333333333,0.1537037037037037],[0.15833333333333333,0.1537037037037037],[0.15833333333333333,0.1537037037037037],[0.15833333333333333,0.1537037037037037],[0.15833333333333333,0.1537037037037037],[0.15833333333333333,0.1537037037037037],[0.15833333333333333,0.1537037037037037],[0.15833333333333333,0.1537037037037037],[0.15729166666666666,0.1537037037037037],[0.15625,0.1537037037037037],[0.15625,0.1537037037037037],[0.15625,0.1537037037037037],[0.15625,0.1537037037037037],[0.15625,0.1537037037037037],[0.15625,0.1537037037037037],[0.15625,0.1537037037037037],[0.15625,0.1537037037037037],[0.15625,0.1537037037037037],[0.15625,0.1537037037037037],[0.15625,0.1537037037037037],[0.15625,0.1537037037037037],[0.15625,0.1537037037037037],[0.15625,0.1537037037037037],[0.15625,0.1537037037037037],[0.15625,0.1537037037037037],[0.15625,0.1537037037037037],[0.15625,0.1537037037037037],[0.15625,0.1537037037037037],[0.15625,0.1537037037037037],[0.15625,0.1537037037037037],[0.15625,0.1537037037037037],[0.15625,0.1537037037037037],[0.15625,0.1537037037037037],[0.15625,0.1537037037037037],[0.15625,0.1537037037037037],[0.15625,0.1537037037037037],[0.15625,0.1537037037037037],[0.15625,0.1537037037037037],[0.15625,0.1537037037037037],[0.15625,0.1537037037037037],[0.15625,0.1537037037037037],[0.15625,0.14629629629629629],[0.16041666666666668,0.12407407407407407],[0.17604166666666668,0.07962962962962963],[0.18125,0.05740740740740741],[0.18645833333333334,0.03333333333333333],[0.1875,0.024074074074074074],[0.1875,0.014814814814814815],[0.1875,0.011111111111111112],[0.1875,0.007407407407407408],[0.1875,0.007407407407407408],[0.1875,0.005555555555555556],[0.1875,0.003703703703703704],[0.1875,0.003703703703703704],[0.1875,0.003703703703703704],[0.1875,0.003703703703703704],[0.1875,0.003703703703703704],[0.1875,0.003703703703703704],[0.1875,0.003703703703703704],[0.1875,0.003703703703703704],[0.1875,0.003703703703703704],[0.1875,0.003703703703703704],[0.1875,0.003703703703703704],[0.1875,0.003703703703703704],[0.1875,0.003703703703703704],[0.1875,0.003703703703703704],[0.1875,0.003703703703703704],[0.1875,0.003703703703703704],[0.1875,0.003703703703703704],[0.1875,0.003703703703703704],[0.1875,0.003703703703703704],[0.1875,0.003703703703703704],[0.1875,0.003703703703703704],[0.1875,0.003703703703703704],[0.1875,0.003703703703703704],[0.1875,0.003703703703703704],[0.1875,0.003703703703703704],[0.1875,0.005555555555555556],[0.18645833333333334,0.022222222222222223],[0.18229166666666666,0.05],[0.17916666666666667,0.06296296296296296],[0.17604166666666668,0.07592592592592592],[0.171875,0.08333333333333333],[0.171875,0.08518518518518518],[0.17083333333333334,0.08518518518518518],[0.17083333333333334,0.08518518518518518],[0.17083333333333334,0.08703703703703704],[0.17083333333333334,0.08703703703703704],[0.16979166666666667,0.08703703703703704],[0.16979166666666667,0.08703703703703704],[0.16979166666666667,0.08703703703703704],[0.16979166666666667,0.08703703703703704],[0.16979166666666667,0.08703703703703704],[0.16979166666666667,0.08703703703703704],[0.16979166666666667,0.09074074074074075],[0.16979166666666667,0.09259259259259259],[0.16979166666666667,0.09259259259259259]]","[[-0.051979166666666646,0.4579629629629629],[-0.051979166666666646,0.4579629629629629],[-0.051979166666666646,0.4579629629629629],[-0.09166666666666666,0.3911111111111112],[-0.06947916666666672,0.319074074074074],[-0.07895833333333328,0.2577777777777779],[-0.13416666666666663,0.18222222222222217],[-0.15874999999999997,0.032037037037036954],[-0.20208333333333334,-0.10611111111111113],[-0.21593749999999995,-0.20092592592592592],[-0.24562499999999995,-0.2959259259259259],[-0.24208333333333332,-0.30481481481481487],[-0.2476041666666667,-0.3059259259259259],[-0.2561458333333333,-0.3359259259259259],[-0.28500000000000003,-0.3446296296296297],[-0.2821875,-0.3640740740740741],[-0.2546875,-0.39537037037037037],[-0.23937499999999995,-0.34444444444444444],[-0.20447916666666663,-0.29962962962962963],[-0.19729166666666664,-0.31574074074074077],[-0.19885416666666664,-0.3022222222222222],[-0.22447916666666667,-0.365925925925926],[-0.24104166666666665,-0.4535185185185185],[-0.23270833333333332,-0.4570370370370371],[-0.22145833333333337,-0.4594444444444445],[-0.21343749999999997,-0.4537037037037037],[-0.21541666666666662,-0.43425925925925923],[-0.20510416666666664,-0.40777777777777774],[-0.19666666666666663,-0.37648148148148153],[-0.17114583333333327,-0.34981481481481475],[-0.13645833333333332,-0.3244444444444444],[-0.13645833333333332,-0.3244444444444444],[-0.08364583333333328,-0.22870370370370371],[-0.08364583333333328,-0.22870370370370371],[-0.0704166666666667,-0.12370370370370372],[-0.040625,-0.05870370370370368],[-0.040625,-0.05870370370370368],[-0.013750000000000047,0.005185185185185101],[-0.013750000000000047,0.005185185185185101],[0.011354166666666643,0.06777777777777783],[0.0265625,0.10111111111111115],[0.0265625,0.10111111111111115],[0.04874999999999995,0.09814814814814815],[0.04874999999999995,0.09814814814814815],[0.04635416666666667,0.12722222222222232],[0.04635416666666667,0.12722222222222232],[0.03166666666666664,0.1331481481481481],[0.024791666666666618,0.15388888888888894],[0.024791666666666618,0.15388888888888894],[-0.002395833333333286,0.1427777777777778],[-0.002395833333333286,0.1427777777777778],[-0.011666666666666714,0.13333333333333333],[-0.011666666666666714,0.13333333333333333],[-0.04718749999999995,0.12685185185185185],[-0.0640625,0.12740740740740733],[-0.08812500000000002,0.08722222222222227],[-0.10583333333333336,0.09148148148148144],[-0.12697916666666664,0.13444444444444448],[-0.13322916666666665,0.14092592592592595],[-0.13552083333333337,0.18555555555555564],[-0.13552083333333337,0.18555555555555564],[-0.1390625,0.19129629629629621],[-0.16833333333333336,0.2051851851851851],[-0.1727083333333333,0.19759259259259268],[-0.16968749999999996,0.21222222222222226],[-0.18531249999999996,0.2198148148148149],[-0.19031250000000005,0.2442592592592592],[-0.19104166666666664,0.25018518518518523],[-0.2140625,0.2633333333333334],[-0.22999999999999995,0.2772222222222223],[-0.2515625,0.26722222222222214],[-0.2515625,0.26722222222222214],[-0.23208333333333328,0.287962962962963],[-0.1951041666666666,0.29814814814814816],[-0.16687500000000005,0.3359259259259259],[-0.14416666666666664,0.347037037037037],[-0.1252083333333334,0.362962962962963],[-0.11260416666666669,0.377962962962963],[-0.09750000000000002,0.3949999999999999],[-0.052187500000000026,0.4209259259259258],[0.00927083333333331,0.4361111111111111],[0.07177083333333342,0.4359259259259259],[0.058958333333333356,0.43555555555555564],[0.08687500000000009,0.44907407407407407],[0.11479166666666671,0.4625925925925925],[0.13427083333333342,0.46518518518518526],[0.13479166666666675,0.45555555555555555],[0.16593749999999996,0.47129629629629627],[0.2009375000000001,0.4729629629629629],[0.21479166666666671,0.4383333333333334],[0.19656250000000006,0.4053703703703703],[0.17489583333333342,0.39944444444444455],[0.20385416666666673,0.4083333333333333],[0.19812500000000005,0.4046296296296296],[0.19812500000000005,0.4046296296296296],[0.19645833333333323,0.4022222222222223],[0.20833333333333334,0.38370370370370377],[0.2652083333333332,0.36148148148148157],[0.2603125000000001,0.3461111111111111],[0.22999999999999995,0.36314814814814816],[0.19968750000000005,0.3801851851851851],[0.2196875000000001,0.40629629629629627],[0.20458333333333342,0.39944444444444455],[0.18697916666666667,0.38074074074074077],[0.16937499999999991,0.36203703703703705],[0.16937499999999991,0.36203703703703705],[0.13354166666666673,0.33499999999999996],[0.09583333333333334,0.3140740740740741],[0.09583333333333334,0.3140740740740741],[0.06937499999999991,0.30703703703703694],[0.04718749999999995,0.3162962962962962],[0.050833333333333286,0.3022222222222223],[0.04760416666666671,0.2609259259259259],[0.03156249999999995,0.21481481481481482],[0.050520833333333334,0.20685185185185193],[0.04906250000000002,0.18944444444444436],[0.035416666666666666,0.1933333333333333],[0.0359375,0.20425925925925917],[0.05645833333333338,0.23870370370370367],[0.028750000000000022,0.2264814814814814],[0.03781249999999995,0.18555555555555564],[0.04833333333333331,0.16500000000000004],[0.06572916666666669,0.17166666666666675],[0.04562499999999995,0.1685185185185185],[0.024895833333333308,0.16203703703703703],[0.003541666666666643,0.14333333333333328],[-0.005624999999999976,0.10333333333333325],[-0.005624999999999976,0.10333333333333325],[-0.00625,0.07185185185185176],[-0.022500000000000023,0.01518518518518527],[-0.02833333333333338,0.0005555555555554713],[-0.03239583333333336,0.0001851851851852273],[-0.04781249999999997,-0.0235185185185186],[-0.058437500000000024,-0.040740740740740744],[-0.05343749999999995,-0.056666666666666705],[-0.043020833333333286,-0.07666666666666662],[-0.027395833333333286,-0.10629629629629625],[-0.0109375,-0.122037037037037],[-0.001979166666666643,-0.1359259259259259],[0.0006250000000000236,-0.13296296296296298],[0.0006250000000000236,-0.13296296296296298],[0.008229166666666643,-0.12166666666666665],[0.033854166666666664,-0.13092592592592592],[0.04572916666666664,-0.1366666666666667],[0.05281250000000005,-0.14888888888888885],[0.06364583333333336,-0.1425925925925926],[0.06906249999999996,-0.13222222222222219],[0.07302083333333324,-0.11962962962962967],[0.07614583333333323,-0.12092592592592595],[0.09645833333333324,-0.13259259259259262],[0.09104166666666676,-0.14574074074074073],[0.057187499999999974,-0.18129629629629626],[0.057187499999999974,-0.18129629629629626],[0.0015625,-0.21240740740740738],[0.0015625,-0.21240740740740738],[-0.02822916666666669,-0.2309259259259259],[-0.04093749999999995,-0.23481481481481484],[-0.050520833333333334,-0.275],[-0.060104166666666715,-0.3151851851851852],[-0.050937499999999976,-0.3320370370370371],[-0.04645833333333336,-0.3461111111111111],[-0.06906249999999996,-0.36444444444444446],[-0.08791666666666664,-0.37907407407407406],[-0.08791666666666664,-0.37907407407407406],[-0.07906249999999998,-0.37777777777777777],[-0.07906249999999998,-0.37777777777777777],[-0.05541666666666671,-0.3638888888888889],[-0.05541666666666671,-0.3638888888888889],[-0.04656250000000005,-0.3453703703703704],[-0.04656250000000005,-0.3453703703703704],[-0.04135416666666671,-0.37537037037037035],[-0.02510416666666669,-0.33907407407407414],[-0.02510416666666669,-0.33907407407407414],[-0.018124999999999978,-0.30925925925925923],[-0.018124999999999978,-0.30925925925925923],[-0.022083333333333382,-0.2783333333333334],[-0.022083333333333382,-0.2783333333333334],[-0.044479166666666715,-0.25574074074074077],[-0.044479166666666715,-0.25574074074074077],[-0.0359375,-0.2051851851851852],[-0.0359375,-0.2051851851851852],[-0.02385416666666664,-0.10740740740740741],[0.005624999999999976,0.006851851851851936],[0.005624999999999976,0.006851851851851936],[0.02166666666666662,0.03185185185185194],[0.02166666666666662,0.03185185185185194],[0.05447916666666662,0.028518518518518478],[0.06427083333333337,0.08555555555555563],[0.07447916666666667,0.10500000000000008],[0.10114583333333324,0.12092592592592584],[0.10614583333333343,0.09962962962962954],[0.13208333333333327,0.10111111111111115],[0.12614583333333323,0.07074074074074083],[0.14520833333333344,0.03685185185185181],[0.146875,-0.013518518518518435],[0.1382291666666667,0.019259259259259216],[0.1382291666666667,0.019259259259259216],[0.1352083333333333,0.03925925925925934],[0.1352083333333333,0.03925925925925934],[0.1412499999999999,0.016851851851851896],[0.1412499999999999,0.016851851851851896],[0.15499999999999994,0.011111111111111112],[0.1243750000000001,-0.009074074074074031],[0.12458333333333324,0.03166666666666671],[0.12458333333333324,0.03166666666666671],[0.1319791666666667,0.032407407407407406],[0.1196875000000001,0.03851851851851843],[0.10729166666666666,0.0025925925925925505],[0.0853125000000001,-0.027037037037037078],[0.06916666666666677,-0.049629629629629544],[0.052187500000000026,-0.04407407407407399],[0.03572916666666662,-0.022592592592592678],[0.004479166666666619,-0.016111111111111194],[0.005312500000000024,0.004814814814814857],[0.005312500000000024,0.004814814814814857],[-0.003125,-0.021481481481481525],[-0.044270833333333336,0.009444444444444486],[-0.014687500000000023,0.05925925925925926],[-0.019687499999999976,0.07111111111111107],[0.009062500000000048,0.12018518518518514],[0.04093749999999995,0.1557407407407408],[0.06364583333333336,0.16722222222222213],[0.08604166666666657,0.15703703703703695],[0.0875,0.1307407407407408],[0.09406249999999995,0.11444444444444436],[0.09145833333333328,0.10481481481481486],[0.09145833333333328,0.10481481481481486],[0.1078125,0.08444444444444449],[0.1078125,0.08444444444444449],[0.09031250000000005,0.0448148148148149],[0.13083333333333325,0.06611111111111119],[0.14718749999999994,0.04388888888888897],[0.13479166666666675,-0.015555555555555513],[0.11583333333333339,-0.05277777777777778],[0.10250000000000009,-0.07777777777777778],[0.10281250000000004,-0.09296296296296294],[0.08406250000000005,-0.11129629629629634],[0.06364583333333336,-0.1175925925925926],[0.0734375,-0.13870370370370366],[0.07197916666666657,-0.16870370370370374],[0.04708333333333338,-0.22166666666666665],[0.03218749999999997,-0.2559259259259259],[0.03322916666666664,-0.26055555555555554],[0.057500000000000044,-0.26777777777777784],[0.06729166666666657,-0.24962962962962965],[0.0828125,-0.2242592592592593],[0.10791666666666658,-0.21500000000000005],[0.13708333333333325,-0.18574074074074076],[0.14479166666666668,-0.1653703703703704],[0.1546875,-0.14814814814814814],[0.16458333333333333,-0.13092592592592592],[0.1671875,-0.11925925925925922],[0.18125,-0.09185185185185189],[0.1640625,-0.0772222222222222],[0.1560416666666666,-0.07851851851851847],[0.13395833333333323,-0.08722222222222227],[0.13239583333333324,-0.08370370370370368],[0.1267708333333334,-0.10018518518518522],[0.11479166666666671,-0.13148148148148148],[0.09927083333333328,-0.15259259259259256],[0.09916666666666671,-0.15333333333333335],[0.09260416666666677,-0.17407407407407408],[0.10510416666666676,-0.19648148148148153],[0.10437500000000005,-0.19796296296296292],[0.10499999999999995,-0.1933333333333333],[0.11791666666666671,-0.20611111111111113],[0.11979166666666667,-0.21185185185185182],[0.11489583333333328,-0.19296296296296295],[0.11635416666666672,-0.15925925925925927],[0.13156249999999994,-0.12981481481481486],[0.1318749999999999,-0.1205555555555556],[0.14135416666666673,-0.12444444444444443],[0.13312499999999997,-0.13481481481481483],[0.14208333333333342,-0.15703703703703706],[0.14208333333333342,-0.15703703703703706],[0.14968750000000006,-0.1853703703703704],[0.14812500000000003,-0.15055555555555558],[0.1259375000000001,-0.13444444444444448],[0.14354166666666662,-0.17166666666666663],[0.12833333333333338,-0.1801851851851852],[0.11083333333333342,-0.1955555555555556],[0.09666666666666662,-0.23203703703703707],[0.07999999999999995,-0.2338888888888889],[0.06479166666666672,-0.23444444444444448],[0.06177083333333329,-0.22962962962962963],[0.029791666666666692,-0.19592592592592595],[0.014479166666666644,-0.20611111111111113],[-0.021562500000000047,-0.10185185185185185],[-0.05520833333333333,0.04537037037037037],[-0.0829166666666667,0.14962962962962956],[-0.06687500000000005,0.16055555555555565],[-0.057187499999999974,0.1588888888888888],[-0.03843749999999998,0.1551851851851851],[-0.041979166666666616,0.11129629629629634],[-0.06666666666666667,0.09296296296296305],[-0.06666666666666667,0.09296296296296305],[-0.06354166666666666,0.10018518518518522],[-0.06354166666666666,0.10018518518518522],[-0.06052083333333336,0.06407407407407412],[-0.06052083333333336,0.06407407407407412],[-0.04739583333333333,-0.052222222222222205],[-0.06916666666666664,-0.17222222222222222],[-0.06916666666666664,-0.17222222222222222],[-0.03812500000000003,-0.2881481481481482],[-0.042604166666666644,-0.3074074074074074],[-0.042604166666666644,-0.3074074074074074],[-0.04458333333333329,-0.29314814814814816],[-0.04458333333333329,-0.29314814814814816],[-0.036562500000000026,-0.34500000000000003],[-0.036562500000000026,-0.34500000000000003],[-0.029062499999999977,-0.24296296296296294],[-0.029062499999999977,-0.24296296296296294],[-0.01906249999999995,-0.19888888888888884],[-0.01906249999999995,-0.19888888888888884],[-0.0046875,-0.20981481481481484],[-0.0046875,-0.20981481481481484],[0.024583333333333356,-0.1983333333333334],[0.024583333333333356,-0.1983333333333334],[0.0787499999999999,-0.21185185185185182],[0.0787499999999999,-0.21185185185185182],[0.14114583333333333,-0.19592592592592595],[0.14114583333333333,-0.19592592592592595],[0.1462500000000001,-0.20203703703703707],[0.1462500000000001,-0.20203703703703707],[0.1508333333333333,-0.20999999999999996],[0.1508333333333333,-0.20999999999999996],[0.14958333333333323,-0.18796296296296297],[0.14958333333333323,-0.18796296296296297],[0.12635416666666663,-0.11240740740740739],[0.14614583333333328,-0.15],[0.16520833333333323,-0.1618518518518518],[0.16520833333333323,-0.1618518518518518],[0.18541666666666667,-0.18407407407407403],[0.17468750000000005,-0.19648148148148153],[0.16927083333333334,-0.19000000000000003],[0.14249999999999996,-0.24129629629629631],[0.16375000000000003,-0.2094444444444445],[0.17177083333333343,-0.1675925925925926],[0.18562500000000004,-0.1557407407407408],[0.159375,-0.1588888888888889],[0.11145833333333334,-0.1638888888888889],[0.059895833333333336,-0.172037037037037],[0.051770833333333384,-0.16111111111111112],[0.034375,-0.1544444444444444],[0.018020833333333285,-0.15722222222222218],[0.015208333333333357,-0.1646296296296296],[-0.004270833333333357,-0.22296296296296292],[-0.025937499999999978,-0.2433333333333333],[-0.041875000000000044,-0.2735185185185185],[0.011562500000000024,-0.2633333333333333],[0.041666666666666664,-0.2524074074074074],[0.08666666666666671,-0.23074074074074077],[0.10645833333333338,-0.21203703703703702],[0.1271874999999999,-0.18074074074074079],[0.15208333333333332,-0.1287037037037037],[0.17604166666666668,-0.05425925925925928],[0.18354166666666671,-0.018148148148148063],[0.18499999999999991,-0.004814814814814857],[0.17552083333333332,0.019259259259259216],[0.1462500000000001,-0.0014814814814813973],[0.14031250000000003,-0.02296296296296292],[0.10739583333333323,-0.06407407407407412],[0.051874999999999956,-0.11037037037037041],[0.04697916666666669,-0.1175925925925926],[0.03791666666666664,-0.1455555555555556],[-0.004062499999999977,-0.16870370370370374],[-0.011041666666666691,-0.17018518518518513],[-0.01906249999999995,-0.1838888888888889],[-0.028750000000000022,-0.19074074074074074],[-0.041458333333333285,-0.14333333333333328],[-0.05416666666666667,-0.09592592592592594],[-0.029166666666666667,-0.07833333333333335],[-0.010312499999999976,-0.040740740740740744],[-0.033645833333333285,-0.05388888888888893],[-0.05697916666666671,-0.06703703703703702],[-0.04739583333333333,-0.08481481481481483],[-0.05166666666666669,-0.10407407407407405],[-0.06635416666666671,-0.12018518518518514],[-0.05270833333333336,-0.1455555555555556],[-0.06906249999999996,-0.2094444444444445],[-0.05239583333333329,-0.2524074074074074],[-0.06104166666666669,-0.2785185185185185],[-0.06270833333333338,-0.32537037037037037],[-0.09416666666666665,-0.35],[-0.12562500000000001,-0.37462962962962965],[-0.15625,-0.4003703703703704],[-0.19156249999999997,-0.40796296296296297],[-0.1872916666666666,-0.40111111111111114],[-0.20625,-0.4],[-0.20125000000000004,-0.38796296296296295],[-0.22427083333333328,-0.40481481481481485],[-0.22947916666666662,-0.3912962962962963],[-0.2603125,-0.352962962962963],[-0.18395833333333336,-0.3074074074074074],[-0.10760416666666663,-0.26185185185185184],[-0.02520833333333338,-0.2346296296296296],[0.057187499999999974,-0.2074074074074074],[0.12885416666666671,-0.17833333333333334],[0.19010416666666666,-0.13148148148148148],[0.2678124999999999,-0.10592592592592591],[0.32270833333333326,-0.08666666666666668],[0.3688541666666666,-0.06870370370370374],[0.44114583333333335,-0.05851851851851856],[0.4417708333333332,-0.0742592592592593],[0.44770833333333326,-0.0933333333333333],[0.4476041666666667,-0.08759259259259261],[0.44249999999999995,-0.0705555555555556],[0.43802083333333336,-0.0809259259259259],[0.4457291666666668,-0.10185185185185185],[0.43635416666666677,-0.11722222222222224],[0.45625,-0.12333333333333338],[0.4735416666666666,-0.11944444444444445],[0.4935416666666666,-0.11166666666666669],[0.5068749999999999,-0.11277777777777774],[0.5184375,-0.11740740740740736],[0.5317708333333333,-0.13499999999999995],[0.5317708333333333,-0.13499999999999995],[0.5497916666666666,-0.14592592592592596],[0.5497916666666666,-0.14592592592592596],[0.53125,-0.1412962962962963],[0.5415625000000001,-0.13962962962962958],[0.5463541666666667,-0.147037037037037],[0.5244791666666667,-0.12518518518518523],[0.5259375000000001,-0.13407407407407404],[0.49375,-0.1905555555555555],[0.46979166666666666,-0.19444444444444445],[0.44427083333333334,-0.2161111111111111],[0.41875,-0.21296296296296297],[0.4006249999999999,-0.23703703703703705],[0.4097916666666668,-0.24722222222222223],[0.3788541666666667,-0.2927777777777778],[0.34739583333333335,-0.2687037037037037],[0.3398958333333333,-0.27740740740740744],[0.31708333333333344,-0.2764814814814815],[0.32083333333333336,-0.24888888888888885],[0.3497916666666666,-0.2748148148148148],[0.37052083333333335,-0.27740740740740744],[0.36749999999999994,-0.3068518518518518],[0.35739583333333325,-0.32703703703703707],[0.3615624999999999,-0.37351851851851847],[0.3615624999999999,-0.37351851851851847],[0.36749999999999994,-0.35555555555555557],[0.36749999999999994,-0.35555555555555557],[0.38562500000000005,-0.42000000000000004],[0.38562500000000005,-0.42000000000000004],[0.4023958333333333,-0.4516666666666666],[0.4023958333333333,-0.4516666666666666],[0.4040625000000001,-0.4746296296296296],[0.4040625000000001,-0.4746296296296296],[0.4105208333333332,-0.51],[0.4105208333333332,-0.51],[0.39729166666666677,-0.5355555555555556],[0.39729166666666677,-0.5355555555555556],[0.3732291666666666,-0.5472222222222223],[0.3732291666666666,-0.5472222222222223],[0.38166666666666677,-0.5275925925925925],[0.38166666666666677,-0.5275925925925925],[0.3681250000000001,-0.5177777777777778],[0.35208333333333336,-0.49981481481481477],[0.35208333333333336,-0.49981481481481477],[0.34427083333333336,-0.5187037037037038],[0.34427083333333336,-0.5187037037037038],[0.3359375,-0.4557407407407408],[0.309375,-0.4251851851851852],[0.309375,-0.4251851851851852],[0.29802083333333323,-0.38870370370370366],[0.2990624999999999,-0.3242592592592593],[0.2929166666666667,-0.2524074074074074],[0.30458333333333343,-0.19222222222222224],[0.3111458333333334,-0.13481481481481483],[0.3396874999999999,-0.06759259259259259],[0.35520833333333335,-0.0020370370370370794],[0.36593749999999997,0.06425925925925935],[0.3712500000000001,0.07907407407407416],[0.38343749999999993,0.08925925925925934],[0.39562499999999995,0.09944444444444453],[0.40572916666666664,0.10277777777777777],[0.4147916666666667,0.10796296296296289],[0.4097916666666668,0.10962962962962972],[0.41354166666666664,0.06500000000000004],[0.41729166666666656,0.020370370370370372],[0.42645833333333344,-0.024814814814814772],[0.4448958333333332,-0.05333333333333336],[0.4466666666666666,-0.07759259259259255],[0.4523958333333333,-0.08907407407407411],[0.47989583333333335,-0.09592592592592594],[0.4953125,-0.11074074074074076],[0.4926041666666668,-0.1425925925925926],[0.5032291666666666,-0.17185185185185187],[0.49197916666666663,-0.15925925925925927],[0.49239583333333337,-0.1425925925925926],[0.49187500000000006,-0.14333333333333328],[0.4881249999999999,-0.1507407407407407],[0.4775000000000001,-0.14777777777777779],[0.46687500000000004,-0.14481481481481479],[0.4201041666666666,-0.15203703703703708],[0.3709374999999999,-0.17092592592592595],[0.3233333333333334,-0.17833333333333334],[0.3233333333333334,-0.17833333333333334],[0.29020833333333323,-0.16740740740740737],[0.29489583333333325,-0.1485185185185185],[0.2994791666666667,-0.14148148148148143],[0.2838541666666667,-0.09296296296296294],[0.25666666666666677,-0.08518518518518518],[0.2682291666666667,-0.04740740740740745],[0.25447916666666665,-0.003703703703703704],[0.25510416666666674,0.0455555555555556],[0.2537499999999999,0.04388888888888897],[0.2682291666666667,0.06092592592592588],[0.2734375,0.06944444444444445],[0.2552083333333333,0.050370370370370454],[0.24187500000000003,0.0492592592592593],[0.22218749999999995,0.008333333333333333],[0.2228125000000001,0.019259259259259216],[0.20385416666666673,-0.026666666666666623],[0.2224999999999999,-0.08185185185185183],[0.2224999999999999,-0.08185185185185183],[0.24114583333333334,-0.13703703703703704],[0.25114583333333323,-0.12388888888888884],[0.2591666666666666,-0.1316666666666667],[0.25625,-0.1361111111111111],[0.24583333333333332,-0.13555555555555554],[0.23510416666666673,-0.09814814814814815],[0.23895833333333344,-0.0977777777777778],[0.23781249999999995,-0.08277777777777776],[0.2384375000000001,-0.06481481481481481],[0.24291666666666673,-0.053703703703703705],[0.21322916666666672,-0.03425925925925926],[0.19656250000000006,-0.020555555555555598],[0.2033333333333334,-0.011296296296296339],[0.22781250000000006,-0.013333333333333417],[0.23104166666666662,-0.003333333333333249],[0.2181250000000001,-0.040370370370370286],[0.19281249999999991,0.0016666666666666245],[0.1772916666666667,0.003333333333333249],[0.14958333333333323,-0.002777777777777778],[0.10572916666666667,0.0012962962962963806],[0.10343749999999995,0.007592592592592635],[0.10343749999999995,0.007592592592592635],[0.11520833333333323,0.0001851851851852273],[0.11520833333333323,0.0001851851851852273],[0.09572916666666677,0.008888888888888804],[0.09208333333333343,0.022222222222222223],[0.11052083333333323,0.022592592592592678],[0.12999999999999995,0.017407407407407365],[0.15822916666666675,-0.018888888888888972],[0.16885416666666658,-0.04222222222222214],[0.19427083333333334,-0.0485185185185186],[0.2087500000000001,-0.041666666666666664],[0.21583333333333338,-0.04537037037037037]]","[[-0.051979166666666646,0.4579629629629629,0.00040000000038276085],[-0.051979166666666646,0.4579629629629629,0.03859999999963293],[-0.051979166666666646,0.4579629629629629,0.04420000000112623],[-0.09166666666666666,0.3911111111111112,0.06090000000037321],[-0.06947916666666672,0.319074074074074,0.0775999999996344],[-0.07895833333333328,0.2577777777777779,0.09420000000112339],[-0.13416666666666663,0.18222222222222217,0.11130000000075313],[-0.15874999999999997,0.032037037037036954,0.12770000000112702],[-0.20208333333333334,-0.10611111111111113,0.14430000000075438],[-0.21593749999999995,-0.20092592592592592,0.16090000000038174],[-0.24562499999999995,-0.2959259259259259,0.1775000000000091],[-0.24208333333333332,-0.30481481481481487,0.1942000000011177],[-0.2476041666666667,-0.3059259259259259,0.21080000000074506],[-0.2561458333333333,-0.3359259259259259,0.2275999999996401],[-0.28500000000000003,-0.3446296296296297,0.24420000000112907],[-0.2821875,-0.3640740740740741,0.2608000000007564],[-0.2546875,-0.39537037037037037,0.2775000000000034],[-0.23937499999999995,-0.34444444444444444,0.2942000000011262],[-0.20447916666666663,-0.29962962962962963,0.3109000000003732],[-0.19729166666666664,-0.31574074074074077,0.3275999999996344],[-0.19885416666666664,-0.3022222222222222,0.3442000000011234],[-0.22447916666666667,-0.365925925925926,0.3609000000003846],[-0.24104166666666665,-0.4535185185185185,0.37750000000001194],[-0.23270833333333332,-0.4570370370370371,0.394400000000374],[-0.22145833333333337,-0.4594444444444445,0.41090000000038174],[-0.21343749999999997,-0.4537037037037037,0.42950000000000443],[-0.21541666666666662,-0.43425925925925923,0.4442000000011177],[-0.20510416666666664,-0.40777777777777774,0.46100000000001273],[-0.19666666666666663,-0.37648148148148153,0.47750000000000625],[-0.17114583333333327,-0.34981481481481475,0.49420000000112907],[-0.13645833333333332,-0.3244444444444444,0.5130999999996391],[-0.13645833333333332,-0.3244444444444444,0.5277000000011185],[-0.08364583333333328,-0.22870370370370371,0.5444000000003797],[-0.08364583333333328,-0.22870370370370371,0.5675999999996293],[-0.0704166666666667,-0.12370370370370372,0.5778000000007495],[-0.040625,-0.05870370370370368,0.5992000000011188],[-0.040625,-0.05870370370370368,0.6110000000000042],[-0.013750000000000047,0.005185185185185101,0.6275999999996316],[-0.013750000000000047,0.005185185185185101,0.6442000000011205],[0.011354166666666643,0.06777777777777783,0.6609000000003817],[0.0265625,0.10111111111111115,0.6775000000000091],[0.0265625,0.10111111111111115,0.6942000000011177],[0.04874999999999995,0.09814814814814815,0.7108000000007451],[0.04874999999999995,0.09814814814814815,0.7275999999996401],[0.04635416666666667,0.12722222222222232,0.7443000000007487],[0.04635416666666667,0.12722222222222232,0.760900000000376],[0.03166666666666664,0.1331481481481481,0.7775000000000034],[0.024791666666666618,0.15388888888888894,0.7979000000003822],[0.024791666666666618,0.15388888888888894,0.8108000000007536],[-0.002395833333333286,0.1427777777777778,0.8275000000000006],[-0.002395833333333286,0.1427777777777778,0.8442000000011234],[-0.011666666666666714,0.13333333333333333,0.8608000000007507],[-0.011666666666666714,0.13333333333333333,0.8775000000000119],[-0.04718749999999995,0.12685185185185185,0.8942000000011205],[-0.0640625,0.12740740740740733,0.9145000000000039],[-0.08812500000000002,0.08722222222222227,0.9295000000000044],[-0.10583333333333336,0.09148148148148144,0.9442000000011177],[-0.12697916666666664,0.13444444444444448,0.9608000000007451],[-0.13322916666666665,0.14092592592592595,0.9774000000003724],[-0.13552083333333337,0.18555555555555564,0.9942000000011291],[-0.13552083333333337,0.18555555555555564,1.010900000000376],[-0.1390625,0.19129629629629621,1.0275999999996372],[-0.16833333333333336,0.2051851851851851,1.0442000000011262],[-0.1727083333333333,0.19759259259259268,1.0609000000003732],[-0.16968749999999996,0.21222222222222226,1.08070000000113],[-0.18531249999999996,0.2198148148148149,1.0962000000011187],[-0.19031250000000005,0.2442592592592592,1.1109000000003846],[-0.19104166666666664,0.25018518518518523,1.127500000000012],[-0.2140625,0.2633333333333334,1.1440999999996393],[-0.22999999999999995,0.2772222222222223,1.160800000000748],[-0.2515625,0.26722222222222214,1.1775999999996287],[-0.2515625,0.26722222222222214,1.1964000000003807],[-0.23208333333333328,0.287962962962963,1.2113000000007474],[-0.1951041666666666,0.29814814814814816,1.2293000000007481],[-0.16687500000000005,0.3359259259259259,1.2473000000007488],[-0.14416666666666664,0.347037037037037,1.26100000000001],[-0.1252083333333334,0.362962962962963,1.2777000000011185],[-0.11260416666666669,0.377962962962963,1.2943000000007459],[-0.09750000000000002,0.3949999999999999,1.3108000000007536],[-0.052187500000000026,0.4209259259259258,1.3275000000000006],[0.00927083333333331,0.4361111111111111,1.3442000000011234],[0.07177083333333342,0.4359259259259259,1.3608000000007507],[0.058958333333333356,0.43555555555555564,1.377500000000012],[0.08687500000000009,0.44907407407407407,1.3942000000011205],[0.11479166666666671,0.4625925925925925,1.4109000000003817],[0.13427083333333342,0.46518518518518526,1.427500000000009],[0.13479166666666675,0.45555555555555555,1.4440999999996365],[0.16593749999999996,0.47129629629629627,1.460900000000379],[0.2009375000000001,0.4729629629629629,1.4775000000000063],[0.21479166666666671,0.4383333333333334,1.494200000001129],[0.19656250000000006,0.4053703703703703,1.510900000000376],[0.17489583333333342,0.39944444444444455,1.529700000001128],[0.20385416666666673,0.4083333333333333,1.5443000000007459],[0.19812500000000005,0.4046296296296296,1.5654000000003805],[0.19812500000000005,0.4046296296296296,1.5808000000007496],[0.19645833333333323,0.4022222222222223,1.5944000000003768],[0.20833333333333334,0.38370370370370377,1.6110000000000042],[0.2652083333333332,0.36148148148148157,1.6295000000000073],[0.2603125000000001,0.3461111111111111,1.6443000000007544],[0.22999999999999995,0.36314814814814816,1.663200000001126],[0.19968750000000005,0.3801851851851851,1.6775999999996287],[0.2196875000000001,0.40629629629629627,1.6967000000011296],[0.20458333333333342,0.39944444444444455,1.7110000000000127],[0.18697916666666667,0.38074074074074077,1.72759999999964],[0.16937499999999991,0.36203703703703705,1.7474000000003826],[0.16937499999999991,0.36203703703703705,1.76100000000001],[0.13354166666666673,0.33499999999999996,1.7778000000007523],[0.09583333333333334,0.3140740740740741,1.7965000000000089],[0.09583333333333334,0.3140740740740741,1.811000000000007],[0.06937499999999991,0.30703703703703694,1.8279000000003833],[0.04718749999999995,0.3162962962962962,1.8443000000007572],[0.050833333333333286,0.3022222222222223,1.8630999999996334],[0.04760416666666671,0.2609259259259259,1.8778000000007466],[0.03156249999999995,0.21481481481481482,1.8943000000007544],[0.050520833333333334,0.20685185185185193,1.9110000000000014],[0.04906250000000002,0.18944444444444436,1.9297000000011195],[0.035416666666666666,0.1933333333333333,1.9443000000007515],[0.0359375,0.20425925925925917,1.9610000000000127],[0.05645833333333338,0.23870370370370367,1.97759999999964],[0.028750000000000022,0.2264814814814814,1.9965999999996313],[0.03781249999999995,0.18555555555555564,2.0110999999996295],[0.04833333333333331,0.16500000000000004,2.0302000000011304],[0.06572916666666669,0.17166666666666675,2.0475999999996333],[0.04562499999999995,0.1685185185185185,2.0633000000007513],[0.024895833333333308,0.16203703703703703,2.078099999999637],[0.003541666666666643,0.14333333333333328,2.0943000000007572],[-0.005624999999999976,0.10333333333333325,2.1140000000000043],[-0.005624999999999976,0.10333333333333325,2.1275999999996316],[-0.00625,0.07185185185185176,2.1443000000007544],[-0.022500000000000023,0.01518518518518527,2.1609000000003817],[-0.02833333333333338,0.0005555555555554713,2.180599999999629],[-0.03239583333333336,0.0001851851851852273,2.1955999999996294],[-0.04781249999999997,-0.0235185185185186,2.210900000000379],[-0.058437500000000024,-0.040740740740740744,2.2275000000000063],[-0.05343749999999995,-0.056666666666666705,2.2469000000003803],[-0.043020833333333286,-0.07666666666666662,2.2610999999996295],[-0.027395833333333286,-0.10629629629629625,2.2775999999996372],[-0.0109375,-0.122037037037037,2.294300000000746],[-0.001979166666666643,-0.1359259259259259,2.3130999999996362],[0.0006250000000000236,-0.13296296296296298,2.3285000000000053],[0.0006250000000000236,-0.13296296296296298,2.344400000000377],[0.008229166666666643,-0.12166666666666665,2.3608000000007507],[0.033854166666666664,-0.13092592592592592,2.3815000000000026],[0.04572916666666664,-0.1366666666666667,2.39509999999963],[0.05281250000000005,-0.14888888888888885,2.4115999999996376],[0.06364583333333336,-0.1425925925925926,2.427700000001124],[0.06906249999999996,-0.13222222222222219,2.4442000000011177],[0.07302083333333324,-0.11962962962962967,2.460900000000379],[0.07614583333333323,-0.12092592592592595,2.4775000000000063],[0.09645833333333324,-0.13259259259259262,2.494200000001129],[0.09104166666666676,-0.14574074074074073,2.5108000000007564],[0.057187499999999974,-0.18129629629629626,2.5275000000000034],[0.057187499999999974,-0.18129629629629626,2.5440999999996308],[0.0015625,-0.21240740740740738,2.561300000000756],[0.0015625,-0.21240740740740738,2.5775000000000006],[-0.02822916666666669,-0.2309259259259259,2.5942000000011234],[-0.04093749999999995,-0.23481481481481484,2.6142000000011194],[-0.050520833333333334,-0.275,2.6295000000000073],[-0.060104166666666715,-0.3151851851851852,2.6442000000011205],[-0.050937499999999976,-0.3320370370370371,2.6609000000003817],[-0.04645833333333336,-0.3461111111111111,2.677500000000009],[-0.06906249999999996,-0.36444444444444446,2.6940999999996365],[-0.08791666666666664,-0.37907407407407406,2.710800000000745],[-0.08791666666666664,-0.37907407407407406,2.7275000000000063],[-0.07906249999999998,-0.37777777777777777,2.7443000000007487],[-0.07906249999999998,-0.37777777777777777,2.7608000000007564],[-0.05541666666666671,-0.3638888888888889,2.7775000000000034],[-0.05541666666666671,-0.3638888888888889,2.7942000000011262],[-0.04656250000000005,-0.3453703703703704,2.8108000000007536],[-0.04656250000000005,-0.3453703703703704,2.8275000000000006],[-0.04135416666666671,-0.37537037037037035,2.8442000000011234],[-0.02510416666666669,-0.33907407407407414,2.8609000000003846],[-0.02510416666666669,-0.33907407407407414,2.877500000000012],[-0.018124999999999978,-0.30925925925925923,2.8942000000011205],[-0.018124999999999978,-0.30925925925925923,2.9109000000003817],[-0.022083333333333382,-0.2783333333333334,2.9307000000011243],[-0.022083333333333382,-0.2783333333333334,2.9443000000007515],[-0.044479166666666715,-0.25574074074074077,2.9610000000000127],[-0.044479166666666715,-0.25574074074074077,2.97759999999964],[-0.0359375,-0.2051851851851852,2.997300000000749],[-0.0359375,-0.2051851851851852,3.01100000000001],[-0.02385416666666664,-0.10740740740740741,3.028000000000006],[0.005624999999999976,0.006851851851851936,3.048800000000753],[0.005624999999999976,0.006851851851851936,3.0608000000007536],[0.02166666666666662,0.03185185185185194,3.07770000000113],[0.02166666666666662,0.03185185185185194,3.098900000000384],[0.05447916666666662,0.028518518518518478,3.111000000000004],[0.06427083333333337,0.08555555555555563,3.129800000000756],[0.07447916666666667,0.10500000000000008,3.146599999999637],[0.10114583333333324,0.12092592592592584,3.1609000000003817],[0.10614583333333343,0.09962962962962954,3.1775999999996287],[0.13208333333333327,0.10111111111111115,3.1943000000007515],[0.12614583333333323,0.07074074074074083,3.213800000000745],[0.14520833333333344,0.03685185185185181,3.230000000000004],[0.146875,-0.013518518518518435,3.246700000001127],[0.1382291666666667,0.019259259259259216,3.268599999999637],[0.1382291666666667,0.019259259259259216,3.2865000000000038],[0.1352083333333333,0.03925925925925934,3.301599999999638],[0.1352083333333333,0.03925925925925934,3.310900000000373],[0.1412499999999999,0.016851851851851896,3.330400000000381],[0.1412499999999999,0.016851851851851896,3.3442000000011234],[0.15499999999999994,0.011111111111111112,3.3609000000003846],[0.1243750000000001,-0.009074074074074031,3.3797000000011224],[0.12458333333333324,0.03166666666666671,3.3943000000007544],[0.12458333333333324,0.03166666666666671,3.4110000000000014],[0.1319791666666667,0.032407407407407406,3.432400000000385],[0.1196875000000001,0.03851851851851843,3.447200000001118],[0.10729166666666666,0.0025925925925925505,3.4610999999996324],[0.0853125000000001,-0.027037037037037078,3.4777000000011213],[0.06916666666666677,-0.049629629629629544,3.4975000000000023],[0.052187500000000026,-0.04407407407407399,3.513300000000754],[0.03572916666666662,-0.022592592592592678,3.530099999999635],[0.004479166666666619,-0.016111111111111194,3.545800000000753],[0.005312500000000024,0.004814814814814857,3.5625],[0.005312500000000024,0.004814814814814857,3.57770000000113],[-0.003125,-0.021481481481481525,3.597500000000011],[-0.044270833333333336,0.009444444444444486,3.611000000000004],[-0.014687500000000023,0.05925925925925926,3.627700000001127],[-0.019687499999999976,0.07111111111111107,3.647700000001123],[0.009062500000000048,0.12018518518518514,3.660800000000748],[0.04093749999999995,0.1557407407407408,3.6775999999996287],[0.06364583333333336,0.16722222222222213,3.6943000000007515],[0.08604166666666657,0.15703703703703695,3.7128000000007546],[0.0875,0.1307407407407408,3.7275000000000063],[0.09406249999999995,0.11444444444444436,3.7444000000003825],[0.09145833333333328,0.10481481481481486,3.763400000000374],[0.09145833333333328,0.10481481481481486,3.7775999999996372],[0.1078125,0.08444444444444449,3.794300000000746],[0.1078125,0.08444444444444449,3.8130000000000024],[0.09031250000000005,0.0448148148148149,3.82770000000113],[0.13083333333333325,0.06611111111111119,3.844400000000377],[0.14718749999999994,0.04388888888888897,3.8640000000000043],[0.13479166666666675,-0.015555555555555513,3.8785000000000025],[0.11583333333333339,-0.05277777777777778,3.8943000000007544],[0.10250000000000009,-0.07777777777777778,3.9109000000003817],[0.10281250000000004,-0.09296296296296294,3.927500000000009],[0.08406250000000005,-0.11129629629629634,3.9440999999996365],[0.06364583333333336,-0.1175925925925926,3.960800000000745],[0.0734375,-0.13870370370370366,3.9774000000003724],[0.07197916666666657,-0.16870370370370374,3.9940999999996336],[0.04708333333333338,-0.22166666666666665,4.010800000000756],[0.03218749999999997,-0.2559259259259259,4.027500000000003],[0.03322916666666664,-0.26055555555555554,4.044099999999631],[0.057500000000000044,-0.26777777777777784,4.060800000000754],[0.06729166666666657,-0.24962962962962965,4.077400000000381],[0.0828125,-0.2242592592592593,4.094099999999628],[0.10791666666666658,-0.21500000000000005,4.110800000000751],[0.13708333333333325,-0.18574074074074076,4.127500000000012],[0.14479166666666668,-0.1653703703703704,4.144099999999639],[0.1546875,-0.14814814814814814,4.160800000000748],[0.16458333333333333,-0.13092592592592592,4.177400000000375],[0.1671875,-0.11925925925925922,4.194200000001118],[0.18125,-0.09185185185185189,4.210800000000745],[0.1640625,-0.0772222222222222,4.227500000000006],[0.1560416666666666,-0.07851851851851847,4.246200000001124],[0.13395833333333323,-0.08722222222222227,4.260900000000376],[0.13239583333333324,-0.08370370370370368,4.277599999999637],[0.1267708333333334,-0.10018518518518522,4.297200000001126],[0.11479166666666671,-0.13148148148148148,4.311599999999629],[0.09927083333333328,-0.15259259259259256,4.327599999999634],[0.09916666666666671,-0.15333333333333335,4.344300000000757],[0.09260416666666677,-0.17407407407407408,4.360800000000751],[0.10510416666666676,-0.19648148148148153,4.3779000000003805],[0.10437500000000005,-0.19796296296296292,4.394099999999639],[0.10499999999999995,-0.1933333333333333,4.410900000000382],[0.11791666666666671,-0.20611111111111113,4.429500000000004],[0.11979166666666667,-0.21185185185185182,4.4440999999996365],[0.11489583333333328,-0.19296296296296295,4.460800000000745],[0.11635416666666672,-0.15925925925925927,4.477500000000006],[0.13156249999999994,-0.12981481481481486,4.494099999999634],[0.1318749999999999,-0.1205555555555556,4.510800000000756],[0.14135416666666673,-0.12444444444444443,4.528000000000006],[0.13312499999999997,-0.13481481481481483,4.544200000001126],[0.14208333333333342,-0.15703703703703706,4.5625],[0.14208333333333342,-0.15703703703703706,4.577500000000001],[0.14968750000000006,-0.1853703703703704,4.594099999999628],[0.14812500000000003,-0.15055555555555558,4.61290000000038],[0.1259375000000001,-0.13444444444444448,4.627700000001127],[0.14354166666666662,-0.17166666666666663,4.647200000001121],[0.12833333333333338,-0.1801851851851852,4.663900000000382],[0.11083333333333342,-0.1955555555555556,4.678900000000382],[0.09666666666666662,-0.23203703703703707,4.694200000001118],[0.07999999999999995,-0.2338888888888889,4.710900000000379],[0.06479166666666672,-0.23444444444444448,4.733000000000004],[0.06177083333333329,-0.22962962962962963,4.747200000001129],[0.029791666666666692,-0.19592592592592595,4.760800000000756],[0.014479166666666644,-0.20611111111111113,4.777599999999637],[-0.021562500000000047,-0.10185185185185185,4.794099999999631],[-0.05520833333333333,0.04537037037037037,4.810800000000754],[-0.0829166666666667,0.14962962962962956,4.831400000000372],[-0.06687500000000005,0.16055555555555565,4.846700000001121],[-0.057187499999999974,0.1588888888888888,4.861099999999638],[-0.03843749999999998,0.1551851851851851,4.877599999999632],[-0.041979166666666616,0.11129629629629634,4.898400000000379],[-0.06666666666666667,0.09296296296296305,4.913499999999999],[-0.06666666666666667,0.09296296296296305,4.927599999999629],[-0.06354166666666666,0.10018518518518522,4.9443000000007515],[-0.06354166666666666,0.10018518518518522,4.9640999999996325],[-0.06052083333333336,0.06407407407407412,4.977400000000372],[-0.06052083333333336,0.06407407407407412,4.994099999999634],[-0.04739583333333333,-0.052222222222222205,5.010800000000756],[-0.06916666666666664,-0.17222222222222222,5.031700000001123],[-0.06916666666666664,-0.17222222222222222,5.044099999999631],[-0.03812500000000003,-0.2881481481481482,5.060800000000754],[-0.042604166666666644,-0.3074074074074074,5.081800000000754],[-0.042604166666666644,-0.3074074074074074,5.094099999999628],[-0.04458333333333329,-0.29314814814814816,5.110900000000385],[-0.04458333333333329,-0.29314814814814816,5.131099999999634],[-0.036562500000000026,-0.34500000000000003,5.144300000000754],[-0.036562500000000026,-0.34500000000000003,5.161000000000001],[-0.029062499999999977,-0.24296296296296294,5.177599999999629],[-0.029062499999999977,-0.24296296296296294,5.198800000000745],[-0.01906249999999995,-0.19888888888888884,5.211099999999632],[-0.01906249999999995,-0.19888888888888884,5.22759999999964],[-0.0046875,-0.20981481481481484,5.2492000000011245],[-0.0046875,-0.20981481481481484,5.2610999999996295],[0.024583333333333356,-0.1983333333333334,5.277599999999637],[0.024583333333333356,-0.1983333333333334,5.294099999999631],[0.0787499999999999,-0.21185185185185182,5.310800000000754],[0.0787499999999999,-0.21185185185185182,5.327500000000001],[0.14114583333333333,-0.19592592592592595,5.344200000001123],[0.14114583333333333,-0.19592592592592595,5.363900000000385],[0.1462500000000001,-0.20203703703703707,5.377599999999632],[0.1462500000000001,-0.20203703703703707,5.3942000000011205],[0.1508333333333333,-0.20999999999999996,5.415700000001124],[0.1508333333333333,-0.20999999999999996,5.427700000001124],[0.14958333333333323,-0.18796296296296297,5.4443000000007515],[0.14958333333333323,-0.18796296296296297,5.461000000000013],[0.12635416666666663,-0.11240740740740739,5.482200000001129],[0.14614583333333328,-0.15,5.497099999999634],[0.16520833333333323,-0.1618518518518518,5.514800000000747],[0.16520833333333323,-0.1618518518518518,5.527400000000384],[0.18541666666666667,-0.18407407407407403,5.546700000001124],[0.17468750000000005,-0.19648148148148153,5.564400000000376],[0.16927083333333334,-0.19000000000000003,5.581599999999639],[0.14249999999999996,-0.24129629629629631,5.596200000001119],[0.16375000000000003,-0.2094444444444445,5.610800000000751],[0.17177083333333343,-0.1675925925925926,5.627500000000012],[0.18562500000000004,-0.1557407407407408,5.644099999999639],[0.159375,-0.1588888888888889,5.660800000000748],[0.11145833333333334,-0.1638888888888889,5.677500000000009],[0.059895833333333336,-0.172037037037037,5.6965],[0.051770833333333384,-0.16111111111111112,5.711599999999635],[0.034375,-0.1544444444444444,5.7304000000003725],[0.018020833333333285,-0.15722222222222218,5.747500000000002],[0.015208333333333357,-0.1646296296296296,5.7610999999996295],[-0.004270833333333357,-0.22296296296296292,5.7777000000011185],[-0.025937499999999978,-0.2433333333333333,5.794200000001126],[-0.041875000000000044,-0.2735185185185185,5.813900000000373],[0.011562500000000024,-0.2633333333333333,5.83080000000075],[0.041666666666666664,-0.2524074074074074,5.846300000000753],[0.08666666666666671,-0.23074074074074077,5.860900000000385],[0.10645833333333338,-0.21203703703703702,5.877500000000012],[0.1271874999999999,-0.18074074074074079,5.8942000000011205],[0.15208333333333332,-0.1287037037037037,5.910800000000748],[0.17604166666666668,-0.05425925925925928,5.927400000000375],[0.18354166666666671,-0.018148148148148063,5.9440999999996365],[0.18499999999999991,-0.004814814814814857,5.960700000001125],[0.17552083333333332,0.019259259259259216,5.977400000000372],[0.1462500000000001,-0.0014814814814813973,5.994099999999634],[0.14031250000000003,-0.02296296296296292,6.010900000000376],[0.10739583333333323,-0.06407407407407412,6.0299000000003815],[0.051874999999999956,-0.11037037037037041,6.044300000000746],[0.04697916666666669,-0.1175925925925926,6.06070000000112],[0.03791666666666664,-0.1455555555555556,6.077400000000381],[-0.004062499999999977,-0.16870370370370374,6.094099999999628],[-0.011041666666666691,-0.17018518518518513,6.110700000001117],[-0.01906249999999995,-0.1838888888888889,6.127500000000012],[-0.028750000000000022,-0.19074074074074074,6.144099999999639],[-0.041458333333333285,-0.14333333333333328,6.160800000000748],[-0.05416666666666667,-0.09592592592592594,6.177500000000009],[-0.029166666666666667,-0.07833333333333335,6.1940999999996365],[-0.010312499999999976,-0.040740740740740744,6.210800000000745],[-0.033645833333333285,-0.05388888888888893,6.227500000000006],[-0.05697916666666671,-0.06703703703703702,6.244],[-0.04739583333333333,-0.08481481481481483,6.260800000000756],[-0.05166666666666669,-0.10407407407407405,6.277400000000384],[-0.06635416666666671,-0.12018518518518514,6.294099999999631],[-0.05270833333333336,-0.1455555555555556,6.310800000000754],[-0.06906249999999996,-0.2094444444444445,6.327400000000381],[-0.05239583333333329,-0.2524074074074074,6.344099999999628],[-0.06104166666666669,-0.2785185185185185,6.360700000001117],[-0.06270833333333338,-0.32537037037037037,6.377400000000378],[-0.09416666666666665,-0.35,6.3942000000011205],[-0.12562500000000001,-0.37462962962962965,6.410800000000748],[-0.15625,-0.4003703703703704,6.427500000000009],[-0.19156249999999997,-0.40796296296296297,6.444200000001118],[-0.1872916666666666,-0.40111111111111114,6.460800000000745],[-0.20625,-0.4,6.477400000000372],[-0.20125000000000004,-0.38796296296296295,6.494099999999634],[-0.22427083333333328,-0.40481481481481485,6.510800000000756],[-0.22947916666666662,-0.3912962962962963,6.527599999999637],[-0.2603125,-0.352962962962963,6.544099999999631],[-0.18395833333333336,-0.3074074074074074,6.560800000000754],[-0.10760416666666663,-0.26185185185185184,6.580300000000747],[-0.02520833333333338,-0.2346296296296296,6.594099999999628],[0.057187499999999974,-0.2074074074074074,6.610700000001117],[0.12885416666666671,-0.17833333333333334,6.627500000000012],[0.19010416666666666,-0.13148148148148148,6.644099999999639],[0.2678124999999999,-0.10592592592592591,6.660800000000748],[0.32270833333333326,-0.08666666666666668,6.677500000000009],[0.3688541666666666,-0.06870370370370374,6.6940999999996365],[0.44114583333333335,-0.05851851851851856,6.710800000000745],[0.4417708333333332,-0.0742592592592593,6.729400000000382],[0.44770833333333326,-0.0933333333333333,6.744099999999634],[0.4476041666666667,-0.08759259259259261,6.760800000000756],[0.44249999999999995,-0.0705555555555556,6.777400000000384],[0.43802083333333336,-0.0809259259259259,6.794099999999631],[0.4457291666666668,-0.10185185185185185,6.810800000000754],[0.43635416666666677,-0.11722222222222224,6.827599999999634],[0.45625,-0.12333333333333338,6.844099999999628],[0.4735416666666666,-0.11944444444444445,6.860700000001117],[0.4935416666666666,-0.11166666666666669,6.877400000000378],[0.5068749999999999,-0.11277777777777774,6.894099999999639],[0.5184375,-0.11740740740740736,6.910700000001128],[0.5317708333333333,-0.13499999999999995,6.933599999999629],[0.5317708333333333,-0.13499999999999995,6.950900000000374],[0.5497916666666666,-0.14592592592592596,6.96770000000113],[0.5497916666666666,-0.14592592592592596,6.977400000000372],[0.53125,-0.1412962962962963,6.994099999999634],[0.5415625000000001,-0.13962962962962958,7.013500000000008],[0.5463541666666667,-0.147037037037037,7.027400000000384],[0.5244791666666667,-0.12518518518518523,7.044099999999631],[0.5259375000000001,-0.13407407407407404,7.060800000000754],[0.49375,-0.1905555555555555,7.077400000000381],[0.46979166666666666,-0.19444444444444445,7.094200000001123],[0.44427083333333334,-0.2161111111111111,7.110800000000751],[0.41875,-0.21296296296296297,7.127400000000378],[0.4006249999999999,-0.23703703703703705,7.144099999999639],[0.4097916666666668,-0.24722222222222223,7.160800000000748],[0.3788541666666667,-0.2927777777777778,7.177400000000375],[0.34739583333333335,-0.2687037037037037,7.194000000000003],[0.3398958333333333,-0.27740740740740744,7.210700000001125],[0.31708333333333344,-0.2764814814814815,7.227400000000372],[0.32083333333333336,-0.24888888888888885,7.244099999999634],[0.3497916666666666,-0.2748148148148148,7.260700000001123],[0.37052083333333335,-0.27740740740740744,7.277500000000003],[0.36749999999999994,-0.3068518518518518,7.296900000000377],[0.35739583333333325,-0.32703703703703707,7.3120999999996315],[0.3615624999999999,-0.37351851851851847,7.331800000000754],[0.3615624999999999,-0.37351851851851847,7.344099999999628],[0.36749999999999994,-0.35555555555555557,7.360800000000751],[0.36749999999999994,-0.35555555555555557,7.377400000000378],[0.38562500000000005,-0.42000000000000004,7.394099999999639],[0.38562500000000005,-0.42000000000000004,7.410800000000748],[0.4023958333333333,-0.4516666666666666,7.427500000000009],[0.4023958333333333,-0.4516666666666666,7.444200000001118],[0.4040625000000001,-0.4746296296296296,7.460700000001125],[0.4040625000000001,-0.4746296296296296,7.477400000000372],[0.4105208333333332,-0.51,7.494099999999634],[0.4105208333333332,-0.51,7.510700000001123],[0.39729166666666677,-0.5355555555555556,7.527500000000003],[0.39729166666666677,-0.5355555555555556,7.544000000000011],[0.3732291666666666,-0.5472222222222223,7.560800000000754],[0.3732291666666666,-0.5472222222222223,7.577400000000381],[0.38166666666666677,-0.5275925925925925,7.594000000000008],[0.38166666666666677,-0.5275925925925925,7.610800000000751],[0.3681250000000001,-0.5177777777777778,7.627599999999632],[0.35208333333333336,-0.49981481481481477,7.6442000000011205],[0.35208333333333336,-0.49981481481481477,7.660800000000748],[0.34427083333333336,-0.5187037037037038,7.677400000000375],[0.34427083333333336,-0.5187037037037038,7.697099999999637],[0.3359375,-0.4557407407407408,7.711000000000013],[0.309375,-0.4251851851851852,7.731000000000009],[0.309375,-0.4251851851851852,7.744099999999634],[0.29802083333333323,-0.38870370370370366,7.760800000000756],[0.2990624999999999,-0.3242592592592593,7.779400000000379],[0.2929166666666667,-0.2524074074074074,7.794099999999631],[0.30458333333333343,-0.19222222222222224,7.813800000000754],[0.3111458333333334,-0.13481481481481483,7.827599999999634],[0.3396874999999999,-0.06759259259259259,7.844099999999628],[0.35520833333333335,-0.0020370370370370794,7.860800000000751],[0.36593749999999997,0.06425925925925935,7.877400000000378],[0.3712500000000001,0.07907407407407416,7.894099999999639],[0.38343749999999993,0.08925925925925934,7.910700000001128],[0.39562499999999995,0.09944444444444453,7.930500000000009],[0.40572916666666664,0.10277777777777777,7.9440999999996365],[0.4147916666666667,0.10796296296296289,7.960800000000745],[0.4097916666666668,0.10962962962962972,7.977400000000372],[0.41354166666666664,0.06500000000000004,7.994],[0.41729166666666656,0.020370370370370372,8.010800000000756],[0.42645833333333344,-0.024814814814814772,8.027500000000003],[0.4448958333333332,-0.05333333333333336,8.04409999999963],[0.4466666666666666,-0.07759259259259255,8.06070000000112],[0.4523958333333333,-0.08907407407407411,8.077400000000381],[0.47989583333333335,-0.09592592592592594,8.094000000000008],[0.4953125,-0.11074074074074076,8.11080000000075],[0.4926041666666668,-0.1425925925925926,8.127500000000012],[0.5032291666666666,-0.17185185185185187,8.14420000000112],[0.49197916666666663,-0.15925925925925927,8.160700000001128],[0.49239583333333337,-0.1425925925925926,8.177400000000375],[0.49187500000000006,-0.14333333333333328,8.194099999999636],[0.4881249999999999,-0.1507407407407407,8.210800000000745],[0.4775000000000001,-0.14777777777777779,8.227400000000372],[0.46687500000000004,-0.14481481481481479,8.246099999999629],[0.4201041666666666,-0.15203703703703708,8.26100000000001],[0.3709374999999999,-0.17092592592592595,8.277599999999637],[0.3233333333333334,-0.17833333333333334,8.294200000001126],[0.3233333333333334,-0.17833333333333334,8.312900000000383],[0.29020833333333323,-0.16740740740740737,8.327599999999634],[0.29489583333333325,-0.1485185185185185,8.344300000000757],[0.2994791666666667,-0.14148148148148143,8.36380000000075],[0.2838541666666667,-0.09296296296296294,8.379300000000754],[0.25666666666666677,-0.08518518518518518,8.39409999999964],[0.2682291666666667,-0.04740740740740745,8.412900000000377],[0.25447916666666665,-0.003703703703703704,8.427500000000009],[0.25510416666666674,0.0455555555555556,8.444099999999636],[0.2537499999999999,0.04388888888888897,8.460800000000745],[0.2682291666666667,0.06092592592592588,8.477400000000372],[0.2734375,0.06944444444444445,8.494099999999634],[0.2552083333333333,0.050370370370370454,8.510800000000756],[0.24187500000000003,0.0492592592592593,8.527400000000384],[0.22218749999999995,0.008333333333333333,8.54409999999963],[0.2228125000000001,0.019259259259259216,8.56070000000112],[0.20385416666666673,-0.026666666666666623,8.577400000000381],[0.2224999999999999,-0.08185185185185183,8.594000000000008],[0.2224999999999999,-0.08185185185185183,8.61080000000075],[0.24114583333333334,-0.13703703703703704,8.627500000000012],[0.25114583333333323,-0.12388888888888884,8.64409999999964],[0.2591666666666666,-0.1316666666666667,8.660800000000748],[0.25625,-0.1361111111111111,8.677300000000756],[0.24583333333333332,-0.13555555555555554,8.694099999999636],[0.23510416666666673,-0.09814814814814815,8.710800000000745],[0.23895833333333344,-0.0977777777777778,8.727400000000372],[0.23781249999999995,-0.08277777777777776,8.747800000000751],[0.2384375000000001,-0.06481481481481481,8.76109999999963],[0.24291666666666673,-0.053703703703703705,8.777400000000384],[0.21322916666666672,-0.03425925925925926,8.794000000000011],[0.19656250000000006,-0.020555555555555598,8.81070000000112],[0.2033333333333334,-0.011296296296296339,8.829800000000745],[0.22781250000000006,-0.013333333333333417,8.846800000000755],[0.23104166666666662,-0.003333333333333249,8.860900000000385],[0.2181250000000001,-0.040370370370370286,8.877599999999632],[0.19281249999999991,0.0016666666666666245,8.89420000000112],[0.1772916666666667,0.003333333333333249,8.91309999999963],[0.14958333333333323,-0.002777777777777778,8.927700000001124],[0.10572916666666667,0.0012962962962963806,8.944200000001118],[0.10343749999999995,0.007592592592592635,8.964099999999632],[0.10343749999999995,0.007592592592592635,8.977300000000753],[0.11520833333333323,0.0001851851851852273,8.994200000001129],[0.11520833333333323,0.0001851851851852273,9.010700000001123],[0.09572916666666677,0.008888888888888804,9.029900000000382],[0.09208333333333343,0.022222222222222223,9.04609999999964],[0.11052083333333323,0.022592592592592678,9.06070000000112],[0.12999999999999995,0.017407407407407365,9.07950000000001],[0.15822916666666675,-0.018888888888888972,9.094000000000008],[0.16885416666666658,-0.04222222222222214,9.110700000001117],[0.19427083333333334,-0.0485185185185186,9.129900000000376],[0.2087500000000001,-0.041666666666666664,9.14409999999964],[0.21583333333333338,-0.04537037037037037,9.160700000001128]]","[0.00040000000038276085,0.03859999999963293,0.04420000000112623,0.06090000000037321,0.0775999999996344,0.09420000000112339,0.11130000000075313,0.12770000000112702,0.14430000000075438,0.16090000000038174,0.1775000000000091,0.1942000000011177,0.21080000000074506,0.2275999999996401,0.24420000000112907,0.2608000000007564,0.2775000000000034,0.2942000000011262,0.3109000000003732,0.3275999999996344,0.3442000000011234,0.3609000000003846,0.37750000000001194,0.394400000000374,0.41090000000038174,0.42950000000000443,0.4442000000011177,0.46100000000001273,0.47750000000000625,0.49420000000112907,0.5130999999996391,0.5277000000011185,0.5444000000003797,0.5675999999996293,0.5778000000007495,0.5992000000011188,0.6110000000000042,0.6275999999996316,0.6442000000011205,0.6609000000003817,0.6775000000000091,0.6942000000011177,0.7108000000007451,0.7275999999996401,0.7443000000007487,0.760900000000376,0.7775000000000034,0.7979000000003822,0.8108000000007536,0.8275000000000006,0.8442000000011234,0.8608000000007507,0.8775000000000119,0.8942000000011205,0.9145000000000039,0.9295000000000044,0.9442000000011177,0.9608000000007451,0.9774000000003724,0.9942000000011291,1.010900000000376,1.0275999999996372,1.0442000000011262,1.0609000000003732,1.08070000000113,1.0962000000011187,1.1109000000003846,1.127500000000012,1.1440999999996393,1.160800000000748,1.1775999999996287,1.1964000000003807,1.2113000000007474,1.2293000000007481,1.2473000000007488,1.26100000000001,1.2777000000011185,1.2943000000007459,1.3108000000007536,1.3275000000000006,1.3442000000011234,1.3608000000007507,1.377500000000012,1.3942000000011205,1.4109000000003817,1.427500000000009,1.4440999999996365,1.460900000000379,1.4775000000000063,1.494200000001129,1.510900000000376,1.529700000001128,1.5443000000007459,1.5654000000003805,1.5808000000007496,1.5944000000003768,1.6110000000000042,1.6295000000000073,1.6443000000007544,1.663200000001126,1.6775999999996287,1.6967000000011296,1.7110000000000127,1.72759999999964,1.7474000000003826,1.76100000000001,1.7778000000007523,1.7965000000000089,1.811000000000007,1.8279000000003833,1.8443000000007572,1.8630999999996334,1.8778000000007466,1.8943000000007544,1.9110000000000014,1.9297000000011195,1.9443000000007515,1.9610000000000127,1.97759999999964,1.9965999999996313,2.0110999999996295,2.0302000000011304,2.0475999999996333,2.0633000000007513,2.078099999999637,2.0943000000007572,2.1140000000000043,2.1275999999996316,2.1443000000007544,2.1609000000003817,2.180599999999629,2.1955999999996294,2.210900000000379,2.2275000000000063,2.2469000000003803,2.2610999999996295,2.2775999999996372,2.294300000000746,2.3130999999996362,2.3285000000000053,2.344400000000377,2.3608000000007507,2.3815000000000026,2.39509999999963,2.4115999999996376,2.427700000001124,2.4442000000011177,2.460900000000379,2.4775000000000063,2.494200000001129,2.5108000000007564,2.5275000000000034,2.5440999999996308,2.561300000000756,2.5775000000000006,2.5942000000011234,2.6142000000011194,2.6295000000000073,2.6442000000011205,2.6609000000003817,2.677500000000009,2.6940999999996365,2.710800000000745,2.7275000000000063,2.7443000000007487,2.7608000000007564,2.7775000000000034,2.7942000000011262,2.8108000000007536,2.8275000000000006,2.8442000000011234,2.8609000000003846,2.877500000000012,2.8942000000011205,2.9109000000003817,2.9307000000011243,2.9443000000007515,2.9610000000000127,2.97759999999964,2.997300000000749,3.01100000000001,3.028000000000006,3.048800000000753,3.0608000000007536,3.07770000000113,3.098900000000384,3.111000000000004,3.129800000000756,3.146599999999637,3.1609000000003817,3.1775999999996287,3.1943000000007515,3.213800000000745,3.230000000000004,3.246700000001127,3.268599999999637,3.2865000000000038,3.301599999999638,3.310900000000373,3.330400000000381,3.3442000000011234,3.3609000000003846,3.3797000000011224,3.3943000000007544,3.4110000000000014,3.432400000000385,3.447200000001118,3.4610999999996324,3.4777000000011213,3.4975000000000023,3.513300000000754,3.530099999999635,3.545800000000753,3.5625,3.57770000000113,3.597500000000011,3.611000000000004,3.627700000001127,3.647700000001123,3.660800000000748,3.6775999999996287,3.6943000000007515,3.7128000000007546,3.7275000000000063,3.7444000000003825,3.763400000000374,3.7775999999996372,3.794300000000746,3.8130000000000024,3.82770000000113,3.844400000000377,3.8640000000000043,3.8785000000000025,3.8943000000007544,3.9109000000003817,3.927500000000009,3.9440999999996365,3.960800000000745,3.9774000000003724,3.9940999999996336,4.010800000000756,4.027500000000003,4.044099999999631,4.060800000000754,4.077400000000381,4.094099999999628,4.110800000000751,4.127500000000012,4.144099999999639,4.160800000000748,4.177400000000375,4.194200000001118,4.210800000000745,4.227500000000006,4.246200000001124,4.260900000000376,4.277599999999637,4.297200000001126,4.311599999999629,4.327599999999634,4.344300000000757,4.360800000000751,4.3779000000003805,4.394099999999639,4.410900000000382,4.429500000000004,4.4440999999996365,4.460800000000745,4.477500000000006,4.494099999999634,4.510800000000756,4.528000000000006,4.544200000001126,4.5625,4.577500000000001,4.594099999999628,4.61290000000038,4.627700000001127,4.647200000001121,4.663900000000382,4.678900000000382,4.694200000001118,4.710900000000379,4.733000000000004,4.747200000001129,4.760800000000756,4.777599999999637,4.794099999999631,4.810800000000754,4.831400000000372,4.846700000001121,4.861099999999638,4.877599999999632,4.898400000000379,4.913499999999999,4.927599999999629,4.9443000000007515,4.9640999999996325,4.977400000000372,4.994099999999634,5.010800000000756,5.031700000001123,5.044099999999631,5.060800000000754,5.081800000000754,5.094099999999628,5.110900000000385,5.131099999999634,5.144300000000754,5.161000000000001,5.177599999999629,5.198800000000745,5.211099999999632,5.22759999999964,5.2492000000011245,5.2610999999996295,5.277599999999637,5.294099999999631,5.310800000000754,5.327500000000001,5.344200000001123,5.363900000000385,5.377599999999632,5.3942000000011205,5.415700000001124,5.427700000001124,5.4443000000007515,5.461000000000013,5.482200000001129,5.497099999999634,5.514800000000747,5.527400000000384,5.546700000001124,5.564400000000376,5.581599999999639,5.596200000001119,5.610800000000751,5.627500000000012,5.644099999999639,5.660800000000748,5.677500000000009,5.6965,5.711599999999635,5.7304000000003725,5.747500000000002,5.7610999999996295,5.7777000000011185,5.794200000001126,5.813900000000373,5.83080000000075,5.846300000000753,5.860900000000385,5.877500000000012,5.8942000000011205,5.910800000000748,5.927400000000375,5.9440999999996365,5.960700000001125,5.977400000000372,5.994099999999634,6.010900000000376,6.0299000000003815,6.044300000000746,6.06070000000112,6.077400000000381,6.094099999999628,6.110700000001117,6.127500000000012,6.144099999999639,6.160800000000748,6.177500000000009,6.1940999999996365,6.210800000000745,6.227500000000006,6.244,6.260800000000756,6.277400000000384,6.294099999999631,6.310800000000754,6.327400000000381,6.344099999999628,6.360700000001117,6.377400000000378,6.3942000000011205,6.410800000000748,6.427500000000009,6.444200000001118,6.460800000000745,6.477400000000372,6.494099999999634,6.510800000000756,6.527599999999637,6.544099999999631,6.560800000000754,6.580300000000747,6.594099999999628,6.610700000001117,6.627500000000012,6.644099999999639,6.660800000000748,6.677500000000009,6.6940999999996365,6.710800000000745,6.729400000000382,6.744099999999634,6.760800000000756,6.777400000000384,6.794099999999631,6.810800000000754,6.827599999999634,6.844099999999628,6.860700000001117,6.877400000000378,6.894099999999639,6.910700000001128,6.933599999999629,6.950900000000374,6.96770000000113,6.977400000000372,6.994099999999634,7.013500000000008,7.027400000000384,7.044099999999631,7.060800000000754,7.077400000000381,7.094200000001123,7.110800000000751,7.127400000000378,7.144099999999639,7.160800000000748,7.177400000000375,7.194000000000003,7.210700000001125,7.227400000000372,7.244099999999634,7.260700000001123,7.277500000000003,7.296900000000377,7.3120999999996315,7.331800000000754,7.344099999999628,7.360800000000751,7.377400000000378,7.394099999999639,7.410800000000748,7.427500000000009,7.444200000001118,7.460700000001125,7.477400000000372,7.494099999999634,7.510700000001123,7.527500000000003,7.544000000000011,7.560800000000754,7.577400000000381,7.594000000000008,7.610800000000751,7.627599999999632,7.6442000000011205,7.660800000000748,7.677400000000375,7.697099999999637,7.711000000000013,7.731000000000009,7.744099999999634,7.760800000000756,7.779400000000379,7.794099999999631,7.813800000000754,7.827599999999634,7.844099999999628,7.860800000000751,7.877400000000378,7.894099999999639,7.910700000001128,7.930500000000009,7.9440999999996365,7.960800000000745,7.977400000000372,7.994,8.010800000000756,8.027500000000003,8.04409999999963,8.06070000000112,8.077400000000381,8.094000000000008,8.11080000000075,8.127500000000012,8.14420000000112,8.160700000001128,8.177400000000375,8.194099999999636,8.210800000000745,8.227400000000372,8.246099999999629,8.26100000000001,8.277599999999637,8.294200000001126,8.312900000000383,8.327599999999634,8.344300000000757,8.36380000000075,8.379300000000754,8.39409999999964,8.412900000000377,8.427500000000009,8.444099999999636,8.460800000000745,8.477400000000372,8.494099999999634,8.510800000000756,8.527400000000384,8.54409999999963,8.56070000000112,8.577400000000381,8.594000000000008,8.61080000000075,8.627500000000012,8.64409999999964,8.660800000000748,8.677300000000756,8.694099999999636,8.710800000000745,8.727400000000372,8.747800000000751,8.76109999999963,8.777400000000384,8.794000000000011,8.81070000000112,8.829800000000745,8.846800000000755,8.860900000000385,8.877599999999632,8.89420000000112,8.91309999999963,8.927700000001124,8.944200000001118,8.964099999999632,8.977300000000753,8.994200000001129,9.010700000001123,9.029900000000382,9.04609999999964,9.06070000000112,9.07950000000001,9.094000000000008,9.110700000001117,9.129900000000376,9.14409999999964,9.160700000001128]","[1733120179500,1733120179531,1733120179537,1733120179553,1733120179570,1733120179587,1733120179604,1733120179620,1733120179637,1733120179653,1733120179670,1733120179687,1733120179703,1733120179720,1733120179737,1733120179753,1733120179770,1733120179787,1733120179803,1733120179820,1733120179837,1733120179853,1733120179870,1733120179887,1733120179903,1733120179922,1733120179937,1733120179953,1733120179970,1733120179987,1733120180006,1733120180020,1733120180037,1733120180060,1733120180070,1733120180092,1733120180103,1733120180120,1733120180137,1733120180153,1733120180170,1733120180187,1733120180203,1733120180220,1733120180237,1733120180253,1733120180270,1733120180290,1733120180303,1733120180320,1733120180337,1733120180353,1733120180370,1733120180387,1733120180407,1733120180422,1733120180437,1733120180453,1733120180470,1733120180487,1733120180503,1733120180520,1733120180537,1733120180553,1733120180573,1733120180589,1733120180603,1733120180620,1733120180637,1733120180653,1733120180670,1733120180689,1733120180704,1733120180722,1733120180740,1733120180753,1733120180770,1733120180787,1733120180803,1733120180820,1733120180837,1733120180853,1733120180870,1733120180887,1733120180903,1733120180920,1733120180937,1733120180953,1733120180970,1733120180987,1733120181003,1733120181022,1733120181037,1733120181058,1733120181073,1733120181087,1733120181103,1733120181122,1733120181137,1733120181156,1733120181170,1733120181189,1733120181203,1733120181220,1733120181240,1733120181253,1733120181270,1733120181289,1733120181303,1733120181320,1733120181337,1733120181356,1733120181370,1733120181387,1733120181403,1733120181422,1733120181437,1733120181453,1733120181470,1733120181489,1733120181504,1733120181523,1733120181540,1733120181556,1733120181571,1733120181587,1733120181606,1733120181620,1733120181637,1733120181653,1733120181673,1733120181688,1733120181703,1733120181720,1733120181739,1733120181753,1733120181770,1733120181787,1733120181806,1733120181821,1733120181837,1733120181853,1733120181874,1733120181888,1733120181904,1733120181920,1733120181937,1733120181953,1733120181970,1733120181987,1733120182003,1733120182020,1733120182037,1733120182054,1733120182070,1733120182087,1733120182107,1733120182122,1733120182137,1733120182153,1733120182170,1733120182187,1733120182203,1733120182220,1733120182237,1733120182253,1733120182270,1733120182287,1733120182303,1733120182320,1733120182337,1733120182353,1733120182370,1733120182387,1733120182403,1733120182423,1733120182437,1733120182453,1733120182470,1733120182490,1733120182503,1733120182520,1733120182541,1733120182553,1733120182570,1733120182591,1733120182604,1733120182622,1733120182639,1733120182653,1733120182670,1733120182687,1733120182706,1733120182722,1733120182739,1733120182761,1733120182779,1733120182794,1733120182803,1733120182823,1733120182837,1733120182853,1733120182872,1733120182887,1733120182903,1733120182925,1733120182940,1733120182954,1733120182970,1733120182990,1733120183006,1733120183023,1733120183038,1733120183055,1733120183070,1733120183090,1733120183103,1733120183120,1733120183140,1733120183153,1733120183170,1733120183187,1733120183205,1733120183220,1733120183237,1733120183256,1733120183270,1733120183287,1733120183305,1733120183320,1733120183337,1733120183356,1733120183371,1733120183387,1733120183403,1733120183420,1733120183437,1733120183453,1733120183470,1733120183487,1733120183503,1733120183520,1733120183537,1733120183553,1733120183570,1733120183587,1733120183603,1733120183620,1733120183637,1733120183653,1733120183670,1733120183687,1733120183703,1733120183720,1733120183739,1733120183753,1733120183770,1733120183790,1733120183804,1733120183820,1733120183837,1733120183853,1733120183870,1733120183887,1733120183903,1733120183922,1733120183937,1733120183953,1733120183970,1733120183987,1733120184003,1733120184020,1733120184037,1733120184055,1733120184070,1733120184087,1733120184105,1733120184120,1733120184140,1733120184156,1733120184171,1733120184187,1733120184203,1733120184225,1733120184240,1733120184253,1733120184270,1733120184287,1733120184303,1733120184324,1733120184339,1733120184353,1733120184370,1733120184391,1733120184406,1733120184420,1733120184437,1733120184457,1733120184470,1733120184487,1733120184503,1733120184524,1733120184537,1733120184553,1733120184574,1733120184587,1733120184603,1733120184624,1733120184637,1733120184654,1733120184670,1733120184691,1733120184703,1733120184720,1733120184742,1733120184753,1733120184770,1733120184787,1733120184803,1733120184820,1733120184837,1733120184856,1733120184870,1733120184887,1733120184908,1733120184920,1733120184937,1733120184953,1733120184975,1733120184990,1733120185007,1733120185020,1733120185039,1733120185057,1733120185074,1733120185089,1733120185103,1733120185120,1733120185137,1733120185153,1733120185170,1733120185189,1733120185204,1733120185223,1733120185240,1733120185254,1733120185270,1733120185287,1733120185306,1733120185323,1733120185339,1733120185353,1733120185370,1733120185387,1733120185403,1733120185420,1733120185437,1733120185453,1733120185470,1733120185487,1733120185503,1733120185522,1733120185537,1733120185553,1733120185570,1733120185587,1733120185603,1733120185620,1733120185637,1733120185653,1733120185670,1733120185687,1733120185703,1733120185720,1733120185737,1733120185753,1733120185770,1733120185787,1733120185803,1733120185820,1733120185837,1733120185853,1733120185870,1733120185887,1733120185903,1733120185920,1733120185937,1733120185953,1733120185970,1733120185987,1733120186003,1733120186020,1733120186037,1733120186053,1733120186073,1733120186087,1733120186103,1733120186120,1733120186137,1733120186153,1733120186170,1733120186187,1733120186203,1733120186222,1733120186237,1733120186253,1733120186270,1733120186287,1733120186303,1733120186320,1733120186337,1733120186353,1733120186370,1733120186387,1733120186403,1733120186426,1733120186443,1733120186460,1733120186470,1733120186486,1733120186506,1733120186520,1733120186537,1733120186553,1733120186570,1733120186587,1733120186603,1733120186620,1733120186637,1733120186653,1733120186670,1733120186686,1733120186703,1733120186720,1733120186736,1733120186753,1733120186770,1733120186789,1733120186805,1733120186824,1733120186837,1733120186853,1733120186870,1733120186887,1733120186903,1733120186920,1733120186937,1733120186953,1733120186970,1733120186987,1733120187003,1733120187020,1733120187037,1733120187053,1733120187070,1733120187086,1733120187103,1733120187120,1733120187137,1733120187153,1733120187170,1733120187189,1733120187204,1733120187223,1733120187237,1733120187253,1733120187272,1733120187287,1733120187306,1733120187320,1733120187337,1733120187353,1733120187370,1733120187386,1733120187403,1733120187423,1733120187437,1733120187453,1733120187470,1733120187486,1733120187503,1733120187520,1733120187537,1733120187553,1733120187570,1733120187587,1733120187603,1733120187620,1733120187637,1733120187653,1733120187670,1733120187686,1733120187703,1733120187720,1733120187739,1733120187753,1733120187770,1733120187787,1733120187805,1733120187820,1733120187837,1733120187856,1733120187872,1733120187886,1733120187905,1733120187920,1733120187936,1733120187953,1733120187970,1733120187987,1733120188003,1733120188020,1733120188037,1733120188053,1733120188070,1733120188086,1733120188103,1733120188120,1733120188136,1733120188153,1733120188170,1733120188187,1733120188203,1733120188220,1733120188240,1733120188254,1733120188270,1733120188287,1733120188303,1733120188322,1733120188339,1733120188353,1733120188370,1733120188387,1733120188405,1733120188420,1733120188437,1733120188456,1733120188470,1733120188487,1733120188503,1733120188522,1733120188538,1733120188553,1733120188572,1733120188586,1733120188603,1733120188622,1733120188637,1733120188653]","[[910.1,787.3],[910.1,787.3],[910.1,787.3],[872,751.2],[893.3,712.3],[884.2,679.2],[831.2,638.4],[807.6,557.3],[766,482.7],[752.7,431.5],[724.2,380.2],[727.6,375.4],[722.3,374.8],[714.1,358.6],[686.4,353.9],[689.1,343.4],[715.5,326.5],[730.2,354],[763.7,378.2],[770.6,369.5],[769.1,376.8],[744.5,342.4],[728.6,295.1],[736.6,293.2],[747.4,291.9],[755.1,295],[753.2,305.5],[763.1,319.8],[771.2,336.7],[795.7,351.1],[829,364.8],[829,364.8],[879.7,416.5],[879.7,416.5],[892.4,473.2],[921,508.3],[921,508.3],[946.8,542.8],[946.8,542.8],[970.9,576.6],[985.5,594.6],[985.5,594.6],[1006.8,593],[1006.8,593],[1004.5,608.7],[1004.5,608.7],[990.4,611.9],[983.8,623.1],[983.8,623.1],[957.7,617.1],[957.7,617.1],[948.8,612],[948.8,612],[914.7,608.5],[898.5,608.8],[875.4,5